"rt","time_elapsed","expId","subject","prolificID","trialType","stimulus","key_press","corrresp","phase","corr","trialNum","attentionRunNum","blockNum","points","rlNum"
"2272.9000000953674","2304","pSARL_v2","pSARL_v2219lmpwd","60ecb502739c4b998218da12","","","","","","","","","","",""
"","5269","pSARL_v2","pSARL_v2219lmpwd","60ecb502739c4b998218da12","fullscreen","","","","","","","","","",""
"44984.39999985695","50275","pSARL_v2","pSARL_v2219lmpwd","60ecb502739c4b998218da12","","","","","","","","","","",""
"null","51111","pSARL_v2","pSARL_v2219lmpwd","60ecb502739c4b998218da12","freqPrac","img/orange_2bandit_b2.png","null","70","prac","0","","","","",""
"null","52154","pSARL_v2","pSARL_v2219lmpwd","60ecb502739c4b998218da12","feedback","img/tooSlow.png","null","na","prac","","","","","",""
"null","52328","pSARL_v2","pSARL_v2219lmpwd","60ecb502739c4b998218da12","fixation","img/fixation.png","null","","prac","","","","","",""
"614.1000001430511","52962","pSARL_v2","pSARL_v2219lmpwd","60ecb502739c4b998218da12","infreqPrac","img/green_2bandit_b2.png","68","68","prac","1","","","","",""
"614.1000001430511","53173","pSARL_v2","pSARL_v2219lmpwd","60ecb502739c4b998218da12","infreqPrac_resp","img/green_2bandit_b.png","68","68","prac","","","","","",""
"null","53360","pSARL_v2","pSARL_v2219lmpwd","60ecb502739c4b998218da12","fixation","img/fixation.png","null","","prac","","","","","",""
"550.0999999046326","53929","pSARL_v2","pSARL_v2219lmpwd","60ecb502739c4b998218da12","freqPrac","img/orange_2bandit_b2.png","70","70","prac","1","","","","",""
"550.0999999046326","54202","pSARL_v2","pSARL_v2219lmpwd","60ecb502739c4b998218da12","freqPrac_resp","img/orange_2bandit_b.png","70","70","prac","","","","","",""
"null","54373","pSARL_v2","pSARL_v2219lmpwd","60ecb502739c4b998218da12","fixation","img/fixation.png","null","","prac","","","","","",""
"455.2999999523163","54857","pSARL_v2","pSARL_v2219lmpwd","60ecb502739c4b998218da12","infreqPrac","img/green_2bandit_b2.png","68","68","prac","1","","","","",""
"455.2999999523163","55230","pSARL_v2","pSARL_v2219lmpwd","60ecb502739c4b998218da12","infreqPrac_resp","img/green_2bandit_b.png","68","68","prac","","","","","",""
"null","55411","pSARL_v2","pSARL_v2219lmpwd","60ecb502739c4b998218da12","fixation","img/fixation.png","null","","prac","","","","","",""
"409.19999980926514","55848","pSARL_v2","pSARL_v2219lmpwd","60ecb502739c4b998218da12","infreqPrac","img/green_2bandit_b2.png","68","68","prac","1","","","","",""
"409.19999980926514","56271","pSARL_v2","pSARL_v2219lmpwd","60ecb502739c4b998218da12","infreqPrac_resp","img/green_2bandit_b.png","68","68","prac","","","","","",""
"null","56456","pSARL_v2","pSARL_v2219lmpwd","60ecb502739c4b998218da12","fixation","img/fixation.png","null","","prac","","","","","",""
"351.7999999523163","56837","pSARL_v2","pSARL_v2219lmpwd","60ecb502739c4b998218da12","infreqPrac","img/green_2bandit_b2.png","68","68","prac","1","","","","",""
"351.7999999523163","57315","pSARL_v2","pSARL_v2219lmpwd","60ecb502739c4b998218da12","infreqPrac_resp","img/green_2bandit_b.png","68","68","prac","","","","","",""
"null","57483","pSARL_v2","pSARL_v2219lmpwd","60ecb502739c4b998218da12","fixation","img/fixation.png","null","","prac","","","","","",""
"399.5","57904","pSARL_v2","pSARL_v2219lmpwd","60ecb502739c4b998218da12","freqPrac","img/orange_2bandit_b2.png","70","70","prac","1","","","","",""
"399.5","58335","pSARL_v2","pSARL_v2219lmpwd","60ecb502739c4b998218da12","freqPrac_resp","img/orange_2bandit_b.png","70","70","prac","","","","","",""
"null","58519","pSARL_v2","pSARL_v2219lmpwd","60ecb502739c4b998218da12","fixation","img/fixation.png","null","","prac","","","","","",""
"484.19999980926514","59022","pSARL_v2","pSARL_v2219lmpwd","60ecb502739c4b998218da12","infreqPrac","img/green_2bandit_b2.png","68","68","prac","1","","","","",""
"484.19999980926514","59363","pSARL_v2","pSARL_v2219lmpwd","60ecb502739c4b998218da12","infreqPrac_resp","img/green_2bandit_b.png","68","68","prac","","","","","",""
"null","59541","pSARL_v2","pSARL_v2219lmpwd","60ecb502739c4b998218da12","fixation","img/fixation.png","null","","prac","","","","","",""
"414.60000014305115","59978","pSARL_v2","pSARL_v2219lmpwd","60ecb502739c4b998218da12","freqPrac","img/orange_2bandit_b2.png","70","70","prac","1","","","","",""
"414.60000014305115","60398","pSARL_v2","pSARL_v2219lmpwd","60ecb502739c4b998218da12","freqPrac_resp","img/orange_2bandit_b.png","70","70","prac","","","","","",""
"null","60585","pSARL_v2","pSARL_v2219lmpwd","60ecb502739c4b998218da12","fixation","img/fixation.png","null","","prac","","","","","",""
"417.7000000476837","61022","pSARL_v2","pSARL_v2219lmpwd","60ecb502739c4b998218da12","freqPrac","img/orange_2bandit_b2.png","70","70","prac","1","","","","",""
"417.7000000476837","61432","pSARL_v2","pSARL_v2219lmpwd","60ecb502739c4b998218da12","freqPrac_resp","img/orange_2bandit_b.png","70","70","prac","","","","","",""
"null","61613","pSARL_v2","pSARL_v2219lmpwd","60ecb502739c4b998218da12","fixation","img/fixation.png","null","","prac","","","","","",""
"13641.799999952316","75286","pSARL_v2","pSARL_v2219lmpwd","60ecb502739c4b998218da12","","","","","prac","","","","","",""
"922.7000000476837","76241","pSARL_v2","pSARL_v2219lmpwd","60ecb502739c4b998218da12","rewardPractice","img/slot.png","74","","prac","","","","","",""
"null","77028","pSARL_v2","pSARL_v2219lmpwd","60ecb502739c4b998218da12","feedback","<div class=""veryhighPoints""> +15 </div>","null","na","prac","","","","","",""
"null","77219","pSARL_v2","pSARL_v2219lmpwd","60ecb502739c4b998218da12","fixation","img/fixation.png","null","","prac","","","","","",""
"10078.700000047684","87326","pSARL_v2","pSARL_v2219lmpwd","60ecb502739c4b998218da12","","","","","prac","","","","","",""
"683","88040","pSARL_v2","pSARL_v2219lmpwd","60ecb502739c4b998218da12","freq","img/orange_2bandit_b2.png","70","70","test","1","1","1","1","",""
"null","88195","pSARL_v2","pSARL_v2219lmpwd","60ecb502739c4b998218da12","freq_resp","img/orange_2bandit_b.png","70","70","test","","","","1","",""
"null","88381","pSARL_v2","pSARL_v2219lmpwd","60ecb502739c4b998218da12","fixation","img/fixation.png","null","","test","","","","","",""
"405.19999980926514","88816","pSARL_v2","pSARL_v2219lmpwd","60ecb502739c4b998218da12","freq","img/orange_2bandit_b2.png","70","70","test","1","2","2","1","",""
"null","89246","pSARL_v2","pSARL_v2219lmpwd","60ecb502739c4b998218da12","freq_resp","img/orange_2bandit_b.png","70","70","test","","","","1","",""
"null","89430","pSARL_v2","pSARL_v2219lmpwd","60ecb502739c4b998218da12","fixation","img/fixation.png","null","","test","","","","","",""
"419.7000000476837","89880","pSARL_v2","pSARL_v2219lmpwd","60ecb502739c4b998218da12","freq","img/orange_2bandit_b2.png","70","70","test","1","3","3","1","",""
"null","90305","pSARL_v2","pSARL_v2219lmpwd","60ecb502739c4b998218da12","freq_resp","img/orange_2bandit_b.png","70","70","test","","","","1","",""
"null","90496","pSARL_v2","pSARL_v2219lmpwd","60ecb502739c4b998218da12","fixation","img/fixation.png","null","","test","","","","","",""
"368.5","90896","pSARL_v2","pSARL_v2219lmpwd","60ecb502739c4b998218da12","freq","img/orange_2bandit_b2.png","70","70","test","1","4","4","1","",""
"null","91364","pSARL_v2","pSARL_v2219lmpwd","60ecb502739c4b998218da12","freq_resp","img/orange_2bandit_b.png","70","70","test","","","","1","",""
"null","91547","pSARL_v2","pSARL_v2219lmpwd","60ecb502739c4b998218da12","fixation","img/fixation.png","null","","test","","","","","",""
"349.40000009536743","91925","pSARL_v2","pSARL_v2219lmpwd","60ecb502739c4b998218da12","freq","img/orange_2bandit_b2.png","70","70","test","1","5","5","1","",""
"null","92404","pSARL_v2","pSARL_v2219lmpwd","60ecb502739c4b998218da12","freq_resp","img/orange_2bandit_b.png","70","70","test","","","","1","",""
"null","92582","pSARL_v2","pSARL_v2219lmpwd","60ecb502739c4b998218da12","fixation","img/fixation.png","null","","test","","","","","",""
"354.5","92956","pSARL_v2","pSARL_v2219lmpwd","60ecb502739c4b998218da12","freq","img/orange_2bandit_b2.png","70","70","test","1","6","6","1","",""
"null","93427","pSARL_v2","pSARL_v2219lmpwd","60ecb502739c4b998218da12","freq_resp","img/orange_2bandit_b.png","70","70","test","","","","1","",""
"null","93610","pSARL_v2","pSARL_v2219lmpwd","60ecb502739c4b998218da12","fixation","img/fixation.png","null","","test","","","","","",""
"378.2000000476837","94009","pSARL_v2","pSARL_v2219lmpwd","60ecb502739c4b998218da12","freq","img/orange_2bandit_b2.png","70","70","test","1","7","7","1","",""
"null","94460","pSARL_v2","pSARL_v2219lmpwd","60ecb502739c4b998218da12","freq_resp","img/orange_2bandit_b.png","70","70","test","","","","1","",""
"null","94629","pSARL_v2","pSARL_v2219lmpwd","60ecb502739c4b998218da12","fixation","img/fixation.png","null","","test","","","","","",""
"363.2999999523163","95011","pSARL_v2","pSARL_v2219lmpwd","60ecb502739c4b998218da12","freq","img/orange_2bandit_b2.png","70","70","test","1","8","8","1","",""
"null","95476","pSARL_v2","pSARL_v2219lmpwd","60ecb502739c4b998218da12","freq_resp","img/orange_2bandit_b.png","70","70","test","","","","1","",""
"null","95661","pSARL_v2","pSARL_v2219lmpwd","60ecb502739c4b998218da12","fixation","img/fixation.png","null","","test","","","","","",""
"298.90000009536743","95978","pSARL_v2","pSARL_v2219lmpwd","60ecb502739c4b998218da12","freq","img/orange_2bandit_b2.png","70","70","test","1","9","9","1","",""
"null","96504","pSARL_v2","pSARL_v2219lmpwd","60ecb502739c4b998218da12","freq_resp","img/orange_2bandit_b.png","70","70","test","","","","1","",""
"null","96675","pSARL_v2","pSARL_v2219lmpwd","60ecb502739c4b998218da12","fixation","img/fixation.png","null","","test","","","","","",""
"317.2000000476837","97012","pSARL_v2","pSARL_v2219lmpwd","60ecb502739c4b998218da12","freq","img/orange_2bandit_b2.png","70","70","test","1","10","10","1","",""
"null","97529","pSARL_v2","pSARL_v2219lmpwd","60ecb502739c4b998218da12","freq_resp","img/orange_2bandit_b.png","70","70","test","","","","1","",""
"null","97725","pSARL_v2","pSARL_v2219lmpwd","60ecb502739c4b998218da12","fixation","img/fixation.png","null","","test","","","","","",""
"324.2999999523163","98073","pSARL_v2","pSARL_v2219lmpwd","60ecb502739c4b998218da12","freq","img/orange_2bandit_b2.png","70","70","test","1","11","11","1","",""
"null","98582","pSARL_v2","pSARL_v2219lmpwd","60ecb502739c4b998218da12","freq_resp","img/orange_2bandit_b.png","70","70","test","","","","1","",""
"null","98761","pSARL_v2","pSARL_v2219lmpwd","60ecb502739c4b998218da12","fixation","img/fixation.png","null","","test","","","","","",""
"318.30000019073486","99108","pSARL_v2","pSARL_v2219lmpwd","60ecb502739c4b998218da12","freq","img/orange_2bandit_b2.png","70","70","test","1","12","12","1","",""
"null","99624","pSARL_v2","pSARL_v2219lmpwd","60ecb502739c4b998218da12","freq_resp","img/orange_2bandit_b.png","70","70","test","","","","1","",""
"null","99820","pSARL_v2","pSARL_v2219lmpwd","60ecb502739c4b998218da12","fixation","img/fixation.png","null","","test","","","","","",""
"300.40000009536743","100153","pSARL_v2","pSARL_v2219lmpwd","60ecb502739c4b998218da12","freq","img/orange_2bandit_b2.png","70","70","test","1","13","13","1","",""
"null","100691","pSARL_v2","pSARL_v2219lmpwd","60ecb502739c4b998218da12","freq_resp","img/orange_2bandit_b.png","70","70","test","","","","1","",""
"null","100880","pSARL_v2","pSARL_v2219lmpwd","60ecb502739c4b998218da12","fixation","img/fixation.png","null","","test","","","","","",""
"305.5","101217","pSARL_v2","pSARL_v2219lmpwd","60ecb502739c4b998218da12","freq","img/orange_2bandit_b2.png","70","70","test","1","14","14","1","",""
"null","101743","pSARL_v2","pSARL_v2219lmpwd","60ecb502739c4b998218da12","freq_resp","img/orange_2bandit_b.png","70","70","test","","","","1","",""
"null","101929","pSARL_v2","pSARL_v2219lmpwd","60ecb502739c4b998218da12","fixation","img/fixation.png","null","","test","","","","","",""
"320.09999990463257","102279","pSARL_v2","pSARL_v2219lmpwd","60ecb502739c4b998218da12","freq","img/orange_2bandit_b2.png","70","70","test","1","15","15","1","",""
"null","102790","pSARL_v2","pSARL_v2219lmpwd","60ecb502739c4b998218da12","freq_resp","img/orange_2bandit_b.png","70","70","test","","","","1","",""
"null","102976","pSARL_v2","pSARL_v2219lmpwd","60ecb502739c4b998218da12","fixation","img/fixation.png","null","","test","","","","","",""
"296.90000009536743","103305","pSARL_v2","pSARL_v2219lmpwd","60ecb502739c4b998218da12","freq","img/orange_2bandit_b2.png","70","70","test","1","16","16","1","",""
"null","103844","pSARL_v2","pSARL_v2219lmpwd","60ecb502739c4b998218da12","freq_resp","img/orange_2bandit_b.png","70","70","test","","","","1","",""
"null","104026","pSARL_v2","pSARL_v2219lmpwd","60ecb502739c4b998218da12","fixation","img/fixation.png","null","","test","","","","","",""
"570.9000000953674","104629","pSARL_v2","pSARL_v2219lmpwd","60ecb502739c4b998218da12","infreq","img/green_2bandit_b2.png","68","68","test","1","17","17","1","",""
"null","104893","pSARL_v2","pSARL_v2219lmpwd","60ecb502739c4b998218da12","infreq_resp","img/green_2bandit_b.png","68","68","test","","","","1","",""
"null","105078","pSARL_v2","pSARL_v2219lmpwd","60ecb502739c4b998218da12","fixation","img/fixation.png","null","","test","","","","","",""
"384.2000000476837","105494","pSARL_v2","pSARL_v2219lmpwd","60ecb502739c4b998218da12","infreq","img/green_2bandit_b2.png","68","68","test","1","18","18","1","",""
"null","105945","pSARL_v2","pSARL_v2219lmpwd","60ecb502739c4b998218da12","infreq_resp","img/green_2bandit_b.png","68","68","test","","","","1","",""
"null","106129","pSARL_v2","pSARL_v2219lmpwd","60ecb502739c4b998218da12","fixation","img/fixation.png","null","","test","","","","","",""
"326.5","106485","pSARL_v2","pSARL_v2219lmpwd","60ecb502739c4b998218da12","freq","img/orange_2bandit_b2.png","68","70","test","0","19","19","1","",""
"null","107002","pSARL_v2","pSARL_v2219lmpwd","60ecb502739c4b998218da12","freq_resp","img/orange_2bandit_b.png","68","70","test","","","","1","",""
"null","107190","pSARL_v2","pSARL_v2219lmpwd","60ecb502739c4b998218da12","fixation","img/fixation.png","null","","test","","","","","",""
"1516.0999999046326","108737","pSARL_v2","pSARL_v2219lmpwd","60ecb502739c4b998218da12","reward","img/slot.png","74","","test","","","","","",""
"null","109521","pSARL_v2","pSARL_v2219lmpwd","60ecb502739c4b998218da12","points","<div class=""verylowPoints""> -6 </div>","null","na","test","","","","1","-6","0"
"763.2000000476837","110317","pSARL_v2","pSARL_v2219lmpwd","60ecb502739c4b998218da12","freq","img/orange_2bandit_b2.png","70","70","test","1","20","20","2","",""
"null","110377","pSARL_v2","pSARL_v2219lmpwd","60ecb502739c4b998218da12","freq_resp","img/orange_2bandit_b.png","70","70","test","","","","2","",""
"null","110572","pSARL_v2","pSARL_v2219lmpwd","60ecb502739c4b998218da12","fixation","img/fixation.png","null","","test","","","","","",""
"401.2000000476837","111004","pSARL_v2","pSARL_v2219lmpwd","60ecb502739c4b998218da12","freq","img/orange_2bandit_b2.png","70","70","test","1","21","21","2","",""
"null","111448","pSARL_v2","pSARL_v2219lmpwd","60ecb502739c4b998218da12","freq_resp","img/orange_2bandit_b.png","70","70","test","","","","2","",""
"null","111641","pSARL_v2","pSARL_v2219lmpwd","60ecb502739c4b998218da12","fixation","img/fixation.png","null","","test","","","","","",""
"367.89999985694885","112041","pSARL_v2","pSARL_v2219lmpwd","60ecb502739c4b998218da12","freq","img/orange_2bandit_b2.png","70","70","test","1","22","22","2","",""
"null","112510","pSARL_v2","pSARL_v2219lmpwd","60ecb502739c4b998218da12","freq_resp","img/orange_2bandit_b.png","70","70","test","","","","2","",""
"null","112704","pSARL_v2","pSARL_v2219lmpwd","60ecb502739c4b998218da12","fixation","img/fixation.png","null","","test","","","","","",""
"336.39999985694885","113073","pSARL_v2","pSARL_v2219lmpwd","60ecb502739c4b998218da12","freq","img/orange_2bandit_b2.png","70","70","test","1","23","23","2","",""
"null","113569","pSARL_v2","pSARL_v2219lmpwd","60ecb502739c4b998218da12","freq_resp","img/orange_2bandit_b.png","70","70","test","","","","2","",""
"null","113751","pSARL_v2","pSARL_v2219lmpwd","60ecb502739c4b998218da12","fixation","img/fixation.png","null","","test","","","","","",""
"320.5","114101","pSARL_v2","pSARL_v2219lmpwd","60ecb502739c4b998218da12","freq","img/orange_2bandit_b2.png","70","70","test","1","24","24","2","",""
"null","114612","pSARL_v2","pSARL_v2219lmpwd","60ecb502739c4b998218da12","freq_resp","img/orange_2bandit_b.png","70","70","test","","","","2","",""
"null","114803","pSARL_v2","pSARL_v2219lmpwd","60ecb502739c4b998218da12","fixation","img/fixation.png","null","","test","","","","","",""
"298.7999999523163","115132","pSARL_v2","pSARL_v2219lmpwd","60ecb502739c4b998218da12","freq","img/orange_2bandit_b2.png","70","70","test","1","25","25","2","",""
"null","115669","pSARL_v2","pSARL_v2219lmpwd","60ecb502739c4b998218da12","freq_resp","img/orange_2bandit_b.png","70","70","test","","","","2","",""
"null","115854","pSARL_v2","pSARL_v2219lmpwd","60ecb502739c4b998218da12","fixation","img/fixation.png","null","","test","","","","","",""
"293.59999990463257","116177","pSARL_v2","pSARL_v2219lmpwd","60ecb502739c4b998218da12","freq","img/orange_2bandit_b2.png","70","70","test","1","26","26","2","",""
"null","116722","pSARL_v2","pSARL_v2219lmpwd","60ecb502739c4b998218da12","freq_resp","img/orange_2bandit_b.png","70","70","test","","","","2","",""
"null","116903","pSARL_v2","pSARL_v2219lmpwd","60ecb502739c4b998218da12","fixation","img/fixation.png","null","","test","","","","","",""
"364.5","117296","pSARL_v2","pSARL_v2219lmpwd","60ecb502739c4b998218da12","freq","img/orange_2bandit_b2.png","70","70","test","1","27","27","2","",""
"null","117767","pSARL_v2","pSARL_v2219lmpwd","60ecb502739c4b998218da12","freq_resp","img/orange_2bandit_b.png","70","70","test","","","","2","",""
"null","117953","pSARL_v2","pSARL_v2219lmpwd","60ecb502739c4b998218da12","fixation","img/fixation.png","null","","test","","","","","",""
"346.7000000476837","118330","pSARL_v2","pSARL_v2219lmpwd","60ecb502739c4b998218da12","freq","img/orange_2bandit_b2.png","70","70","test","1","28","28","2","",""
"null","118826","pSARL_v2","pSARL_v2219lmpwd","60ecb502739c4b998218da12","freq_resp","img/orange_2bandit_b.png","70","70","test","","","","2","",""
"null","119022","pSARL_v2","pSARL_v2219lmpwd","60ecb502739c4b998218da12","fixation","img/fixation.png","null","","test","","","","","",""
"459","119512","pSARL_v2","pSARL_v2219lmpwd","60ecb502739c4b998218da12","infreq","img/green_2bandit_b2.png","68","68","test","1","29","29","2","",""
"null","119889","pSARL_v2","pSARL_v2219lmpwd","60ecb502739c4b998218da12","infreq_resp","img/green_2bandit_b.png","68","68","test","","","","2","",""
"null","120070","pSARL_v2","pSARL_v2219lmpwd","60ecb502739c4b998218da12","fixation","img/fixation.png","null","","test","","","","","",""
"356.5","120458","pSARL_v2","pSARL_v2219lmpwd","60ecb502739c4b998218da12","infreq","img/green_2bandit_b2.png","68","68","test","1","30","30","2","",""
"null","120947","pSARL_v2","pSARL_v2219lmpwd","60ecb502739c4b998218da12","infreq_resp","img/green_2bandit_b.png","68","68","test","","","","2","",""
"null","121128","pSARL_v2","pSARL_v2219lmpwd","60ecb502739c4b998218da12","fixation","img/fixation.png","null","","test","","","","","",""
"410","121566","pSARL_v2","pSARL_v2219lmpwd","60ecb502739c4b998218da12","freq","img/orange_2bandit_b2.png","70","70","test","1","31","31","2","",""
"null","121999","pSARL_v2","pSARL_v2219lmpwd","60ecb502739c4b998218da12","freq_resp","img/orange_2bandit_b.png","70","70","test","","","","2","",""
"null","122181","pSARL_v2","pSARL_v2219lmpwd","60ecb502739c4b998218da12","fixation","img/fixation.png","null","","test","","","","","",""
"529.5","122743","pSARL_v2","pSARL_v2219lmpwd","60ecb502739c4b998218da12","freq","img/orange_2bandit_b2.png","70","70","test","1","32","32","2","",""
"null","123054","pSARL_v2","pSARL_v2219lmpwd","60ecb502739c4b998218da12","freq_resp","img/orange_2bandit_b.png","70","70","test","","","","2","",""
"null","123248","pSARL_v2","pSARL_v2219lmpwd","60ecb502739c4b998218da12","fixation","img/fixation.png","null","","test","","","","","",""
"401.89999985694885","123679","pSARL_v2","pSARL_v2219lmpwd","60ecb502739c4b998218da12","freq","img/orange_2bandit_b2.png","70","70","test","1","33","33","2","",""
"null","124113","pSARL_v2","pSARL_v2219lmpwd","60ecb502739c4b998218da12","freq_resp","img/orange_2bandit_b.png","70","70","test","","","","2","",""
"null","124297","pSARL_v2","pSARL_v2219lmpwd","60ecb502739c4b998218da12","fixation","img/fixation.png","null","","test","","","","","",""
"418.09999990463257","124747","pSARL_v2","pSARL_v2219lmpwd","60ecb502739c4b998218da12","infreq","img/green_2bandit_b2.png","68","68","test","1","34","34","2","",""
"null","125168","pSARL_v2","pSARL_v2219lmpwd","60ecb502739c4b998218da12","infreq_resp","img/green_2bandit_b.png","68","68","test","","","","2","",""
"null","125358","pSARL_v2","pSARL_v2219lmpwd","60ecb502739c4b998218da12","fixation","img/fixation.png","null","","test","","","","","",""
"453.2999999523163","125840","pSARL_v2","pSARL_v2219lmpwd","60ecb502739c4b998218da12","freq","img/orange_2bandit_b2.png","70","70","test","1","35","35","2","",""
"null","126227","pSARL_v2","pSARL_v2219lmpwd","60ecb502739c4b998218da12","freq_resp","img/orange_2bandit_b.png","70","70","test","","","","2","",""
"null","126418","pSARL_v2","pSARL_v2219lmpwd","60ecb502739c4b998218da12","fixation","img/fixation.png","null","","test","","","","","",""
"393.2000000476837","126839","pSARL_v2","pSARL_v2219lmpwd","60ecb502739c4b998218da12","freq","img/orange_2bandit_b2.png","70","70","test","1","36","36","2","",""
"null","127292","pSARL_v2","pSARL_v2219lmpwd","60ecb502739c4b998218da12","freq_resp","img/orange_2bandit_b.png","70","70","test","","","","2","",""
"null","127483","pSARL_v2","pSARL_v2219lmpwd","60ecb502739c4b998218da12","fixation","img/fixation.png","null","","test","","","","","",""
"313.2000000476837","127828","pSARL_v2","pSARL_v2219lmpwd","60ecb502739c4b998218da12","freq","img/orange_2bandit_b2.png","70","70","test","1","37","37","2","",""
"null","128349","pSARL_v2","pSARL_v2219lmpwd","60ecb502739c4b998218da12","freq_resp","img/orange_2bandit_b.png","70","70","test","","","","2","",""
"null","128538","pSARL_v2","pSARL_v2219lmpwd","60ecb502739c4b998218da12","fixation","img/fixation.png","null","","test","","","","","",""
"327.5","128895","pSARL_v2","pSARL_v2219lmpwd","60ecb502739c4b998218da12","freq","img/orange_2bandit_b2.png","70","70","test","1","38","38","2","",""
"null","129405","pSARL_v2","pSARL_v2219lmpwd","60ecb502739c4b998218da12","freq_resp","img/orange_2bandit_b.png","70","70","test","","","","2","",""
"null","129588","pSARL_v2","pSARL_v2219lmpwd","60ecb502739c4b998218da12","fixation","img/fixation.png","null","","test","","","","","",""
"327.7999999523163","129948","pSARL_v2","pSARL_v2219lmpwd","60ecb502739c4b998218da12","freq","img/orange_2bandit_b2.png","70","70","test","1","39","39","2","",""
"null","130465","pSARL_v2","pSARL_v2219lmpwd","60ecb502739c4b998218da12","freq_resp","img/orange_2bandit_b.png","70","70","test","","","","2","",""
"null","130656","pSARL_v2","pSARL_v2219lmpwd","60ecb502739c4b998218da12","fixation","img/fixation.png","null","","test","","","","","",""
"325.7000000476837","131011","pSARL_v2","pSARL_v2219lmpwd","60ecb502739c4b998218da12","freq","img/orange_2bandit_b2.png","70","70","test","1","40","40","2","",""
"null","131519","pSARL_v2","pSARL_v2219lmpwd","60ecb502739c4b998218da12","freq_resp","img/orange_2bandit_b.png","70","70","test","","","","2","",""
"null","131698","pSARL_v2","pSARL_v2219lmpwd","60ecb502739c4b998218da12","fixation","img/fixation.png","null","","test","","","","","",""
"356.40000009536743","132073","pSARL_v2","pSARL_v2219lmpwd","60ecb502739c4b998218da12","freq","img/orange_2bandit_b2.png","70","70","test","1","41","41","2","",""
"null","132546","pSARL_v2","pSARL_v2219lmpwd","60ecb502739c4b998218da12","freq_resp","img/orange_2bandit_b.png","70","70","test","","","","2","",""
"null","132733","pSARL_v2","pSARL_v2219lmpwd","60ecb502739c4b998218da12","fixation","img/fixation.png","null","","test","","","","","",""
"590.7999999523163","133355","pSARL_v2","pSARL_v2219lmpwd","60ecb502739c4b998218da12","reward","img/slot.png","74","","test","","","","","",""
"null","134147","pSARL_v2","pSARL_v2219lmpwd","60ecb502739c4b998218da12","points","<div class=""verylowPoints""> -11 </div>","null","na","test","","","","2","-11","1"
"611.0999999046326","134787","pSARL_v2","pSARL_v2219lmpwd","60ecb502739c4b998218da12","freq","img/orange_2bandit_b2.png","70","70","test","1","42","42","3","",""
"null","135004","pSARL_v2","pSARL_v2219lmpwd","60ecb502739c4b998218da12","freq_resp","img/orange_2bandit_b.png","70","70","test","","","","3","",""
"null","135181","pSARL_v2","pSARL_v2219lmpwd","60ecb502739c4b998218da12","fixation","img/fixation.png","null","","test","","","","","",""
"330.40000009536743","135529","pSARL_v2","pSARL_v2219lmpwd","60ecb502739c4b998218da12","freq","img/orange_2bandit_b2.png","70","70","test","1","43","43","3","",""
"null","136039","pSARL_v2","pSARL_v2219lmpwd","60ecb502739c4b998218da12","freq_resp","img/orange_2bandit_b.png","70","70","test","","","","3","",""
"null","136225","pSARL_v2","pSARL_v2219lmpwd","60ecb502739c4b998218da12","fixation","img/fixation.png","null","","test","","","","","",""
"318.2000000476837","136576","pSARL_v2","pSARL_v2219lmpwd","60ecb502739c4b998218da12","freq","img/orange_2bandit_b2.png","70","70","test","1","44","44","3","",""
"null","137103","pSARL_v2","pSARL_v2219lmpwd","60ecb502739c4b998218da12","freq_resp","img/orange_2bandit_b.png","70","70","test","","","","3","",""
"null","137293","pSARL_v2","pSARL_v2219lmpwd","60ecb502739c4b998218da12","fixation","img/fixation.png","null","","test","","","","","",""
"294.5","137616","pSARL_v2","pSARL_v2219lmpwd","60ecb502739c4b998218da12","freq","img/orange_2bandit_b2.png","70","70","test","1","45","45","3","",""
"null","138152","pSARL_v2","pSARL_v2219lmpwd","60ecb502739c4b998218da12","freq_resp","img/orange_2bandit_b.png","70","70","test","","","","3","",""
"null","138341","pSARL_v2","pSARL_v2219lmpwd","60ecb502739c4b998218da12","fixation","img/fixation.png","null","","test","","","","","",""
"313.10000014305115","138685","pSARL_v2","pSARL_v2219lmpwd","60ecb502739c4b998218da12","freq","img/orange_2bandit_b2.png","70","70","test","1","46","46","3","",""
"null","139216","pSARL_v2","pSARL_v2219lmpwd","60ecb502739c4b998218da12","freq_resp","img/orange_2bandit_b.png","70","70","test","","","","3","",""
"null","139405","pSARL_v2","pSARL_v2219lmpwd","60ecb502739c4b998218da12","fixation","img/fixation.png","null","","test","","","","","",""
"330.2000000476837","139768","pSARL_v2","pSARL_v2219lmpwd","60ecb502739c4b998218da12","freq","img/orange_2bandit_b2.png","70","70","test","1","47","47","3","",""
"null","140283","pSARL_v2","pSARL_v2219lmpwd","60ecb502739c4b998218da12","freq_resp","img/orange_2bandit_b.png","70","70","test","","","","3","",""
"null","140471","pSARL_v2","pSARL_v2219lmpwd","60ecb502739c4b998218da12","fixation","img/fixation.png","null","","test","","","","","",""
"320.90000009536743","140824","pSARL_v2","pSARL_v2219lmpwd","60ecb502739c4b998218da12","freq","img/orange_2bandit_b2.png","70","70","test","1","48","48","3","",""
"null","141333","pSARL_v2","pSARL_v2219lmpwd","60ecb502739c4b998218da12","freq_resp","img/orange_2bandit_b.png","70","70","test","","","","3","",""
"null","141520","pSARL_v2","pSARL_v2219lmpwd","60ecb502739c4b998218da12","fixation","img/fixation.png","null","","test","","","","","",""
"315.90000009536743","141867","pSARL_v2","pSARL_v2219lmpwd","60ecb502739c4b998218da12","freq","img/orange_2bandit_b2.png","70","70","test","1","49","49","3","",""
"null","142395","pSARL_v2","pSARL_v2219lmpwd","60ecb502739c4b998218da12","freq_resp","img/orange_2bandit_b.png","70","70","test","","","","3","",""
"null","142582","pSARL_v2","pSARL_v2219lmpwd","60ecb502739c4b998218da12","fixation","img/fixation.png","null","","test","","","","","",""
"336","142945","pSARL_v2","pSARL_v2219lmpwd","60ecb502739c4b998218da12","freq","img/orange_2bandit_b2.png","70","70","test","1","50","50","3","",""
"null","143446","pSARL_v2","pSARL_v2219lmpwd","60ecb502739c4b998218da12","freq_resp","img/orange_2bandit_b.png","70","70","test","","","","3","",""
"null","143628","pSARL_v2","pSARL_v2219lmpwd","60ecb502739c4b998218da12","fixation","img/fixation.png","null","","test","","","","","",""
"341.40000009536743","144000","pSARL_v2","pSARL_v2219lmpwd","60ecb502739c4b998218da12","freq","img/orange_2bandit_b2.png","70","70","test","1","51","51","3","",""
"null","144501","pSARL_v2","pSARL_v2219lmpwd","60ecb502739c4b998218da12","freq_resp","img/orange_2bandit_b.png","70","70","test","","","","3","",""
"null","144696","pSARL_v2","pSARL_v2219lmpwd","60ecb502739c4b998218da12","fixation","img/fixation.png","null","","test","","","","","",""
"277.40000009536743","145000","pSARL_v2","pSARL_v2219lmpwd","60ecb502739c4b998218da12","freq","img/orange_2bandit_b2.png","70","70","test","1","52","52","3","",""
"null","145559","pSARL_v2","pSARL_v2219lmpwd","60ecb502739c4b998218da12","freq_resp","img/orange_2bandit_b.png","70","70","test","","","","3","",""
"null","145733","pSARL_v2","pSARL_v2219lmpwd","60ecb502739c4b998218da12","fixation","img/fixation.png","null","","test","","","","","",""
"304.90000009536743","146068","pSARL_v2","pSARL_v2219lmpwd","60ecb502739c4b998218da12","freq","img/orange_2bandit_b2.png","70","70","test","1","53","53","3","",""
"null","146607","pSARL_v2","pSARL_v2219lmpwd","60ecb502739c4b998218da12","freq_resp","img/orange_2bandit_b.png","70","70","test","","","","3","",""
"null","146792","pSARL_v2","pSARL_v2219lmpwd","60ecb502739c4b998218da12","fixation","img/fixation.png","null","","test","","","","","",""
"317.2000000476837","147140","pSARL_v2","pSARL_v2219lmpwd","60ecb502739c4b998218da12","infreq","img/green_2bandit_b2.png","70","68","test","0","54","54","3","",""
"null","147655","pSARL_v2","pSARL_v2219lmpwd","60ecb502739c4b998218da12","infreq_resp","img/green_2bandit_b.png","70","68","test","","","","3","",""
"null","147841","pSARL_v2","pSARL_v2219lmpwd","60ecb502739c4b998218da12","fixation","img/fixation.png","null","","test","","","","","",""
"451.39999985694885","148322","pSARL_v2","pSARL_v2219lmpwd","60ecb502739c4b998218da12","infreq","img/green_2bandit_b2.png","68","68","test","1","55","55","3","",""
"null","148704","pSARL_v2","pSARL_v2219lmpwd","60ecb502739c4b998218da12","infreq_resp","img/green_2bandit_b.png","68","68","test","","","","3","",""
"null","148888","pSARL_v2","pSARL_v2219lmpwd","60ecb502739c4b998218da12","fixation","img/fixation.png","null","","test","","","","","",""
"489.39999985694885","149406","pSARL_v2","pSARL_v2219lmpwd","60ecb502739c4b998218da12","freq","img/orange_2bandit_b2.png","70","70","test","1","56","56","3","",""
"null","149760","pSARL_v2","pSARL_v2219lmpwd","60ecb502739c4b998218da12","freq_resp","img/orange_2bandit_b.png","70","70","test","","","","3","",""
"null","149946","pSARL_v2","pSARL_v2219lmpwd","60ecb502739c4b998218da12","fixation","img/fixation.png","null","","test","","","","","",""
"409.7999999523163","150387","pSARL_v2","pSARL_v2219lmpwd","60ecb502739c4b998218da12","freq","img/orange_2bandit_b2.png","70","70","test","1","57","57","3","",""
"null","150821","pSARL_v2","pSARL_v2219lmpwd","60ecb502739c4b998218da12","freq_resp","img/orange_2bandit_b.png","70","70","test","","","","3","",""
"null","151014","pSARL_v2","pSARL_v2219lmpwd","60ecb502739c4b998218da12","fixation","img/fixation.png","null","","test","","","","","",""
"324","151368","pSARL_v2","pSARL_v2219lmpwd","60ecb502739c4b998218da12","infreq","img/green_2bandit_b2.png","70","68","test","0","58","58","3","",""
"null","151885","pSARL_v2","pSARL_v2219lmpwd","60ecb502739c4b998218da12","infreq_resp","img/green_2bandit_b.png","70","68","test","","","","3","",""
"null","152071","pSARL_v2","pSARL_v2219lmpwd","60ecb502739c4b998218da12","fixation","img/fixation.png","null","","test","","","","","",""
"380.7999999523163","152485","pSARL_v2","pSARL_v2219lmpwd","60ecb502739c4b998218da12","freq","img/orange_2bandit_b2.png","70","70","test","1","59","59","3","",""
"null","152950","pSARL_v2","pSARL_v2219lmpwd","60ecb502739c4b998218da12","freq_resp","img/orange_2bandit_b.png","70","70","test","","","","3","",""
"null","153132","pSARL_v2","pSARL_v2219lmpwd","60ecb502739c4b998218da12","fixation","img/fixation.png","null","","test","","","","","",""
"398.59999990463257","153560","pSARL_v2","pSARL_v2219lmpwd","60ecb502739c4b998218da12","freq","img/orange_2bandit_b2.png","70","70","test","1","60","60","3","",""
"null","153999","pSARL_v2","pSARL_v2219lmpwd","60ecb502739c4b998218da12","freq_resp","img/orange_2bandit_b.png","70","70","test","","","","3","",""
"null","154185","pSARL_v2","pSARL_v2219lmpwd","60ecb502739c4b998218da12","fixation","img/fixation.png","null","","test","","","","","",""
"357.80000019073486","154576","pSARL_v2","pSARL_v2219lmpwd","60ecb502739c4b998218da12","freq","img/orange_2bandit_b2.png","70","70","test","1","61","61","3","",""
"null","155059","pSARL_v2","pSARL_v2219lmpwd","60ecb502739c4b998218da12","freq_resp","img/orange_2bandit_b.png","70","70","test","","","","3","",""
"null","155247","pSARL_v2","pSARL_v2219lmpwd","60ecb502739c4b998218da12","fixation","img/fixation.png","null","","test","","","","","",""
"296.60000014305115","155577","pSARL_v2","pSARL_v2219lmpwd","60ecb502739c4b998218da12","freq","img/orange_2bandit_b2.png","70","70","test","1","62","62","3","",""
"null","156125","pSARL_v2","pSARL_v2219lmpwd","60ecb502739c4b998218da12","freq_resp","img/orange_2bandit_b.png","70","70","test","","","","3","",""
"null","156315","pSARL_v2","pSARL_v2219lmpwd","60ecb502739c4b998218da12","fixation","img/fixation.png","null","","test","","","","","",""
"538.9000000953674","156884","pSARL_v2","pSARL_v2219lmpwd","60ecb502739c4b998218da12","reward","img/slot.png","74","","test","","","","","",""
"null","157667","pSARL_v2","pSARL_v2219lmpwd","60ecb502739c4b998218da12","points","<div class=""verylowPoints""> -7 </div>","null","na","test","","","","3","-7","2"
"412.7000000476837","158112","pSARL_v2","pSARL_v2219lmpwd","60ecb502739c4b998218da12","freq","img/orange_2bandit_b2.png","70","70","test","1","63","63","4","",""
"null","158535","pSARL_v2","pSARL_v2219lmpwd","60ecb502739c4b998218da12","freq_resp","img/orange_2bandit_b.png","70","70","test","","","","4","",""
"null","158728","pSARL_v2","pSARL_v2219lmpwd","60ecb502739c4b998218da12","fixation","img/fixation.png","null","","test","","","","","",""
"319.7999999523163","159080","pSARL_v2","pSARL_v2219lmpwd","60ecb502739c4b998218da12","freq","img/orange_2bandit_b2.png","70","70","test","1","64","64","4","",""
"null","159605","pSARL_v2","pSARL_v2219lmpwd","60ecb502739c4b998218da12","freq_resp","img/orange_2bandit_b.png","70","70","test","","","","4","",""
"null","159786","pSARL_v2","pSARL_v2219lmpwd","60ecb502739c4b998218da12","fixation","img/fixation.png","null","","test","","","","","",""
"324.09999990463257","160141","pSARL_v2","pSARL_v2219lmpwd","60ecb502739c4b998218da12","freq","img/orange_2bandit_b2.png","70","70","test","1","65","65","4","",""
"null","160653","pSARL_v2","pSARL_v2219lmpwd","60ecb502739c4b998218da12","freq_resp","img/orange_2bandit_b.png","70","70","test","","","","4","",""
"null","160847","pSARL_v2","pSARL_v2219lmpwd","60ecb502739c4b998218da12","fixation","img/fixation.png","null","","test","","","","","",""
"605.8000001907349","161484","pSARL_v2","pSARL_v2219lmpwd","60ecb502739c4b998218da12","freq","img/orange_2bandit_b2.png","70","70","test","1","66","66","4","",""
"null","161717","pSARL_v2","pSARL_v2219lmpwd","60ecb502739c4b998218da12","freq_resp","img/orange_2bandit_b.png","70","70","test","","","","4","",""
"null","161894","pSARL_v2","pSARL_v2219lmpwd","60ecb502739c4b998218da12","fixation","img/fixation.png","null","","test","","","","","",""
"388.60000014305115","162313","pSARL_v2","pSARL_v2219lmpwd","60ecb502739c4b998218da12","freq","img/orange_2bandit_b2.png","70","70","test","1","67","67","4","",""
"null","162767","pSARL_v2","pSARL_v2219lmpwd","60ecb502739c4b998218da12","freq_resp","img/orange_2bandit_b.png","70","70","test","","","","4","",""
"null","162955","pSARL_v2","pSARL_v2219lmpwd","60ecb502739c4b998218da12","fixation","img/fixation.png","null","","test","","","","","",""
"312.59999990463257","163300","pSARL_v2","pSARL_v2219lmpwd","60ecb502739c4b998218da12","freq","img/orange_2bandit_b2.png","70","70","test","1","68","68","4","",""
"null","163834","pSARL_v2","pSARL_v2219lmpwd","60ecb502739c4b998218da12","freq_resp","img/orange_2bandit_b.png","70","70","test","","","","4","",""
"null","164015","pSARL_v2","pSARL_v2219lmpwd","60ecb502739c4b998218da12","fixation","img/fixation.png","null","","test","","","","","",""
"447.40000009536743","164493","pSARL_v2","pSARL_v2219lmpwd","60ecb502739c4b998218da12","infreq","img/green_2bandit_b2.png","68","68","test","1","69","69","4","",""
"null","164892","pSARL_v2","pSARL_v2219lmpwd","60ecb502739c4b998218da12","infreq_resp","img/green_2bandit_b.png","68","68","test","","","","4","",""
"null","165080","pSARL_v2","pSARL_v2219lmpwd","60ecb502739c4b998218da12","fixation","img/fixation.png","null","","test","","","","","",""
"446.2000000476837","165556","pSARL_v2","pSARL_v2219lmpwd","60ecb502739c4b998218da12","freq","img/orange_2bandit_b2.png","70","70","test","1","70","70","4","",""
"null","165951","pSARL_v2","pSARL_v2219lmpwd","60ecb502739c4b998218da12","freq_resp","img/orange_2bandit_b.png","70","70","test","","","","4","",""
"null","166129","pSARL_v2","pSARL_v2219lmpwd","60ecb502739c4b998218da12","fixation","img/fixation.png","null","","test","","","","","",""
"425.5","166582","pSARL_v2","pSARL_v2219lmpwd","60ecb502739c4b998218da12","infreq","img/green_2bandit_b2.png","68","68","test","1","71","71","4","",""
"null","167012","pSARL_v2","pSARL_v2219lmpwd","60ecb502739c4b998218da12","infreq_resp","img/green_2bandit_b.png","68","68","test","","","","4","",""
"null","167195","pSARL_v2","pSARL_v2219lmpwd","60ecb502739c4b998218da12","fixation","img/fixation.png","null","","test","","","","","",""
"null","168032","pSARL_v2","pSARL_v2219lmpwd","60ecb502739c4b998218da12","freq","img/orange_2bandit_b2.png","null","70","test","0","72","72","4","",""
"null","168215","pSARL_v2","pSARL_v2219lmpwd","60ecb502739c4b998218da12","fixation","img/fixation.png","null","","test","","","","","",""
"85.10000014305115","168332","pSARL_v2","pSARL_v2219lmpwd","60ecb502739c4b998218da12","freq","img/orange_2bandit_b2.png","70","70","test","1","73","73","4","",""
"null","169087","pSARL_v2","pSARL_v2219lmpwd","60ecb502739c4b998218da12","freq_resp","img/orange_2bandit_b.png","70","70","test","","","","4","",""
"null","169277","pSARL_v2","pSARL_v2219lmpwd","60ecb502739c4b998218da12","fixation","img/fixation.png","null","","test","","","","","",""
"414.59999990463257","169721","pSARL_v2","pSARL_v2219lmpwd","60ecb502739c4b998218da12","freq","img/orange_2bandit_b2.png","70","70","test","1","74","74","4","",""
"null","170143","pSARL_v2","pSARL_v2219lmpwd","60ecb502739c4b998218da12","freq_resp","img/orange_2bandit_b.png","70","70","test","","","","4","",""
"null","170325","pSARL_v2","pSARL_v2219lmpwd","60ecb502739c4b998218da12","fixation","img/fixation.png","null","","test","","","","","",""
"435.2000000476837","170792","pSARL_v2","pSARL_v2219lmpwd","60ecb502739c4b998218da12","freq","img/orange_2bandit_b2.png","70","70","test","1","75","75","4","",""
"null","171192","pSARL_v2","pSARL_v2219lmpwd","60ecb502739c4b998218da12","freq_resp","img/orange_2bandit_b.png","70","70","test","","","","4","",""
"null","171391","pSARL_v2","pSARL_v2219lmpwd","60ecb502739c4b998218da12","fixation","img/fixation.png","null","","test","","","","","",""
"335.7000000476837","171757","pSARL_v2","pSARL_v2219lmpwd","60ecb502739c4b998218da12","freq","img/orange_2bandit_b2.png","70","70","test","1","76","76","4","",""
"null","172263","pSARL_v2","pSARL_v2219lmpwd","60ecb502739c4b998218da12","freq_resp","img/orange_2bandit_b.png","70","70","test","","","","4","",""
"null","172451","pSARL_v2","pSARL_v2219lmpwd","60ecb502739c4b998218da12","fixation","img/fixation.png","null","","test","","","","","",""
"414","172898","pSARL_v2","pSARL_v2219lmpwd","60ecb502739c4b998218da12","freq","img/orange_2bandit_b2.png","70","70","test","1","77","77","4","",""
"null","173325","pSARL_v2","pSARL_v2219lmpwd","60ecb502739c4b998218da12","freq_resp","img/orange_2bandit_b.png","70","70","test","","","","4","",""
"null","173520","pSARL_v2","pSARL_v2219lmpwd","60ecb502739c4b998218da12","fixation","img/fixation.png","null","","test","","","","","",""
"364.09999990463257","173917","pSARL_v2","pSARL_v2219lmpwd","60ecb502739c4b998218da12","freq","img/orange_2bandit_b2.png","70","70","test","1","78","78","4","",""
"null","174385","pSARL_v2","pSARL_v2219lmpwd","60ecb502739c4b998218da12","freq_resp","img/orange_2bandit_b.png","70","70","test","","","","4","",""
"null","174563","pSARL_v2","pSARL_v2219lmpwd","60ecb502739c4b998218da12","fixation","img/fixation.png","null","","test","","","","","",""
"443.80000019073486","175037","pSARL_v2","pSARL_v2219lmpwd","60ecb502739c4b998218da12","freq","img/orange_2bandit_b2.png","70","70","test","1","79","79","4","",""
"null","175432","pSARL_v2","pSARL_v2219lmpwd","60ecb502739c4b998218da12","freq_resp","img/orange_2bandit_b.png","70","70","test","","","","4","",""
"null","175615","pSARL_v2","pSARL_v2219lmpwd","60ecb502739c4b998218da12","fixation","img/fixation.png","null","","test","","","","","",""
"357.7999999523163","176004","pSARL_v2","pSARL_v2219lmpwd","60ecb502739c4b998218da12","freq","img/orange_2bandit_b2.png","70","70","test","1","80","80","4","",""
"null","176487","pSARL_v2","pSARL_v2219lmpwd","60ecb502739c4b998218da12","freq_resp","img/orange_2bandit_b.png","70","70","test","","","","4","",""
"null","176680","pSARL_v2","pSARL_v2219lmpwd","60ecb502739c4b998218da12","fixation","img/fixation.png","null","","test","","","","","",""
"420.7000000476837","177133","pSARL_v2","pSARL_v2219lmpwd","60ecb502739c4b998218da12","freq","img/orange_2bandit_b2.png","70","70","test","1","81","81","4","",""
"null","177544","pSARL_v2","pSARL_v2219lmpwd","60ecb502739c4b998218da12","freq_resp","img/orange_2bandit_b.png","70","70","test","","","","4","",""
"null","177730","pSARL_v2","pSARL_v2219lmpwd","60ecb502739c4b998218da12","fixation","img/fixation.png","null","","test","","","","","",""
"377.60000014305115","178134","pSARL_v2","pSARL_v2219lmpwd","60ecb502739c4b998218da12","freq","img/orange_2bandit_b2.png","70","70","test","1","82","82","4","",""
"null","178597","pSARL_v2","pSARL_v2219lmpwd","60ecb502739c4b998218da12","freq_resp","img/orange_2bandit_b.png","70","70","test","","","","4","",""
"null","178779","pSARL_v2","pSARL_v2219lmpwd","60ecb502739c4b998218da12","fixation","img/fixation.png","null","","test","","","","","",""
"349.09999990463257","179159","pSARL_v2","pSARL_v2219lmpwd","60ecb502739c4b998218da12","freq","img/orange_2bandit_b2.png","70","70","test","1","83","83","4","",""
"null","179641","pSARL_v2","pSARL_v2219lmpwd","60ecb502739c4b998218da12","freq_resp","img/orange_2bandit_b.png","70","70","test","","","","4","",""
"null","179822","pSARL_v2","pSARL_v2219lmpwd","60ecb502739c4b998218da12","fixation","img/fixation.png","null","","test","","","","","",""
"524.7000000476837","180376","pSARL_v2","pSARL_v2219lmpwd","60ecb502739c4b998218da12","infreq","img/green_2bandit_b2.png","68","68","test","1","84","84","4","",""
"null","180698","pSARL_v2","pSARL_v2219lmpwd","60ecb502739c4b998218da12","infreq_resp","img/green_2bandit_b.png","68","68","test","","","","4","",""
"null","180889","pSARL_v2","pSARL_v2219lmpwd","60ecb502739c4b998218da12","fixation","img/fixation.png","null","","test","","","","","",""
"558.7000000476837","181480","pSARL_v2","pSARL_v2219lmpwd","60ecb502739c4b998218da12","freq","img/orange_2bandit_b2.png","70","70","test","1","85","85","4","",""
"null","181768","pSARL_v2","pSARL_v2219lmpwd","60ecb502739c4b998218da12","freq_resp","img/orange_2bandit_b.png","70","70","test","","","","4","",""
"null","181952","pSARL_v2","pSARL_v2219lmpwd","60ecb502739c4b998218da12","fixation","img/fixation.png","null","","test","","","","","",""
"465.5","182450","pSARL_v2","pSARL_v2219lmpwd","60ecb502739c4b998218da12","freq","img/orange_2bandit_b2.png","70","70","test","1","86","86","4","",""
"null","182817","pSARL_v2","pSARL_v2219lmpwd","60ecb502739c4b998218da12","freq_resp","img/orange_2bandit_b.png","70","70","test","","","","4","",""
"null","183004","pSARL_v2","pSARL_v2219lmpwd","60ecb502739c4b998218da12","fixation","img/fixation.png","null","","test","","","","","",""
"411.7999999523163","183448","pSARL_v2","pSARL_v2219lmpwd","60ecb502739c4b998218da12","freq","img/orange_2bandit_b2.png","70","70","test","1","87","87","4","",""
"null","183871","pSARL_v2","pSARL_v2219lmpwd","60ecb502739c4b998218da12","freq_resp","img/orange_2bandit_b.png","70","70","test","","","","4","",""
"null","184055","pSARL_v2","pSARL_v2219lmpwd","60ecb502739c4b998218da12","fixation","img/fixation.png","null","","test","","","","","",""
"417.80000019073486","184504","pSARL_v2","pSARL_v2219lmpwd","60ecb502739c4b998218da12","freq","img/orange_2bandit_b2.png","70","70","test","1","88","88","4","",""
"null","184927","pSARL_v2","pSARL_v2219lmpwd","60ecb502739c4b998218da12","freq_resp","img/orange_2bandit_b.png","70","70","test","","","","4","",""
"null","185111","pSARL_v2","pSARL_v2219lmpwd","60ecb502739c4b998218da12","fixation","img/fixation.png","null","","test","","","","","",""
"405","185548","pSARL_v2","pSARL_v2219lmpwd","60ecb502739c4b998218da12","freq","img/orange_2bandit_b2.png","70","70","test","1","89","89","4","",""
"null","185983","pSARL_v2","pSARL_v2219lmpwd","60ecb502739c4b998218da12","freq_resp","img/orange_2bandit_b.png","70","70","test","","","","4","",""
"null","186166","pSARL_v2","pSARL_v2219lmpwd","60ecb502739c4b998218da12","fixation","img/fixation.png","null","","test","","","","","",""
"1652.1000001430511","187849","pSARL_v2","pSARL_v2219lmpwd","60ecb502739c4b998218da12","reward","img/slot.png","74","","test","","","","","",""
"null","188638","pSARL_v2","pSARL_v2219lmpwd","60ecb502739c4b998218da12","points","<div class=""verylowPoints""> -3 </div>","null","na","test","","","","4","-3","3"
"null","189485","pSARL_v2","pSARL_v2219lmpwd","60ecb502739c4b998218da12","freq","img/orange_2bandit_b2.png","null","70","test","0","90","90","5","",""
"null","189676","pSARL_v2","pSARL_v2219lmpwd","60ecb502739c4b998218da12","fixation","img/fixation.png","null","","test","","","","","",""
"352.7000000476837","190059","pSARL_v2","pSARL_v2219lmpwd","60ecb502739c4b998218da12","freq","img/orange_2bandit_b2.png","70","70","test","1","91","91","5","",""
"null","190544","pSARL_v2","pSARL_v2219lmpwd","60ecb502739c4b998218da12","freq_resp","img/orange_2bandit_b.png","70","70","test","","","","5","",""
"null","190731","pSARL_v2","pSARL_v2219lmpwd","60ecb502739c4b998218da12","fixation","img/fixation.png","null","","test","","","","","",""
"145.20000004768372","190909","pSARL_v2","pSARL_v2219lmpwd","60ecb502739c4b998218da12","freq","img/orange_2bandit_b2.png","70","70","test","1","92","92","5","",""
"null","191608","pSARL_v2","pSARL_v2219lmpwd","60ecb502739c4b998218da12","freq_resp","img/orange_2bandit_b.png","70","70","test","","","","5","",""
"null","191798","pSARL_v2","pSARL_v2219lmpwd","60ecb502739c4b998218da12","fixation","img/fixation.png","null","","test","","","","","",""
"238.70000004768372","192070","pSARL_v2","pSARL_v2219lmpwd","60ecb502739c4b998218da12","freq","img/orange_2bandit_b2.png","70","70","test","1","93","93","5","",""
"null","192676","pSARL_v2","pSARL_v2219lmpwd","60ecb502739c4b998218da12","freq_resp","img/orange_2bandit_b.png","70","70","test","","","","5","",""
"null","192873","pSARL_v2","pSARL_v2219lmpwd","60ecb502739c4b998218da12","fixation","img/fixation.png","null","","test","","","","","",""
"null","193711","pSARL_v2","pSARL_v2219lmpwd","60ecb502739c4b998218da12","freq","img/orange_2bandit_b2.png","null","70","test","0","94","94","5","",""
"null","193906","pSARL_v2","pSARL_v2219lmpwd","60ecb502739c4b998218da12","fixation","img/fixation.png","null","","test","","","","","",""
"635","194573","pSARL_v2","pSARL_v2219lmpwd","60ecb502739c4b998218da12","infreq","img/green_2bandit_b2.png","68","68","test","1","95","95","5","",""
"null","194784","pSARL_v2","pSARL_v2219lmpwd","60ecb502739c4b998218da12","infreq_resp","img/green_2bandit_b.png","68","68","test","","","","5","",""
"null","194968","pSARL_v2","pSARL_v2219lmpwd","60ecb502739c4b998218da12","fixation","img/fixation.png","null","","test","","","","","",""
"515.2999999523163","195518","pSARL_v2","pSARL_v2219lmpwd","60ecb502739c4b998218da12","freq","img/orange_2bandit_b2.png","70","70","test","1","96","96","5","",""
"null","195841","pSARL_v2","pSARL_v2219lmpwd","60ecb502739c4b998218da12","freq_resp","img/orange_2bandit_b.png","70","70","test","","","","5","",""
"null","196030","pSARL_v2","pSARL_v2219lmpwd","60ecb502739c4b998218da12","fixation","img/fixation.png","null","","test","","","","","",""
"338.2000000476837","196400","pSARL_v2","pSARL_v2219lmpwd","60ecb502739c4b998218da12","freq","img/orange_2bandit_b2.png","70","70","test","1","97","97","5","",""
"null","196895","pSARL_v2","pSARL_v2219lmpwd","60ecb502739c4b998218da12","freq_resp","img/orange_2bandit_b.png","70","70","test","","","","5","",""
"null","197080","pSARL_v2","pSARL_v2219lmpwd","60ecb502739c4b998218da12","fixation","img/fixation.png","null","","test","","","","","",""
"340.10000014305115","197452","pSARL_v2","pSARL_v2219lmpwd","60ecb502739c4b998218da12","freq","img/orange_2bandit_b2.png","70","70","test","1","98","98","5","",""
"null","197958","pSARL_v2","pSARL_v2219lmpwd","60ecb502739c4b998218da12","freq_resp","img/orange_2bandit_b.png","70","70","test","","","","5","",""
"null","198138","pSARL_v2","pSARL_v2219lmpwd","60ecb502739c4b998218da12","fixation","img/fixation.png","null","","test","","","","","",""
"334.90000009536743","198504","pSARL_v2","pSARL_v2219lmpwd","60ecb502739c4b998218da12","freq","img/orange_2bandit_b2.png","70","70","test","1","99","99","5","",""
"null","199011","pSARL_v2","pSARL_v2219lmpwd","60ecb502739c4b998218da12","freq_resp","img/orange_2bandit_b.png","70","70","test","","","","5","",""
"null","199192","pSARL_v2","pSARL_v2219lmpwd","60ecb502739c4b998218da12","fixation","img/fixation.png","null","","test","","","","","",""
"360.2999999523163","199581","pSARL_v2","pSARL_v2219lmpwd","60ecb502739c4b998218da12","freq","img/orange_2bandit_b2.png","70","70","test","1","100","100","5","",""
"null","200060","pSARL_v2","pSARL_v2219lmpwd","60ecb502739c4b998218da12","freq_resp","img/orange_2bandit_b.png","70","70","test","","","","5","",""
"null","200247","pSARL_v2","pSARL_v2219lmpwd","60ecb502739c4b998218da12","fixation","img/fixation.png","null","","test","","","","","",""
"345.59999990463257","200624","pSARL_v2","pSARL_v2219lmpwd","60ecb502739c4b998218da12","freq","img/orange_2bandit_b2.png","70","70","test","1","101","101","5","",""
"null","201118","pSARL_v2","pSARL_v2219lmpwd","60ecb502739c4b998218da12","freq_resp","img/orange_2bandit_b.png","70","70","test","","","","5","",""
"null","201310","pSARL_v2","pSARL_v2219lmpwd","60ecb502739c4b998218da12","fixation","img/fixation.png","null","","test","","","","","",""
"303.2000000476837","201645","pSARL_v2","pSARL_v2219lmpwd","60ecb502739c4b998218da12","freq","img/orange_2bandit_b2.png","70","70","test","1","102","102","5","",""
"null","202182","pSARL_v2","pSARL_v2219lmpwd","60ecb502739c4b998218da12","freq_resp","img/orange_2bandit_b.png","70","70","test","","","","5","",""
"null","202374","pSARL_v2","pSARL_v2219lmpwd","60ecb502739c4b998218da12","fixation","img/fixation.png","null","","test","","","","","",""
"451.09999990463257","202858","pSARL_v2","pSARL_v2219lmpwd","60ecb502739c4b998218da12","infreq","img/green_2bandit_b2.png","68","68","test","1","103","103","5","",""
"null","203246","pSARL_v2","pSARL_v2219lmpwd","60ecb502739c4b998218da12","infreq_resp","img/green_2bandit_b.png","68","68","test","","","","5","",""
"null","203436","pSARL_v2","pSARL_v2219lmpwd","60ecb502739c4b998218da12","fixation","img/fixation.png","null","","test","","","","","",""
"551","204019","pSARL_v2","pSARL_v2219lmpwd","60ecb502739c4b998218da12","freq","img/orange_2bandit_b2.png","70","70","test","1","104","104","5","",""
"null","204303","pSARL_v2","pSARL_v2219lmpwd","60ecb502739c4b998218da12","freq_resp","img/orange_2bandit_b.png","70","70","test","","","","5","",""
"null","204483","pSARL_v2","pSARL_v2219lmpwd","60ecb502739c4b998218da12","fixation","img/fixation.png","null","","test","","","","","",""
"376.7000000476837","204889","pSARL_v2","pSARL_v2219lmpwd","60ecb502739c4b998218da12","freq","img/orange_2bandit_b2.png","70","70","test","1","105","105","5","",""
"null","205351","pSARL_v2","pSARL_v2219lmpwd","60ecb502739c4b998218da12","freq_resp","img/orange_2bandit_b.png","70","70","test","","","","5","",""
"null","205534","pSARL_v2","pSARL_v2219lmpwd","60ecb502739c4b998218da12","fixation","img/fixation.png","null","","test","","","","","",""
"317.30000019073486","205882","pSARL_v2","pSARL_v2219lmpwd","60ecb502739c4b998218da12","freq","img/orange_2bandit_b2.png","70","70","test","1","106","106","5","",""
"null","206401","pSARL_v2","pSARL_v2219lmpwd","60ecb502739c4b998218da12","freq_resp","img/orange_2bandit_b.png","70","70","test","","","","5","",""
"null","206582","pSARL_v2","pSARL_v2219lmpwd","60ecb502739c4b998218da12","fixation","img/fixation.png","null","","test","","","","","",""
"321","206933","pSARL_v2","pSARL_v2219lmpwd","60ecb502739c4b998218da12","freq","img/orange_2bandit_b2.png","70","70","test","1","107","107","5","",""
"null","207450","pSARL_v2","pSARL_v2219lmpwd","60ecb502739c4b998218da12","freq_resp","img/orange_2bandit_b.png","70","70","test","","","","5","",""
"null","207633","pSARL_v2","pSARL_v2219lmpwd","60ecb502739c4b998218da12","fixation","img/fixation.png","null","","test","","","","","",""
"326.5","207991","pSARL_v2","pSARL_v2219lmpwd","60ecb502739c4b998218da12","freq","img/orange_2bandit_b2.png","70","70","test","1","108","108","5","",""
"null","208505","pSARL_v2","pSARL_v2219lmpwd","60ecb502739c4b998218da12","freq_resp","img/orange_2bandit_b.png","70","70","test","","","","5","",""
"null","208686","pSARL_v2","pSARL_v2219lmpwd","60ecb502739c4b998218da12","fixation","img/fixation.png","null","","test","","","","","",""
"324.7000000476837","209042","pSARL_v2","pSARL_v2219lmpwd","60ecb502739c4b998218da12","freq","img/orange_2bandit_b2.png","70","70","test","1","109","109","5","",""
"null","209554","pSARL_v2","pSARL_v2219lmpwd","60ecb502739c4b998218da12","freq_resp","img/orange_2bandit_b.png","70","70","test","","","","5","",""
"null","209746","pSARL_v2","pSARL_v2219lmpwd","60ecb502739c4b998218da12","fixation","img/fixation.png","null","","test","","","","","",""
"322.7999999523163","210098","pSARL_v2","pSARL_v2219lmpwd","60ecb502739c4b998218da12","freq","img/orange_2bandit_b2.png","70","70","test","1","110","110","5","",""
"null","210622","pSARL_v2","pSARL_v2219lmpwd","60ecb502739c4b998218da12","freq_resp","img/orange_2bandit_b.png","70","70","test","","","","5","",""
"null","210816","pSARL_v2","pSARL_v2219lmpwd","60ecb502739c4b998218da12","fixation","img/fixation.png","null","","test","","","","","",""
"363.2999999523163","211209","pSARL_v2","pSARL_v2219lmpwd","60ecb502739c4b998218da12","freq","img/orange_2bandit_b2.png","70","70","test","1","111","111","5","",""
"null","211690","pSARL_v2","pSARL_v2219lmpwd","60ecb502739c4b998218da12","freq_resp","img/orange_2bandit_b.png","70","70","test","","","","5","",""
"null","211870","pSARL_v2","pSARL_v2219lmpwd","60ecb502739c4b998218da12","fixation","img/fixation.png","null","","test","","","","","",""
"329.90000009536743","212229","pSARL_v2","pSARL_v2219lmpwd","60ecb502739c4b998218da12","freq","img/orange_2bandit_b2.png","70","70","test","1","112","112","5","",""
"null","212739","pSARL_v2","pSARL_v2219lmpwd","60ecb502739c4b998218da12","freq_resp","img/orange_2bandit_b.png","70","70","test","","","","5","",""
"null","212920","pSARL_v2","pSARL_v2219lmpwd","60ecb502739c4b998218da12","fixation","img/fixation.png","null","","test","","","","","",""
"131.79999995231628","213081","pSARL_v2","pSARL_v2219lmpwd","60ecb502739c4b998218da12","freq","img/orange_2bandit_b2.png","70","70","test","1","113","113","5","",""
"null","213782","pSARL_v2","pSARL_v2219lmpwd","60ecb502739c4b998218da12","freq_resp","img/orange_2bandit_b.png","70","70","test","","","","5","",""
"null","213971","pSARL_v2","pSARL_v2219lmpwd","60ecb502739c4b998218da12","fixation","img/fixation.png","null","","test","","","","","",""
"766.5999999046326","214761","pSARL_v2","pSARL_v2219lmpwd","60ecb502739c4b998218da12","freq","img/orange_2bandit_b2.png","70","70","test","1","114","114","5","",""
"null","214822","pSARL_v2","pSARL_v2219lmpwd","60ecb502739c4b998218da12","freq_resp","img/orange_2bandit_b.png","70","70","test","","","","5","",""
"null","215004","pSARL_v2","pSARL_v2219lmpwd","60ecb502739c4b998218da12","fixation","img/fixation.png","null","","test","","","","","",""
"397.90000009536743","215431","pSARL_v2","pSARL_v2219lmpwd","60ecb502739c4b998218da12","freq","img/orange_2bandit_b2.png","70","70","test","1","115","115","5","",""
"null","215876","pSARL_v2","pSARL_v2219lmpwd","60ecb502739c4b998218da12","freq_resp","img/orange_2bandit_b.png","70","70","test","","","","5","",""
"null","216071","pSARL_v2","pSARL_v2219lmpwd","60ecb502739c4b998218da12","fixation","img/fixation.png","null","","test","","","","","",""
"522.7999999523163","216625","pSARL_v2","pSARL_v2219lmpwd","60ecb502739c4b998218da12","reward","img/slot.png","74","","test","","","","","",""
"null","217411","pSARL_v2","pSARL_v2219lmpwd","60ecb502739c4b998218da12","points","<div class=""veryhighPoints""> +1 </div>","null","na","test","","","","5","1","4"
"521.8999998569489","217967","pSARL_v2","pSARL_v2219lmpwd","60ecb502739c4b998218da12","freq","img/orange_2bandit_b2.png","70","70","test","1","116","116","6","",""
"null","218289","pSARL_v2","pSARL_v2219lmpwd","60ecb502739c4b998218da12","freq_resp","img/orange_2bandit_b.png","70","70","test","","","","6","",""
"null","218480","pSARL_v2","pSARL_v2219lmpwd","60ecb502739c4b998218da12","fixation","img/fixation.png","null","","test","","","","","",""
"325.39999985694885","218830","pSARL_v2","pSARL_v2219lmpwd","60ecb502739c4b998218da12","freq","img/orange_2bandit_b2.png","70","70","test","1","117","117","6","",""
"null","219337","pSARL_v2","pSARL_v2219lmpwd","60ecb502739c4b998218da12","freq_resp","img/orange_2bandit_b.png","70","70","test","","","","6","",""
"null","219529","pSARL_v2","pSARL_v2219lmpwd","60ecb502739c4b998218da12","fixation","img/fixation.png","null","","test","","","","","",""
"308.5","219869","pSARL_v2","pSARL_v2219lmpwd","60ecb502739c4b998218da12","infreq","img/green_2bandit_b2.png","70","68","test","0","118","118","6","",""
"null","220396","pSARL_v2","pSARL_v2219lmpwd","60ecb502739c4b998218da12","infreq_resp","img/green_2bandit_b.png","70","68","test","","","","6","",""
"null","220592","pSARL_v2","pSARL_v2219lmpwd","60ecb502739c4b998218da12","fixation","img/fixation.png","null","","test","","","","","",""
"437.59999990463257","221062","pSARL_v2","pSARL_v2219lmpwd","60ecb502739c4b998218da12","freq","img/orange_2bandit_b2.png","70","70","test","1","119","119","6","",""
"null","221462","pSARL_v2","pSARL_v2219lmpwd","60ecb502739c4b998218da12","freq_resp","img/orange_2bandit_b.png","70","70","test","","","","6","",""
"null","221649","pSARL_v2","pSARL_v2219lmpwd","60ecb502739c4b998218da12","fixation","img/fixation.png","null","","test","","","","","",""
"null","222490","pSARL_v2","pSARL_v2219lmpwd","60ecb502739c4b998218da12","freq","img/orange_2bandit_b2.png","null","70","test","0","120","120","6","",""
"null","222674","pSARL_v2","pSARL_v2219lmpwd","60ecb502739c4b998218da12","fixation","img/fixation.png","null","","test","","","","","",""
"93.19999980926514","222798","pSARL_v2","pSARL_v2219lmpwd","60ecb502739c4b998218da12","freq","img/orange_2bandit_b2.png","70","70","test","1","121","121","6","",""
"null","223537","pSARL_v2","pSARL_v2219lmpwd","60ecb502739c4b998218da12","freq_resp","img/orange_2bandit_b.png","70","70","test","","","","6","",""
"null","223720","pSARL_v2","pSARL_v2219lmpwd","60ecb502739c4b998218da12","fixation","img/fixation.png","null","","test","","","","","",""
"439.7999999523163","224190","pSARL_v2","pSARL_v2219lmpwd","60ecb502739c4b998218da12","freq","img/orange_2bandit_b2.png","70","70","test","1","122","122","6","",""
"null","224593","pSARL_v2","pSARL_v2219lmpwd","60ecb502739c4b998218da12","freq_resp","img/orange_2bandit_b.png","70","70","test","","","","6","",""
"null","224788","pSARL_v2","pSARL_v2219lmpwd","60ecb502739c4b998218da12","fixation","img/fixation.png","null","","test","","","","","",""
"646.7000000476837","225468","pSARL_v2","pSARL_v2219lmpwd","60ecb502739c4b998218da12","freq","img/orange_2bandit_b2.png","70","70","test","1","123","123","6","",""
"null","225663","pSARL_v2","pSARL_v2219lmpwd","60ecb502739c4b998218da12","freq_resp","img/orange_2bandit_b.png","70","70","test","","","","6","",""
"null","225858","pSARL_v2","pSARL_v2219lmpwd","60ecb502739c4b998218da12","fixation","img/fixation.png","null","","test","","","","","",""
"558.2999999523163","226446","pSARL_v2","pSARL_v2219lmpwd","60ecb502739c4b998218da12","infreq","img/green_2bandit_b2.png","68","68","test","1","124","124","6","",""
"null","226728","pSARL_v2","pSARL_v2219lmpwd","60ecb502739c4b998218da12","infreq_resp","img/green_2bandit_b.png","68","68","test","","","","6","",""
"null","226918","pSARL_v2","pSARL_v2219lmpwd","60ecb502739c4b998218da12","fixation","img/fixation.png","null","","test","","","","","",""
"488.10000014305115","227438","pSARL_v2","pSARL_v2219lmpwd","60ecb502739c4b998218da12","freq","img/orange_2bandit_b2.png","70","70","test","1","125","125","6","",""
"null","227784","pSARL_v2","pSARL_v2219lmpwd","60ecb502739c4b998218da12","freq_resp","img/orange_2bandit_b.png","70","70","test","","","","6","",""
"null","227966","pSARL_v2","pSARL_v2219lmpwd","60ecb502739c4b998218da12","fixation","img/fixation.png","null","","test","","","","","",""
"378.2999999523163","228374","pSARL_v2","pSARL_v2219lmpwd","60ecb502739c4b998218da12","freq","img/orange_2bandit_b2.png","70","70","test","1","126","126","6","",""
"null","228830","pSARL_v2","pSARL_v2219lmpwd","60ecb502739c4b998218da12","freq_resp","img/orange_2bandit_b.png","70","70","test","","","","6","",""
"null","229015","pSARL_v2","pSARL_v2219lmpwd","60ecb502739c4b998218da12","fixation","img/fixation.png","null","","test","","","","","",""
"405.59999990463257","229450","pSARL_v2","pSARL_v2219lmpwd","60ecb502739c4b998218da12","freq","img/orange_2bandit_b2.png","70","70","test","1","127","127","6","",""
"null","229887","pSARL_v2","pSARL_v2219lmpwd","60ecb502739c4b998218da12","freq_resp","img/orange_2bandit_b.png","70","70","test","","","","6","",""
"null","230080","pSARL_v2","pSARL_v2219lmpwd","60ecb502739c4b998218da12","fixation","img/fixation.png","null","","test","","","","","",""
"370.5","230482","pSARL_v2","pSARL_v2219lmpwd","60ecb502739c4b998218da12","freq","img/orange_2bandit_b2.png","70","70","test","1","128","128","6","",""
"null","230959","pSARL_v2","pSARL_v2219lmpwd","60ecb502739c4b998218da12","freq_resp","img/orange_2bandit_b.png","70","70","test","","","","6","",""
"null","231151","pSARL_v2","pSARL_v2219lmpwd","60ecb502739c4b998218da12","fixation","img/fixation.png","null","","test","","","","","",""
"null","231998","pSARL_v2","pSARL_v2219lmpwd","60ecb502739c4b998218da12","freq","img/orange_2bandit_b2.png","null","70","test","0","129","129","6","",""
"null","232194","pSARL_v2","pSARL_v2219lmpwd","60ecb502739c4b998218da12","fixation","img/fixation.png","null","","test","","","","","",""
"447.7000000476837","232673","pSARL_v2","pSARL_v2219lmpwd","60ecb502739c4b998218da12","freq","img/orange_2bandit_b2.png","70","70","test","1","130","130","6","",""
"null","233065","pSARL_v2","pSARL_v2219lmpwd","60ecb502739c4b998218da12","freq_resp","img/orange_2bandit_b.png","70","70","test","","","","6","",""
"null","233252","pSARL_v2","pSARL_v2219lmpwd","60ecb502739c4b998218da12","fixation","img/fixation.png","null","","test","","","","","",""
"306.2000000476837","233590","pSARL_v2","pSARL_v2219lmpwd","60ecb502739c4b998218da12","freq","img/orange_2bandit_b2.png","70","70","test","1","131","131","6","",""
"null","234128","pSARL_v2","pSARL_v2219lmpwd","60ecb502739c4b998218da12","freq_resp","img/orange_2bandit_b.png","70","70","test","","","","6","",""
"null","234317","pSARL_v2","pSARL_v2219lmpwd","60ecb502739c4b998218da12","fixation","img/fixation.png","null","","test","","","","","",""
"377.5","234726","pSARL_v2","pSARL_v2219lmpwd","60ecb502739c4b998218da12","freq","img/orange_2bandit_b2.png","70","70","test","1","132","132","6","",""
"null","235183","pSARL_v2","pSARL_v2219lmpwd","60ecb502739c4b998218da12","freq_resp","img/orange_2bandit_b.png","70","70","test","","","","6","",""
"null","235365","pSARL_v2","pSARL_v2219lmpwd","60ecb502739c4b998218da12","fixation","img/fixation.png","null","","test","","","","","",""
"300","235695","pSARL_v2","pSARL_v2219lmpwd","60ecb502739c4b998218da12","freq","img/orange_2bandit_b2.png","70","70","test","1","133","133","6","",""
"null","236231","pSARL_v2","pSARL_v2219lmpwd","60ecb502739c4b998218da12","freq_resp","img/orange_2bandit_b.png","70","70","test","","","","6","",""
"null","236418","pSARL_v2","pSARL_v2219lmpwd","60ecb502739c4b998218da12","fixation","img/fixation.png","null","","test","","","","","",""
"328.7999999523163","236777","pSARL_v2","pSARL_v2219lmpwd","60ecb502739c4b998218da12","freq","img/orange_2bandit_b2.png","70","70","test","1","134","134","6","",""
"null","237285","pSARL_v2","pSARL_v2219lmpwd","60ecb502739c4b998218da12","freq_resp","img/orange_2bandit_b.png","70","70","test","","","","6","",""
"null","237466","pSARL_v2","pSARL_v2219lmpwd","60ecb502739c4b998218da12","fixation","img/fixation.png","null","","test","","","","","",""
"346.60000014305115","237842","pSARL_v2","pSARL_v2219lmpwd","60ecb502739c4b998218da12","freq","img/orange_2bandit_b2.png","70","70","test","1","135","135","6","",""
"null","238331","pSARL_v2","pSARL_v2219lmpwd","60ecb502739c4b998218da12","freq_resp","img/orange_2bandit_b.png","70","70","test","","","","6","",""
"null","238515","pSARL_v2","pSARL_v2219lmpwd","60ecb502739c4b998218da12","fixation","img/fixation.png","null","","test","","","","","",""
"314.90000009536743","238861","pSARL_v2","pSARL_v2219lmpwd","60ecb502739c4b998218da12","freq","img/orange_2bandit_b2.png","70","70","test","1","136","136","6","",""
"null","239379","pSARL_v2","pSARL_v2219lmpwd","60ecb502739c4b998218da12","freq_resp","img/orange_2bandit_b.png","70","70","test","","","","6","",""
"null","239564","pSARL_v2","pSARL_v2219lmpwd","60ecb502739c4b998218da12","fixation","img/fixation.png","null","","test","","","","","",""
"330","239921","pSARL_v2","pSARL_v2219lmpwd","60ecb502739c4b998218da12","freq","img/orange_2bandit_b2.png","70","70","test","1","137","137","6","",""
"null","240429","pSARL_v2","pSARL_v2219lmpwd","60ecb502739c4b998218da12","freq_resp","img/orange_2bandit_b.png","70","70","test","","","","6","",""
"null","240613","pSARL_v2","pSARL_v2219lmpwd","60ecb502739c4b998218da12","fixation","img/fixation.png","null","","test","","","","","",""
"327.7999999523163","240969","pSARL_v2","pSARL_v2219lmpwd","60ecb502739c4b998218da12","freq","img/orange_2bandit_b2.png","70","70","test","1","138","138","6","",""
"null","241477","pSARL_v2","pSARL_v2219lmpwd","60ecb502739c4b998218da12","freq_resp","img/orange_2bandit_b.png","70","70","test","","","","6","",""
"null","241670","pSARL_v2","pSARL_v2219lmpwd","60ecb502739c4b998218da12","fixation","img/fixation.png","null","","test","","","","","",""
"317.2999999523163","242020","pSARL_v2","pSARL_v2219lmpwd","60ecb502739c4b998218da12","freq","img/orange_2bandit_b2.png","70","70","test","1","139","139","6","",""
"null","242534","pSARL_v2","pSARL_v2219lmpwd","60ecb502739c4b998218da12","freq_resp","img/orange_2bandit_b.png","70","70","test","","","","6","",""
"null","242717","pSARL_v2","pSARL_v2219lmpwd","60ecb502739c4b998218da12","fixation","img/fixation.png","null","","test","","","","","",""
"664.3999998569489","243407","pSARL_v2","pSARL_v2219lmpwd","60ecb502739c4b998218da12","reward","img/slot.png","74","","test","","","","","",""
"null","244202","pSARL_v2","pSARL_v2219lmpwd","60ecb502739c4b998218da12","points","<div class=""verylowPoints""> -7 </div>","null","na","test","","","","6","-7","5"
"608.7999999523163","244843","pSARL_v2","pSARL_v2219lmpwd","60ecb502739c4b998218da12","freq","img/orange_2bandit_b2.png","70","70","test","1","140","140","7","",""
"null","245071","pSARL_v2","pSARL_v2219lmpwd","60ecb502739c4b998218da12","freq_resp","img/orange_2bandit_b.png","70","70","test","","","","7","",""
"null","245254","pSARL_v2","pSARL_v2219lmpwd","60ecb502739c4b998218da12","fixation","img/fixation.png","null","","test","","","","","",""
"325","245598","pSARL_v2","pSARL_v2219lmpwd","60ecb502739c4b998218da12","freq","img/orange_2bandit_b2.png","70","70","test","1","141","141","7","",""
"null","246104","pSARL_v2","pSARL_v2219lmpwd","60ecb502739c4b998218da12","freq_resp","img/orange_2bandit_b.png","70","70","test","","","","7","",""
"null","246285","pSARL_v2","pSARL_v2219lmpwd","60ecb502739c4b998218da12","fixation","img/fixation.png","null","","test","","","","","",""
"336.7999999523163","246646","pSARL_v2","pSARL_v2219lmpwd","60ecb502739c4b998218da12","freq","img/orange_2bandit_b2.png","70","70","test","1","142","142","7","",""
"null","247140","pSARL_v2","pSARL_v2219lmpwd","60ecb502739c4b998218da12","freq_resp","img/orange_2bandit_b.png","70","70","test","","","","7","",""
"null","247321","pSARL_v2","pSARL_v2219lmpwd","60ecb502739c4b998218da12","fixation","img/fixation.png","null","","test","","","","","",""
"431.69999980926514","247783","pSARL_v2","pSARL_v2219lmpwd","60ecb502739c4b998218da12","infreq","img/green_2bandit_b2.png","68","68","test","1","143","143","7","",""
"null","248192","pSARL_v2","pSARL_v2219lmpwd","60ecb502739c4b998218da12","infreq_resp","img/green_2bandit_b.png","68","68","test","","","","7","",""
"null","248386","pSARL_v2","pSARL_v2219lmpwd","60ecb502739c4b998218da12","fixation","img/fixation.png","null","","test","","","","","",""
"393.69999980926514","248812","pSARL_v2","pSARL_v2219lmpwd","60ecb502739c4b998218da12","freq","img/orange_2bandit_b2.png","70","70","test","1","144","144","7","",""
"null","249265","pSARL_v2","pSARL_v2219lmpwd","60ecb502739c4b998218da12","freq_resp","img/orange_2bandit_b.png","70","70","test","","","","7","",""
"null","249453","pSARL_v2","pSARL_v2219lmpwd","60ecb502739c4b998218da12","fixation","img/fixation.png","null","","test","","","","","",""
"533.9000000953674","250019","pSARL_v2","pSARL_v2219lmpwd","60ecb502739c4b998218da12","freq","img/orange_2bandit_b2.png","70","70","test","1","145","145","7","",""
"null","250328","pSARL_v2","pSARL_v2219lmpwd","60ecb502739c4b998218da12","freq_resp","img/orange_2bandit_b.png","70","70","test","","","","7","",""
"null","250517","pSARL_v2","pSARL_v2219lmpwd","60ecb502739c4b998218da12","fixation","img/fixation.png","null","","test","","","","","",""
"393.2000000476837","250943","pSARL_v2","pSARL_v2219lmpwd","60ecb502739c4b998218da12","freq","img/orange_2bandit_b2.png","70","70","test","1","146","146","7","",""
"null","251394","pSARL_v2","pSARL_v2219lmpwd","60ecb502739c4b998218da12","freq_resp","img/orange_2bandit_b.png","70","70","test","","","","7","",""
"null","251585","pSARL_v2","pSARL_v2219lmpwd","60ecb502739c4b998218da12","fixation","img/fixation.png","null","","test","","","","","",""
"482","252100","pSARL_v2","pSARL_v2219lmpwd","60ecb502739c4b998218da12","infreq","img/green_2bandit_b2.png","68","68","test","1","147","147","7","",""
"null","252447","pSARL_v2","pSARL_v2219lmpwd","60ecb502739c4b998218da12","infreq_resp","img/green_2bandit_b.png","68","68","test","","","","7","",""
"null","252626","pSARL_v2","pSARL_v2219lmpwd","60ecb502739c4b998218da12","fixation","img/fixation.png","null","","test","","","","","",""
"466.09999990463257","253124","pSARL_v2","pSARL_v2219lmpwd","60ecb502739c4b998218da12","freq","img/orange_2bandit_b2.png","70","70","test","1","148","148","7","",""
"null","253500","pSARL_v2","pSARL_v2219lmpwd","60ecb502739c4b998218da12","freq_resp","img/orange_2bandit_b.png","70","70","test","","","","7","",""
"null","253695","pSARL_v2","pSARL_v2219lmpwd","60ecb502739c4b998218da12","fixation","img/fixation.png","null","","test","","","","","",""
"343.2999999523163","254068","pSARL_v2","pSARL_v2219lmpwd","60ecb502739c4b998218da12","freq","img/orange_2bandit_b2.png","70","70","test","1","149","149","7","",""
"null","254567","pSARL_v2","pSARL_v2219lmpwd","60ecb502739c4b998218da12","freq_resp","img/orange_2bandit_b.png","70","70","test","","","","7","",""
"null","254749","pSARL_v2","pSARL_v2219lmpwd","60ecb502739c4b998218da12","fixation","img/fixation.png","null","","test","","","","","",""
"258.69999980926514","255040","pSARL_v2","pSARL_v2219lmpwd","60ecb502739c4b998218da12","freq","img/orange_2bandit_b2.png","70","70","test","1","150","150","7","",""
"null","255627","pSARL_v2","pSARL_v2219lmpwd","60ecb502739c4b998218da12","freq_resp","img/orange_2bandit_b.png","70","70","test","","","","7","",""
"null","255821","pSARL_v2","pSARL_v2219lmpwd","60ecb502739c4b998218da12","fixation","img/fixation.png","null","","test","","","","","",""
"301.90000009536743","256156","pSARL_v2","pSARL_v2219lmpwd","60ecb502739c4b998218da12","freq","img/orange_2bandit_b2.png","70","70","test","1","151","151","7","",""
"null","256692","pSARL_v2","pSARL_v2219lmpwd","60ecb502739c4b998218da12","freq_resp","img/orange_2bandit_b.png","70","70","test","","","","7","",""
"null","256877","pSARL_v2","pSARL_v2219lmpwd","60ecb502739c4b998218da12","fixation","img/fixation.png","null","","test","","","","","",""
"311.2999999523163","257219","pSARL_v2","pSARL_v2219lmpwd","60ecb502739c4b998218da12","freq","img/orange_2bandit_b2.png","70","70","test","1","152","152","7","",""
"null","257749","pSARL_v2","pSARL_v2219lmpwd","60ecb502739c4b998218da12","freq_resp","img/orange_2bandit_b.png","70","70","test","","","","7","",""
"null","257937","pSARL_v2","pSARL_v2219lmpwd","60ecb502739c4b998218da12","fixation","img/fixation.png","null","","test","","","","","",""
"303.5","258270","pSARL_v2","pSARL_v2219lmpwd","60ecb502739c4b998218da12","freq","img/orange_2bandit_b2.png","70","70","test","1","153","153","7","",""
"null","258813","pSARL_v2","pSARL_v2219lmpwd","60ecb502739c4b998218da12","freq_resp","img/orange_2bandit_b.png","70","70","test","","","","7","",""
"null","259000","pSARL_v2","pSARL_v2219lmpwd","60ecb502739c4b998218da12","fixation","img/fixation.png","null","","test","","","","","",""
"271.2000000476837","259301","pSARL_v2","pSARL_v2219lmpwd","60ecb502739c4b998218da12","freq","img/orange_2bandit_b2.png","70","70","test","1","154","154","7","",""
"null","259875","pSARL_v2","pSARL_v2219lmpwd","60ecb502739c4b998218da12","freq_resp","img/orange_2bandit_b.png","70","70","test","","","","7","",""
"null","260067","pSARL_v2","pSARL_v2219lmpwd","60ecb502739c4b998218da12","fixation","img/fixation.png","null","","test","","","","","",""
"239.90000009536743","260339","pSARL_v2","pSARL_v2219lmpwd","60ecb502739c4b998218da12","freq","img/orange_2bandit_b2.png","70","70","test","1","155","155","7","",""
"null","260942","pSARL_v2","pSARL_v2219lmpwd","60ecb502739c4b998218da12","freq_resp","img/orange_2bandit_b.png","70","70","test","","","","7","",""
"null","261122","pSARL_v2","pSARL_v2219lmpwd","60ecb502739c4b998218da12","fixation","img/fixation.png","null","","test","","","","","",""
"304.10000014305115","261456","pSARL_v2","pSARL_v2219lmpwd","60ecb502739c4b998218da12","freq","img/orange_2bandit_b2.png","70","70","test","1","156","156","7","",""
"null","261986","pSARL_v2","pSARL_v2219lmpwd","60ecb502739c4b998218da12","freq_resp","img/orange_2bandit_b.png","70","70","test","","","","7","",""
"null","262181","pSARL_v2","pSARL_v2219lmpwd","60ecb502739c4b998218da12","fixation","img/fixation.png","null","","test","","","","","",""
"315.30000019073486","262528","pSARL_v2","pSARL_v2219lmpwd","60ecb502739c4b998218da12","freq","img/orange_2bandit_b2.png","70","70","test","1","157","157","7","",""
"null","263053","pSARL_v2","pSARL_v2219lmpwd","60ecb502739c4b998218da12","freq_resp","img/orange_2bandit_b.png","70","70","test","","","","7","",""
"null","263233","pSARL_v2","pSARL_v2219lmpwd","60ecb502739c4b998218da12","fixation","img/fixation.png","null","","test","","","","","",""
"469.60000014305115","263730","pSARL_v2","pSARL_v2219lmpwd","60ecb502739c4b998218da12","infreq","img/green_2bandit_b2.png","68","68","test","1","158","158","7","",""
"null","264098","pSARL_v2","pSARL_v2219lmpwd","60ecb502739c4b998218da12","infreq_resp","img/green_2bandit_b.png","68","68","test","","","","7","",""
"null","264293","pSARL_v2","pSARL_v2219lmpwd","60ecb502739c4b998218da12","fixation","img/fixation.png","null","","test","","","","","",""
"451","264776","pSARL_v2","pSARL_v2219lmpwd","60ecb502739c4b998218da12","freq","img/orange_2bandit_b2.png","70","70","test","1","159","159","7","",""
"null","265162","pSARL_v2","pSARL_v2219lmpwd","60ecb502739c4b998218da12","freq_resp","img/orange_2bandit_b.png","70","70","test","","","","7","",""
"null","265343","pSARL_v2","pSARL_v2219lmpwd","60ecb502739c4b998218da12","fixation","img/fixation.png","null","","test","","","","","",""
"409","265785","pSARL_v2","pSARL_v2219lmpwd","60ecb502739c4b998218da12","freq","img/orange_2bandit_b2.png","70","70","test","1","160","160","7","",""
"null","266208","pSARL_v2","pSARL_v2219lmpwd","60ecb502739c4b998218da12","freq_resp","img/orange_2bandit_b.png","70","70","test","","","","7","",""
"null","266400","pSARL_v2","pSARL_v2219lmpwd","60ecb502739c4b998218da12","fixation","img/fixation.png","null","","test","","","","","",""
"286.89999985694885","266719","pSARL_v2","pSARL_v2219lmpwd","60ecb502739c4b998218da12","freq","img/orange_2bandit_b2.png","70","70","test","1","161","161","7","",""
"null","267265","pSARL_v2","pSARL_v2219lmpwd","60ecb502739c4b998218da12","freq_resp","img/orange_2bandit_b.png","70","70","test","","","","7","",""
"null","267459","pSARL_v2","pSARL_v2219lmpwd","60ecb502739c4b998218da12","fixation","img/fixation.png","null","","test","","","","","",""
"317.7999999523163","267809","pSARL_v2","pSARL_v2219lmpwd","60ecb502739c4b998218da12","freq","img/orange_2bandit_b2.png","70","70","test","1","162","162","7","",""
"null","268330","pSARL_v2","pSARL_v2219lmpwd","60ecb502739c4b998218da12","freq_resp","img/orange_2bandit_b.png","70","70","test","","","","7","",""
"null","268525","pSARL_v2","pSARL_v2219lmpwd","60ecb502739c4b998218da12","fixation","img/fixation.png","null","","test","","","","","",""
"503.89999985694885","269060","pSARL_v2","pSARL_v2219lmpwd","60ecb502739c4b998218da12","reward","img/slot.png","74","","test","","","","","",""
"null","269848","pSARL_v2","pSARL_v2219lmpwd","60ecb502739c4b998218da12","points","<div class=""verylowPoints""> -6 </div>","null","na","test","","","","7","-6","6"
"307.90000009536743","270188","pSARL_v2","pSARL_v2219lmpwd","60ecb502739c4b998218da12","freq","img/orange_2bandit_b2.png","70","70","test","1","163","163","8","",""
"null","270714","pSARL_v2","pSARL_v2219lmpwd","60ecb502739c4b998218da12","freq_resp","img/orange_2bandit_b.png","70","70","test","","","","8","",""
"null","270902","pSARL_v2","pSARL_v2219lmpwd","60ecb502739c4b998218da12","fixation","img/fixation.png","null","","test","","","","","",""
"330.10000014305115","271264","pSARL_v2","pSARL_v2219lmpwd","60ecb502739c4b998218da12","freq","img/orange_2bandit_b2.png","70","70","test","1","164","164","8","",""
"null","271768","pSARL_v2","pSARL_v2219lmpwd","60ecb502739c4b998218da12","freq_resp","img/orange_2bandit_b.png","70","70","test","","","","8","",""
"null","271947","pSARL_v2","pSARL_v2219lmpwd","60ecb502739c4b998218da12","fixation","img/fixation.png","null","","test","","","","","",""
"311.7000000476837","272288","pSARL_v2","pSARL_v2219lmpwd","60ecb502739c4b998218da12","freq","img/orange_2bandit_b2.png","70","70","test","1","165","165","8","",""
"null","272824","pSARL_v2","pSARL_v2219lmpwd","60ecb502739c4b998218da12","freq_resp","img/orange_2bandit_b.png","70","70","test","","","","8","",""
"null","273013","pSARL_v2","pSARL_v2219lmpwd","60ecb502739c4b998218da12","fixation","img/fixation.png","null","","test","","","","","",""
"306.60000014305115","273352","pSARL_v2","pSARL_v2219lmpwd","60ecb502739c4b998218da12","freq","img/orange_2bandit_b2.png","70","70","test","1","166","166","8","",""
"null","273887","pSARL_v2","pSARL_v2219lmpwd","60ecb502739c4b998218da12","freq_resp","img/orange_2bandit_b.png","70","70","test","","","","8","",""
"null","274078","pSARL_v2","pSARL_v2219lmpwd","60ecb502739c4b998218da12","fixation","img/fixation.png","null","","test","","","","","",""
"null","274918","pSARL_v2","pSARL_v2219lmpwd","60ecb502739c4b998218da12","freq","img/orange_2bandit_b2.png","null","70","test","0","167","167","8","",""
"null","275100","pSARL_v2","pSARL_v2219lmpwd","60ecb502739c4b998218da12","fixation","img/fixation.png","null","","test","","","","","",""
"200.10000014305115","275333","pSARL_v2","pSARL_v2219lmpwd","60ecb502739c4b998218da12","freq","img/orange_2bandit_b2.png","70","70","test","1","168","168","8","",""
"null","275966","pSARL_v2","pSARL_v2219lmpwd","60ecb502739c4b998218da12","freq_resp","img/orange_2bandit_b.png","70","70","test","","","","8","",""
"null","276173","pSARL_v2","pSARL_v2219lmpwd","60ecb502739c4b998218da12","fixation","img/fixation.png","null","","test","","","","","",""
"274.60000014305115","276479","pSARL_v2","pSARL_v2219lmpwd","60ecb502739c4b998218da12","freq","img/orange_2bandit_b2.png","70","70","test","1","169","169","8","",""
"null","277047","pSARL_v2","pSARL_v2219lmpwd","60ecb502739c4b998218da12","freq_resp","img/orange_2bandit_b.png","70","70","test","","","","8","",""
"null","277233","pSARL_v2","pSARL_v2219lmpwd","60ecb502739c4b998218da12","fixation","img/fixation.png","null","","test","","","","","",""
"286.59999990463257","277552","pSARL_v2","pSARL_v2219lmpwd","60ecb502739c4b998218da12","freq","img/orange_2bandit_b2.png","70","70","test","1","170","170","8","",""
"null","278099","pSARL_v2","pSARL_v2219lmpwd","60ecb502739c4b998218da12","freq_resp","img/orange_2bandit_b.png","70","70","test","","","","8","",""
"null","278287","pSARL_v2","pSARL_v2219lmpwd","60ecb502739c4b998218da12","fixation","img/fixation.png","null","","test","","","","","",""
"225.29999995231628","278545","pSARL_v2","pSARL_v2219lmpwd","60ecb502739c4b998218da12","freq","img/orange_2bandit_b2.png","70","70","test","1","171","171","8","",""
"null","279160","pSARL_v2","pSARL_v2219lmpwd","60ecb502739c4b998218da12","freq_resp","img/orange_2bandit_b.png","70","70","test","","","","8","",""
"null","279346","pSARL_v2","pSARL_v2219lmpwd","60ecb502739c4b998218da12","fixation","img/fixation.png","null","","test","","","","","",""
"77.59999990463257","279456","pSARL_v2","pSARL_v2219lmpwd","60ecb502739c4b998218da12","freq","img/orange_2bandit_b2.png","70","70","test","1","172","172","8","",""
"null","280214","pSARL_v2","pSARL_v2219lmpwd","60ecb502739c4b998218da12","freq_resp","img/orange_2bandit_b.png","70","70","test","","","","8","",""
"null","280403","pSARL_v2","pSARL_v2219lmpwd","60ecb502739c4b998218da12","fixation","img/fixation.png","null","","test","","","","","",""
"248.90000009536743","280686","pSARL_v2","pSARL_v2219lmpwd","60ecb502739c4b998218da12","infreq","img/green_2bandit_b2.png","70","68","test","0","173","173","8","",""
"null","281278","pSARL_v2","pSARL_v2219lmpwd","60ecb502739c4b998218da12","infreq_resp","img/green_2bandit_b.png","70","68","test","","","","8","",""
"null","281466","pSARL_v2","pSARL_v2219lmpwd","60ecb502739c4b998218da12","fixation","img/fixation.png","null","","test","","","","","",""
"342.5","281840","pSARL_v2","pSARL_v2219lmpwd","60ecb502739c4b998218da12","freq","img/orange_2bandit_b2.png","70","70","test","1","174","174","8","",""
"null","282334","pSARL_v2","pSARL_v2219lmpwd","60ecb502739c4b998218da12","freq_resp","img/orange_2bandit_b.png","70","70","test","","","","8","",""
"null","282514","pSARL_v2","pSARL_v2219lmpwd","60ecb502739c4b998218da12","fixation","img/fixation.png","null","","test","","","","","",""
"284.7999999523163","282829","pSARL_v2","pSARL_v2219lmpwd","60ecb502739c4b998218da12","freq","img/orange_2bandit_b2.png","70","70","test","1","175","175","8","",""
"null","283378","pSARL_v2","pSARL_v2219lmpwd","60ecb502739c4b998218da12","freq_resp","img/orange_2bandit_b.png","70","70","test","","","","8","",""
"null","283563","pSARL_v2","pSARL_v2219lmpwd","60ecb502739c4b998218da12","fixation","img/fixation.png","null","","test","","","","","",""
"277.09999990463257","283873","pSARL_v2","pSARL_v2219lmpwd","60ecb502739c4b998218da12","freq","img/orange_2bandit_b2.png","70","70","test","1","176","176","8","",""
"null","284435","pSARL_v2","pSARL_v2219lmpwd","60ecb502739c4b998218da12","freq_resp","img/orange_2bandit_b.png","70","70","test","","","","8","",""
"null","284628","pSARL_v2","pSARL_v2219lmpwd","60ecb502739c4b998218da12","fixation","img/fixation.png","null","","test","","","","","",""
"302.80000019073486","284960","pSARL_v2","pSARL_v2219lmpwd","60ecb502739c4b998218da12","freq","img/orange_2bandit_b2.png","70","70","test","1","177","177","8","",""
"null","285503","pSARL_v2","pSARL_v2219lmpwd","60ecb502739c4b998218da12","freq_resp","img/orange_2bandit_b.png","70","70","test","","","","8","",""
"null","285693","pSARL_v2","pSARL_v2219lmpwd","60ecb502739c4b998218da12","fixation","img/fixation.png","null","","test","","","","","",""
"278.60000014305115","286005","pSARL_v2","pSARL_v2219lmpwd","60ecb502739c4b998218da12","infreq","img/green_2bandit_b2.png","70","68","test","0","178","178","8","",""
"null","286565","pSARL_v2","pSARL_v2219lmpwd","60ecb502739c4b998218da12","infreq_resp","img/green_2bandit_b.png","70","68","test","","","","8","",""
"null","286750","pSARL_v2","pSARL_v2219lmpwd","60ecb502739c4b998218da12","fixation","img/fixation.png","null","","test","","","","","",""
"391.40000009536743","287173","pSARL_v2","pSARL_v2219lmpwd","60ecb502739c4b998218da12","freq","img/orange_2bandit_b2.png","70","70","test","1","179","179","8","",""
"null","287626","pSARL_v2","pSARL_v2219lmpwd","60ecb502739c4b998218da12","freq_resp","img/orange_2bandit_b.png","70","70","test","","","","8","",""
"null","287821","pSARL_v2","pSARL_v2219lmpwd","60ecb502739c4b998218da12","fixation","img/fixation.png","null","","test","","","","","",""
"333.09999990463257","288184","pSARL_v2","pSARL_v2219lmpwd","60ecb502739c4b998218da12","freq","img/orange_2bandit_b2.png","70","70","test","1","180","180","8","",""
"null","288685","pSARL_v2","pSARL_v2219lmpwd","60ecb502739c4b998218da12","freq_resp","img/orange_2bandit_b.png","70","70","test","","","","8","",""
"null","288874","pSARL_v2","pSARL_v2219lmpwd","60ecb502739c4b998218da12","fixation","img/fixation.png","null","","test","","","","","",""
"323.40000009536743","289231","pSARL_v2","pSARL_v2219lmpwd","60ecb502739c4b998218da12","freq","img/orange_2bandit_b2.png","70","70","test","1","181","181","8","",""
"null","289750","pSARL_v2","pSARL_v2219lmpwd","60ecb502739c4b998218da12","freq_resp","img/orange_2bandit_b.png","70","70","test","","","","8","",""
"null","289939","pSARL_v2","pSARL_v2219lmpwd","60ecb502739c4b998218da12","fixation","img/fixation.png","null","","test","","","","","",""
"311.7000000476837","290281","pSARL_v2","pSARL_v2219lmpwd","60ecb502739c4b998218da12","freq","img/orange_2bandit_b2.png","70","70","test","1","182","182","8","",""
"null","290816","pSARL_v2","pSARL_v2219lmpwd","60ecb502739c4b998218da12","freq_resp","img/orange_2bandit_b.png","70","70","test","","","","8","",""
"null","291001","pSARL_v2","pSARL_v2219lmpwd","60ecb502739c4b998218da12","fixation","img/fixation.png","null","","test","","","","","",""
"324","291357","pSARL_v2","pSARL_v2219lmpwd","60ecb502739c4b998218da12","freq","img/orange_2bandit_b2.png","70","70","test","1","183","183","8","",""
"null","291878","pSARL_v2","pSARL_v2219lmpwd","60ecb502739c4b998218da12","freq_resp","img/orange_2bandit_b.png","70","70","test","","","","8","",""
"null","292056","pSARL_v2","pSARL_v2219lmpwd","60ecb502739c4b998218da12","fixation","img/fixation.png","null","","test","","","","","",""
"322.7000000476837","292399","pSARL_v2","pSARL_v2219lmpwd","60ecb502739c4b998218da12","freq","img/orange_2bandit_b2.png","70","70","test","1","184","184","8","",""
"null","292911","pSARL_v2","pSARL_v2219lmpwd","60ecb502739c4b998218da12","freq_resp","img/orange_2bandit_b.png","70","70","test","","","","8","",""
"null","293092","pSARL_v2","pSARL_v2219lmpwd","60ecb502739c4b998218da12","fixation","img/fixation.png","null","","test","","","","","",""
"303.7999999523163","293429","pSARL_v2","pSARL_v2219lmpwd","60ecb502739c4b998218da12","freq","img/orange_2bandit_b2.png","70","70","test","1","185","185","8","",""
"null","293971","pSARL_v2","pSARL_v2219lmpwd","60ecb502739c4b998218da12","freq_resp","img/orange_2bandit_b.png","70","70","test","","","","8","",""
"null","294167","pSARL_v2","pSARL_v2219lmpwd","60ecb502739c4b998218da12","fixation","img/fixation.png","null","","test","","","","","",""
"316.80000019073486","294517","pSARL_v2","pSARL_v2219lmpwd","60ecb502739c4b998218da12","freq","img/orange_2bandit_b2.png","70","70","test","1","186","186","8","",""
"null","295039","pSARL_v2","pSARL_v2219lmpwd","60ecb502739c4b998218da12","freq_resp","img/orange_2bandit_b.png","70","70","test","","","","8","",""
"null","295225","pSARL_v2","pSARL_v2219lmpwd","60ecb502739c4b998218da12","fixation","img/fixation.png","null","","test","","","","","",""
"337.59999990463257","295593","pSARL_v2","pSARL_v2219lmpwd","60ecb502739c4b998218da12","freq","img/orange_2bandit_b2.png","70","70","test","1","187","187","8","",""
"null","296091","pSARL_v2","pSARL_v2219lmpwd","60ecb502739c4b998218da12","freq_resp","img/orange_2bandit_b.png","70","70","test","","","","8","",""
"null","296274","pSARL_v2","pSARL_v2219lmpwd","60ecb502739c4b998218da12","fixation","img/fixation.png","null","","test","","","","","",""
"497","296801","pSARL_v2","pSARL_v2219lmpwd","60ecb502739c4b998218da12","reward","img/slot.png","74","","test","","","","","",""
"null","297581","pSARL_v2","pSARL_v2219lmpwd","60ecb502739c4b998218da12","points","<div class=""verylowPoints""> -4 </div>","null","na","test","","","","8","-4","7"
"402.2999999523163","298010","pSARL_v2","pSARL_v2219lmpwd","60ecb502739c4b998218da12","freq","img/orange_2bandit_b2.png","70","70","test","1","188","188","9","",""
"null","298437","pSARL_v2","pSARL_v2219lmpwd","60ecb502739c4b998218da12","freq_resp","img/orange_2bandit_b.png","70","70","test","","","","9","",""
"null","298622","pSARL_v2","pSARL_v2219lmpwd","60ecb502739c4b998218da12","fixation","img/fixation.png","null","","test","","","","","",""
"359.5","299015","pSARL_v2","pSARL_v2219lmpwd","60ecb502739c4b998218da12","freq","img/orange_2bandit_b2.png","70","70","test","1","189","189","9","",""
"null","299492","pSARL_v2","pSARL_v2219lmpwd","60ecb502739c4b998218da12","freq_resp","img/orange_2bandit_b.png","70","70","test","","","","9","",""
"null","299688","pSARL_v2","pSARL_v2219lmpwd","60ecb502739c4b998218da12","fixation","img/fixation.png","null","","test","","","","","",""
"302.90000009536743","300023","pSARL_v2","pSARL_v2219lmpwd","60ecb502739c4b998218da12","freq","img/orange_2bandit_b2.png","70","70","test","1","190","190","9","",""
"null","300557","pSARL_v2","pSARL_v2219lmpwd","60ecb502739c4b998218da12","freq_resp","img/orange_2bandit_b.png","70","70","test","","","","9","",""
"null","300750","pSARL_v2","pSARL_v2219lmpwd","60ecb502739c4b998218da12","fixation","img/fixation.png","null","","test","","","","","",""
"391.2999999523163","301175","pSARL_v2","pSARL_v2219lmpwd","60ecb502739c4b998218da12","freq","img/orange_2bandit_b2.png","70","70","test","1","191","191","9","",""
"null","301631","pSARL_v2","pSARL_v2219lmpwd","60ecb502739c4b998218da12","freq_resp","img/orange_2bandit_b.png","70","70","test","","","","9","",""
"null","301818","pSARL_v2","pSARL_v2219lmpwd","60ecb502739c4b998218da12","fixation","img/fixation.png","null","","test","","","","","",""
"338.2000000476837","302186","pSARL_v2","pSARL_v2219lmpwd","60ecb502739c4b998218da12","freq","img/orange_2bandit_b2.png","70","70","test","1","192","192","9","",""
"null","302695","pSARL_v2","pSARL_v2219lmpwd","60ecb502739c4b998218da12","freq_resp","img/orange_2bandit_b.png","70","70","test","","","","9","",""
"null","302883","pSARL_v2","pSARL_v2219lmpwd","60ecb502739c4b998218da12","fixation","img/fixation.png","null","","test","","","","","",""
"298.90000009536743","303214","pSARL_v2","pSARL_v2219lmpwd","60ecb502739c4b998218da12","freq","img/orange_2bandit_b2.png","70","70","test","1","193","193","9","",""
"null","303752","pSARL_v2","pSARL_v2219lmpwd","60ecb502739c4b998218da12","freq_resp","img/orange_2bandit_b.png","70","70","test","","","","9","",""
"null","303943","pSARL_v2","pSARL_v2219lmpwd","60ecb502739c4b998218da12","fixation","img/fixation.png","null","","test","","","","","",""
"274.2999999523163","304249","pSARL_v2","pSARL_v2219lmpwd","60ecb502739c4b998218da12","freq","img/orange_2bandit_b2.png","70","70","test","1","194","194","9","",""
"null","304815","pSARL_v2","pSARL_v2219lmpwd","60ecb502739c4b998218da12","freq_resp","img/orange_2bandit_b.png","70","70","test","","","","9","",""
"null","304999","pSARL_v2","pSARL_v2219lmpwd","60ecb502739c4b998218da12","fixation","img/fixation.png","null","","test","","","","","",""
"283.2000000476837","305314","pSARL_v2","pSARL_v2219lmpwd","60ecb502739c4b998218da12","freq","img/orange_2bandit_b2.png","70","70","test","1","195","195","9","",""
"null","305864","pSARL_v2","pSARL_v2219lmpwd","60ecb502739c4b998218da12","freq_resp","img/orange_2bandit_b.png","70","70","test","","","","9","",""
"null","306060","pSARL_v2","pSARL_v2219lmpwd","60ecb502739c4b998218da12","fixation","img/fixation.png","null","","test","","","","","",""
"346.69999980926514","306440","pSARL_v2","pSARL_v2219lmpwd","60ecb502739c4b998218da12","freq","img/orange_2bandit_b2.png","70","70","test","1","196","196","9","",""
"null","306936","pSARL_v2","pSARL_v2219lmpwd","60ecb502739c4b998218da12","freq_resp","img/orange_2bandit_b.png","70","70","test","","","","9","",""
"null","307126","pSARL_v2","pSARL_v2219lmpwd","60ecb502739c4b998218da12","fixation","img/fixation.png","null","","test","","","","","",""
"306.39999985694885","307461","pSARL_v2","pSARL_v2219lmpwd","60ecb502739c4b998218da12","freq","img/orange_2bandit_b2.png","70","70","test","1","197","197","9","",""
"null","307986","pSARL_v2","pSARL_v2219lmpwd","60ecb502739c4b998218da12","freq_resp","img/orange_2bandit_b.png","70","70","test","","","","9","",""
"null","308170","pSARL_v2","pSARL_v2219lmpwd","60ecb502739c4b998218da12","fixation","img/fixation.png","null","","test","","","","","",""
"334.7999999523163","308533","pSARL_v2","pSARL_v2219lmpwd","60ecb502739c4b998218da12","freq","img/orange_2bandit_b2.png","70","70","test","1","198","198","9","",""
"null","309035","pSARL_v2","pSARL_v2219lmpwd","60ecb502739c4b998218da12","freq_resp","img/orange_2bandit_b.png","70","70","test","","","","9","",""
"null","309224","pSARL_v2","pSARL_v2219lmpwd","60ecb502739c4b998218da12","fixation","img/fixation.png","null","","test","","","","","",""
"281.40000009536743","309539","pSARL_v2","pSARL_v2219lmpwd","60ecb502739c4b998218da12","infreq","img/green_2bandit_b2.png","70","68","test","0","199","199","9","",""
"null","310097","pSARL_v2","pSARL_v2219lmpwd","60ecb502739c4b998218da12","infreq_resp","img/green_2bandit_b.png","70","68","test","","","","9","",""
"null","310286","pSARL_v2","pSARL_v2219lmpwd","60ecb502739c4b998218da12","fixation","img/fixation.png","null","","test","","","","","",""
"218.09999990463257","310530","pSARL_v2","pSARL_v2219lmpwd","60ecb502739c4b998218da12","freq","img/orange_2bandit_b2.png","70","70","test","1","200","200","9","",""
"null","311174","pSARL_v2","pSARL_v2219lmpwd","60ecb502739c4b998218da12","freq_resp","img/orange_2bandit_b.png","70","70","test","","","","9","",""
"null","311359","pSARL_v2","pSARL_v2219lmpwd","60ecb502739c4b998218da12","fixation","img/fixation.png","null","","test","","","","","",""
"635.2999999523163","312025","pSARL_v2","pSARL_v2219lmpwd","60ecb502739c4b998218da12","freq","img/orange_2bandit_b2.png","70","70","test","1","201","201","9","",""
"null","312231","pSARL_v2","pSARL_v2219lmpwd","60ecb502739c4b998218da12","freq_resp","img/orange_2bandit_b.png","70","70","test","","","","9","",""
"null","312419","pSARL_v2","pSARL_v2219lmpwd","60ecb502739c4b998218da12","fixation","img/fixation.png","null","","test","","","","","",""
"308.2000000476837","312760","pSARL_v2","pSARL_v2219lmpwd","60ecb502739c4b998218da12","freq","img/orange_2bandit_b2.png","70","70","test","1","202","202","9","",""
"null","313291","pSARL_v2","pSARL_v2219lmpwd","60ecb502739c4b998218da12","freq_resp","img/orange_2bandit_b.png","70","70","test","","","","9","",""
"null","313483","pSARL_v2","pSARL_v2219lmpwd","60ecb502739c4b998218da12","fixation","img/fixation.png","null","","test","","","","","",""
"307.10000014305115","313824","pSARL_v2","pSARL_v2219lmpwd","60ecb502739c4b998218da12","freq","img/orange_2bandit_b2.png","70","70","test","1","203","203","9","",""
"null","314356","pSARL_v2","pSARL_v2219lmpwd","60ecb502739c4b998218da12","freq_resp","img/orange_2bandit_b.png","70","70","test","","","","9","",""
"null","314544","pSARL_v2","pSARL_v2219lmpwd","60ecb502739c4b998218da12","fixation","img/fixation.png","null","","test","","","","","",""
"181.39999985694885","314758","pSARL_v2","pSARL_v2219lmpwd","60ecb502739c4b998218da12","freq","img/orange_2bandit_b2.png","70","70","test","1","204","204","9","",""
"null","315416","pSARL_v2","pSARL_v2219lmpwd","60ecb502739c4b998218da12","freq_resp","img/orange_2bandit_b.png","70","70","test","","","","9","",""
"null","315609","pSARL_v2","pSARL_v2219lmpwd","60ecb502739c4b998218da12","fixation","img/fixation.png","null","","test","","","","","",""
"481.60000014305115","316125","pSARL_v2","pSARL_v2219lmpwd","60ecb502739c4b998218da12","infreq","img/green_2bandit_b2.png","68","68","test","1","205","205","9","",""
"null","316481","pSARL_v2","pSARL_v2219lmpwd","60ecb502739c4b998218da12","infreq_resp","img/green_2bandit_b.png","68","68","test","","","","9","",""
"null","316677","pSARL_v2","pSARL_v2219lmpwd","60ecb502739c4b998218da12","fixation","img/fixation.png","null","","test","","","","","",""
"646.7999999523163","317348","pSARL_v2","pSARL_v2219lmpwd","60ecb502739c4b998218da12","freq","img/orange_2bandit_b2.png","70","70","test","1","206","206","9","",""
"null","317527","pSARL_v2","pSARL_v2219lmpwd","60ecb502739c4b998218da12","freq_resp","img/orange_2bandit_b.png","70","70","test","","","","9","",""
"null","317710","pSARL_v2","pSARL_v2219lmpwd","60ecb502739c4b998218da12","fixation","img/fixation.png","null","","test","","","","","",""
"779.5","318521","pSARL_v2","pSARL_v2219lmpwd","60ecb502739c4b998218da12","freq","img/orange_2bandit_b2.png","70","70","test","1","207","207","9","",""
"null","318576","pSARL_v2","pSARL_v2219lmpwd","60ecb502739c4b998218da12","freq_resp","img/orange_2bandit_b.png","70","70","test","","","","9","",""
"null","318760","pSARL_v2","pSARL_v2219lmpwd","60ecb502739c4b998218da12","fixation","img/fixation.png","null","","test","","","","","",""
"774.9000000953674","319567","pSARL_v2","pSARL_v2219lmpwd","60ecb502739c4b998218da12","freq","img/orange_2bandit_b2.png","70","70","test","1","208","208","9","",""
