"rt","time_elapsed","expId","subject","prolificID","trialType","stimulus","key_press","corrresp","phase","corr","trialNum","attentionRunNum","blockNum","points","rlNum"
"10018.900000095367","10030","pSARL_v2","pSARL_v2bfqvy67d","60fd0c0177cf82998b783603","","","","","","","","","","",""
"","14241","pSARL_v2","pSARL_v2bfqvy67d","60fd0c0177cf82998b783603","fullscreen","","","","","","","","","",""
"71816.5","86064","pSARL_v2","pSARL_v2bfqvy67d","60fd0c0177cf82998b783603","","","","","","","","","","",""
"null","86882","pSARL_v2","pSARL_v2bfqvy67d","60fd0c0177cf82998b783603","freqPrac","img/green_2bandit_b2.png","null","70","prac","0","","","","",""
"null","87897","pSARL_v2","pSARL_v2bfqvy67d","60fd0c0177cf82998b783603","feedback","img/tooSlow.png","null","na","prac","","","","","",""
"null","88067","pSARL_v2","pSARL_v2bfqvy67d","60fd0c0177cf82998b783603","fixation","img/fixation.png","null","","prac","","","","","",""
"null","88880","pSARL_v2","pSARL_v2bfqvy67d","60fd0c0177cf82998b783603","infreqPrac","img/orange_2bandit_b2.png","null","68","prac","0","","","","",""
"null","89898","pSARL_v2","pSARL_v2bfqvy67d","60fd0c0177cf82998b783603","feedback","img/tooSlow.png","null","na","prac","","","","","",""
"null","90071","pSARL_v2","pSARL_v2bfqvy67d","60fd0c0177cf82998b783603","fixation","img/fixation.png","null","","prac","","","","","",""
"478.2999999523163","90559","pSARL_v2","pSARL_v2bfqvy67d","60fd0c0177cf82998b783603","freqPrac","img/green_2bandit_b2.png","70","70","prac","1","","","","",""
"478.2999999523163","90901","pSARL_v2","pSARL_v2bfqvy67d","60fd0c0177cf82998b783603","freqPrac_resp","img/green_2bandit_b.png","70","70","prac","","","","","",""
"null","91073","pSARL_v2","pSARL_v2bfqvy67d","60fd0c0177cf82998b783603","fixation","img/fixation.png","null","","prac","","","","","",""
"526.5999999046326","91610","pSARL_v2","pSARL_v2bfqvy67d","60fd0c0177cf82998b783603","infreqPrac","img/orange_2bandit_b2.png","68","68","prac","1","","","","",""
"526.5999999046326","91897","pSARL_v2","pSARL_v2bfqvy67d","60fd0c0177cf82998b783603","infreqPrac_resp","img/orange_2bandit_b.png","68","68","prac","","","","","",""
"null","92064","pSARL_v2","pSARL_v2bfqvy67d","60fd0c0177cf82998b783603","fixation","img/fixation.png","null","","prac","","","","","",""
"444.7999999523163","92513","pSARL_v2","pSARL_v2bfqvy67d","60fd0c0177cf82998b783603","infreqPrac","img/orange_2bandit_b2.png","68","68","prac","1","","","","",""
"444.7999999523163","92877","pSARL_v2","pSARL_v2bfqvy67d","60fd0c0177cf82998b783603","infreqPrac_resp","img/orange_2bandit_b.png","68","68","prac","","","","","",""
"null","93036","pSARL_v2","pSARL_v2bfqvy67d","60fd0c0177cf82998b783603","fixation","img/fixation.png","null","","prac","","","","","",""
"362.60000014305115","93404","pSARL_v2","pSARL_v2bfqvy67d","60fd0c0177cf82998b783603","infreqPrac","img/orange_2bandit_b2.png","68","68","prac","1","","","","",""
"362.60000014305115","93853","pSARL_v2","pSARL_v2bfqvy67d","60fd0c0177cf82998b783603","infreqPrac_resp","img/orange_2bandit_b.png","68","68","prac","","","","","",""
"null","94013","pSARL_v2","pSARL_v2bfqvy67d","60fd0c0177cf82998b783603","fixation","img/fixation.png","null","","prac","","","","","",""
"345.59999990463257","94364","pSARL_v2","pSARL_v2bfqvy67d","60fd0c0177cf82998b783603","freqPrac","img/green_2bandit_b2.png","68","70","prac","0","","","","",""
"345.59999990463257","94831","pSARL_v2","pSARL_v2bfqvy67d","60fd0c0177cf82998b783603","freqPrac_resp","img/green_2bandit_b.png","68","70","prac","","","","","",""
"null","95850","pSARL_v2","pSARL_v2bfqvy67d","60fd0c0177cf82998b783603","feedback","img/wrongKey.png","null","na","prac","","","","","",""
"null","96018","pSARL_v2","pSARL_v2bfqvy67d","60fd0c0177cf82998b783603","fixation","img/fixation.png","null","","prac","","","","","",""
"null","96842","pSARL_v2","pSARL_v2bfqvy67d","60fd0c0177cf82998b783603","infreqPrac","img/orange_2bandit_b2.png","null","68","prac","0","","","","",""
"null","97861","pSARL_v2","pSARL_v2bfqvy67d","60fd0c0177cf82998b783603","feedback","img/tooSlow.png","null","na","prac","","","","","",""
"null","98028","pSARL_v2","pSARL_v2bfqvy67d","60fd0c0177cf82998b783603","fixation","img/fixation.png","null","","prac","","","","","",""
"631.8999998569489","98668","pSARL_v2","pSARL_v2bfqvy67d","60fd0c0177cf82998b783603","freqPrac","img/green_2bandit_b2.png","70","70","prac","1","","","","",""
"631.8999998569489","98845","pSARL_v2","pSARL_v2bfqvy67d","60fd0c0177cf82998b783603","freqPrac_resp","img/green_2bandit_b.png","70","70","prac","","","","","",""
"null","99014","pSARL_v2","pSARL_v2bfqvy67d","60fd0c0177cf82998b783603","fixation","img/fixation.png","null","","prac","","","","","",""
"475.59999990463257","99496","pSARL_v2","pSARL_v2bfqvy67d","60fd0c0177cf82998b783603","freqPrac","img/green_2bandit_b2.png","70","70","prac","1","","","","",""
"475.59999990463257","99842","pSARL_v2","pSARL_v2bfqvy67d","60fd0c0177cf82998b783603","freqPrac_resp","img/green_2bandit_b.png","70","70","prac","","","","","",""
"null","100011","pSARL_v2","pSARL_v2bfqvy67d","60fd0c0177cf82998b783603","fixation","img/fixation.png","null","","prac","","","","","",""
"25371.900000095367","125390","pSARL_v2","pSARL_v2bfqvy67d","60fd0c0177cf82998b783603","","","","","prac","","","","","",""
"646.1999998092651","126041","pSARL_v2","pSARL_v2bfqvy67d","60fd0c0177cf82998b783603","rewardPractice","img/slot.png","74","","prac","","","","","",""
"null","126812","pSARL_v2","pSARL_v2bfqvy67d","60fd0c0177cf82998b783603","feedback","<div class=""veryhighPoints""> +15 </div>","null","na","prac","","","","","",""
"null","126975","pSARL_v2","pSARL_v2bfqvy67d","60fd0c0177cf82998b783603","fixation","img/fixation.png","null","","prac","","","","","",""
"9974.700000047684","136958","pSARL_v2","pSARL_v2bfqvy67d","60fd0c0177cf82998b783603","","","","","prac","","","","","",""
"580","137546","pSARL_v2","pSARL_v2bfqvy67d","60fd0c0177cf82998b783603","freq","img/green_2bandit_b2.png","70","70","test","1","1","1","1","",""
"null","137779","pSARL_v2","pSARL_v2bfqvy67d","60fd0c0177cf82998b783603","freq_resp","img/green_2bandit_b.png","70","70","test","","","","1","",""
"null","137953","pSARL_v2","pSARL_v2bfqvy67d","60fd0c0177cf82998b783603","fixation","img/fixation.png","null","","test","","","","","",""
"494.7000000476837","138454","pSARL_v2","pSARL_v2bfqvy67d","60fd0c0177cf82998b783603","infreq","img/orange_2bandit_b2.png","68","68","test","1","2","2","1","",""
"null","138769","pSARL_v2","pSARL_v2bfqvy67d","60fd0c0177cf82998b783603","infreq_resp","img/orange_2bandit_b.png","68","68","test","","","","1","",""
"null","138933","pSARL_v2","pSARL_v2bfqvy67d","60fd0c0177cf82998b783603","fixation","img/fixation.png","null","","test","","","","","",""
"384.40000009536743","139326","pSARL_v2","pSARL_v2bfqvy67d","60fd0c0177cf82998b783603","freq","img/green_2bandit_b2.png","70","70","test","1","3","3","1","",""
"null","139765","pSARL_v2","pSARL_v2bfqvy67d","60fd0c0177cf82998b783603","freq_resp","img/green_2bandit_b.png","70","70","test","","","","1","",""
"null","139925","pSARL_v2","pSARL_v2bfqvy67d","60fd0c0177cf82998b783603","fixation","img/fixation.png","null","","test","","","","","",""
"393.09999990463257","140326","pSARL_v2","pSARL_v2bfqvy67d","60fd0c0177cf82998b783603","freq","img/green_2bandit_b2.png","70","70","test","1","4","4","1","",""
"null","140756","pSARL_v2","pSARL_v2bfqvy67d","60fd0c0177cf82998b783603","freq_resp","img/green_2bandit_b.png","70","70","test","","","","1","",""
"null","140927","pSARL_v2","pSARL_v2bfqvy67d","60fd0c0177cf82998b783603","fixation","img/fixation.png","null","","test","","","","","",""
"381.7000000476837","141316","pSARL_v2","pSARL_v2bfqvy67d","60fd0c0177cf82998b783603","freq","img/green_2bandit_b2.png","70","70","test","1","5","5","1","",""
"null","141769","pSARL_v2","pSARL_v2bfqvy67d","60fd0c0177cf82998b783603","freq_resp","img/green_2bandit_b.png","70","70","test","","","","1","",""
"null","141942","pSARL_v2","pSARL_v2bfqvy67d","60fd0c0177cf82998b783603","fixation","img/fixation.png","null","","test","","","","","",""
"435.7999999523163","142388","pSARL_v2","pSARL_v2bfqvy67d","60fd0c0177cf82998b783603","freq","img/green_2bandit_b2.png","70","70","test","1","6","6","1","",""
"null","142775","pSARL_v2","pSARL_v2bfqvy67d","60fd0c0177cf82998b783603","freq_resp","img/green_2bandit_b.png","70","70","test","","","","1","",""
"null","142943","pSARL_v2","pSARL_v2bfqvy67d","60fd0c0177cf82998b783603","fixation","img/fixation.png","null","","test","","","","","",""
"345.7000000476837","143296","pSARL_v2","pSARL_v2bfqvy67d","60fd0c0177cf82998b783603","freq","img/green_2bandit_b2.png","70","70","test","1","7","7","1","",""
"null","143773","pSARL_v2","pSARL_v2bfqvy67d","60fd0c0177cf82998b783603","freq_resp","img/green_2bandit_b.png","70","70","test","","","","1","",""
"null","143937","pSARL_v2","pSARL_v2bfqvy67d","60fd0c0177cf82998b783603","fixation","img/fixation.png","null","","test","","","","","",""
"341","144288","pSARL_v2","pSARL_v2bfqvy67d","60fd0c0177cf82998b783603","freq","img/green_2bandit_b2.png","70","70","test","1","8","8","1","",""
"null","144757","pSARL_v2","pSARL_v2bfqvy67d","60fd0c0177cf82998b783603","freq_resp","img/green_2bandit_b.png","70","70","test","","","","1","",""
"null","144927","pSARL_v2","pSARL_v2bfqvy67d","60fd0c0177cf82998b783603","fixation","img/fixation.png","null","","test","","","","","",""
"372.39999985694885","145306","pSARL_v2","pSARL_v2bfqvy67d","60fd0c0177cf82998b783603","freq","img/green_2bandit_b2.png","70","70","test","1","9","9","1","",""
"null","145745","pSARL_v2","pSARL_v2bfqvy67d","60fd0c0177cf82998b783603","freq_resp","img/green_2bandit_b.png","70","70","test","","","","1","",""
"null","145916","pSARL_v2","pSARL_v2bfqvy67d","60fd0c0177cf82998b783603","fixation","img/fixation.png","null","","test","","","","","",""
"390.7999999523163","146312","pSARL_v2","pSARL_v2bfqvy67d","60fd0c0177cf82998b783603","freq","img/green_2bandit_b2.png","70","70","test","1","10","10","1","",""
"null","146732","pSARL_v2","pSARL_v2bfqvy67d","60fd0c0177cf82998b783603","freq_resp","img/green_2bandit_b.png","70","70","test","","","","1","",""
"null","146905","pSARL_v2","pSARL_v2bfqvy67d","60fd0c0177cf82998b783603","fixation","img/fixation.png","null","","test","","","","","",""
"493.59999990463257","147407","pSARL_v2","pSARL_v2bfqvy67d","60fd0c0177cf82998b783603","infreq","img/orange_2bandit_b2.png","68","68","test","1","11","11","1","",""
"null","147729","pSARL_v2","pSARL_v2bfqvy67d","60fd0c0177cf82998b783603","infreq_resp","img/orange_2bandit_b.png","68","68","test","","","","1","",""
"null","147902","pSARL_v2","pSARL_v2bfqvy67d","60fd0c0177cf82998b783603","fixation","img/fixation.png","null","","test","","","","","",""
"656.7000000476837","148568","pSARL_v2","pSARL_v2bfqvy67d","60fd0c0177cf82998b783603","freq","img/green_2bandit_b2.png","70","70","test","1","12","12","1","",""
"null","148732","pSARL_v2","pSARL_v2bfqvy67d","60fd0c0177cf82998b783603","freq_resp","img/green_2bandit_b.png","70","70","test","","","","1","",""
"null","148906","pSARL_v2","pSARL_v2bfqvy67d","60fd0c0177cf82998b783603","fixation","img/fixation.png","null","","test","","","","","",""
"523.0999999046326","149437","pSARL_v2","pSARL_v2bfqvy67d","60fd0c0177cf82998b783603","freq","img/green_2bandit_b2.png","70","70","test","1","13","13","1","",""
"null","149726","pSARL_v2","pSARL_v2bfqvy67d","60fd0c0177cf82998b783603","freq_resp","img/green_2bandit_b.png","70","70","test","","","","1","",""
"null","149896","pSARL_v2","pSARL_v2bfqvy67d","60fd0c0177cf82998b783603","fixation","img/fixation.png","null","","test","","","","","",""
"392.10000014305115","150296","pSARL_v2","pSARL_v2bfqvy67d","60fd0c0177cf82998b783603","freq","img/green_2bandit_b2.png","70","70","test","1","14","14","1","",""
"null","150726","pSARL_v2","pSARL_v2bfqvy67d","60fd0c0177cf82998b783603","freq_resp","img/green_2bandit_b.png","70","70","test","","","","1","",""
"null","150897","pSARL_v2","pSARL_v2bfqvy67d","60fd0c0177cf82998b783603","fixation","img/fixation.png","null","","test","","","","","",""
"331","151237","pSARL_v2","pSARL_v2bfqvy67d","60fd0c0177cf82998b783603","freq","img/green_2bandit_b2.png","70","70","test","1","15","15","1","",""
"null","151714","pSARL_v2","pSARL_v2bfqvy67d","60fd0c0177cf82998b783603","freq_resp","img/green_2bandit_b.png","70","70","test","","","","1","",""
"null","151887","pSARL_v2","pSARL_v2bfqvy67d","60fd0c0177cf82998b783603","fixation","img/fixation.png","null","","test","","","","","",""
"461.7999999523163","152357","pSARL_v2","pSARL_v2bfqvy67d","60fd0c0177cf82998b783603","freq","img/green_2bandit_b2.png","70","70","test","1","16","16","1","",""
"null","152706","pSARL_v2","pSARL_v2bfqvy67d","60fd0c0177cf82998b783603","freq_resp","img/green_2bandit_b.png","70","70","test","","","","1","",""
"null","152878","pSARL_v2","pSARL_v2bfqvy67d","60fd0c0177cf82998b783603","fixation","img/fixation.png","null","","test","","","","","",""
"370.89999985694885","153258","pSARL_v2","pSARL_v2bfqvy67d","60fd0c0177cf82998b783603","freq","img/green_2bandit_b2.png","70","70","test","1","17","17","1","",""
"null","153704","pSARL_v2","pSARL_v2bfqvy67d","60fd0c0177cf82998b783603","freq_resp","img/green_2bandit_b.png","70","70","test","","","","1","",""
"null","153874","pSARL_v2","pSARL_v2bfqvy67d","60fd0c0177cf82998b783603","fixation","img/fixation.png","null","","test","","","","","",""
"334.90000009536743","154218","pSARL_v2","pSARL_v2bfqvy67d","60fd0c0177cf82998b783603","freq","img/green_2bandit_b2.png","70","70","test","1","18","18","1","",""
"null","154705","pSARL_v2","pSARL_v2bfqvy67d","60fd0c0177cf82998b783603","freq_resp","img/green_2bandit_b.png","70","70","test","","","","1","",""
"null","154863","pSARL_v2","pSARL_v2bfqvy67d","60fd0c0177cf82998b783603","fixation","img/fixation.png","null","","test","","","","","",""
"425.5","155296","pSARL_v2","pSARL_v2bfqvy67d","60fd0c0177cf82998b783603","freq","img/green_2bandit_b2.png","70","70","test","1","19","19","1","",""
"null","155683","pSARL_v2","pSARL_v2bfqvy67d","60fd0c0177cf82998b783603","freq_resp","img/green_2bandit_b.png","70","70","test","","","","1","",""
"null","155855","pSARL_v2","pSARL_v2bfqvy67d","60fd0c0177cf82998b783603","fixation","img/fixation.png","null","","test","","","","","",""
"433.10000014305115","156296","pSARL_v2","pSARL_v2bfqvy67d","60fd0c0177cf82998b783603","freq","img/green_2bandit_b2.png","70","70","test","1","20","20","1","",""
"null","156673","pSARL_v2","pSARL_v2bfqvy67d","60fd0c0177cf82998b783603","freq_resp","img/green_2bandit_b.png","70","70","test","","","","1","",""
"null","156833","pSARL_v2","pSARL_v2bfqvy67d","60fd0c0177cf82998b783603","fixation","img/fixation.png","null","","test","","","","","",""
"445.5","157288","pSARL_v2","pSARL_v2bfqvy67d","60fd0c0177cf82998b783603","freq","img/green_2bandit_b2.png","70","70","test","1","21","21","1","",""
"null","157666","pSARL_v2","pSARL_v2bfqvy67d","60fd0c0177cf82998b783603","freq_resp","img/green_2bandit_b.png","70","70","test","","","","1","",""
"null","157837","pSARL_v2","pSARL_v2bfqvy67d","60fd0c0177cf82998b783603","fixation","img/fixation.png","null","","test","","","","","",""
"360.5","158203","pSARL_v2","pSARL_v2bfqvy67d","60fd0c0177cf82998b783603","freq","img/green_2bandit_b2.png","70","70","test","1","22","22","1","",""
"null","158661","pSARL_v2","pSARL_v2bfqvy67d","60fd0c0177cf82998b783603","freq_resp","img/green_2bandit_b.png","70","70","test","","","","1","",""
"null","158830","pSARL_v2","pSARL_v2bfqvy67d","60fd0c0177cf82998b783603","fixation","img/fixation.png","null","","test","","","","","",""
"369.39999985694885","159207","pSARL_v2","pSARL_v2bfqvy67d","60fd0c0177cf82998b783603","freq","img/green_2bandit_b2.png","70","70","test","1","23","23","1","",""
"null","159653","pSARL_v2","pSARL_v2bfqvy67d","60fd0c0177cf82998b783603","freq_resp","img/green_2bandit_b.png","70","70","test","","","","1","",""
"null","159825","pSARL_v2","pSARL_v2bfqvy67d","60fd0c0177cf82998b783603","fixation","img/fixation.png","null","","test","","","","","",""
"393.2000000476837","160226","pSARL_v2","pSARL_v2bfqvy67d","60fd0c0177cf82998b783603","freq","img/green_2bandit_b2.png","70","70","test","1","24","24","1","",""
"null","160651","pSARL_v2","pSARL_v2bfqvy67d","60fd0c0177cf82998b783603","freq_resp","img/green_2bandit_b.png","70","70","test","","","","1","",""
"null","160823","pSARL_v2","pSARL_v2bfqvy67d","60fd0c0177cf82998b783603","fixation","img/fixation.png","null","","test","","","","","",""
"315.80000019073486","161146","pSARL_v2","pSARL_v2bfqvy67d","60fd0c0177cf82998b783603","freq","img/green_2bandit_b2.png","70","70","test","1","25","25","1","",""
"null","161645","pSARL_v2","pSARL_v2bfqvy67d","60fd0c0177cf82998b783603","freq_resp","img/green_2bandit_b.png","70","70","test","","","","1","",""
"null","161817","pSARL_v2","pSARL_v2bfqvy67d","60fd0c0177cf82998b783603","fixation","img/fixation.png","null","","test","","","","","",""
"291.59999990463257","162117","pSARL_v2","pSARL_v2bfqvy67d","60fd0c0177cf82998b783603","freq","img/green_2bandit_b2.png","70","70","test","1","26","26","1","",""
"null","162638","pSARL_v2","pSARL_v2bfqvy67d","60fd0c0177cf82998b783603","freq_resp","img/green_2bandit_b.png","70","70","test","","","","1","",""
"null","162810","pSARL_v2","pSARL_v2bfqvy67d","60fd0c0177cf82998b783603","fixation","img/fixation.png","null","","test","","","","","",""
"598.8000001907349","163417","pSARL_v2","pSARL_v2bfqvy67d","60fd0c0177cf82998b783603","reward","img/slot.png","74","","test","","","","","",""
"null","164176","pSARL_v2","pSARL_v2bfqvy67d","60fd0c0177cf82998b783603","points","<div class=""verylowPoints""> -6 </div>","null","na","test","","","","1","-6","0"
"null","164993","pSARL_v2","pSARL_v2bfqvy67d","60fd0c0177cf82998b783603","freq","img/green_2bandit_b2.png","null","70","test","0","27","27","2","",""
"null","165169","pSARL_v2","pSARL_v2bfqvy67d","60fd0c0177cf82998b783603","fixation","img/fixation.png","null","","test","","","","","",""
"459.40000009536743","165637","pSARL_v2","pSARL_v2bfqvy67d","60fd0c0177cf82998b783603","freq","img/green_2bandit_b2.png","70","70","test","1","28","28","2","",""
"null","165988","pSARL_v2","pSARL_v2bfqvy67d","60fd0c0177cf82998b783603","freq_resp","img/green_2bandit_b.png","70","70","test","","","","2","",""
"null","166160","pSARL_v2","pSARL_v2bfqvy67d","60fd0c0177cf82998b783603","fixation","img/fixation.png","null","","test","","","","","",""
"598","166763","pSARL_v2","pSARL_v2bfqvy67d","60fd0c0177cf82998b783603","infreq","img/orange_2bandit_b2.png","68","68","test","1","29","29","2","",""
"null","166986","pSARL_v2","pSARL_v2bfqvy67d","60fd0c0177cf82998b783603","infreq_resp","img/orange_2bandit_b.png","68","68","test","","","","2","",""
"null","167144","pSARL_v2","pSARL_v2bfqvy67d","60fd0c0177cf82998b783603","fixation","img/fixation.png","null","","test","","","","","",""
"494.80000019073486","167647","pSARL_v2","pSARL_v2bfqvy67d","60fd0c0177cf82998b783603","freq","img/green_2bandit_b2.png","70","70","test","1","30","30","2","",""
"null","167963","pSARL_v2","pSARL_v2bfqvy67d","60fd0c0177cf82998b783603","freq_resp","img/green_2bandit_b.png","70","70","test","","","","2","",""
"null","168136","pSARL_v2","pSARL_v2bfqvy67d","60fd0c0177cf82998b783603","fixation","img/fixation.png","null","","test","","","","","",""
"412.40000009536743","168556","pSARL_v2","pSARL_v2bfqvy67d","60fd0c0177cf82998b783603","freq","img/green_2bandit_b2.png","70","70","test","1","31","31","2","",""
"null","168965","pSARL_v2","pSARL_v2bfqvy67d","60fd0c0177cf82998b783603","freq_resp","img/green_2bandit_b.png","70","70","test","","","","2","",""
"null","169123","pSARL_v2","pSARL_v2bfqvy67d","60fd0c0177cf82998b783603","fixation","img/fixation.png","null","","test","","","","","",""
"325.5","169456","pSARL_v2","pSARL_v2bfqvy67d","60fd0c0177cf82998b783603","freq","img/green_2bandit_b2.png","70","70","test","1","32","32","2","",""
"null","169941","pSARL_v2","pSARL_v2bfqvy67d","60fd0c0177cf82998b783603","freq_resp","img/green_2bandit_b.png","70","70","test","","","","2","",""
"null","170101","pSARL_v2","pSARL_v2bfqvy67d","60fd0c0177cf82998b783603","fixation","img/fixation.png","null","","test","","","","","",""
"327.7999999523163","170437","pSARL_v2","pSARL_v2bfqvy67d","60fd0c0177cf82998b783603","freq","img/green_2bandit_b2.png","70","70","test","1","33","33","2","",""
"null","170924","pSARL_v2","pSARL_v2bfqvy67d","60fd0c0177cf82998b783603","freq_resp","img/green_2bandit_b.png","70","70","test","","","","2","",""
"null","171095","pSARL_v2","pSARL_v2bfqvy67d","60fd0c0177cf82998b783603","fixation","img/fixation.png","null","","test","","","","","",""
"264.30000019073486","171367","pSARL_v2","pSARL_v2bfqvy67d","60fd0c0177cf82998b783603","freq","img/green_2bandit_b2.png","70","70","test","1","34","34","2","",""
"null","171924","pSARL_v2","pSARL_v2bfqvy67d","60fd0c0177cf82998b783603","freq_resp","img/green_2bandit_b.png","70","70","test","","","","2","",""
"null","172093","pSARL_v2","pSARL_v2bfqvy67d","60fd0c0177cf82998b783603","fixation","img/fixation.png","null","","test","","","","","",""
"256","172356","pSARL_v2","pSARL_v2bfqvy67d","60fd0c0177cf82998b783603","freq","img/green_2bandit_b2.png","70","70","test","1","35","35","2","",""
"null","172909","pSARL_v2","pSARL_v2bfqvy67d","60fd0c0177cf82998b783603","freq_resp","img/green_2bandit_b.png","70","70","test","","","","2","",""
"null","173084","pSARL_v2","pSARL_v2bfqvy67d","60fd0c0177cf82998b783603","fixation","img/fixation.png","null","","test","","","","","",""
"395.2999999523163","173487","pSARL_v2","pSARL_v2bfqvy67d","60fd0c0177cf82998b783603","freq","img/green_2bandit_b2.png","70","70","test","1","36","36","2","",""
"null","173914","pSARL_v2","pSARL_v2bfqvy67d","60fd0c0177cf82998b783603","freq_resp","img/green_2bandit_b.png","70","70","test","","","","2","",""
"null","174072","pSARL_v2","pSARL_v2bfqvy67d","60fd0c0177cf82998b783603","fixation","img/fixation.png","null","","test","","","","","",""
"365.59999990463257","174443","pSARL_v2","pSARL_v2bfqvy67d","60fd0c0177cf82998b783603","freq","img/green_2bandit_b2.png","70","70","test","1","37","37","2","",""
"null","174890","pSARL_v2","pSARL_v2bfqvy67d","60fd0c0177cf82998b783603","freq_resp","img/green_2bandit_b.png","70","70","test","","","","2","",""
"null","175050","pSARL_v2","pSARL_v2bfqvy67d","60fd0c0177cf82998b783603","fixation","img/fixation.png","null","","test","","","","","",""
"329.2999999523163","175387","pSARL_v2","pSARL_v2bfqvy67d","60fd0c0177cf82998b783603","freq","img/green_2bandit_b2.png","70","70","test","1","38","38","2","",""
"null","175866","pSARL_v2","pSARL_v2bfqvy67d","60fd0c0177cf82998b783603","freq_resp","img/green_2bandit_b.png","70","70","test","","","","2","",""
"null","176025","pSARL_v2","pSARL_v2bfqvy67d","60fd0c0177cf82998b783603","fixation","img/fixation.png","null","","test","","","","","",""
"503.7999999523163","176537","pSARL_v2","pSARL_v2bfqvy67d","60fd0c0177cf82998b783603","infreq","img/orange_2bandit_b2.png","68","68","test","1","39","39","2","",""
"null","176848","pSARL_v2","pSARL_v2bfqvy67d","60fd0c0177cf82998b783603","infreq_resp","img/orange_2bandit_b.png","68","68","test","","","","2","",""
"null","177007","pSARL_v2","pSARL_v2bfqvy67d","60fd0c0177cf82998b783603","fixation","img/fixation.png","null","","test","","","","","",""
"511.2999999523163","177526","pSARL_v2","pSARL_v2bfqvy67d","60fd0c0177cf82998b783603","freq","img/green_2bandit_b2.png","70","70","test","1","40","40","2","",""
"null","177830","pSARL_v2","pSARL_v2bfqvy67d","60fd0c0177cf82998b783603","freq_resp","img/green_2bandit_b.png","70","70","test","","","","2","",""
"null","178002","pSARL_v2","pSARL_v2bfqvy67d","60fd0c0177cf82998b783603","fixation","img/fixation.png","null","","test","","","","","",""
"427.40000009536743","178437","pSARL_v2","pSARL_v2bfqvy67d","60fd0c0177cf82998b783603","freq","img/green_2bandit_b2.png","70","70","test","1","41","41","2","",""
"null","178819","pSARL_v2","pSARL_v2bfqvy67d","60fd0c0177cf82998b783603","freq_resp","img/green_2bandit_b.png","70","70","test","","","","2","",""
"null","178990","pSARL_v2","pSARL_v2bfqvy67d","60fd0c0177cf82998b783603","fixation","img/fixation.png","null","","test","","","","","",""
"398.5","179399","pSARL_v2","pSARL_v2bfqvy67d","60fd0c0177cf82998b783603","freq","img/green_2bandit_b2.png","70","70","test","1","42","42","2","",""
"null","179819","pSARL_v2","pSARL_v2bfqvy67d","60fd0c0177cf82998b783603","freq_resp","img/green_2bandit_b.png","70","70","test","","","","2","",""
"null","179989","pSARL_v2","pSARL_v2bfqvy67d","60fd0c0177cf82998b783603","fixation","img/fixation.png","null","","test","","","","","",""
"378.90000009536743","180376","pSARL_v2","pSARL_v2bfqvy67d","60fd0c0177cf82998b783603","freq","img/green_2bandit_b2.png","70","70","test","1","43","43","2","",""
"null","180814","pSARL_v2","pSARL_v2bfqvy67d","60fd0c0177cf82998b783603","freq_resp","img/green_2bandit_b.png","70","70","test","","","","2","",""
"null","180972","pSARL_v2","pSARL_v2bfqvy67d","60fd0c0177cf82998b783603","fixation","img/fixation.png","null","","test","","","","","",""
"375.2999999523163","181352","pSARL_v2","pSARL_v2bfqvy67d","60fd0c0177cf82998b783603","freq","img/green_2bandit_b2.png","70","70","test","1","44","44","2","",""
"null","181786","pSARL_v2","pSARL_v2bfqvy67d","60fd0c0177cf82998b783603","freq_resp","img/green_2bandit_b.png","70","70","test","","","","2","",""
"null","181947","pSARL_v2","pSARL_v2bfqvy67d","60fd0c0177cf82998b783603","fixation","img/fixation.png","null","","test","","","","","",""
"349.7999999523163","182302","pSARL_v2","pSARL_v2bfqvy67d","60fd0c0177cf82998b783603","freq","img/green_2bandit_b2.png","70","70","test","1","45","45","2","",""
"null","182766","pSARL_v2","pSARL_v2bfqvy67d","60fd0c0177cf82998b783603","freq_resp","img/green_2bandit_b.png","70","70","test","","","","2","",""
"null","182953","pSARL_v2","pSARL_v2bfqvy67d","60fd0c0177cf82998b783603","fixation","img/fixation.png","null","","test","","","","","",""
"475.2000000476837","183437","pSARL_v2","pSARL_v2bfqvy67d","60fd0c0177cf82998b783603","reward","img/slot.png","74","","test","","","","","",""
"null","184204","pSARL_v2","pSARL_v2bfqvy67d","60fd0c0177cf82998b783603","points","<div class=""verylowPoints""> -11 </div>","null","na","test","","","","2","-11","1"
"null","185021","pSARL_v2","pSARL_v2bfqvy67d","60fd0c0177cf82998b783603","freq","img/green_2bandit_b2.png","null","70","test","0","46","46","3","",""
"null","185192","pSARL_v2","pSARL_v2bfqvy67d","60fd0c0177cf82998b783603","fixation","img/fixation.png","null","","test","","","","","",""
"86.59999990463257","185287","pSARL_v2","pSARL_v2bfqvy67d","60fd0c0177cf82998b783603","freq","img/green_2bandit_b2.png","70","70","test","1","47","47","3","",""
"null","186006","pSARL_v2","pSARL_v2bfqvy67d","60fd0c0177cf82998b783603","freq_resp","img/green_2bandit_b.png","70","70","test","","","","3","",""
"null","186173","pSARL_v2","pSARL_v2bfqvy67d","60fd0c0177cf82998b783603","fixation","img/fixation.png","null","","test","","","","","",""
"515.3999998569489","186697","pSARL_v2","pSARL_v2bfqvy67d","60fd0c0177cf82998b783603","freq","img/green_2bandit_b2.png","70","70","test","1","48","48","3","",""
"null","186990","pSARL_v2","pSARL_v2bfqvy67d","60fd0c0177cf82998b783603","freq_resp","img/green_2bandit_b.png","70","70","test","","","","3","",""
"null","187164","pSARL_v2","pSARL_v2bfqvy67d","60fd0c0177cf82998b783603","fixation","img/fixation.png","null","","test","","","","","",""
"354.39999985694885","187526","pSARL_v2","pSARL_v2bfqvy67d","60fd0c0177cf82998b783603","freq","img/green_2bandit_b2.png","70","70","test","1","49","49","3","",""
"null","187983","pSARL_v2","pSARL_v2bfqvy67d","60fd0c0177cf82998b783603","freq_resp","img/green_2bandit_b.png","70","70","test","","","","3","",""
"null","188154","pSARL_v2","pSARL_v2bfqvy67d","60fd0c0177cf82998b783603","fixation","img/fixation.png","null","","test","","","","","",""
"423.89999985694885","188587","pSARL_v2","pSARL_v2bfqvy67d","60fd0c0177cf82998b783603","freq","img/green_2bandit_b2.png","70","70","test","1","50","50","3","",""
"null","188972","pSARL_v2","pSARL_v2bfqvy67d","60fd0c0177cf82998b783603","freq_resp","img/green_2bandit_b.png","70","70","test","","","","3","",""
"null","189145","pSARL_v2","pSARL_v2bfqvy67d","60fd0c0177cf82998b783603","fixation","img/fixation.png","null","","test","","","","","",""
"313.09999990463257","189467","pSARL_v2","pSARL_v2bfqvy67d","60fd0c0177cf82998b783603","freq","img/green_2bandit_b2.png","70","70","test","1","51","51","3","",""
"null","189959","pSARL_v2","pSARL_v2bfqvy67d","60fd0c0177cf82998b783603","freq_resp","img/green_2bandit_b.png","70","70","test","","","","3","",""
"null","190121","pSARL_v2","pSARL_v2bfqvy67d","60fd0c0177cf82998b783603","fixation","img/fixation.png","null","","test","","","","","",""
"257.7000000476837","190386","pSARL_v2","pSARL_v2bfqvy67d","60fd0c0177cf82998b783603","freq","img/green_2bandit_b2.png","70","70","test","1","52","52","3","",""
"null","190947","pSARL_v2","pSARL_v2bfqvy67d","60fd0c0177cf82998b783603","freq_resp","img/green_2bandit_b.png","70","70","test","","","","3","",""
"null","191120","pSARL_v2","pSARL_v2bfqvy67d","60fd0c0177cf82998b783603","fixation","img/fixation.png","null","","test","","","","","",""
"190.09999990463257","191318","pSARL_v2","pSARL_v2bfqvy67d","60fd0c0177cf82998b783603","freq","img/green_2bandit_b2.png","70","70","test","1","53","53","3","",""
"null","191934","pSARL_v2","pSARL_v2bfqvy67d","60fd0c0177cf82998b783603","freq_resp","img/green_2bandit_b.png","70","70","test","","","","3","",""
"null","192102","pSARL_v2","pSARL_v2bfqvy67d","60fd0c0177cf82998b783603","fixation","img/fixation.png","null","","test","","","","","",""
"397.2000000476837","192506","pSARL_v2","pSARL_v2bfqvy67d","60fd0c0177cf82998b783603","freq","img/green_2bandit_b2.png","70","70","test","1","54","54","3","",""
"null","192932","pSARL_v2","pSARL_v2bfqvy67d","60fd0c0177cf82998b783603","freq_resp","img/green_2bandit_b.png","70","70","test","","","","3","",""
"null","193104","pSARL_v2","pSARL_v2bfqvy67d","60fd0c0177cf82998b783603","fixation","img/fixation.png","null","","test","","","","","",""
"254.30000019073486","193365","pSARL_v2","pSARL_v2bfqvy67d","60fd0c0177cf82998b783603","freq","img/green_2bandit_b2.png","70","70","test","1","55","55","3","",""
"null","193933","pSARL_v2","pSARL_v2bfqvy67d","60fd0c0177cf82998b783603","freq_resp","img/green_2bandit_b.png","70","70","test","","","","3","",""
"null","194106","pSARL_v2","pSARL_v2bfqvy67d","60fd0c0177cf82998b783603","fixation","img/fixation.png","null","","test","","","","","",""
"342.2999999523163","194456","pSARL_v2","pSARL_v2bfqvy67d","60fd0c0177cf82998b783603","infreq","img/orange_2bandit_b2.png","70","68","test","0","56","56","3","",""
"null","194921","pSARL_v2","pSARL_v2bfqvy67d","60fd0c0177cf82998b783603","infreq_resp","img/orange_2bandit_b.png","70","68","test","","","","3","",""
"null","195092","pSARL_v2","pSARL_v2bfqvy67d","60fd0c0177cf82998b783603","fixation","img/fixation.png","null","","test","","","","","",""
"365.7000000476837","195467","pSARL_v2","pSARL_v2bfqvy67d","60fd0c0177cf82998b783603","freq","img/green_2bandit_b2.png","70","70","test","1","57","57","3","",""
"null","195924","pSARL_v2","pSARL_v2bfqvy67d","60fd0c0177cf82998b783603","freq_resp","img/green_2bandit_b.png","70","70","test","","","","3","",""
"null","196095","pSARL_v2","pSARL_v2bfqvy67d","60fd0c0177cf82998b783603","fixation","img/fixation.png","null","","test","","","","","",""
"353.60000014305115","196456","pSARL_v2","pSARL_v2bfqvy67d","60fd0c0177cf82998b783603","freq","img/green_2bandit_b2.png","70","70","test","1","58","58","3","",""
"null","196917","pSARL_v2","pSARL_v2bfqvy67d","60fd0c0177cf82998b783603","freq_resp","img/green_2bandit_b.png","70","70","test","","","","3","",""
"null","197079","pSARL_v2","pSARL_v2bfqvy67d","60fd0c0177cf82998b783603","fixation","img/fixation.png","null","","test","","","","","",""
"357.90000009536743","197442","pSARL_v2","pSARL_v2bfqvy67d","60fd0c0177cf82998b783603","freq","img/green_2bandit_b2.png","70","70","test","1","59","59","3","",""
"null","197903","pSARL_v2","pSARL_v2bfqvy67d","60fd0c0177cf82998b783603","freq_resp","img/green_2bandit_b.png","70","70","test","","","","3","",""
"null","198073","pSARL_v2","pSARL_v2bfqvy67d","60fd0c0177cf82998b783603","fixation","img/fixation.png","null","","test","","","","","",""
"337","198417","pSARL_v2","pSARL_v2bfqvy67d","60fd0c0177cf82998b783603","freq","img/green_2bandit_b2.png","70","70","test","1","60","60","3","",""
"null","198890","pSARL_v2","pSARL_v2bfqvy67d","60fd0c0177cf82998b783603","freq_resp","img/green_2bandit_b.png","70","70","test","","","","3","",""
"null","199061","pSARL_v2","pSARL_v2bfqvy67d","60fd0c0177cf82998b783603","fixation","img/fixation.png","null","","test","","","","","",""
"398.5","199467","pSARL_v2","pSARL_v2bfqvy67d","60fd0c0177cf82998b783603","infreq","img/orange_2bandit_b2.png","68","68","test","1","61","61","3","",""
"null","199890","pSARL_v2","pSARL_v2bfqvy67d","60fd0c0177cf82998b783603","infreq_resp","img/orange_2bandit_b.png","68","68","test","","","","3","",""
"null","200051","pSARL_v2","pSARL_v2bfqvy67d","60fd0c0177cf82998b783603","fixation","img/fixation.png","null","","test","","","","","",""
"337.7000000476837","200397","pSARL_v2","pSARL_v2bfqvy67d","60fd0c0177cf82998b783603","freq","img/green_2bandit_b2.png","70","70","test","1","62","62","3","",""
"null","200882","pSARL_v2","pSARL_v2bfqvy67d","60fd0c0177cf82998b783603","freq_resp","img/green_2bandit_b.png","70","70","test","","","","3","",""
"null","201052","pSARL_v2","pSARL_v2bfqvy67d","60fd0c0177cf82998b783603","fixation","img/fixation.png","null","","test","","","","","",""
"315","201371","pSARL_v2","pSARL_v2bfqvy67d","60fd0c0177cf82998b783603","freq","img/green_2bandit_b2.png","70","70","test","1","63","63","3","",""
"null","201877","pSARL_v2","pSARL_v2bfqvy67d","60fd0c0177cf82998b783603","freq_resp","img/green_2bandit_b.png","70","70","test","","","","3","",""
"null","202035","pSARL_v2","pSARL_v2bfqvy67d","60fd0c0177cf82998b783603","fixation","img/fixation.png","null","","test","","","","","",""
"439.7000000476837","202484","pSARL_v2","pSARL_v2bfqvy67d","60fd0c0177cf82998b783603","freq","img/green_2bandit_b2.png","70","70","test","1","64","64","3","",""
"null","202869","pSARL_v2","pSARL_v2bfqvy67d","60fd0c0177cf82998b783603","freq_resp","img/green_2bandit_b.png","70","70","test","","","","3","",""
"null","203030","pSARL_v2","pSARL_v2bfqvy67d","60fd0c0177cf82998b783603","fixation","img/fixation.png","null","","test","","","","","",""
"348.40000009536743","203386","pSARL_v2","pSARL_v2bfqvy67d","60fd0c0177cf82998b783603","freq","img/green_2bandit_b2.png","70","70","test","1","65","65","3","",""
"null","203862","pSARL_v2","pSARL_v2bfqvy67d","60fd0c0177cf82998b783603","freq_resp","img/green_2bandit_b.png","70","70","test","","","","3","",""
"null","204033","pSARL_v2","pSARL_v2bfqvy67d","60fd0c0177cf82998b783603","fixation","img/fixation.png","null","","test","","","","","",""
"325.5","204366","pSARL_v2","pSARL_v2bfqvy67d","60fd0c0177cf82998b783603","freq","img/green_2bandit_b2.png","70","70","test","1","66","66","3","",""
"null","204854","pSARL_v2","pSARL_v2bfqvy67d","60fd0c0177cf82998b783603","freq_resp","img/green_2bandit_b.png","70","70","test","","","","3","",""
"null","205014","pSARL_v2","pSARL_v2bfqvy67d","60fd0c0177cf82998b783603","fixation","img/fixation.png","null","","test","","","","","",""
"324.2999999523163","205347","pSARL_v2","pSARL_v2bfqvy67d","60fd0c0177cf82998b783603","freq","img/green_2bandit_b2.png","70","70","test","1","67","67","3","",""
"null","205847","pSARL_v2","pSARL_v2bfqvy67d","60fd0c0177cf82998b783603","freq_resp","img/green_2bandit_b.png","70","70","test","","","","3","",""
"null","206020","pSARL_v2","pSARL_v2bfqvy67d","60fd0c0177cf82998b783603","fixation","img/fixation.png","null","","test","","","","","",""
"288.59999990463257","206317","pSARL_v2","pSARL_v2bfqvy67d","60fd0c0177cf82998b783603","freq","img/green_2bandit_b2.png","70","70","test","1","68","68","3","",""
"null","206869","pSARL_v2","pSARL_v2bfqvy67d","60fd0c0177cf82998b783603","freq_resp","img/green_2bandit_b.png","70","70","test","","","","3","",""
"null","207035","pSARL_v2","pSARL_v2bfqvy67d","60fd0c0177cf82998b783603","fixation","img/fixation.png","null","","test","","","","","",""
"443.39999985694885","207486","pSARL_v2","pSARL_v2bfqvy67d","60fd0c0177cf82998b783603","infreq","img/orange_2bandit_b2.png","68","68","test","1","69","69","3","",""
"null","207865","pSARL_v2","pSARL_v2bfqvy67d","60fd0c0177cf82998b783603","infreq_resp","img/orange_2bandit_b.png","68","68","test","","","","3","",""
"null","208029","pSARL_v2","pSARL_v2bfqvy67d","60fd0c0177cf82998b783603","fixation","img/fixation.png","null","","test","","","","","",""
"328.7000000476837","208366","pSARL_v2","pSARL_v2bfqvy67d","60fd0c0177cf82998b783603","freq","img/green_2bandit_b2.png","70","70","test","1","70","70","3","",""
"null","208856","pSARL_v2","pSARL_v2bfqvy67d","60fd0c0177cf82998b783603","freq_resp","img/green_2bandit_b.png","70","70","test","","","","3","",""
"null","209027","pSARL_v2","pSARL_v2bfqvy67d","60fd0c0177cf82998b783603","fixation","img/fixation.png","null","","test","","","","","",""
"540.4000000953674","209572","pSARL_v2","pSARL_v2bfqvy67d","60fd0c0177cf82998b783603","reward","img/slot.png","74","","test","","","","","",""
"null","210332","pSARL_v2","pSARL_v2bfqvy67d","60fd0c0177cf82998b783603","points","<div class=""verylowPoints""> -7 </div>","null","na","test","","","","3","-7","2"
"534.7000000476837","210876","pSARL_v2","pSARL_v2bfqvy67d","60fd0c0177cf82998b783603","freq","img/green_2bandit_b2.png","70","70","test","1","71","71","4","",""
"null","211152","pSARL_v2","pSARL_v2bfqvy67d","60fd0c0177cf82998b783603","freq_resp","img/green_2bandit_b.png","70","70","test","","","","4","",""
"null","211308","pSARL_v2","pSARL_v2bfqvy67d","60fd0c0177cf82998b783603","fixation","img/fixation.png","null","","test","","","","","",""
"428.5","211745","pSARL_v2","pSARL_v2bfqvy67d","60fd0c0177cf82998b783603","freq","img/green_2bandit_b2.png","70","70","test","1","72","72","4","",""
"null","212133","pSARL_v2","pSARL_v2bfqvy67d","60fd0c0177cf82998b783603","freq_resp","img/green_2bandit_b.png","70","70","test","","","","4","",""
"null","212302","pSARL_v2","pSARL_v2bfqvy67d","60fd0c0177cf82998b783603","fixation","img/fixation.png","null","","test","","","","","",""
"385.2999999523163","212695","pSARL_v2","pSARL_v2bfqvy67d","60fd0c0177cf82998b783603","freq","img/green_2bandit_b2.png","70","70","test","1","73","73","4","",""
"null","213129","pSARL_v2","pSARL_v2bfqvy67d","60fd0c0177cf82998b783603","freq_resp","img/green_2bandit_b.png","70","70","test","","","","4","",""
"null","213299","pSARL_v2","pSARL_v2bfqvy67d","60fd0c0177cf82998b783603","fixation","img/fixation.png","null","","test","","","","","",""
"308.5","213615","pSARL_v2","pSARL_v2bfqvy67d","60fd0c0177cf82998b783603","freq","img/green_2bandit_b2.png","70","70","test","1","74","74","4","",""
"null","214116","pSARL_v2","pSARL_v2bfqvy67d","60fd0c0177cf82998b783603","freq_resp","img/green_2bandit_b.png","70","70","test","","","","4","",""
"null","214286","pSARL_v2","pSARL_v2bfqvy67d","60fd0c0177cf82998b783603","fixation","img/fixation.png","null","","test","","","","","",""
"331.40000009536743","214625","pSARL_v2","pSARL_v2bfqvy67d","60fd0c0177cf82998b783603","freq","img/green_2bandit_b2.png","70","70","test","1","75","75","4","",""
"null","215116","pSARL_v2","pSARL_v2bfqvy67d","60fd0c0177cf82998b783603","freq_resp","img/green_2bandit_b.png","70","70","test","","","","4","",""
"null","215286","pSARL_v2","pSARL_v2bfqvy67d","60fd0c0177cf82998b783603","fixation","img/fixation.png","null","","test","","","","","",""
"330.2999999523163","215625","pSARL_v2","pSARL_v2bfqvy67d","60fd0c0177cf82998b783603","freq","img/green_2bandit_b2.png","70","70","test","1","76","76","4","",""
"null","216105","pSARL_v2","pSARL_v2bfqvy67d","60fd0c0177cf82998b783603","freq_resp","img/green_2bandit_b.png","70","70","test","","","","4","",""
"null","216279","pSARL_v2","pSARL_v2bfqvy67d","60fd0c0177cf82998b783603","fixation","img/fixation.png","null","","test","","","","","",""
"327.7000000476837","216614","pSARL_v2","pSARL_v2bfqvy67d","60fd0c0177cf82998b783603","freq","img/green_2bandit_b2.png","70","70","test","1","77","77","4","",""
"null","217109","pSARL_v2","pSARL_v2bfqvy67d","60fd0c0177cf82998b783603","freq_resp","img/green_2bandit_b.png","70","70","test","","","","4","",""
"null","217267","pSARL_v2","pSARL_v2bfqvy67d","60fd0c0177cf82998b783603","fixation","img/fixation.png","null","","test","","","","","",""
"468.7000000476837","217740","pSARL_v2","pSARL_v2bfqvy67d","60fd0c0177cf82998b783603","infreq","img/orange_2bandit_b2.png","68","68","test","1","78","78","4","",""
"null","218086","pSARL_v2","pSARL_v2bfqvy67d","60fd0c0177cf82998b783603","infreq_resp","img/orange_2bandit_b.png","68","68","test","","","","4","",""
"null","218244","pSARL_v2","pSARL_v2bfqvy67d","60fd0c0177cf82998b783603","fixation","img/fixation.png","null","","test","","","","","",""
"341.7999999523163","218590","pSARL_v2","pSARL_v2bfqvy67d","60fd0c0177cf82998b783603","freq","img/green_2bandit_b2.png","70","70","test","1","79","79","4","",""
"null","219068","pSARL_v2","pSARL_v2bfqvy67d","60fd0c0177cf82998b783603","freq_resp","img/green_2bandit_b.png","70","70","test","","","","4","",""
"null","219224","pSARL_v2","pSARL_v2bfqvy67d","60fd0c0177cf82998b783603","fixation","img/fixation.png","null","","test","","","","","",""
"321","219550","pSARL_v2","pSARL_v2bfqvy67d","60fd0c0177cf82998b783603","infreq","img/orange_2bandit_b2.png","70","68","test","0","80","80","4","",""
"null","220049","pSARL_v2","pSARL_v2bfqvy67d","60fd0c0177cf82998b783603","infreq_resp","img/orange_2bandit_b.png","70","68","test","","","","4","",""
"null","220209","pSARL_v2","pSARL_v2bfqvy67d","60fd0c0177cf82998b783603","fixation","img/fixation.png","null","","test","","","","","",""
"367.7999999523163","220586","pSARL_v2","pSARL_v2bfqvy67d","60fd0c0177cf82998b783603","freq","img/green_2bandit_b2.png","70","70","test","1","81","81","4","",""
"null","221042","pSARL_v2","pSARL_v2bfqvy67d","60fd0c0177cf82998b783603","freq_resp","img/green_2bandit_b.png","70","70","test","","","","4","",""
"null","221213","pSARL_v2","pSARL_v2bfqvy67d","60fd0c0177cf82998b783603","fixation","img/fixation.png","null","","test","","","","","",""
"393.90000009536743","221616","pSARL_v2","pSARL_v2bfqvy67d","60fd0c0177cf82998b783603","freq","img/green_2bandit_b2.png","70","70","test","1","82","82","4","",""
"null","222047","pSARL_v2","pSARL_v2bfqvy67d","60fd0c0177cf82998b783603","freq_resp","img/green_2bandit_b.png","70","70","test","","","","4","",""
"null","222211","pSARL_v2","pSARL_v2bfqvy67d","60fd0c0177cf82998b783603","fixation","img/fixation.png","null","","test","","","","","",""
"405.10000014305115","222626","pSARL_v2","pSARL_v2bfqvy67d","60fd0c0177cf82998b783603","freq","img/green_2bandit_b2.png","70","70","test","1","83","83","4","",""
"null","223046","pSARL_v2","pSARL_v2bfqvy67d","60fd0c0177cf82998b783603","freq_resp","img/green_2bandit_b.png","70","70","test","","","","4","",""
"null","223213","pSARL_v2","pSARL_v2bfqvy67d","60fd0c0177cf82998b783603","fixation","img/fixation.png","null","","test","","","","","",""
"343.39999985694885","223564","pSARL_v2","pSARL_v2bfqvy67d","60fd0c0177cf82998b783603","freq","img/green_2bandit_b2.png","70","70","test","1","84","84","4","",""
"null","224041","pSARL_v2","pSARL_v2bfqvy67d","60fd0c0177cf82998b783603","freq_resp","img/green_2bandit_b.png","70","70","test","","","","4","",""
"null","224204","pSARL_v2","pSARL_v2bfqvy67d","60fd0c0177cf82998b783603","fixation","img/fixation.png","null","","test","","","","","",""
"340.39999985694885","224551","pSARL_v2","pSARL_v2bfqvy67d","60fd0c0177cf82998b783603","freq","img/green_2bandit_b2.png","70","70","test","1","85","85","4","",""
"null","225027","pSARL_v2","pSARL_v2bfqvy67d","60fd0c0177cf82998b783603","freq_resp","img/green_2bandit_b.png","70","70","test","","","","4","",""
"null","225200","pSARL_v2","pSARL_v2bfqvy67d","60fd0c0177cf82998b783603","fixation","img/fixation.png","null","","test","","","","","",""
"356.7000000476837","225564","pSARL_v2","pSARL_v2bfqvy67d","60fd0c0177cf82998b783603","freq","img/green_2bandit_b2.png","70","70","test","1","86","86","4","",""
"null","226031","pSARL_v2","pSARL_v2bfqvy67d","60fd0c0177cf82998b783603","freq_resp","img/green_2bandit_b.png","70","70","test","","","","4","",""
"null","226201","pSARL_v2","pSARL_v2bfqvy67d","60fd0c0177cf82998b783603","fixation","img/fixation.png","null","","test","","","","","",""
"325.40000009536743","226534","pSARL_v2","pSARL_v2bfqvy67d","60fd0c0177cf82998b783603","freq","img/green_2bandit_b2.png","70","70","test","1","87","87","4","",""
"null","227017","pSARL_v2","pSARL_v2bfqvy67d","60fd0c0177cf82998b783603","freq_resp","img/green_2bandit_b.png","70","70","test","","","","4","",""
"null","227176","pSARL_v2","pSARL_v2bfqvy67d","60fd0c0177cf82998b783603","fixation","img/fixation.png","null","","test","","","","","",""
"350.30000019073486","227534","pSARL_v2","pSARL_v2bfqvy67d","60fd0c0177cf82998b783603","freq","img/green_2bandit_b2.png","70","70","test","1","88","88","4","",""
"null","227999","pSARL_v2","pSARL_v2bfqvy67d","60fd0c0177cf82998b783603","freq_resp","img/green_2bandit_b.png","70","70","test","","","","4","",""
"null","228159","pSARL_v2","pSARL_v2bfqvy67d","60fd0c0177cf82998b783603","fixation","img/fixation.png","null","","test","","","","","",""
"328.2999999523163","228495","pSARL_v2","pSARL_v2bfqvy67d","60fd0c0177cf82998b783603","freq","img/green_2bandit_b2.png","70","70","test","1","89","89","4","",""
"null","228990","pSARL_v2","pSARL_v2bfqvy67d","60fd0c0177cf82998b783603","freq_resp","img/green_2bandit_b.png","70","70","test","","","","4","",""
"null","229153","pSARL_v2","pSARL_v2bfqvy67d","60fd0c0177cf82998b783603","fixation","img/fixation.png","null","","test","","","","","",""
"514","229675","pSARL_v2","pSARL_v2bfqvy67d","60fd0c0177cf82998b783603","reward","img/slot.png","74","","test","","","","","",""
"null","230445","pSARL_v2","pSARL_v2bfqvy67d","60fd0c0177cf82998b783603","points","<div class=""verylowPoints""> -3 </div>","null","na","test","","","","4","-3","3"
"531.5","230984","pSARL_v2","pSARL_v2bfqvy67d","60fd0c0177cf82998b783603","freq","img/green_2bandit_b2.png","70","70","test","1","90","90","5","",""
"null","231275","pSARL_v2","pSARL_v2bfqvy67d","60fd0c0177cf82998b783603","freq_resp","img/green_2bandit_b.png","70","70","test","","","","5","",""
"null","231447","pSARL_v2","pSARL_v2bfqvy67d","60fd0c0177cf82998b783603","fixation","img/fixation.png","null","","test","","","","","",""
"399.7000000476837","231855","pSARL_v2","pSARL_v2bfqvy67d","60fd0c0177cf82998b783603","freq","img/green_2bandit_b2.png","70","70","test","1","91","91","5","",""
"null","232267","pSARL_v2","pSARL_v2bfqvy67d","60fd0c0177cf82998b783603","freq_resp","img/green_2bandit_b.png","70","70","test","","","","5","",""
"null","232428","pSARL_v2","pSARL_v2bfqvy67d","60fd0c0177cf82998b783603","fixation","img/fixation.png","null","","test","","","","","",""
"368.40000009536743","232805","pSARL_v2","pSARL_v2bfqvy67d","60fd0c0177cf82998b783603","freq","img/green_2bandit_b2.png","70","70","test","1","92","92","5","",""
"null","233255","pSARL_v2","pSARL_v2bfqvy67d","60fd0c0177cf82998b783603","freq_resp","img/green_2bandit_b.png","70","70","test","","","","5","",""
"null","233429","pSARL_v2","pSARL_v2bfqvy67d","60fd0c0177cf82998b783603","fixation","img/fixation.png","null","","test","","","","","",""
"517.7999999523163","233955","pSARL_v2","pSARL_v2bfqvy67d","60fd0c0177cf82998b783603","infreq","img/orange_2bandit_b2.png","68","68","test","1","93","93","5","",""
"null","234260","pSARL_v2","pSARL_v2bfqvy67d","60fd0c0177cf82998b783603","infreq_resp","img/orange_2bandit_b.png","68","68","test","","","","5","",""
"null","234418","pSARL_v2","pSARL_v2bfqvy67d","60fd0c0177cf82998b783603","fixation","img/fixation.png","null","","test","","","","","",""
"358.10000014305115","234783","pSARL_v2","pSARL_v2bfqvy67d","60fd0c0177cf82998b783603","freq","img/green_2bandit_b2.png","70","70","test","1","94","94","5","",""
"null","235238","pSARL_v2","pSARL_v2bfqvy67d","60fd0c0177cf82998b783603","freq_resp","img/green_2bandit_b.png","70","70","test","","","","5","",""
"null","235411","pSARL_v2","pSARL_v2bfqvy67d","60fd0c0177cf82998b783603","fixation","img/fixation.png","null","","test","","","","","",""
"375.89999985694885","235793","pSARL_v2","pSARL_v2bfqvy67d","60fd0c0177cf82998b783603","freq","img/green_2bandit_b2.png","70","70","test","1","95","95","5","",""
"null","236235","pSARL_v2","pSARL_v2bfqvy67d","60fd0c0177cf82998b783603","freq_resp","img/green_2bandit_b.png","70","70","test","","","","5","",""
"null","236396","pSARL_v2","pSARL_v2bfqvy67d","60fd0c0177cf82998b783603","fixation","img/fixation.png","null","","test","","","","","",""
"359.39999985694885","236760","pSARL_v2","pSARL_v2bfqvy67d","60fd0c0177cf82998b783603","freq","img/green_2bandit_b2.png","70","70","test","1","96","96","5","",""
"null","237214","pSARL_v2","pSARL_v2bfqvy67d","60fd0c0177cf82998b783603","freq_resp","img/green_2bandit_b.png","70","70","test","","","","5","",""
"null","237374","pSARL_v2","pSARL_v2bfqvy67d","60fd0c0177cf82998b783603","fixation","img/fixation.png","null","","test","","","","","",""
"282.89999985694885","237665","pSARL_v2","pSARL_v2bfqvy67d","60fd0c0177cf82998b783603","freq","img/green_2bandit_b2.png","70","70","test","1","97","97","5","",""
"null","238205","pSARL_v2","pSARL_v2bfqvy67d","60fd0c0177cf82998b783603","freq_resp","img/green_2bandit_b.png","70","70","test","","","","5","",""
"null","238376","pSARL_v2","pSARL_v2bfqvy67d","60fd0c0177cf82998b783603","fixation","img/fixation.png","null","","test","","","","","",""
"290","238676","pSARL_v2","pSARL_v2bfqvy67d","60fd0c0177cf82998b783603","freq","img/green_2bandit_b2.png","70","70","test","1","98","98","5","",""
"null","239197","pSARL_v2","pSARL_v2bfqvy67d","60fd0c0177cf82998b783603","freq_resp","img/green_2bandit_b.png","70","70","test","","","","5","",""
"null","239357","pSARL_v2","pSARL_v2bfqvy67d","60fd0c0177cf82998b783603","fixation","img/fixation.png","null","","test","","","","","",""
"259.90000009536743","239625","pSARL_v2","pSARL_v2bfqvy67d","60fd0c0177cf82998b783603","freq","img/green_2bandit_b2.png","70","70","test","1","99","99","5","",""
"null","240177","pSARL_v2","pSARL_v2bfqvy67d","60fd0c0177cf82998b783603","freq_resp","img/green_2bandit_b.png","70","70","test","","","","5","",""
"null","240348","pSARL_v2","pSARL_v2bfqvy67d","60fd0c0177cf82998b783603","fixation","img/fixation.png","null","","test","","","","","",""
"298.40000009536743","240654","pSARL_v2","pSARL_v2bfqvy67d","60fd0c0177cf82998b783603","freq","img/green_2bandit_b2.png","70","70","test","1","100","100","5","",""
"null","241178","pSARL_v2","pSARL_v2bfqvy67d","60fd0c0177cf82998b783603","freq_resp","img/green_2bandit_b.png","70","70","test","","","","5","",""
"null","241349","pSARL_v2","pSARL_v2bfqvy67d","60fd0c0177cf82998b783603","fixation","img/fixation.png","null","","test","","","","","",""
"307","241661","pSARL_v2","pSARL_v2bfqvy67d","60fd0c0177cf82998b783603","freq","img/green_2bandit_b2.png","70","70","test","1","101","101","5","",""
"null","242162","pSARL_v2","pSARL_v2bfqvy67d","60fd0c0177cf82998b783603","freq_resp","img/green_2bandit_b.png","70","70","test","","","","5","",""
"null","242329","pSARL_v2","pSARL_v2bfqvy67d","60fd0c0177cf82998b783603","fixation","img/fixation.png","null","","test","","","","","",""
"268.10000014305115","242605","pSARL_v2","pSARL_v2bfqvy67d","60fd0c0177cf82998b783603","freq","img/green_2bandit_b2.png","70","70","test","1","102","102","5","",""
"null","243146","pSARL_v2","pSARL_v2bfqvy67d","60fd0c0177cf82998b783603","freq_resp","img/green_2bandit_b.png","70","70","test","","","","5","",""
"null","243320","pSARL_v2","pSARL_v2bfqvy67d","60fd0c0177cf82998b783603","fixation","img/fixation.png","null","","test","","","","","",""
"295.60000014305115","243625","pSARL_v2","pSARL_v2bfqvy67d","60fd0c0177cf82998b783603","freq","img/green_2bandit_b2.png","70","70","test","1","103","103","5","",""
"null","244149","pSARL_v2","pSARL_v2bfqvy67d","60fd0c0177cf82998b783603","freq_resp","img/green_2bandit_b.png","70","70","test","","","","5","",""
"null","244323","pSARL_v2","pSARL_v2bfqvy67d","60fd0c0177cf82998b783603","fixation","img/fixation.png","null","","test","","","","","",""
"273","244603","pSARL_v2","pSARL_v2bfqvy67d","60fd0c0177cf82998b783603","freq","img/green_2bandit_b2.png","70","70","test","1","104","104","5","",""
"null","245153","pSARL_v2","pSARL_v2bfqvy67d","60fd0c0177cf82998b783603","freq_resp","img/green_2bandit_b.png","70","70","test","","","","5","",""
"null","245325","pSARL_v2","pSARL_v2bfqvy67d","60fd0c0177cf82998b783603","fixation","img/fixation.png","null","","test","","","","","",""
"331","245664","pSARL_v2","pSARL_v2bfqvy67d","60fd0c0177cf82998b783603","freq","img/green_2bandit_b2.png","70","70","test","1","105","105","5","",""
"null","246157","pSARL_v2","pSARL_v2bfqvy67d","60fd0c0177cf82998b783603","freq_resp","img/green_2bandit_b.png","70","70","test","","","","5","",""
"null","246329","pSARL_v2","pSARL_v2bfqvy67d","60fd0c0177cf82998b783603","fixation","img/fixation.png","null","","test","","","","","",""
"137.29999995231628","246476","pSARL_v2","pSARL_v2bfqvy67d","60fd0c0177cf82998b783603","freq","img/green_2bandit_b2.png","70","70","test","1","106","106","5","",""
"null","247160","pSARL_v2","pSARL_v2bfqvy67d","60fd0c0177cf82998b783603","freq_resp","img/green_2bandit_b.png","70","70","test","","","","5","",""
"null","247330","pSARL_v2","pSARL_v2bfqvy67d","60fd0c0177cf82998b783603","fixation","img/fixation.png","null","","test","","","","","",""
"206","247544","pSARL_v2","pSARL_v2bfqvy67d","60fd0c0177cf82998b783603","freq","img/green_2bandit_b2.png","70","70","test","1","107","107","5","",""
"null","248158","pSARL_v2","pSARL_v2bfqvy67d","60fd0c0177cf82998b783603","freq_resp","img/green_2bandit_b.png","70","70","test","","","","5","",""
"null","248330","pSARL_v2","pSARL_v2bfqvy67d","60fd0c0177cf82998b783603","fixation","img/fixation.png","null","","test","","","","","",""
"246.20000004768372","248584","pSARL_v2","pSARL_v2bfqvy67d","60fd0c0177cf82998b783603","freq","img/green_2bandit_b2.png","70","70","test","1","108","108","5","",""
"null","249149","pSARL_v2","pSARL_v2bfqvy67d","60fd0c0177cf82998b783603","freq_resp","img/green_2bandit_b.png","70","70","test","","","","5","",""
"null","249311","pSARL_v2","pSARL_v2bfqvy67d","60fd0c0177cf82998b783603","fixation","img/fixation.png","null","","test","","","","","",""
"325.60000014305115","249645","pSARL_v2","pSARL_v2bfqvy67d","60fd0c0177cf82998b783603","infreq","img/orange_2bandit_b2.png","70","68","test","0","109","109","5","",""
"null","250142","pSARL_v2","pSARL_v2bfqvy67d","60fd0c0177cf82998b783603","infreq_resp","img/orange_2bandit_b.png","70","68","test","","","","5","",""
"null","250314","pSARL_v2","pSARL_v2bfqvy67d","60fd0c0177cf82998b783603","fixation","img/fixation.png","null","","test","","","","","",""
"604.7999999523163","250926","pSARL_v2","pSARL_v2bfqvy67d","60fd0c0177cf82998b783603","freq","img/green_2bandit_b2.png","70","70","test","1","110","110","5","",""
"null","251143","pSARL_v2","pSARL_v2bfqvy67d","60fd0c0177cf82998b783603","freq_resp","img/green_2bandit_b.png","70","70","test","","","","5","",""
"null","251314","pSARL_v2","pSARL_v2bfqvy67d","60fd0c0177cf82998b783603","fixation","img/fixation.png","null","","test","","","","","",""
"512.2000000476837","251834","pSARL_v2","pSARL_v2bfqvy67d","60fd0c0177cf82998b783603","freq","img/green_2bandit_b2.png","70","70","test","1","111","111","5","",""
"null","252142","pSARL_v2","pSARL_v2bfqvy67d","60fd0c0177cf82998b783603","freq_resp","img/green_2bandit_b.png","70","70","test","","","","5","",""
"null","252315","pSARL_v2","pSARL_v2bfqvy67d","60fd0c0177cf82998b783603","fixation","img/fixation.png","null","","test","","","","","",""
"471.2999999523163","252794","pSARL_v2","pSARL_v2bfqvy67d","60fd0c0177cf82998b783603","freq","img/green_2bandit_b2.png","70","70","test","1","112","112","5","",""
"null","253132","pSARL_v2","pSARL_v2bfqvy67d","60fd0c0177cf82998b783603","freq_resp","img/green_2bandit_b.png","70","70","test","","","","5","",""
"null","253306","pSARL_v2","pSARL_v2bfqvy67d","60fd0c0177cf82998b783603","fixation","img/fixation.png","null","","test","","","","","",""
"379.90000009536743","253694","pSARL_v2","pSARL_v2bfqvy67d","60fd0c0177cf82998b783603","freq","img/green_2bandit_b2.png","70","70","test","1","113","113","5","",""
"null","254131","pSARL_v2","pSARL_v2bfqvy67d","60fd0c0177cf82998b783603","freq_resp","img/green_2bandit_b.png","70","70","test","","","","5","",""
"null","254304","pSARL_v2","pSARL_v2bfqvy67d","60fd0c0177cf82998b783603","fixation","img/fixation.png","null","","test","","","","","",""
"411.2000000476837","254721","pSARL_v2","pSARL_v2bfqvy67d","60fd0c0177cf82998b783603","freq","img/green_2bandit_b2.png","70","70","test","1","114","114","5","",""
"null","255120","pSARL_v2","pSARL_v2bfqvy67d","60fd0c0177cf82998b783603","freq_resp","img/green_2bandit_b.png","70","70","test","","","","5","",""
"null","255292","pSARL_v2","pSARL_v2bfqvy67d","60fd0c0177cf82998b783603","fixation","img/fixation.png","null","","test","","","","","",""
"353.90000009536743","255651","pSARL_v2","pSARL_v2bfqvy67d","60fd0c0177cf82998b783603","freq","img/green_2bandit_b2.png","70","70","test","1","115","115","5","",""
"null","256119","pSARL_v2","pSARL_v2bfqvy67d","60fd0c0177cf82998b783603","freq_resp","img/green_2bandit_b.png","70","70","test","","","","5","",""
"null","256292","pSARL_v2","pSARL_v2bfqvy67d","60fd0c0177cf82998b783603","fixation","img/fixation.png","null","","test","","","","","",""
"484.5","256785","pSARL_v2","pSARL_v2bfqvy67d","60fd0c0177cf82998b783603","reward","img/slot.png","74","","test","","","","","",""
"null","257558","pSARL_v2","pSARL_v2bfqvy67d","60fd0c0177cf82998b783603","points","<div class=""veryhighPoints""> +1 </div>","null","na","test","","","","5","1","4"
"498.89999985694885","258065","pSARL_v2","pSARL_v2bfqvy67d","60fd0c0177cf82998b783603","freq","img/green_2bandit_b2.png","70","70","test","1","116","116","6","",""
"null","258380","pSARL_v2","pSARL_v2bfqvy67d","60fd0c0177cf82998b783603","freq_resp","img/green_2bandit_b.png","70","70","test","","","","6","",""
"null","258555","pSARL_v2","pSARL_v2bfqvy67d","60fd0c0177cf82998b783603","fixation","img/fixation.png","null","","test","","","","","",""
"371.7000000476837","258934","pSARL_v2","pSARL_v2bfqvy67d","60fd0c0177cf82998b783603","freq","img/green_2bandit_b2.png","70","70","test","1","117","117","6","",""
"null","259369","pSARL_v2","pSARL_v2bfqvy67d","60fd0c0177cf82998b783603","freq_resp","img/green_2bandit_b.png","70","70","test","","","","6","",""
"null","259525","pSARL_v2","pSARL_v2bfqvy67d","60fd0c0177cf82998b783603","fixation","img/fixation.png","null","","test","","","","","",""
"363.09999990463257","259899","pSARL_v2","pSARL_v2bfqvy67d","60fd0c0177cf82998b783603","freq","img/green_2bandit_b2.png","70","70","test","1","118","118","6","",""
"null","260342","pSARL_v2","pSARL_v2bfqvy67d","60fd0c0177cf82998b783603","freq_resp","img/green_2bandit_b.png","70","70","test","","","","6","",""
"null","260503","pSARL_v2","pSARL_v2bfqvy67d","60fd0c0177cf82998b783603","fixation","img/fixation.png","null","","test","","","","","",""
"502.7999999523163","261014","pSARL_v2","pSARL_v2bfqvy67d","60fd0c0177cf82998b783603","infreq","img/orange_2bandit_b2.png","68","68","test","1","119","119","6","",""
"null","261319","pSARL_v2","pSARL_v2bfqvy67d","60fd0c0177cf82998b783603","infreq_resp","img/orange_2bandit_b.png","68","68","test","","","","6","",""
"null","261478","pSARL_v2","pSARL_v2bfqvy67d","60fd0c0177cf82998b783603","fixation","img/fixation.png","null","","test","","","","","",""
"427.7000000476837","261911","pSARL_v2","pSARL_v2bfqvy67d","60fd0c0177cf82998b783603","freq","img/green_2bandit_b2.png","70","70","test","1","120","120","6","",""
"null","262297","pSARL_v2","pSARL_v2bfqvy67d","60fd0c0177cf82998b783603","freq_resp","img/green_2bandit_b.png","70","70","test","","","","6","",""
"null","262454","pSARL_v2","pSARL_v2bfqvy67d","60fd0c0177cf82998b783603","fixation","img/fixation.png","null","","test","","","","","",""
"361","262820","pSARL_v2","pSARL_v2bfqvy67d","60fd0c0177cf82998b783603","freq","img/green_2bandit_b2.png","70","70","test","1","121","121","6","",""
"null","263273","pSARL_v2","pSARL_v2bfqvy67d","60fd0c0177cf82998b783603","freq_resp","img/green_2bandit_b.png","70","70","test","","","","6","",""
"null","263430","pSARL_v2","pSARL_v2bfqvy67d","60fd0c0177cf82998b783603","fixation","img/fixation.png","null","","test","","","","","",""
"334.90000009536743","263770","pSARL_v2","pSARL_v2bfqvy67d","60fd0c0177cf82998b783603","freq","img/green_2bandit_b2.png","70","70","test","1","122","122","6","",""
"null","264249","pSARL_v2","pSARL_v2bfqvy67d","60fd0c0177cf82998b783603","freq_resp","img/green_2bandit_b.png","70","70","test","","","","6","",""
"null","264406","pSARL_v2","pSARL_v2bfqvy67d","60fd0c0177cf82998b783603","fixation","img/fixation.png","null","","test","","","","","",""
"199.59999990463257","264611","pSARL_v2","pSARL_v2bfqvy67d","60fd0c0177cf82998b783603","freq","img/green_2bandit_b2.png","70","70","test","1","123","123","6","",""
"null","265216","pSARL_v2","pSARL_v2bfqvy67d","60fd0c0177cf82998b783603","freq_resp","img/green_2bandit_b.png","70","70","test","","","","6","",""
"null","265373","pSARL_v2","pSARL_v2bfqvy67d","60fd0c0177cf82998b783603","fixation","img/fixation.png","null","","test","","","","","",""
"472.10000014305115","265852","pSARL_v2","pSARL_v2bfqvy67d","60fd0c0177cf82998b783603","freq","img/green_2bandit_b2.png","70","70","test","1","124","124","6","",""
"null","266197","pSARL_v2","pSARL_v2bfqvy67d","60fd0c0177cf82998b783603","freq_resp","img/green_2bandit_b.png","70","70","test","","","","6","",""
"null","266356","pSARL_v2","pSARL_v2bfqvy67d","60fd0c0177cf82998b783603","fixation","img/fixation.png","null","","test","","","","","",""
"409.5","266770","pSARL_v2","pSARL_v2bfqvy67d","60fd0c0177cf82998b783603","freq","img/green_2bandit_b2.png","70","70","test","1","125","125","6","",""
"null","267165","pSARL_v2","pSARL_v2bfqvy67d","60fd0c0177cf82998b783603","freq_resp","img/green_2bandit_b.png","70","70","test","","","","6","",""
"null","267324","pSARL_v2","pSARL_v2bfqvy67d","60fd0c0177cf82998b783603","fixation","img/fixation.png","null","","test","","","","","",""
"280.7999999523163","267611","pSARL_v2","pSARL_v2bfqvy67d","60fd0c0177cf82998b783603","freq","img/green_2bandit_b2.png","70","70","test","1","126","126","6","",""
"null","268150","pSARL_v2","pSARL_v2bfqvy67d","60fd0c0177cf82998b783603","freq_resp","img/green_2bandit_b.png","70","70","test","","","","6","",""
"null","268310","pSARL_v2","pSARL_v2bfqvy67d","60fd0c0177cf82998b783603","fixation","img/fixation.png","null","","test","","","","","",""
"335.59999990463257","268650","pSARL_v2","pSARL_v2bfqvy67d","60fd0c0177cf82998b783603","freq","img/green_2bandit_b2.png","70","70","test","1","127","127","6","",""
"null","269132","pSARL_v2","pSARL_v2bfqvy67d","60fd0c0177cf82998b783603","freq_resp","img/green_2bandit_b.png","70","70","test","","","","6","",""
"null","269289","pSARL_v2","pSARL_v2bfqvy67d","60fd0c0177cf82998b783603","fixation","img/fixation.png","null","","test","","","","","",""
"156.40000009536743","269451","pSARL_v2","pSARL_v2bfqvy67d","60fd0c0177cf82998b783603","infreq","img/orange_2bandit_b2.png","70","68","test","0","128","128","6","",""
"null","270106","pSARL_v2","pSARL_v2bfqvy67d","60fd0c0177cf82998b783603","infreq_resp","img/orange_2bandit_b.png","70","68","test","","","","6","",""
"null","270265","pSARL_v2","pSARL_v2bfqvy67d","60fd0c0177cf82998b783603","fixation","img/fixation.png","null","","test","","","","","",""
"390.7000000476837","270661","pSARL_v2","pSARL_v2bfqvy67d","60fd0c0177cf82998b783603","freq","img/green_2bandit_b2.png","70","70","test","1","129","129","6","",""
"null","271083","pSARL_v2","pSARL_v2bfqvy67d","60fd0c0177cf82998b783603","freq_resp","img/green_2bandit_b.png","70","70","test","","","","6","",""
"null","271241","pSARL_v2","pSARL_v2bfqvy67d","60fd0c0177cf82998b783603","fixation","img/fixation.png","null","","test","","","","","",""
"335","271582","pSARL_v2","pSARL_v2bfqvy67d","60fd0c0177cf82998b783603","freq","img/green_2bandit_b2.png","70","70","test","1","130","130","6","",""
"null","272060","pSARL_v2","pSARL_v2bfqvy67d","60fd0c0177cf82998b783603","freq_resp","img/green_2bandit_b.png","70","70","test","","","","6","",""
"null","272219","pSARL_v2","pSARL_v2bfqvy67d","60fd0c0177cf82998b783603","fixation","img/fixation.png","null","","test","","","","","",""
"516.7999999523163","272742","pSARL_v2","pSARL_v2bfqvy67d","60fd0c0177cf82998b783603","freq","img/green_2bandit_b2.png","70","70","test","1","131","131","6","",""
"null","273042","pSARL_v2","pSARL_v2bfqvy67d","60fd0c0177cf82998b783603","freq_resp","img/green_2bandit_b.png","70","70","test","","","","6","",""
"null","273203","pSARL_v2","pSARL_v2bfqvy67d","60fd0c0177cf82998b783603","fixation","img/fixation.png","null","","test","","","","","",""
"403.2000000476837","273611","pSARL_v2","pSARL_v2bfqvy67d","60fd0c0177cf82998b783603","freq","img/green_2bandit_b2.png","70","70","test","1","132","132","6","",""
"null","274029","pSARL_v2","pSARL_v2bfqvy67d","60fd0c0177cf82998b783603","freq_resp","img/green_2bandit_b.png","70","70","test","","","","6","",""
"null","274186","pSARL_v2","pSARL_v2bfqvy67d","60fd0c0177cf82998b783603","fixation","img/fixation.png","null","","test","","","","","",""
"409.7999999523163","274601","pSARL_v2","pSARL_v2bfqvy67d","60fd0c0177cf82998b783603","freq","img/green_2bandit_b2.png","70","70","test","1","133","133","6","",""
"null","275008","pSARL_v2","pSARL_v2bfqvy67d","60fd0c0177cf82998b783603","freq_resp","img/green_2bandit_b.png","70","70","test","","","","6","",""
"null","275167","pSARL_v2","pSARL_v2bfqvy67d","60fd0c0177cf82998b783603","fixation","img/fixation.png","null","","test","","","","","",""
"508.7999999523163","275681","pSARL_v2","pSARL_v2bfqvy67d","60fd0c0177cf82998b783603","freq","img/green_2bandit_b2.png","70","70","test","1","134","134","6","",""
"null","275990","pSARL_v2","pSARL_v2bfqvy67d","60fd0c0177cf82998b783603","freq_resp","img/green_2bandit_b.png","70","70","test","","","","6","",""
"null","276147","pSARL_v2","pSARL_v2bfqvy67d","60fd0c0177cf82998b783603","fixation","img/fixation.png","null","","test","","","","","",""
"389","276541","pSARL_v2","pSARL_v2bfqvy67d","60fd0c0177cf82998b783603","freq","img/green_2bandit_b2.png","70","70","test","1","135","135","6","",""
"null","276966","pSARL_v2","pSARL_v2bfqvy67d","60fd0c0177cf82998b783603","freq_resp","img/green_2bandit_b.png","70","70","test","","","","6","",""
"null","277125","pSARL_v2","pSARL_v2bfqvy67d","60fd0c0177cf82998b783603","fixation","img/fixation.png","null","","test","","","","","",""
"671","277802","pSARL_v2","pSARL_v2bfqvy67d","60fd0c0177cf82998b783603","reward","img/slot.png","74","","test","","","","","",""
"null","278569","pSARL_v2","pSARL_v2bfqvy67d","60fd0c0177cf82998b783603","points","<div class=""verylowPoints""> -7 </div>","null","na","test","","","","6","-7","5"
"717","279291","pSARL_v2","pSARL_v2bfqvy67d","60fd0c0177cf82998b783603","freq","img/green_2bandit_b2.png","68","70","test","0","136","136","7","",""
"null","279389","pSARL_v2","pSARL_v2bfqvy67d","60fd0c0177cf82998b783603","freq_resp","img/green_2bandit_b.png","68","70","test","","","","7","",""
"null","279550","pSARL_v2","pSARL_v2bfqvy67d","60fd0c0177cf82998b783603","fixation","img/fixation.png","null","","test","","","","","",""
"545.9000000953674","280101","pSARL_v2","pSARL_v2bfqvy67d","60fd0c0177cf82998b783603","freq","img/green_2bandit_b2.png","70","70","test","1","137","137","7","",""
"null","280373","pSARL_v2","pSARL_v2bfqvy67d","60fd0c0177cf82998b783603","freq_resp","img/green_2bandit_b.png","70","70","test","","","","7","",""
"null","280533","pSARL_v2","pSARL_v2bfqvy67d","60fd0c0177cf82998b783603","fixation","img/fixation.png","null","","test","","","","","",""
"362.5","280902","pSARL_v2","pSARL_v2bfqvy67d","60fd0c0177cf82998b783603","freq","img/green_2bandit_b2.png","70","70","test","1","138","138","7","",""
"null","281351","pSARL_v2","pSARL_v2bfqvy67d","60fd0c0177cf82998b783603","freq_resp","img/green_2bandit_b.png","70","70","test","","","","7","",""
"null","281511","pSARL_v2","pSARL_v2bfqvy67d","60fd0c0177cf82998b783603","fixation","img/fixation.png","null","","test","","","","","",""
"334.40000009536743","281851","pSARL_v2","pSARL_v2bfqvy67d","60fd0c0177cf82998b783603","freq","img/green_2bandit_b2.png","70","70","test","1","139","139","7","",""
"null","282331","pSARL_v2","pSARL_v2bfqvy67d","60fd0c0177cf82998b783603","freq_resp","img/green_2bandit_b.png","70","70","test","","","","7","",""
"null","282487","pSARL_v2","pSARL_v2bfqvy67d","60fd0c0177cf82998b783603","fixation","img/fixation.png","null","","test","","","","","",""
"348.89999985694885","282842","pSARL_v2","pSARL_v2bfqvy67d","60fd0c0177cf82998b783603","freq","img/green_2bandit_b2.png","70","70","test","1","140","140","7","",""
"null","283308","pSARL_v2","pSARL_v2bfqvy67d","60fd0c0177cf82998b783603","freq_resp","img/green_2bandit_b.png","70","70","test","","","","7","",""
"null","283470","pSARL_v2","pSARL_v2bfqvy67d","60fd0c0177cf82998b783603","fixation","img/fixation.png","null","","test","","","","","",""
"276","283752","pSARL_v2","pSARL_v2bfqvy67d","60fd0c0177cf82998b783603","freq","img/green_2bandit_b2.png","70","70","test","1","141","141","7","",""
"null","284291","pSARL_v2","pSARL_v2bfqvy67d","60fd0c0177cf82998b783603","freq_resp","img/green_2bandit_b.png","70","70","test","","","","7","",""
"null","284451","pSARL_v2","pSARL_v2bfqvy67d","60fd0c0177cf82998b783603","fixation","img/fixation.png","null","","test","","","","","",""
"194.20000004768372","284651","pSARL_v2","pSARL_v2bfqvy67d","60fd0c0177cf82998b783603","freq","img/green_2bandit_b2.png","70","70","test","1","142","142","7","",""
"null","285268","pSARL_v2","pSARL_v2bfqvy67d","60fd0c0177cf82998b783603","freq_resp","img/green_2bandit_b.png","70","70","test","","","","7","",""
"null","285424","pSARL_v2","pSARL_v2bfqvy67d","60fd0c0177cf82998b783603","fixation","img/fixation.png","null","","test","","","","","",""
"162.09999990463257","285592","pSARL_v2","pSARL_v2bfqvy67d","60fd0c0177cf82998b783603","freq","img/green_2bandit_b2.png","70","70","test","1","143","143","7","",""
"null","286249","pSARL_v2","pSARL_v2bfqvy67d","60fd0c0177cf82998b783603","freq_resp","img/green_2bandit_b.png","70","70","test","","","","7","",""
"null","286407","pSARL_v2","pSARL_v2bfqvy67d","60fd0c0177cf82998b783603","fixation","img/fixation.png","null","","test","","","","","",""
"188.90000009536743","286601","pSARL_v2","pSARL_v2bfqvy67d","60fd0c0177cf82998b783603","freq","img/green_2bandit_b2.png","70","70","test","1","144","144","7","",""
"null","287227","pSARL_v2","pSARL_v2bfqvy67d","60fd0c0177cf82998b783603","freq_resp","img/green_2bandit_b.png","70","70","test","","","","7","",""
"null","287386","pSARL_v2","pSARL_v2bfqvy67d","60fd0c0177cf82998b783603","fixation","img/fixation.png","null","","test","","","","","",""
"179.79999995231628","287570","pSARL_v2","pSARL_v2bfqvy67d","60fd0c0177cf82998b783603","freq","img/green_2bandit_b2.png","70","70","test","1","145","145","7","",""
"null","288209","pSARL_v2","pSARL_v2bfqvy67d","60fd0c0177cf82998b783603","freq_resp","img/green_2bandit_b.png","70","70","test","","","","7","",""
"null","288368","pSARL_v2","pSARL_v2bfqvy67d","60fd0c0177cf82998b783603","fixation","img/fixation.png","null","","test","","","","","",""
"187.20000004768372","288561","pSARL_v2","pSARL_v2bfqvy67d","60fd0c0177cf82998b783603","freq","img/green_2bandit_b2.png","70","70","test","1","146","146","7","",""
"null","289193","pSARL_v2","pSARL_v2bfqvy67d","60fd0c0177cf82998b783603","freq_resp","img/green_2bandit_b.png","70","70","test","","","","7","",""
"null","289352","pSARL_v2","pSARL_v2bfqvy67d","60fd0c0177cf82998b783603","fixation","img/fixation.png","null","","test","","","","","",""
"133.5","289491","pSARL_v2","pSARL_v2bfqvy67d","60fd0c0177cf82998b783603","freq","img/green_2bandit_b2.png","70","70","test","1","147","147","7","",""
"null","290177","pSARL_v2","pSARL_v2bfqvy67d","60fd0c0177cf82998b783603","freq_resp","img/green_2bandit_b.png","70","70","test","","","","7","",""
"null","290336","pSARL_v2","pSARL_v2bfqvy67d","60fd0c0177cf82998b783603","fixation","img/fixation.png","null","","test","","","","","",""
"169.5","290509","pSARL_v2","pSARL_v2bfqvy67d","60fd0c0177cf82998b783603","freq","img/green_2bandit_b2.png","70","70","test","1","148","148","7","",""
"null","291148","pSARL_v2","pSARL_v2bfqvy67d","60fd0c0177cf82998b783603","freq_resp","img/green_2bandit_b.png","70","70","test","","","","7","",""
"null","291319","pSARL_v2","pSARL_v2bfqvy67d","60fd0c0177cf82998b783603","fixation","img/fixation.png","null","","test","","","","","",""
"135.90000009536743","291461","pSARL_v2","pSARL_v2bfqvy67d","60fd0c0177cf82998b783603","freq","img/green_2bandit_b2.png","70","70","test","1","149","149","7","",""
"null","292149","pSARL_v2","pSARL_v2bfqvy67d","60fd0c0177cf82998b783603","freq_resp","img/green_2bandit_b.png","70","70","test","","","","7","",""
"null","292317","pSARL_v2","pSARL_v2bfqvy67d","60fd0c0177cf82998b783603","fixation","img/fixation.png","null","","test","","","","","",""
"157.5","292478","pSARL_v2","pSARL_v2bfqvy67d","60fd0c0177cf82998b783603","infreq","img/orange_2bandit_b2.png","70","68","test","0","150","150","7","",""
"null","293127","pSARL_v2","pSARL_v2bfqvy67d","60fd0c0177cf82998b783603","infreq_resp","img/orange_2bandit_b.png","70","68","test","","","","7","",""
"null","293286","pSARL_v2","pSARL_v2bfqvy67d","60fd0c0177cf82998b783603","fixation","img/fixation.png","null","","test","","","","","",""
"208.39999985694885","293501","pSARL_v2","pSARL_v2bfqvy67d","60fd0c0177cf82998b783603","freq","img/green_2bandit_b2.png","70","70","test","1","151","151","7","",""
"null","294108","pSARL_v2","pSARL_v2bfqvy67d","60fd0c0177cf82998b783603","freq_resp","img/green_2bandit_b.png","70","70","test","","","","7","",""
"null","294279","pSARL_v2","pSARL_v2bfqvy67d","60fd0c0177cf82998b783603","fixation","img/fixation.png","null","","test","","","","","",""
"355.59999990463257","294641","pSARL_v2","pSARL_v2bfqvy67d","60fd0c0177cf82998b783603","freq","img/green_2bandit_b2.png","70","70","test","1","152","152","7","",""
"null","295103","pSARL_v2","pSARL_v2bfqvy67d","60fd0c0177cf82998b783603","freq_resp","img/green_2bandit_b.png","70","70","test","","","","7","",""
"null","295264","pSARL_v2","pSARL_v2bfqvy67d","60fd0c0177cf82998b783603","fixation","img/fixation.png","null","","test","","","","","",""
"291","295560","pSARL_v2","pSARL_v2bfqvy67d","60fd0c0177cf82998b783603","freq","img/green_2bandit_b2.png","70","70","test","1","153","153","7","",""
"null","296090","pSARL_v2","pSARL_v2bfqvy67d","60fd0c0177cf82998b783603","freq_resp","img/green_2bandit_b.png","70","70","test","","","","7","",""
"null","296250","pSARL_v2","pSARL_v2bfqvy67d","60fd0c0177cf82998b783603","fixation","img/fixation.png","null","","test","","","","","",""
"344.90000009536743","296601","pSARL_v2","pSARL_v2bfqvy67d","60fd0c0177cf82998b783603","freq","img/green_2bandit_b2.png","70","70","test","1","154","154","7","",""
"null","297074","pSARL_v2","pSARL_v2bfqvy67d","60fd0c0177cf82998b783603","freq_resp","img/green_2bandit_b.png","70","70","test","","","","7","",""
"null","297233","pSARL_v2","pSARL_v2bfqvy67d","60fd0c0177cf82998b783603","fixation","img/fixation.png","null","","test","","","","","",""
"391.60000014305115","297631","pSARL_v2","pSARL_v2bfqvy67d","60fd0c0177cf82998b783603","freq","img/green_2bandit_b2.png","70","70","test","1","155","155","7","",""
"null","298058","pSARL_v2","pSARL_v2bfqvy67d","60fd0c0177cf82998b783603","freq_resp","img/green_2bandit_b.png","70","70","test","","","","7","",""
"null","298217","pSARL_v2","pSARL_v2bfqvy67d","60fd0c0177cf82998b783603","fixation","img/fixation.png","null","","test","","","","","",""
"378.09999990463257","298601","pSARL_v2","pSARL_v2bfqvy67d","60fd0c0177cf82998b783603","freq","img/green_2bandit_b2.png","70","70","test","1","156","156","7","",""
"null","299041","pSARL_v2","pSARL_v2bfqvy67d","60fd0c0177cf82998b783603","freq_resp","img/green_2bandit_b.png","70","70","test","","","","7","",""
"null","299199","pSARL_v2","pSARL_v2bfqvy67d","60fd0c0177cf82998b783603","fixation","img/fixation.png","null","","test","","","","","",""
"545.7000000476837","299751","pSARL_v2","pSARL_v2bfqvy67d","60fd0c0177cf82998b783603","infreq","img/orange_2bandit_b2.png","68","68","test","1","157","157","7","",""
"null","300025","pSARL_v2","pSARL_v2bfqvy67d","60fd0c0177cf82998b783603","infreq_resp","img/orange_2bandit_b.png","68","68","test","","","","7","",""
"null","300182","pSARL_v2","pSARL_v2bfqvy67d","60fd0c0177cf82998b783603","fixation","img/fixation.png","null","","test","","","","","",""
"402.59999990463257","300591","pSARL_v2","pSARL_v2bfqvy67d","60fd0c0177cf82998b783603","freq","img/green_2bandit_b2.png","70","70","test","1","158","158","7","",""
"null","300996","pSARL_v2","pSARL_v2bfqvy67d","60fd0c0177cf82998b783603","freq_resp","img/green_2bandit_b.png","70","70","test","","","","7","",""
"null","301154","pSARL_v2","pSARL_v2bfqvy67d","60fd0c0177cf82998b783603","fixation","img/fixation.png","null","","test","","","","","",""
"340.2000000476837","301501","pSARL_v2","pSARL_v2bfqvy67d","60fd0c0177cf82998b783603","freq","img/green_2bandit_b2.png","70","70","test","1","159","159","7","",""
"null","301976","pSARL_v2","pSARL_v2bfqvy67d","60fd0c0177cf82998b783603","freq_resp","img/green_2bandit_b.png","70","70","test","","","","7","",""
"null","302136","pSARL_v2","pSARL_v2bfqvy67d","60fd0c0177cf82998b783603","fixation","img/fixation.png","null","","test","","","","","",""
"559.1000001430511","302701","pSARL_v2","pSARL_v2bfqvy67d","60fd0c0177cf82998b783603","reward","img/slot.png","74","","test","","","","","",""
"null","303466","pSARL_v2","pSARL_v2bfqvy67d","60fd0c0177cf82998b783603","points","<div class=""verylowPoints""> -6 </div>","null","na","test","","","","7","-6","6"
"689","304161","pSARL_v2","pSARL_v2bfqvy67d","60fd0c0177cf82998b783603","freq","img/green_2bandit_b2.png","70","70","test","1","160","160","8","",""
"null","304293","pSARL_v2","pSARL_v2bfqvy67d","60fd0c0177cf82998b783603","freq_resp","img/green_2bandit_b.png","70","70","test","","","","8","",""
"null","304461","pSARL_v2","pSARL_v2bfqvy67d","60fd0c0177cf82998b783603","fixation","img/fixation.png","null","","test","","","","","",""
"463.80000019073486","304931","pSARL_v2","pSARL_v2bfqvy67d","60fd0c0177cf82998b783603","freq","img/green_2bandit_b2.png","70","70","test","1","161","161","8","",""
"null","305274","pSARL_v2","pSARL_v2bfqvy67d","60fd0c0177cf82998b783603","freq_resp","img/green_2bandit_b.png","70","70","test","","","","8","",""
"null","305445","pSARL_v2","pSARL_v2bfqvy67d","60fd0c0177cf82998b783603","fixation","img/fixation.png","null","","test","","","","","",""
"549.2000000476837","306001","pSARL_v2","pSARL_v2bfqvy67d","60fd0c0177cf82998b783603","infreq","img/orange_2bandit_b2.png","68","68","test","1","162","162","8","",""
"null","306266","pSARL_v2","pSARL_v2bfqvy67d","60fd0c0177cf82998b783603","infreq_resp","img/orange_2bandit_b.png","68","68","test","","","","8","",""
"null","306423","pSARL_v2","pSARL_v2bfqvy67d","60fd0c0177cf82998b783603","fixation","img/fixation.png","null","","test","","","","","",""
"331.2000000476837","306759","pSARL_v2","pSARL_v2bfqvy67d","60fd0c0177cf82998b783603","freq","img/green_2bandit_b2.png","70","70","test","1","163","163","8","",""
"null","307233","pSARL_v2","pSARL_v2bfqvy67d","60fd0c0177cf82998b783603","freq_resp","img/green_2bandit_b.png","70","70","test","","","","8","",""
"null","307392","pSARL_v2","pSARL_v2bfqvy67d","60fd0c0177cf82998b783603","fixation","img/fixation.png","null","","test","","","","","",""
"392.59999990463257","307791","pSARL_v2","pSARL_v2bfqvy67d","60fd0c0177cf82998b783603","freq","img/green_2bandit_b2.png","70","70","test","1","164","164","8","",""
"null","308215","pSARL_v2","pSARL_v2bfqvy67d","60fd0c0177cf82998b783603","freq_resp","img/green_2bandit_b.png","70","70","test","","","","8","",""
"null","308374","pSARL_v2","pSARL_v2bfqvy67d","60fd0c0177cf82998b783603","fixation","img/fixation.png","null","","test","","","","","",""
"420.89999985694885","308801","pSARL_v2","pSARL_v2bfqvy67d","60fd0c0177cf82998b783603","freq","img/green_2bandit_b2.png","70","70","test","1","165","165","8","",""
"null","309197","pSARL_v2","pSARL_v2bfqvy67d","60fd0c0177cf82998b783603","freq_resp","img/green_2bandit_b.png","70","70","test","","","","8","",""
"null","309356","pSARL_v2","pSARL_v2bfqvy67d","60fd0c0177cf82998b783603","fixation","img/fixation.png","null","","test","","","","","",""
"318","309680","pSARL_v2","pSARL_v2bfqvy67d","60fd0c0177cf82998b783603","freq","img/green_2bandit_b2.png","70","70","test","1","166","166","8","",""
"null","310179","pSARL_v2","pSARL_v2bfqvy67d","60fd0c0177cf82998b783603","freq_resp","img/green_2bandit_b.png","70","70","test","","","","8","",""
"null","310336","pSARL_v2","pSARL_v2bfqvy67d","60fd0c0177cf82998b783603","fixation","img/fixation.png","null","","test","","","","","",""
"358.7000000476837","310699","pSARL_v2","pSARL_v2bfqvy67d","60fd0c0177cf82998b783603","infreq","img/orange_2bandit_b2.png","70","68","test","0","167","167","8","",""
"null","311159","pSARL_v2","pSARL_v2bfqvy67d","60fd0c0177cf82998b783603","infreq_resp","img/orange_2bandit_b.png","70","68","test","","","","8","",""
"null","311318","pSARL_v2","pSARL_v2bfqvy67d","60fd0c0177cf82998b783603","fixation","img/fixation.png","null","","test","","","","","",""
"546.2000000476837","311870","pSARL_v2","pSARL_v2bfqvy67d","60fd0c0177cf82998b783603","infreq","img/orange_2bandit_b2.png","68","68","test","1","168","168","8","",""
"null","312140","pSARL_v2","pSARL_v2bfqvy67d","60fd0c0177cf82998b783603","infreq_resp","img/orange_2bandit_b.png","68","68","test","","","","8","",""
"null","312300","pSARL_v2","pSARL_v2bfqvy67d","60fd0c0177cf82998b783603","fixation","img/fixation.png","null","","test","","","","","",""
"544.2000000476837","312850","pSARL_v2","pSARL_v2bfqvy67d","60fd0c0177cf82998b783603","freq","img/green_2bandit_b2.png","70","70","test","1","169","169","8","",""
"null","313123","pSARL_v2","pSARL_v2bfqvy67d","60fd0c0177cf82998b783603","freq_resp","img/green_2bandit_b.png","70","70","test","","","","8","",""
"null","313282","pSARL_v2","pSARL_v2bfqvy67d","60fd0c0177cf82998b783603","fixation","img/fixation.png","null","","test","","","","","",""
"463.09999990463257","313751","pSARL_v2","pSARL_v2bfqvy67d","60fd0c0177cf82998b783603","freq","img/green_2bandit_b2.png","70","70","test","1","170","170","8","",""
"null","314109","pSARL_v2","pSARL_v2bfqvy67d","60fd0c0177cf82998b783603","freq_resp","img/green_2bandit_b.png","70","70","test","","","","8","",""
"null","314266","pSARL_v2","pSARL_v2bfqvy67d","60fd0c0177cf82998b783603","fixation","img/fixation.png","null","","test","","","","","",""
"678.7000000476837","314951","pSARL_v2","pSARL_v2bfqvy67d","60fd0c0177cf82998b783603","freq","img/green_2bandit_b2.png","70","70","test","1","171","171","8","",""
"null","315090","pSARL_v2","pSARL_v2bfqvy67d","60fd0c0177cf82998b783603","freq_resp","img/green_2bandit_b.png","70","70","test","","","","8","",""
"null","315250","pSARL_v2","pSARL_v2bfqvy67d","60fd0c0177cf82998b783603","fixation","img/fixation.png","null","","test","","","","","",""
"554.9000000953674","315809","pSARL_v2","pSARL_v2bfqvy67d","60fd0c0177cf82998b783603","freq","img/green_2bandit_b2.png","70","70","test","1","172","172","8","",""
"null","316069","pSARL_v2","pSARL_v2bfqvy67d","60fd0c0177cf82998b783603","freq_resp","img/green_2bandit_b.png","70","70","test","","","","8","",""
"null","316228","pSARL_v2","pSARL_v2bfqvy67d","60fd0c0177cf82998b783603","fixation","img/fixation.png","null","","test","","","","","",""
"486.2000000476837","316721","pSARL_v2","pSARL_v2bfqvy67d","60fd0c0177cf82998b783603","freq","img/green_2bandit_b2.png","70","70","test","1","173","173","8","",""
"null","317053","pSARL_v2","pSARL_v2bfqvy67d","60fd0c0177cf82998b783603","freq_resp","img/green_2bandit_b.png","70","70","test","","","","8","",""
"null","317211","pSARL_v2","pSARL_v2bfqvy67d","60fd0c0177cf82998b783603","fixation","img/fixation.png","null","","test","","","","","",""
"403.5","317621","pSARL_v2","pSARL_v2bfqvy67d","60fd0c0177cf82998b783603","freq","img/green_2bandit_b2.png","70","70","test","1","174","174","8","",""
"null","318036","pSARL_v2","pSARL_v2bfqvy67d","60fd0c0177cf82998b783603","freq_resp","img/green_2bandit_b.png","70","70","test","","","","8","",""
"null","318195","pSARL_v2","pSARL_v2bfqvy67d","60fd0c0177cf82998b783603","fixation","img/fixation.png","null","","test","","","","","",""
"349.59999990463257","318550","pSARL_v2","pSARL_v2bfqvy67d","60fd0c0177cf82998b783603","freq","img/green_2bandit_b2.png","70","70","test","1","175","175","8","",""
"null","319019","pSARL_v2","pSARL_v2bfqvy67d","60fd0c0177cf82998b783603","freq_resp","img/green_2bandit_b.png","70","70","test","","","","8","",""
"null","319177","pSARL_v2","pSARL_v2bfqvy67d","60fd0c0177cf82998b783603","fixation","img/fixation.png","null","","test","","","","","",""
"337.89999985694885","319520","pSARL_v2","pSARL_v2bfqvy67d","60fd0c0177cf82998b783603","freq","img/green_2bandit_b2.png","70","70","test","1","176","176","8","",""
"null","319990","pSARL_v2","pSARL_v2bfqvy67d","60fd0c0177cf82998b783603","freq_resp","img/green_2bandit_b.png","70","70","test","","","","8","",""
"null","320150","pSARL_v2","pSARL_v2bfqvy67d","60fd0c0177cf82998b783603","fixation","img/fixation.png","null","","test","","","","","",""
"344.60000014305115","320501","pSARL_v2","pSARL_v2bfqvy67d","60fd0c0177cf82998b783603","freq","img/green_2bandit_b2.png","70","70","test","1","177","177","8","",""
"null","320973","pSARL_v2","pSARL_v2bfqvy67d","60fd0c0177cf82998b783603","freq_resp","img/green_2bandit_b.png","70","70","test","","","","8","",""
"null","321133","pSARL_v2","pSARL_v2bfqvy67d","60fd0c0177cf82998b783603","fixation","img/fixation.png","null","","test","","","","","",""
"251.90000009536743","321391","pSARL_v2","pSARL_v2bfqvy67d","60fd0c0177cf82998b783603","freq","img/green_2bandit_b2.png","70","70","test","1","178","178","8","",""
"null","321951","pSARL_v2","pSARL_v2bfqvy67d","60fd0c0177cf82998b783603","freq_resp","img/green_2bandit_b.png","70","70","test","","","","8","",""
"null","322110","pSARL_v2","pSARL_v2bfqvy67d","60fd0c0177cf82998b783603","fixation","img/fixation.png","null","","test","","","","","",""
"334.7999999523163","322450","pSARL_v2","pSARL_v2bfqvy67d","60fd0c0177cf82998b783603","freq","img/green_2bandit_b2.png","70","70","test","1","179","179","8","",""
"null","322933","pSARL_v2","pSARL_v2bfqvy67d","60fd0c0177cf82998b783603","freq_resp","img/green_2bandit_b.png","70","70","test","","","","8","",""
"null","323091","pSARL_v2","pSARL_v2bfqvy67d","60fd0c0177cf82998b783603","fixation","img/fixation.png","null","","test","","","","","",""
"363","323459","pSARL_v2","pSARL_v2bfqvy67d","60fd0c0177cf82998b783603","freq","img/green_2bandit_b2.png","70","70","test","1","180","180","8","",""
"null","323917","pSARL_v2","pSARL_v2bfqvy67d","60fd0c0177cf82998b783603","freq_resp","img/green_2bandit_b.png","70","70","test","","","","8","",""
"null","324075","pSARL_v2","pSARL_v2bfqvy67d","60fd0c0177cf82998b783603","fixation","img/fixation.png","null","","test","","","","","",""
"329.60000014305115","324409","pSARL_v2","pSARL_v2bfqvy67d","60fd0c0177cf82998b783603","freq","img/green_2bandit_b2.png","70","70","test","1","181","181","8","",""
"null","324900","pSARL_v2","pSARL_v2bfqvy67d","60fd0c0177cf82998b783603","freq_resp","img/green_2bandit_b.png","70","70","test","","","","8","",""
"null","325058","pSARL_v2","pSARL_v2bfqvy67d","60fd0c0177cf82998b783603","fixation","img/fixation.png","null","","test","","","","","",""
"366.60000014305115","325430","pSARL_v2","pSARL_v2bfqvy67d","60fd0c0177cf82998b783603","freq","img/green_2bandit_b2.png","70","70","test","1","182","182","8","",""
"null","325879","pSARL_v2","pSARL_v2bfqvy67d","60fd0c0177cf82998b783603","freq_resp","img/green_2bandit_b.png","70","70","test","","","","8","",""
"null","326039","pSARL_v2","pSARL_v2bfqvy67d","60fd0c0177cf82998b783603","fixation","img/fixation.png","null","","test","","","","","",""
"505.59999990463257","326550","pSARL_v2","pSARL_v2bfqvy67d","60fd0c0177cf82998b783603","reward","img/slot.png","74","","test","","","","","",""
"null","327307","pSARL_v2","pSARL_v2bfqvy67d","60fd0c0177cf82998b783603","points","<div class=""verylowPoints""> -4 </div>","null","na","test","","","","8","-4","7"
"567.1999998092651","327879","pSARL_v2","pSARL_v2bfqvy67d","60fd0c0177cf82998b783603","freq","img/green_2bandit_b2.png","70","70","test","1","183","183","9","",""
"null","328129","pSARL_v2","pSARL_v2bfqvy67d","60fd0c0177cf82998b783603","freq_resp","img/green_2bandit_b.png","70","70","test","","","","9","",""
"null","328290","pSARL_v2","pSARL_v2bfqvy67d","60fd0c0177cf82998b783603","fixation","img/fixation.png","null","","test","","","","","",""
"444.7000000476837","328739","pSARL_v2","pSARL_v2bfqvy67d","60fd0c0177cf82998b783603","freq","img/green_2bandit_b2.png","70","70","test","1","184","184","9","",""
"null","329115","pSARL_v2","pSARL_v2bfqvy67d","60fd0c0177cf82998b783603","freq_resp","img/green_2bandit_b.png","70","70","test","","","","9","",""
"null","329274","pSARL_v2","pSARL_v2bfqvy67d","60fd0c0177cf82998b783603","fixation","img/fixation.png","null","","test","","","","","",""
"401.40000009536743","329681","pSARL_v2","pSARL_v2bfqvy67d","60fd0c0177cf82998b783603","freq","img/green_2bandit_b2.png","70","70","test","1","185","185","9","",""
"null","330096","pSARL_v2","pSARL_v2bfqvy67d","60fd0c0177cf82998b783603","freq_resp","img/green_2bandit_b.png","70","70","test","","","","9","",""
"null","330258","pSARL_v2","pSARL_v2bfqvy67d","60fd0c0177cf82998b783603","fixation","img/fixation.png","null","","test","","","","","",""
"336.10000014305115","330601","pSARL_v2","pSARL_v2bfqvy67d","60fd0c0177cf82998b783603","freq","img/green_2bandit_b2.png","70","70","test","1","186","186","9","",""
"null","331081","pSARL_v2","pSARL_v2bfqvy67d","60fd0c0177cf82998b783603","freq_resp","img/green_2bandit_b.png","70","70","test","","","","9","",""
"null","331239","pSARL_v2","pSARL_v2bfqvy67d","60fd0c0177cf82998b783603","fixation","img/fixation.png","null","","test","","","","","",""
"395.7000000476837","331641","pSARL_v2","pSARL_v2bfqvy67d","60fd0c0177cf82998b783603","freq","img/green_2bandit_b2.png","70","70","test","1","187","187","9","",""
"null","332061","pSARL_v2","pSARL_v2bfqvy67d","60fd0c0177cf82998b783603","freq_resp","img/green_2bandit_b.png","70","70","test","","","","9","",""
"null","332221","pSARL_v2","pSARL_v2bfqvy67d","60fd0c0177cf82998b783603","fixation","img/fixation.png","null","","test","","","","","",""
"613.7000000476837","332841","pSARL_v2","pSARL_v2bfqvy67d","60fd0c0177cf82998b783603","infreq","img/orange_2bandit_b2.png","68","68","test","1","188","188","9","",""
"null","333045","pSARL_v2","pSARL_v2bfqvy67d","60fd0c0177cf82998b783603","infreq_resp","img/orange_2bandit_b.png","68","68","test","","","","9","",""
"null","333205","pSARL_v2","pSARL_v2bfqvy67d","60fd0c0177cf82998b783603","fixation","img/fixation.png","null","","test","","","","","",""
"430.2000000476837","333640","pSARL_v2","pSARL_v2bfqvy67d","60fd0c0177cf82998b783603","freq","img/green_2bandit_b2.png","70","70","test","1","189","189","9","",""
"null","334030","pSARL_v2","pSARL_v2bfqvy67d","60fd0c0177cf82998b783603","freq_resp","img/green_2bandit_b.png","70","70","test","","","","9","",""
"null","334188","pSARL_v2","pSARL_v2bfqvy67d","60fd0c0177cf82998b783603","fixation","img/fixation.png","null","","test","","","","","",""
"596.5","334790","pSARL_v2","pSARL_v2bfqvy67d","60fd0c0177cf82998b783603","freq","img/green_2bandit_b2.png","70","70","test","1","190","190","9","",""
"null","335013","pSARL_v2","pSARL_v2bfqvy67d","60fd0c0177cf82998b783603","freq_resp","img/green_2bandit_b.png","70","70","test","","","","9","",""
"null","335173","pSARL_v2","pSARL_v2bfqvy67d","60fd0c0177cf82998b783603","fixation","img/fixation.png","null","","test","","","","","",""
"491.2999999523163","335671","pSARL_v2","pSARL_v2bfqvy67d","60fd0c0177cf82998b783603","freq","img/green_2bandit_b2.png","70","70","test","1","191","191","9","",""
"null","335996","pSARL_v2","pSARL_v2bfqvy67d","60fd0c0177cf82998b783603","freq_resp","img/green_2bandit_b.png","70","70","test","","","","9","",""
"null","336152","pSARL_v2","pSARL_v2bfqvy67d","60fd0c0177cf82998b783603","fixation","img/fixation.png","null","","test","","","","","",""
"412.40000009536743","336570","pSARL_v2","pSARL_v2bfqvy67d","60fd0c0177cf82998b783603","freq","img/green_2bandit_b2.png","70","70","test","1","192","192","9","",""
"null","336978","pSARL_v2","pSARL_v2bfqvy67d","60fd0c0177cf82998b783603","freq_resp","img/green_2bandit_b.png","70","70","test","","","","9","",""
"null","337137","pSARL_v2","pSARL_v2bfqvy67d","60fd0c0177cf82998b783603","fixation","img/fixation.png","null","","test","","","","","",""
"447.2000000476837","337591","pSARL_v2","pSARL_v2bfqvy67d","60fd0c0177cf82998b783603","freq","img/green_2bandit_b2.png","70","70","test","1","193","193","9","",""
"null","337962","pSARL_v2","pSARL_v2bfqvy67d","60fd0c0177cf82998b783603","freq_resp","img/green_2bandit_b.png","70","70","test","","","","9","",""
"null","338120","pSARL_v2","pSARL_v2bfqvy67d","60fd0c0177cf82998b783603","fixation","img/fixation.png","null","","test","","","","","",""
"405.10000014305115","338529","pSARL_v2","pSARL_v2bfqvy67d","60fd0c0177cf82998b783603","freq","img/green_2bandit_b2.png","70","70","test","1","194","194","9","",""
"null","338944","pSARL_v2","pSARL_v2bfqvy67d","60fd0c0177cf82998b783603","freq_resp","img/green_2bandit_b.png","70","70","test","","","","9","",""
"null","339102","pSARL_v2","pSARL_v2bfqvy67d","60fd0c0177cf82998b783603","fixation","img/fixation.png","null","","test","","","","","",""
"352.5","339460","pSARL_v2","pSARL_v2bfqvy67d","60fd0c0177cf82998b783603","freq","img/green_2bandit_b2.png","70","70","test","1","195","195","9","",""
"null","339926","pSARL_v2","pSARL_v2bfqvy67d","60fd0c0177cf82998b783603","freq_resp","img/green_2bandit_b.png","70","70","test","","","","9","",""
"null","340085","pSARL_v2","pSARL_v2bfqvy67d","60fd0c0177cf82998b783603","fixation","img/fixation.png","null","","test","","","","","",""
"329.5","340421","pSARL_v2","pSARL_v2bfqvy67d","60fd0c0177cf82998b783603","freq","img/green_2bandit_b2.png","70","70","test","1","196","196","9","",""
"null","340908","pSARL_v2","pSARL_v2bfqvy67d","60fd0c0177cf82998b783603","freq_resp","img/green_2bandit_b.png","70","70","test","","","","9","",""
"null","341069","pSARL_v2","pSARL_v2bfqvy67d","60fd0c0177cf82998b783603","fixation","img/fixation.png","null","","test","","","","","",""
"165.90000009536743","341239","pSARL_v2","pSARL_v2bfqvy67d","60fd0c0177cf82998b783603","freq","img/green_2bandit_b2.png","70","70","test","1","197","197","9","",""
"null","341886","pSARL_v2","pSARL_v2bfqvy67d","60fd0c0177cf82998b783603","freq_resp","img/green_2bandit_b.png","70","70","test","","","","9","",""
"null","342046","pSARL_v2","pSARL_v2bfqvy67d","60fd0c0177cf82998b783603","fixation","img/fixation.png","null","","test","","","","","",""
"138.59999990463257","342189","pSARL_v2","pSARL_v2bfqvy67d","60fd0c0177cf82998b783603","freq","img/green_2bandit_b2.png","70","70","test","1","198","198","9","",""
"null","342867","pSARL_v2","pSARL_v2bfqvy67d","60fd0c0177cf82998b783603","freq_resp","img/green_2bandit_b.png","70","70","test","","","","9","",""
"null","343027","pSARL_v2","pSARL_v2bfqvy67d","60fd0c0177cf82998b783603","fixation","img/fixation.png","null","","test","","","","","",""
"157.79999995231628","343189","pSARL_v2","pSARL_v2bfqvy67d","60fd0c0177cf82998b783603","infreq","img/orange_2bandit_b2.png","70","68","test","0","199","199","9","",""
"null","343848","pSARL_v2","pSARL_v2bfqvy67d","60fd0c0177cf82998b783603","infreq_resp","img/orange_2bandit_b.png","70","68","test","","","","9","",""
"null","344007","pSARL_v2","pSARL_v2bfqvy67d","60fd0c0177cf82998b783603","fixation","img/fixation.png","null","","test","","","","","",""
"167.5","344180","pSARL_v2","pSARL_v2bfqvy67d","60fd0c0177cf82998b783603","freq","img/green_2bandit_b2.png","70","70","test","1","200","200","9","",""
"null","344828","pSARL_v2","pSARL_v2bfqvy67d","60fd0c0177cf82998b783603","freq_resp","img/green_2bandit_b.png","70","70","test","","","","9","",""
"null","344987","pSARL_v2","pSARL_v2bfqvy67d","60fd0c0177cf82998b783603","fixation","img/fixation.png","null","","test","","","","","",""
"137.70000004768372","345130","pSARL_v2","pSARL_v2bfqvy67d","60fd0c0177cf82998b783603","freq","img/green_2bandit_b2.png","70","70","test","1","201","201","9","",""
"null","345811","pSARL_v2","pSARL_v2bfqvy67d","60fd0c0177cf82998b783603","freq_resp","img/green_2bandit_b.png","70","70","test","","","","9","",""
"null","345968","pSARL_v2","pSARL_v2bfqvy67d","60fd0c0177cf82998b783603","fixation","img/fixation.png","null","","test","","","","","",""
"187.09999990463257","346161","pSARL_v2","pSARL_v2bfqvy67d","60fd0c0177cf82998b783603","freq","img/green_2bandit_b2.png","70","70","test","1","202","202","9","",""
"null","346793","pSARL_v2","pSARL_v2bfqvy67d","60fd0c0177cf82998b783603","freq_resp","img/green_2bandit_b.png","70","70","test","","","","9","",""
"null","346952","pSARL_v2","pSARL_v2bfqvy67d","60fd0c0177cf82998b783603","fixation","img/fixation.png","null","","test","","","","","",""
"953","347912","pSARL_v2","pSARL_v2bfqvy67d","60fd0c0177cf82998b783603","reward","img/slot.png","74","","test","","","","","",""
"null","348682","pSARL_v2","pSARL_v2bfqvy67d","60fd0c0177cf82998b783603","points","<div class=""verylowPoints""> -3 </div>","null","na","test","","","","9","-3","8"
"692.2999999523163","349380","pSARL_v2","pSARL_v2bfqvy67d","60fd0c0177cf82998b783603","freq","img/green_2bandit_b2.png","70","70","test","1","203","203","10","",""
"null","349495","pSARL_v2","pSARL_v2bfqvy67d","60fd0c0177cf82998b783603","freq_resp","img/green_2bandit_b.png","70","70","test","","","","10","",""
"null","349650","pSARL_v2","pSARL_v2bfqvy67d","60fd0c0177cf82998b783603","fixation","img/fixation.png","null","","test","","","","","",""
"544.7000000476837","350200","pSARL_v2","pSARL_v2bfqvy67d","60fd0c0177cf82998b783603","freq","img/green_2bandit_b2.png","70","70","test","1","204","204","10","",""
"null","350475","pSARL_v2","pSARL_v2bfqvy67d","60fd0c0177cf82998b783603","freq_resp","img/green_2bandit_b.png","70","70","test","","","","10","",""
"null","350632","pSARL_v2","pSARL_v2bfqvy67d","60fd0c0177cf82998b783603","fixation","img/fixation.png","null","","test","","","","","",""
"382.5","351021","pSARL_v2","pSARL_v2bfqvy67d","60fd0c0177cf82998b783603","freq","img/green_2bandit_b2.png","70","70","test","1","205","205","10","",""
"null","351458","pSARL_v2","pSARL_v2bfqvy67d","60fd0c0177cf82998b783603","freq_resp","img/green_2bandit_b.png","70","70","test","","","","10","",""
"null","351615","pSARL_v2","pSARL_v2bfqvy67d","60fd0c0177cf82998b783603","fixation","img/fixation.png","null","","test","","","","","",""
"540.5","352161","pSARL_v2","pSARL_v2bfqvy67d","60fd0c0177cf82998b783603","infreq","img/orange_2bandit_b2.png","68","68","test","1","206","206","10","",""
"null","352442","pSARL_v2","pSARL_v2bfqvy67d","60fd0c0177cf82998b783603","infreq_resp","img/orange_2bandit_b.png","68","68","test","","","","10","",""
"null","352601","pSARL_v2","pSARL_v2bfqvy67d","60fd0c0177cf82998b783603","fixation","img/fixation.png","null","","test","","","","","",""
