"rt","time_elapsed","expId","subject","prolificID","trialType","stimulus","key_press","corrresp","phase","corr","trialNum","attentionRunNum","blockNum","points","rlNum"
"9405.899999856949","9409","pSARL_v2","pSARL_v29u20s9hl","5a79ebf1527fd000014658b3","","","","","","","","","","",""
"","13537","pSARL_v2","pSARL_v29u20s9hl","5a79ebf1527fd000014658b3","fullscreen","","","","","","","","","",""
"94420.79999995232","107960","pSARL_v2","pSARL_v29u20s9hl","5a79ebf1527fd000014658b3","","","","","","","","","","",""
"null","108778","pSARL_v2","pSARL_v29u20s9hl","5a79ebf1527fd000014658b3","freqPrac","img/green_2bandit_b2.png","null","70","prac","0","","","","",""
"null","109791","pSARL_v2","pSARL_v29u20s9hl","5a79ebf1527fd000014658b3","feedback","img/tooSlow.png","null","na","prac","","","","","",""
"null","109958","pSARL_v2","pSARL_v29u20s9hl","5a79ebf1527fd000014658b3","fixation","img/fixation.png","null","","prac","","","","","",""
"630.5","110591","pSARL_v2","pSARL_v29u20s9hl","5a79ebf1527fd000014658b3","infreqPrac","img/orange_2bandit_b2.png","68","68","prac","1","","","","",""
"630.5","110777","pSARL_v2","pSARL_v29u20s9hl","5a79ebf1527fd000014658b3","infreqPrac_resp","img/orange_2bandit_b.png","68","68","prac","","","","","",""
"null","110928","pSARL_v2","pSARL_v29u20s9hl","5a79ebf1527fd000014658b3","fixation","img/fixation.png","null","","prac","","","","","",""
"460.60000014305115","111391","pSARL_v2","pSARL_v29u20s9hl","5a79ebf1527fd000014658b3","freqPrac","img/green_2bandit_b2.png","70","70","prac","1","","","","",""
"460.60000014305115","111736","pSARL_v2","pSARL_v29u20s9hl","5a79ebf1527fd000014658b3","freqPrac_resp","img/green_2bandit_b.png","70","70","prac","","","","","",""
"null","111897","pSARL_v2","pSARL_v29u20s9hl","5a79ebf1527fd000014658b3","fixation","img/fixation.png","null","","prac","","","","","",""
"467.2000000476837","112366","pSARL_v2","pSARL_v29u20s9hl","5a79ebf1527fd000014658b3","infreqPrac","img/orange_2bandit_b2.png","68","68","prac","1","","","","",""
"467.2000000476837","112705","pSARL_v2","pSARL_v29u20s9hl","5a79ebf1527fd000014658b3","infreqPrac_resp","img/orange_2bandit_b.png","68","68","prac","","","","","",""
"null","112867","pSARL_v2","pSARL_v29u20s9hl","5a79ebf1527fd000014658b3","fixation","img/fixation.png","null","","prac","","","","","",""
"401.59999990463257","113271","pSARL_v2","pSARL_v29u20s9hl","5a79ebf1527fd000014658b3","infreqPrac","img/orange_2bandit_b2.png","68","68","prac","1","","","","",""
"401.59999990463257","113671","pSARL_v2","pSARL_v29u20s9hl","5a79ebf1527fd000014658b3","infreqPrac_resp","img/orange_2bandit_b.png","68","68","prac","","","","","",""
"null","113838","pSARL_v2","pSARL_v29u20s9hl","5a79ebf1527fd000014658b3","fixation","img/fixation.png","null","","prac","","","","","",""
"399.2999999523163","114239","pSARL_v2","pSARL_v29u20s9hl","5a79ebf1527fd000014658b3","infreqPrac","img/orange_2bandit_b2.png","68","68","prac","1","","","","",""
"399.2999999523163","114641","pSARL_v2","pSARL_v29u20s9hl","5a79ebf1527fd000014658b3","infreqPrac_resp","img/orange_2bandit_b.png","68","68","prac","","","","","",""
"null","114809","pSARL_v2","pSARL_v29u20s9hl","5a79ebf1527fd000014658b3","fixation","img/fixation.png","null","","prac","","","","","",""
"428.2999999523163","115239","pSARL_v2","pSARL_v29u20s9hl","5a79ebf1527fd000014658b3","freqPrac","img/green_2bandit_b2.png","70","70","prac","1","","","","",""
"428.2999999523163","115614","pSARL_v2","pSARL_v29u20s9hl","5a79ebf1527fd000014658b3","freqPrac_resp","img/green_2bandit_b.png","70","70","prac","","","","","",""
"null","115778","pSARL_v2","pSARL_v29u20s9hl","5a79ebf1527fd000014658b3","fixation","img/fixation.png","null","","prac","","","","","",""
"411","116191","pSARL_v2","pSARL_v29u20s9hl","5a79ebf1527fd000014658b3","infreqPrac","img/orange_2bandit_b2.png","68","68","prac","1","","","","",""
"411","116582","pSARL_v2","pSARL_v29u20s9hl","5a79ebf1527fd000014658b3","infreqPrac_resp","img/orange_2bandit_b.png","68","68","prac","","","","","",""
"null","116748","pSARL_v2","pSARL_v29u20s9hl","5a79ebf1527fd000014658b3","fixation","img/fixation.png","null","","prac","","","","","",""
"513.2999999523163","117263","pSARL_v2","pSARL_v29u20s9hl","5a79ebf1527fd000014658b3","freqPrac","img/green_2bandit_b2.png","70","70","prac","1","","","","",""
"513.2999999523163","117559","pSARL_v2","pSARL_v29u20s9hl","5a79ebf1527fd000014658b3","freqPrac_resp","img/green_2bandit_b.png","70","70","prac","","","","","",""
"null","117719","pSARL_v2","pSARL_v29u20s9hl","5a79ebf1527fd000014658b3","fixation","img/fixation.png","null","","prac","","","","","",""
"501.5","118222","pSARL_v2","pSARL_v29u20s9hl","5a79ebf1527fd000014658b3","freqPrac","img/green_2bandit_b2.png","70","70","prac","1","","","","",""
"501.5","118528","pSARL_v2","pSARL_v29u20s9hl","5a79ebf1527fd000014658b3","freqPrac_resp","img/green_2bandit_b.png","70","70","prac","","","","","",""
"null","118690","pSARL_v2","pSARL_v29u20s9hl","5a79ebf1527fd000014658b3","fixation","img/fixation.png","null","","prac","","","","","",""
"103674.39999985695","222366","pSARL_v2","pSARL_v29u20s9hl","5a79ebf1527fd000014658b3","","","","","prac","","","","","",""
"461.60000014305115","222829","pSARL_v2","pSARL_v29u20s9hl","5a79ebf1527fd000014658b3","rewardPractice","img/slot.png","74","","prac","","","","","",""
"null","223584","pSARL_v2","pSARL_v29u20s9hl","5a79ebf1527fd000014658b3","feedback","<div class=""veryhighPoints""> +15 </div>","null","na","prac","","","","","",""
"null","223742","pSARL_v2","pSARL_v29u20s9hl","5a79ebf1527fd000014658b3","fixation","img/fixation.png","null","","prac","","","","","",""
"24725.89999985695","248469","pSARL_v2","pSARL_v29u20s9hl","5a79ebf1527fd000014658b3","","","","","prac","","","","","",""
"413.89999985694885","248885","pSARL_v2","pSARL_v29u20s9hl","5a79ebf1527fd000014658b3","freq","img/green_2bandit_b2.png","70","70","test","1","1","1","1","",""
"null","249283","pSARL_v2","pSARL_v29u20s9hl","5a79ebf1527fd000014658b3","freq_resp","img/green_2bandit_b.png","70","70","test","","","","1","",""
"null","249448","pSARL_v2","pSARL_v29u20s9hl","5a79ebf1527fd000014658b3","fixation","img/fixation.png","null","","test","","","","","",""
"83.79999995231628","249533","pSARL_v2","pSARL_v29u20s9hl","5a79ebf1527fd000014658b3","freq","img/green_2bandit_b2.png","70","70","test","1","2","2","1","",""
"null","250261","pSARL_v2","pSARL_v29u20s9hl","5a79ebf1527fd000014658b3","freq_resp","img/green_2bandit_b.png","70","70","test","","","","1","",""
"null","250419","pSARL_v2","pSARL_v29u20s9hl","5a79ebf1527fd000014658b3","fixation","img/fixation.png","null","","test","","","","","",""
"479.89999985694885","250901","pSARL_v2","pSARL_v29u20s9hl","5a79ebf1527fd000014658b3","freq","img/green_2bandit_b2.png","70","70","test","1","3","3","1","",""
"null","251225","pSARL_v2","pSARL_v29u20s9hl","5a79ebf1527fd000014658b3","freq_resp","img/green_2bandit_b.png","70","70","test","","","","1","",""
"null","251388","pSARL_v2","pSARL_v29u20s9hl","5a79ebf1527fd000014658b3","fixation","img/fixation.png","null","","test","","","","","",""
"431","251821","pSARL_v2","pSARL_v29u20s9hl","5a79ebf1527fd000014658b3","freq","img/green_2bandit_b2.png","70","70","test","1","4","4","1","",""
"null","252193","pSARL_v2","pSARL_v29u20s9hl","5a79ebf1527fd000014658b3","freq_resp","img/green_2bandit_b.png","70","70","test","","","","1","",""
"null","252358","pSARL_v2","pSARL_v29u20s9hl","5a79ebf1527fd000014658b3","fixation","img/fixation.png","null","","test","","","","","",""
"525.5","252885","pSARL_v2","pSARL_v29u20s9hl","5a79ebf1527fd000014658b3","freq","img/green_2bandit_b2.png","70","70","test","1","5","5","1","",""
"null","253170","pSARL_v2","pSARL_v29u20s9hl","5a79ebf1527fd000014658b3","freq_resp","img/green_2bandit_b.png","70","70","test","","","","1","",""
"null","253329","pSARL_v2","pSARL_v29u20s9hl","5a79ebf1527fd000014658b3","fixation","img/fixation.png","null","","test","","","","","",""
"386.59999990463257","253717","pSARL_v2","pSARL_v29u20s9hl","5a79ebf1527fd000014658b3","infreq","img/orange_2bandit_b2.png","68","68","test","1","6","6","1","",""
"null","254139","pSARL_v2","pSARL_v29u20s9hl","5a79ebf1527fd000014658b3","infreq_resp","img/orange_2bandit_b.png","68","68","test","","","","1","",""
"null","254300","pSARL_v2","pSARL_v29u20s9hl","5a79ebf1527fd000014658b3","fixation","img/fixation.png","null","","test","","","","","",""
"407.7999999523163","254709","pSARL_v2","pSARL_v29u20s9hl","5a79ebf1527fd000014658b3","infreq","img/orange_2bandit_b2.png","68","68","test","1","7","7","1","",""
"null","255118","pSARL_v2","pSARL_v29u20s9hl","5a79ebf1527fd000014658b3","infreq_resp","img/orange_2bandit_b.png","68","68","test","","","","1","",""
"null","255285","pSARL_v2","pSARL_v29u20s9hl","5a79ebf1527fd000014658b3","fixation","img/fixation.png","null","","test","","","","","",""
"405.89999985694885","255693","pSARL_v2","pSARL_v29u20s9hl","5a79ebf1527fd000014658b3","freq","img/green_2bandit_b2.png","70","70","test","1","8","8","1","",""
"null","256092","pSARL_v2","pSARL_v29u20s9hl","5a79ebf1527fd000014658b3","freq_resp","img/green_2bandit_b.png","70","70","test","","","","1","",""
"null","256256","pSARL_v2","pSARL_v29u20s9hl","5a79ebf1527fd000014658b3","fixation","img/fixation.png","null","","test","","","","","",""
"619.3999998569489","256877","pSARL_v2","pSARL_v29u20s9hl","5a79ebf1527fd000014658b3","freq","img/green_2bandit_b2.png","70","70","test","1","9","9","1","",""
"null","257073","pSARL_v2","pSARL_v29u20s9hl","5a79ebf1527fd000014658b3","freq_resp","img/green_2bandit_b.png","70","70","test","","","","1","",""
"null","257226","pSARL_v2","pSARL_v29u20s9hl","5a79ebf1527fd000014658b3","fixation","img/fixation.png","null","","test","","","","","",""
"465.40000009536743","257693","pSARL_v2","pSARL_v29u20s9hl","5a79ebf1527fd000014658b3","freq","img/green_2bandit_b2.png","70","70","test","1","10","10","1","",""
"null","258033","pSARL_v2","pSARL_v29u20s9hl","5a79ebf1527fd000014658b3","freq_resp","img/green_2bandit_b.png","70","70","test","","","","1","",""
"null","258190","pSARL_v2","pSARL_v29u20s9hl","5a79ebf1527fd000014658b3","fixation","img/fixation.png","null","","test","","","","","",""
"420.7999999523163","258613","pSARL_v2","pSARL_v29u20s9hl","5a79ebf1527fd000014658b3","freq","img/green_2bandit_b2.png","70","70","test","1","11","11","1","",""
"null","259005","pSARL_v2","pSARL_v29u20s9hl","5a79ebf1527fd000014658b3","freq_resp","img/green_2bandit_b.png","70","70","test","","","","1","",""
"null","259168","pSARL_v2","pSARL_v29u20s9hl","5a79ebf1527fd000014658b3","fixation","img/fixation.png","null","","test","","","","","",""
"459.59999990463257","259629","pSARL_v2","pSARL_v29u20s9hl","5a79ebf1527fd000014658b3","freq","img/green_2bandit_b2.png","70","70","test","1","12","12","1","",""
"null","259974","pSARL_v2","pSARL_v29u20s9hl","5a79ebf1527fd000014658b3","freq_resp","img/green_2bandit_b.png","70","70","test","","","","1","",""
"null","260136","pSARL_v2","pSARL_v29u20s9hl","5a79ebf1527fd000014658b3","fixation","img/fixation.png","null","","test","","","","","",""
"443.2000000476837","260581","pSARL_v2","pSARL_v29u20s9hl","5a79ebf1527fd000014658b3","freq","img/green_2bandit_b2.png","70","70","test","1","13","13","1","",""
"null","260942","pSARL_v2","pSARL_v29u20s9hl","5a79ebf1527fd000014658b3","freq_resp","img/green_2bandit_b.png","70","70","test","","","","1","",""
"null","261106","pSARL_v2","pSARL_v29u20s9hl","5a79ebf1527fd000014658b3","fixation","img/fixation.png","null","","test","","","","","",""
"null","261913","pSARL_v2","pSARL_v29u20s9hl","5a79ebf1527fd000014658b3","freq","img/green_2bandit_b2.png","null","70","test","0","14","14","1","",""
"null","262069","pSARL_v2","pSARL_v29u20s9hl","5a79ebf1527fd000014658b3","fixation","img/fixation.png","null","","test","","","","","",""
"502.39999985694885","262573","pSARL_v2","pSARL_v29u20s9hl","5a79ebf1527fd000014658b3","freq","img/green_2bandit_b2.png","70","70","test","1","15","15","1","",""
"null","262885","pSARL_v2","pSARL_v29u20s9hl","5a79ebf1527fd000014658b3","freq_resp","img/green_2bandit_b.png","70","70","test","","","","1","",""
"null","263049","pSARL_v2","pSARL_v29u20s9hl","5a79ebf1527fd000014658b3","fixation","img/fixation.png","null","","test","","","","","",""
"378.09999990463257","263429","pSARL_v2","pSARL_v29u20s9hl","5a79ebf1527fd000014658b3","freq","img/green_2bandit_b2.png","70","70","test","1","16","16","1","",""
"null","263863","pSARL_v2","pSARL_v29u20s9hl","5a79ebf1527fd000014658b3","freq_resp","img/green_2bandit_b.png","70","70","test","","","","1","",""
"null","264018","pSARL_v2","pSARL_v29u20s9hl","5a79ebf1527fd000014658b3","fixation","img/fixation.png","null","","test","","","","","",""
"345.5","264365","pSARL_v2","pSARL_v29u20s9hl","5a79ebf1527fd000014658b3","freq","img/green_2bandit_b2.png","70","70","test","1","17","17","1","",""
"null","264823","pSARL_v2","pSARL_v29u20s9hl","5a79ebf1527fd000014658b3","freq_resp","img/green_2bandit_b.png","70","70","test","","","","1","",""
"null","264983","pSARL_v2","pSARL_v29u20s9hl","5a79ebf1527fd000014658b3","fixation","img/fixation.png","null","","test","","","","","",""
"355.89999985694885","265341","pSARL_v2","pSARL_v29u20s9hl","5a79ebf1527fd000014658b3","freq","img/green_2bandit_b2.png","70","70","test","1","18","18","1","",""
"null","265802","pSARL_v2","pSARL_v29u20s9hl","5a79ebf1527fd000014658b3","freq_resp","img/green_2bandit_b.png","70","70","test","","","","1","",""
"null","265957","pSARL_v2","pSARL_v29u20s9hl","5a79ebf1527fd000014658b3","fixation","img/fixation.png","null","","test","","","","","",""
"334.2999999523163","266293","pSARL_v2","pSARL_v29u20s9hl","5a79ebf1527fd000014658b3","freq","img/green_2bandit_b2.png","70","70","test","1","19","19","1","",""
"null","266770","pSARL_v2","pSARL_v29u20s9hl","5a79ebf1527fd000014658b3","freq_resp","img/green_2bandit_b.png","70","70","test","","","","1","",""
"null","266927","pSARL_v2","pSARL_v29u20s9hl","5a79ebf1527fd000014658b3","fixation","img/fixation.png","null","","test","","","","","",""
"435.7999999523163","267365","pSARL_v2","pSARL_v29u20s9hl","5a79ebf1527fd000014658b3","freq","img/green_2bandit_b2.png","70","70","test","1","20","20","1","",""
"null","267732","pSARL_v2","pSARL_v29u20s9hl","5a79ebf1527fd000014658b3","freq_resp","img/green_2bandit_b.png","70","70","test","","","","1","",""
"null","267897","pSARL_v2","pSARL_v29u20s9hl","5a79ebf1527fd000014658b3","fixation","img/fixation.png","null","","test","","","","","",""
"546.6999998092651","268445","pSARL_v2","pSARL_v29u20s9hl","5a79ebf1527fd000014658b3","freq","img/green_2bandit_b2.png","70","70","test","1","21","21","1","",""
"null","268710","pSARL_v2","pSARL_v29u20s9hl","5a79ebf1527fd000014658b3","freq_resp","img/green_2bandit_b.png","70","70","test","","","","1","",""
"null","268868","pSARL_v2","pSARL_v29u20s9hl","5a79ebf1527fd000014658b3","fixation","img/fixation.png","null","","test","","","","","",""
"559.3999998569489","269429","pSARL_v2","pSARL_v29u20s9hl","5a79ebf1527fd000014658b3","reward","img/slot.png","74","","test","","","","","",""
"null","270196","pSARL_v2","pSARL_v29u20s9hl","5a79ebf1527fd000014658b3","points","<div class=""verylowPoints""> -6 </div>","null","na","test","","","","1","-6","0"
"679.2999999523163","270877","pSARL_v2","pSARL_v29u20s9hl","5a79ebf1527fd000014658b3","freq","img/green_2bandit_b2.png","70","70","test","1","22","22","2","",""
"null","271010","pSARL_v2","pSARL_v29u20s9hl","5a79ebf1527fd000014658b3","freq_resp","img/green_2bandit_b.png","70","70","test","","","","2","",""
"null","271174","pSARL_v2","pSARL_v29u20s9hl","5a79ebf1527fd000014658b3","fixation","img/fixation.png","null","","test","","","","","",""
"525.5999999046326","271701","pSARL_v2","pSARL_v29u20s9hl","5a79ebf1527fd000014658b3","infreq","img/orange_2bandit_b2.png","68","68","test","1","23","23","2","",""
"null","271986","pSARL_v2","pSARL_v29u20s9hl","5a79ebf1527fd000014658b3","infreq_resp","img/orange_2bandit_b.png","68","68","test","","","","2","",""
"null","272146","pSARL_v2","pSARL_v29u20s9hl","5a79ebf1527fd000014658b3","fixation","img/fixation.png","null","","test","","","","","",""
"360.90000009536743","272509","pSARL_v2","pSARL_v29u20s9hl","5a79ebf1527fd000014658b3","freq","img/green_2bandit_b2.png","70","70","test","1","24","24","2","",""
"null","272960","pSARL_v2","pSARL_v29u20s9hl","5a79ebf1527fd000014658b3","freq_resp","img/green_2bandit_b.png","70","70","test","","","","2","",""
"null","273115","pSARL_v2","pSARL_v29u20s9hl","5a79ebf1527fd000014658b3","fixation","img/fixation.png","null","","test","","","","","",""
"424.09999990463257","273541","pSARL_v2","pSARL_v29u20s9hl","5a79ebf1527fd000014658b3","freq","img/green_2bandit_b2.png","70","70","test","1","25","25","2","",""
"null","273920","pSARL_v2","pSARL_v29u20s9hl","5a79ebf1527fd000014658b3","freq_resp","img/green_2bandit_b.png","70","70","test","","","","2","",""
"null","274084","pSARL_v2","pSARL_v29u20s9hl","5a79ebf1527fd000014658b3","fixation","img/fixation.png","null","","test","","","","","",""
"374.89999985694885","274460","pSARL_v2","pSARL_v29u20s9hl","5a79ebf1527fd000014658b3","freq","img/green_2bandit_b2.png","70","70","test","1","26","26","2","",""
"null","274903","pSARL_v2","pSARL_v29u20s9hl","5a79ebf1527fd000014658b3","freq_resp","img/green_2bandit_b.png","70","70","test","","","","2","",""
"null","275055","pSARL_v2","pSARL_v29u20s9hl","5a79ebf1527fd000014658b3","fixation","img/fixation.png","null","","test","","","","","",""
"355.7999999523163","275413","pSARL_v2","pSARL_v29u20s9hl","5a79ebf1527fd000014658b3","freq","img/green_2bandit_b2.png","70","70","test","1","27","27","2","",""
"null","275872","pSARL_v2","pSARL_v29u20s9hl","5a79ebf1527fd000014658b3","freq_resp","img/green_2bandit_b.png","70","70","test","","","","2","",""
"null","276025","pSARL_v2","pSARL_v29u20s9hl","5a79ebf1527fd000014658b3","fixation","img/fixation.png","null","","test","","","","","",""
"353.7999999523163","276381","pSARL_v2","pSARL_v29u20s9hl","5a79ebf1527fd000014658b3","freq","img/green_2bandit_b2.png","70","70","test","1","28","28","2","",""
"null","276840","pSARL_v2","pSARL_v29u20s9hl","5a79ebf1527fd000014658b3","freq_resp","img/green_2bandit_b.png","70","70","test","","","","2","",""
"null","276996","pSARL_v2","pSARL_v29u20s9hl","5a79ebf1527fd000014658b3","fixation","img/fixation.png","null","","test","","","","","",""
"383.40000009536743","277382","pSARL_v2","pSARL_v29u20s9hl","5a79ebf1527fd000014658b3","freq","img/green_2bandit_b2.png","70","70","test","1","29","29","2","",""
"null","277813","pSARL_v2","pSARL_v29u20s9hl","5a79ebf1527fd000014658b3","freq_resp","img/green_2bandit_b.png","70","70","test","","","","2","",""
"null","277966","pSARL_v2","pSARL_v29u20s9hl","5a79ebf1527fd000014658b3","fixation","img/fixation.png","null","","test","","","","","",""
"357.60000014305115","278326","pSARL_v2","pSARL_v29u20s9hl","5a79ebf1527fd000014658b3","freq","img/green_2bandit_b2.png","70","70","test","1","30","30","2","",""
"null","278783","pSARL_v2","pSARL_v29u20s9hl","5a79ebf1527fd000014658b3","freq_resp","img/green_2bandit_b.png","70","70","test","","","","2","",""
"null","278937","pSARL_v2","pSARL_v29u20s9hl","5a79ebf1527fd000014658b3","fixation","img/fixation.png","null","","test","","","","","",""
"403.40000009536743","279342","pSARL_v2","pSARL_v29u20s9hl","5a79ebf1527fd000014658b3","freq","img/green_2bandit_b2.png","70","70","test","1","31","31","2","",""
"null","279755","pSARL_v2","pSARL_v29u20s9hl","5a79ebf1527fd000014658b3","freq_resp","img/green_2bandit_b.png","70","70","test","","","","2","",""
"null","279922","pSARL_v2","pSARL_v29u20s9hl","5a79ebf1527fd000014658b3","fixation","img/fixation.png","null","","test","","","","","",""
"409.7999999523163","280334","pSARL_v2","pSARL_v29u20s9hl","5a79ebf1527fd000014658b3","freq","img/green_2bandit_b2.png","70","70","test","1","32","32","2","",""
"null","280727","pSARL_v2","pSARL_v29u20s9hl","5a79ebf1527fd000014658b3","freq_resp","img/green_2bandit_b.png","70","70","test","","","","2","",""
"null","280892","pSARL_v2","pSARL_v29u20s9hl","5a79ebf1527fd000014658b3","fixation","img/fixation.png","null","","test","","","","","",""
"319.90000009536743","281214","pSARL_v2","pSARL_v29u20s9hl","5a79ebf1527fd000014658b3","freq","img/green_2bandit_b2.png","70","70","test","1","33","33","2","",""
"null","281707","pSARL_v2","pSARL_v29u20s9hl","5a79ebf1527fd000014658b3","freq_resp","img/green_2bandit_b.png","70","70","test","","","","2","",""
"null","281865","pSARL_v2","pSARL_v29u20s9hl","5a79ebf1527fd000014658b3","fixation","img/fixation.png","null","","test","","","","","",""
"299.10000014305115","282166","pSARL_v2","pSARL_v29u20s9hl","5a79ebf1527fd000014658b3","freq","img/green_2bandit_b2.png","70","70","test","1","34","34","2","",""
"null","282674","pSARL_v2","pSARL_v29u20s9hl","5a79ebf1527fd000014658b3","freq_resp","img/green_2bandit_b.png","70","70","test","","","","2","",""
"null","282833","pSARL_v2","pSARL_v29u20s9hl","5a79ebf1527fd000014658b3","fixation","img/fixation.png","null","","test","","","","","",""
"338.90000009536743","283174","pSARL_v2","pSARL_v29u20s9hl","5a79ebf1527fd000014658b3","freq","img/green_2bandit_b2.png","70","70","test","1","35","35","2","",""
"null","283649","pSARL_v2","pSARL_v29u20s9hl","5a79ebf1527fd000014658b3","freq_resp","img/green_2bandit_b.png","70","70","test","","","","2","",""
"null","283805","pSARL_v2","pSARL_v29u20s9hl","5a79ebf1527fd000014658b3","fixation","img/fixation.png","null","","test","","","","","",""
"575.5","284382","pSARL_v2","pSARL_v29u20s9hl","5a79ebf1527fd000014658b3","infreq","img/orange_2bandit_b2.png","68","68","test","1","36","36","2","",""
"null","284619","pSARL_v2","pSARL_v29u20s9hl","5a79ebf1527fd000014658b3","infreq_resp","img/orange_2bandit_b.png","68","68","test","","","","2","",""
"null","284774","pSARL_v2","pSARL_v29u20s9hl","5a79ebf1527fd000014658b3","fixation","img/fixation.png","null","","test","","","","","",""
"477.7000000476837","285254","pSARL_v2","pSARL_v29u20s9hl","5a79ebf1527fd000014658b3","freq","img/green_2bandit_b2.png","70","70","test","1","37","37","2","",""
"null","285582","pSARL_v2","pSARL_v29u20s9hl","5a79ebf1527fd000014658b3","freq_resp","img/green_2bandit_b.png","70","70","test","","","","2","",""
"null","285744","pSARL_v2","pSARL_v29u20s9hl","5a79ebf1527fd000014658b3","fixation","img/fixation.png","null","","test","","","","","",""
"467.7000000476837","286213","pSARL_v2","pSARL_v29u20s9hl","5a79ebf1527fd000014658b3","freq","img/green_2bandit_b2.png","70","70","test","1","38","38","2","",""
"null","286550","pSARL_v2","pSARL_v29u20s9hl","5a79ebf1527fd000014658b3","freq_resp","img/green_2bandit_b.png","70","70","test","","","","2","",""
"null","286712","pSARL_v2","pSARL_v29u20s9hl","5a79ebf1527fd000014658b3","fixation","img/fixation.png","null","","test","","","","","",""
"387.59999990463257","287102","pSARL_v2","pSARL_v29u20s9hl","5a79ebf1527fd000014658b3","freq","img/green_2bandit_b2.png","70","70","test","1","39","39","2","",""
"null","287532","pSARL_v2","pSARL_v29u20s9hl","5a79ebf1527fd000014658b3","freq_resp","img/green_2bandit_b.png","70","70","test","","","","2","",""
"null","287684","pSARL_v2","pSARL_v29u20s9hl","5a79ebf1527fd000014658b3","fixation","img/fixation.png","null","","test","","","","","",""
"399.69999980926514","288085","pSARL_v2","pSARL_v29u20s9hl","5a79ebf1527fd000014658b3","freq","img/green_2bandit_b2.png","70","70","test","1","40","40","2","",""
"null","288494","pSARL_v2","pSARL_v29u20s9hl","5a79ebf1527fd000014658b3","freq_resp","img/green_2bandit_b.png","70","70","test","","","","2","",""
"null","288655","pSARL_v2","pSARL_v29u20s9hl","5a79ebf1527fd000014658b3","fixation","img/fixation.png","null","","test","","","","","",""
"349.10000014305115","289005","pSARL_v2","pSARL_v29u20s9hl","5a79ebf1527fd000014658b3","freq","img/green_2bandit_b2.png","70","70","test","1","41","41","2","",""
"null","289468","pSARL_v2","pSARL_v29u20s9hl","5a79ebf1527fd000014658b3","freq_resp","img/green_2bandit_b.png","70","70","test","","","","2","",""
"null","289625","pSARL_v2","pSARL_v29u20s9hl","5a79ebf1527fd000014658b3","fixation","img/fixation.png","null","","test","","","","","",""
"330.5","289958","pSARL_v2","pSARL_v29u20s9hl","5a79ebf1527fd000014658b3","freq","img/green_2bandit_b2.png","70","70","test","1","42","42","2","",""
"null","290439","pSARL_v2","pSARL_v29u20s9hl","5a79ebf1527fd000014658b3","freq_resp","img/green_2bandit_b.png","70","70","test","","","","2","",""
"null","290595","pSARL_v2","pSARL_v29u20s9hl","5a79ebf1527fd000014658b3","fixation","img/fixation.png","null","","test","","","","","",""
"297.09999990463257","290894","pSARL_v2","pSARL_v29u20s9hl","5a79ebf1527fd000014658b3","freq","img/green_2bandit_b2.png","70","70","test","1","43","43","2","",""
"null","291406","pSARL_v2","pSARL_v29u20s9hl","5a79ebf1527fd000014658b3","freq_resp","img/green_2bandit_b.png","70","70","test","","","","2","",""
"null","291565","pSARL_v2","pSARL_v29u20s9hl","5a79ebf1527fd000014658b3","fixation","img/fixation.png","null","","test","","","","","",""
"503.2000000476837","292070","pSARL_v2","pSARL_v29u20s9hl","5a79ebf1527fd000014658b3","reward","img/slot.png","74","","test","","","","","",""
"null","292825","pSARL_v2","pSARL_v29u20s9hl","5a79ebf1527fd000014658b3","points","<div class=""verylowPoints""> -11 </div>","null","na","test","","","","2","-11","1"
"706.7000000476837","293534","pSARL_v2","pSARL_v29u20s9hl","5a79ebf1527fd000014658b3","freq","img/green_2bandit_b2.png","70","70","test","1","44","44","3","",""
"null","293643","pSARL_v2","pSARL_v29u20s9hl","5a79ebf1527fd000014658b3","freq_resp","img/green_2bandit_b.png","70","70","test","","","","3","",""
"null","293804","pSARL_v2","pSARL_v29u20s9hl","5a79ebf1527fd000014658b3","fixation","img/fixation.png","null","","test","","","","","",""
"743.9000000953674","294550","pSARL_v2","pSARL_v29u20s9hl","5a79ebf1527fd000014658b3","freq","img/green_2bandit_b2.png","70","70","test","1","45","45","3","",""
"null","294615","pSARL_v2","pSARL_v29u20s9hl","5a79ebf1527fd000014658b3","freq_resp","img/green_2bandit_b.png","70","70","test","","","","3","",""
"null","294777","pSARL_v2","pSARL_v29u20s9hl","5a79ebf1527fd000014658b3","fixation","img/fixation.png","null","","test","","","","","",""
"714.2999999523163","295493","pSARL_v2","pSARL_v29u20s9hl","5a79ebf1527fd000014658b3","freq","img/green_2bandit_b2.png","70","70","test","1","46","46","3","",""
"null","295582","pSARL_v2","pSARL_v29u20s9hl","5a79ebf1527fd000014658b3","freq_resp","img/green_2bandit_b.png","70","70","test","","","","3","",""
"null","295745","pSARL_v2","pSARL_v29u20s9hl","5a79ebf1527fd000014658b3","fixation","img/fixation.png","null","","test","","","","","",""
"683.1000001430511","296429","pSARL_v2","pSARL_v29u20s9hl","5a79ebf1527fd000014658b3","freq","img/green_2bandit_b2.png","70","70","test","1","47","47","3","",""
"null","296551","pSARL_v2","pSARL_v29u20s9hl","5a79ebf1527fd000014658b3","freq_resp","img/green_2bandit_b.png","70","70","test","","","","3","",""
"null","296715","pSARL_v2","pSARL_v29u20s9hl","5a79ebf1527fd000014658b3","fixation","img/fixation.png","null","","test","","","","","",""
"656.2999999523163","297373","pSARL_v2","pSARL_v29u20s9hl","5a79ebf1527fd000014658b3","freq","img/green_2bandit_b2.png","70","70","test","1","48","48","3","",""
"null","297520","pSARL_v2","pSARL_v29u20s9hl","5a79ebf1527fd000014658b3","freq_resp","img/green_2bandit_b.png","70","70","test","","","","3","",""
"null","297685","pSARL_v2","pSARL_v29u20s9hl","5a79ebf1527fd000014658b3","fixation","img/fixation.png","null","","test","","","","","",""
"607.0999999046326","298293","pSARL_v2","pSARL_v29u20s9hl","5a79ebf1527fd000014658b3","freq","img/green_2bandit_b2.png","70","70","test","1","49","49","3","",""
"null","298502","pSARL_v2","pSARL_v29u20s9hl","5a79ebf1527fd000014658b3","freq_resp","img/green_2bandit_b.png","70","70","test","","","","3","",""
"null","298656","pSARL_v2","pSARL_v29u20s9hl","5a79ebf1527fd000014658b3","fixation","img/fixation.png","null","","test","","","","","",""
"579.8999998569489","299238","pSARL_v2","pSARL_v29u20s9hl","5a79ebf1527fd000014658b3","freq","img/green_2bandit_b2.png","70","70","test","1","50","50","3","",""
"null","299471","pSARL_v2","pSARL_v29u20s9hl","5a79ebf1527fd000014658b3","freq_resp","img/green_2bandit_b.png","70","70","test","","","","3","",""
"null","299626","pSARL_v2","pSARL_v29u20s9hl","5a79ebf1527fd000014658b3","fixation","img/fixation.png","null","","test","","","","","",""
"585.2999999523163","300214","pSARL_v2","pSARL_v29u20s9hl","5a79ebf1527fd000014658b3","freq","img/green_2bandit_b2.png","70","70","test","1","51","51","3","",""
"null","300441","pSARL_v2","pSARL_v29u20s9hl","5a79ebf1527fd000014658b3","freq_resp","img/green_2bandit_b.png","70","70","test","","","","3","",""
"null","300597","pSARL_v2","pSARL_v29u20s9hl","5a79ebf1527fd000014658b3","fixation","img/fixation.png","null","","test","","","","","",""
"590.9000000953674","301189","pSARL_v2","pSARL_v29u20s9hl","5a79ebf1527fd000014658b3","freq","img/green_2bandit_b2.png","70","70","test","1","52","52","3","",""
"null","301412","pSARL_v2","pSARL_v29u20s9hl","5a79ebf1527fd000014658b3","freq_resp","img/green_2bandit_b.png","70","70","test","","","","3","",""
"null","301570","pSARL_v2","pSARL_v29u20s9hl","5a79ebf1527fd000014658b3","fixation","img/fixation.png","null","","test","","","","","",""
"545.3999998569489","302117","pSARL_v2","pSARL_v29u20s9hl","5a79ebf1527fd000014658b3","freq","img/green_2bandit_b2.png","70","70","test","1","53","53","3","",""
"null","302379","pSARL_v2","pSARL_v29u20s9hl","5a79ebf1527fd000014658b3","freq_resp","img/green_2bandit_b.png","70","70","test","","","","3","",""
"null","302536","pSARL_v2","pSARL_v29u20s9hl","5a79ebf1527fd000014658b3","fixation","img/fixation.png","null","","test","","","","","",""
"539.3000001907349","303077","pSARL_v2","pSARL_v29u20s9hl","5a79ebf1527fd000014658b3","freq","img/green_2bandit_b2.png","70","70","test","1","54","54","3","",""
"null","303342","pSARL_v2","pSARL_v29u20s9hl","5a79ebf1527fd000014658b3","freq_resp","img/green_2bandit_b.png","70","70","test","","","","3","",""
"null","303505","pSARL_v2","pSARL_v29u20s9hl","5a79ebf1527fd000014658b3","fixation","img/fixation.png","null","","test","","","","","",""
"546.7000000476837","304053","pSARL_v2","pSARL_v29u20s9hl","5a79ebf1527fd000014658b3","freq","img/green_2bandit_b2.png","70","70","test","1","55","55","3","",""
"null","304318","pSARL_v2","pSARL_v29u20s9hl","5a79ebf1527fd000014658b3","freq_resp","img/green_2bandit_b.png","70","70","test","","","","3","",""
"null","304476","pSARL_v2","pSARL_v29u20s9hl","5a79ebf1527fd000014658b3","fixation","img/fixation.png","null","","test","","","","","",""
"503.39999985694885","304981","pSARL_v2","pSARL_v29u20s9hl","5a79ebf1527fd000014658b3","freq","img/green_2bandit_b2.png","70","70","test","1","56","56","3","",""
"null","305285","pSARL_v2","pSARL_v29u20s9hl","5a79ebf1527fd000014658b3","freq_resp","img/green_2bandit_b.png","70","70","test","","","","3","",""
"null","305448","pSARL_v2","pSARL_v29u20s9hl","5a79ebf1527fd000014658b3","fixation","img/fixation.png","null","","test","","","","","",""
"444.2000000476837","305893","pSARL_v2","pSARL_v29u20s9hl","5a79ebf1527fd000014658b3","freq","img/green_2bandit_b2.png","70","70","test","1","57","57","3","",""
"null","306253","pSARL_v2","pSARL_v29u20s9hl","5a79ebf1527fd000014658b3","freq_resp","img/green_2bandit_b.png","70","70","test","","","","3","",""
"null","306416","pSARL_v2","pSARL_v29u20s9hl","5a79ebf1527fd000014658b3","fixation","img/fixation.png","null","","test","","","","","",""
"499.90000009536743","306917","pSARL_v2","pSARL_v29u20s9hl","5a79ebf1527fd000014658b3","infreq","img/orange_2bandit_b2.png","68","68","test","1","58","58","3","",""
"null","307225","pSARL_v2","pSARL_v29u20s9hl","5a79ebf1527fd000014658b3","infreq_resp","img/orange_2bandit_b.png","68","68","test","","","","3","",""
"null","307386","pSARL_v2","pSARL_v29u20s9hl","5a79ebf1527fd000014658b3","fixation","img/fixation.png","null","","test","","","","","",""
"657","308045","pSARL_v2","pSARL_v29u20s9hl","5a79ebf1527fd000014658b3","freq","img/green_2bandit_b2.png","70","70","test","1","59","59","3","",""
"null","308192","pSARL_v2","pSARL_v29u20s9hl","5a79ebf1527fd000014658b3","freq_resp","img/green_2bandit_b.png","70","70","test","","","","3","",""
"null","308356","pSARL_v2","pSARL_v29u20s9hl","5a79ebf1527fd000014658b3","fixation","img/fixation.png","null","","test","","","","","",""
"480.09999990463257","308837","pSARL_v2","pSARL_v29u20s9hl","5a79ebf1527fd000014658b3","freq","img/green_2bandit_b2.png","70","70","test","1","60","60","3","",""
"null","309161","pSARL_v2","pSARL_v29u20s9hl","5a79ebf1527fd000014658b3","freq_resp","img/green_2bandit_b.png","70","70","test","","","","3","",""
"null","309330","pSARL_v2","pSARL_v29u20s9hl","5a79ebf1527fd000014658b3","fixation","img/fixation.png","null","","test","","","","","",""
"425.90000009536743","309757","pSARL_v2","pSARL_v29u20s9hl","5a79ebf1527fd000014658b3","freq","img/green_2bandit_b2.png","70","70","test","1","61","61","3","",""
"null","310146","pSARL_v2","pSARL_v29u20s9hl","5a79ebf1527fd000014658b3","freq_resp","img/green_2bandit_b.png","70","70","test","","","","3","",""
"null","310313","pSARL_v2","pSARL_v29u20s9hl","5a79ebf1527fd000014658b3","fixation","img/fixation.png","null","","test","","","","","",""
"322.2000000476837","310637","pSARL_v2","pSARL_v29u20s9hl","5a79ebf1527fd000014658b3","freq","img/green_2bandit_b2.png","70","70","test","1","62","62","3","",""
"null","311127","pSARL_v2","pSARL_v29u20s9hl","5a79ebf1527fd000014658b3","freq_resp","img/green_2bandit_b.png","70","70","test","","","","3","",""
"null","311285","pSARL_v2","pSARL_v29u20s9hl","5a79ebf1527fd000014658b3","fixation","img/fixation.png","null","","test","","","","","",""
"334.7000000476837","311622","pSARL_v2","pSARL_v29u20s9hl","5a79ebf1527fd000014658b3","freq","img/green_2bandit_b2.png","70","70","test","1","63","63","3","",""
"null","312098","pSARL_v2","pSARL_v29u20s9hl","5a79ebf1527fd000014658b3","freq_resp","img/green_2bandit_b.png","70","70","test","","","","3","",""
"null","312254","pSARL_v2","pSARL_v29u20s9hl","5a79ebf1527fd000014658b3","fixation","img/fixation.png","null","","test","","","","","",""
"301.40000009536743","312557","pSARL_v2","pSARL_v29u20s9hl","5a79ebf1527fd000014658b3","freq","img/green_2bandit_b2.png","70","70","test","1","64","64","3","",""
"null","313066","pSARL_v2","pSARL_v29u20s9hl","5a79ebf1527fd000014658b3","freq_resp","img/green_2bandit_b.png","70","70","test","","","","3","",""
"null","313224","pSARL_v2","pSARL_v29u20s9hl","5a79ebf1527fd000014658b3","fixation","img/fixation.png","null","","test","","","","","",""
"332.09999990463257","313557","pSARL_v2","pSARL_v29u20s9hl","5a79ebf1527fd000014658b3","infreq","img/orange_2bandit_b2.png","70","68","test","0","65","65","3","",""
"null","314037","pSARL_v2","pSARL_v29u20s9hl","5a79ebf1527fd000014658b3","infreq_resp","img/orange_2bandit_b.png","70","68","test","","","","3","",""
"null","314195","pSARL_v2","pSARL_v29u20s9hl","5a79ebf1527fd000014658b3","fixation","img/fixation.png","null","","test","","","","","",""
"376.7999999523163","314573","pSARL_v2","pSARL_v29u20s9hl","5a79ebf1527fd000014658b3","freq","img/green_2bandit_b2.png","70","70","test","1","66","66","3","",""
"null","315011","pSARL_v2","pSARL_v29u20s9hl","5a79ebf1527fd000014658b3","freq_resp","img/green_2bandit_b.png","70","70","test","","","","3","",""
"null","315164","pSARL_v2","pSARL_v29u20s9hl","5a79ebf1527fd000014658b3","fixation","img/fixation.png","null","","test","","","","","",""
"463.90000009536743","315629","pSARL_v2","pSARL_v29u20s9hl","5a79ebf1527fd000014658b3","reward","img/slot.png","74","","test","","","","","",""
"null","316393","pSARL_v2","pSARL_v29u20s9hl","5a79ebf1527fd000014658b3","points","<div class=""verylowPoints""> -7 </div>","null","na","test","","","","3","-7","2"
"707","317101","pSARL_v2","pSARL_v29u20s9hl","5a79ebf1527fd000014658b3","freq","img/green_2bandit_b2.png","70","70","test","1","67","67","4","",""
"null","317208","pSARL_v2","pSARL_v29u20s9hl","5a79ebf1527fd000014658b3","freq_resp","img/green_2bandit_b.png","70","70","test","","","","4","",""
"null","317370","pSARL_v2","pSARL_v29u20s9hl","5a79ebf1527fd000014658b3","fixation","img/fixation.png","null","","test","","","","","",""
"481","317853","pSARL_v2","pSARL_v29u20s9hl","5a79ebf1527fd000014658b3","freq","img/green_2bandit_b2.png","70","70","test","1","68","68","4","",""
"null","318188","pSARL_v2","pSARL_v29u20s9hl","5a79ebf1527fd000014658b3","freq_resp","img/green_2bandit_b.png","70","70","test","","","","4","",""
"null","318342","pSARL_v2","pSARL_v29u20s9hl","5a79ebf1527fd000014658b3","fixation","img/fixation.png","null","","test","","","","","",""
"421.7000000476837","318765","pSARL_v2","pSARL_v29u20s9hl","5a79ebf1527fd000014658b3","freq","img/green_2bandit_b2.png","70","70","test","1","69","69","4","",""
"null","319146","pSARL_v2","pSARL_v29u20s9hl","5a79ebf1527fd000014658b3","freq_resp","img/green_2bandit_b.png","70","70","test","","","","4","",""
"null","319311","pSARL_v2","pSARL_v29u20s9hl","5a79ebf1527fd000014658b3","fixation","img/fixation.png","null","","test","","","","","",""
"796.7999999523163","320109","pSARL_v2","pSARL_v29u20s9hl","5a79ebf1527fd000014658b3","freq","img/green_2bandit_b2.png","70","70","test","1","70","70","4","",""
"null","320114","pSARL_v2","pSARL_v29u20s9hl","5a79ebf1527fd000014658b3","freq_resp","img/green_2bandit_b.png","70","70","test","","","","4","",""
"null","320267","pSARL_v2","pSARL_v29u20s9hl","5a79ebf1527fd000014658b3","fixation","img/fixation.png","null","","test","","","","","",""
"632.6000001430511","320901","pSARL_v2","pSARL_v29u20s9hl","5a79ebf1527fd000014658b3","freq","img/green_2bandit_b2.png","70","70","test","1","71","71","4","",""
"null","321082","pSARL_v2","pSARL_v29u20s9hl","5a79ebf1527fd000014658b3","freq_resp","img/green_2bandit_b.png","70","70","test","","","","4","",""
"null","321235","pSARL_v2","pSARL_v29u20s9hl","5a79ebf1527fd000014658b3","fixation","img/fixation.png","null","","test","","","","","",""
"568","321805","pSARL_v2","pSARL_v29u20s9hl","5a79ebf1527fd000014658b3","freq","img/green_2bandit_b2.png","70","70","test","1","72","72","4","",""
"null","322049","pSARL_v2","pSARL_v29u20s9hl","5a79ebf1527fd000014658b3","freq_resp","img/green_2bandit_b.png","70","70","test","","","","4","",""
"null","322207","pSARL_v2","pSARL_v29u20s9hl","5a79ebf1527fd000014658b3","fixation","img/fixation.png","null","","test","","","","","",""
"404.89999985694885","322613","pSARL_v2","pSARL_v29u20s9hl","5a79ebf1527fd000014658b3","freq","img/green_2bandit_b2.png","70","70","test","1","73","73","4","",""
"null","323026","pSARL_v2","pSARL_v29u20s9hl","5a79ebf1527fd000014658b3","freq_resp","img/green_2bandit_b.png","70","70","test","","","","4","",""
"null","323191","pSARL_v2","pSARL_v29u20s9hl","5a79ebf1527fd000014658b3","fixation","img/fixation.png","null","","test","","","","","",""
"381","323573","pSARL_v2","pSARL_v29u20s9hl","5a79ebf1527fd000014658b3","infreq","img/orange_2bandit_b2.png","68","68","test","1","74","74","4","",""
"null","324009","pSARL_v2","pSARL_v29u20s9hl","5a79ebf1527fd000014658b3","infreq_resp","img/orange_2bandit_b.png","68","68","test","","","","4","",""
"null","324162","pSARL_v2","pSARL_v29u20s9hl","5a79ebf1527fd000014658b3","fixation","img/fixation.png","null","","test","","","","","",""
"481.5","324645","pSARL_v2","pSARL_v29u20s9hl","5a79ebf1527fd000014658b3","freq","img/green_2bandit_b2.png","70","70","test","1","75","75","4","",""
"null","324970","pSARL_v2","pSARL_v29u20s9hl","5a79ebf1527fd000014658b3","freq_resp","img/green_2bandit_b.png","70","70","test","","","","4","",""
"null","325133","pSARL_v2","pSARL_v29u20s9hl","5a79ebf1527fd000014658b3","fixation","img/fixation.png","null","","test","","","","","",""
"454.69999980926514","325589","pSARL_v2","pSARL_v29u20s9hl","5a79ebf1527fd000014658b3","freq","img/green_2bandit_b2.png","70","70","test","1","76","76","4","",""
"null","325939","pSARL_v2","pSARL_v29u20s9hl","5a79ebf1527fd000014658b3","freq_resp","img/green_2bandit_b.png","70","70","test","","","","4","",""
"null","326102","pSARL_v2","pSARL_v29u20s9hl","5a79ebf1527fd000014658b3","fixation","img/fixation.png","null","","test","","","","","",""
"389.19999980926514","326493","pSARL_v2","pSARL_v29u20s9hl","5a79ebf1527fd000014658b3","freq","img/green_2bandit_b2.png","70","70","test","1","77","77","4","",""
"null","326906","pSARL_v2","pSARL_v29u20s9hl","5a79ebf1527fd000014658b3","freq_resp","img/green_2bandit_b.png","70","70","test","","","","4","",""
"null","327071","pSARL_v2","pSARL_v29u20s9hl","5a79ebf1527fd000014658b3","fixation","img/fixation.png","null","","test","","","","","",""
"435.7999999523163","327510","pSARL_v2","pSARL_v29u20s9hl","5a79ebf1527fd000014658b3","freq","img/green_2bandit_b2.png","70","70","test","1","78","78","4","",""
"null","327877","pSARL_v2","pSARL_v29u20s9hl","5a79ebf1527fd000014658b3","freq_resp","img/green_2bandit_b.png","70","70","test","","","","4","",""
"null","328042","pSARL_v2","pSARL_v29u20s9hl","5a79ebf1527fd000014658b3","fixation","img/fixation.png","null","","test","","","","","",""
"513.6999998092651","328557","pSARL_v2","pSARL_v29u20s9hl","5a79ebf1527fd000014658b3","freq","img/green_2bandit_b2.png","70","70","test","1","79","79","4","",""
"null","328846","pSARL_v2","pSARL_v29u20s9hl","5a79ebf1527fd000014658b3","freq_resp","img/green_2bandit_b.png","70","70","test","","","","4","",""
"null","329009","pSARL_v2","pSARL_v29u20s9hl","5a79ebf1527fd000014658b3","fixation","img/fixation.png","null","","test","","","","","",""
"514.3999998569489","329525","pSARL_v2","pSARL_v29u20s9hl","5a79ebf1527fd000014658b3","freq","img/green_2bandit_b2.png","70","70","test","1","80","80","4","",""
"null","329823","pSARL_v2","pSARL_v29u20s9hl","5a79ebf1527fd000014658b3","freq_resp","img/green_2bandit_b.png","70","70","test","","","","4","",""
"null","329983","pSARL_v2","pSARL_v29u20s9hl","5a79ebf1527fd000014658b3","fixation","img/fixation.png","null","","test","","","","","",""
"532.7000000476837","330517","pSARL_v2","pSARL_v29u20s9hl","5a79ebf1527fd000014658b3","freq","img/green_2bandit_b2.png","70","70","test","1","81","81","4","",""
"null","330798","pSARL_v2","pSARL_v29u20s9hl","5a79ebf1527fd000014658b3","freq_resp","img/green_2bandit_b.png","70","70","test","","","","4","",""
"null","330953","pSARL_v2","pSARL_v29u20s9hl","5a79ebf1527fd000014658b3","fixation","img/fixation.png","null","","test","","","","","",""
"586.6000001430511","331542","pSARL_v2","pSARL_v29u20s9hl","5a79ebf1527fd000014658b3","freq","img/green_2bandit_b2.png","70","70","test","1","82","82","4","",""
"null","331767","pSARL_v2","pSARL_v29u20s9hl","5a79ebf1527fd000014658b3","freq_resp","img/green_2bandit_b.png","70","70","test","","","","4","",""
"null","331923","pSARL_v2","pSARL_v29u20s9hl","5a79ebf1527fd000014658b3","fixation","img/fixation.png","null","","test","","","","","",""
"608.9000000953674","332533","pSARL_v2","pSARL_v29u20s9hl","5a79ebf1527fd000014658b3","freq","img/green_2bandit_b2.png","70","70","test","1","83","83","4","",""
"null","332740","pSARL_v2","pSARL_v29u20s9hl","5a79ebf1527fd000014658b3","freq_resp","img/green_2bandit_b.png","70","70","test","","","","4","",""
"null","332894","pSARL_v2","pSARL_v29u20s9hl","5a79ebf1527fd000014658b3","fixation","img/fixation.png","null","","test","","","","","",""
"485.2999999523163","333381","pSARL_v2","pSARL_v29u20s9hl","5a79ebf1527fd000014658b3","infreq","img/orange_2bandit_b2.png","68","68","test","1","84","84","4","",""
"null","333701","pSARL_v2","pSARL_v29u20s9hl","5a79ebf1527fd000014658b3","infreq_resp","img/orange_2bandit_b.png","68","68","test","","","","4","",""
"null","333863","pSARL_v2","pSARL_v29u20s9hl","5a79ebf1527fd000014658b3","fixation","img/fixation.png","null","","test","","","","","",""
"452.7999999523163","334317","pSARL_v2","pSARL_v29u20s9hl","5a79ebf1527fd000014658b3","freq","img/green_2bandit_b2.png","70","70","test","1","85","85","4","",""
"null","334673","pSARL_v2","pSARL_v29u20s9hl","5a79ebf1527fd000014658b3","freq_resp","img/green_2bandit_b.png","70","70","test","","","","4","",""
"null","334833","pSARL_v2","pSARL_v29u20s9hl","5a79ebf1527fd000014658b3","fixation","img/fixation.png","null","","test","","","","","",""
"553.7999999523163","335389","pSARL_v2","pSARL_v29u20s9hl","5a79ebf1527fd000014658b3","freq","img/green_2bandit_b2.png","70","70","test","1","86","86","4","",""
"null","335646","pSARL_v2","pSARL_v29u20s9hl","5a79ebf1527fd000014658b3","freq_resp","img/green_2bandit_b.png","70","70","test","","","","4","",""
"null","335803","pSARL_v2","pSARL_v29u20s9hl","5a79ebf1527fd000014658b3","fixation","img/fixation.png","null","","test","","","","","",""
"416.2999999523163","336221","pSARL_v2","pSARL_v29u20s9hl","5a79ebf1527fd000014658b3","freq","img/green_2bandit_b2.png","70","70","test","1","87","87","4","",""
"null","336622","pSARL_v2","pSARL_v29u20s9hl","5a79ebf1527fd000014658b3","freq_resp","img/green_2bandit_b.png","70","70","test","","","","4","",""
"null","336790","pSARL_v2","pSARL_v29u20s9hl","5a79ebf1527fd000014658b3","fixation","img/fixation.png","null","","test","","","","","",""
"405.7000000476837","337197","pSARL_v2","pSARL_v29u20s9hl","5a79ebf1527fd000014658b3","freq","img/green_2bandit_b2.png","70","70","test","1","88","88","4","",""
"null","337594","pSARL_v2","pSARL_v29u20s9hl","5a79ebf1527fd000014658b3","freq_resp","img/green_2bandit_b.png","70","70","test","","","","4","",""
"null","337759","pSARL_v2","pSARL_v29u20s9hl","5a79ebf1527fd000014658b3","fixation","img/fixation.png","null","","test","","","","","",""
"404.7999999523163","338165","pSARL_v2","pSARL_v29u20s9hl","5a79ebf1527fd000014658b3","freq","img/green_2bandit_b2.png","70","70","test","1","89","89","4","",""
"null","338578","pSARL_v2","pSARL_v29u20s9hl","5a79ebf1527fd000014658b3","freq_resp","img/green_2bandit_b.png","70","70","test","","","","4","",""
"null","338730","pSARL_v2","pSARL_v29u20s9hl","5a79ebf1527fd000014658b3","fixation","img/fixation.png","null","","test","","","","","",""
"393.5","339125","pSARL_v2","pSARL_v29u20s9hl","5a79ebf1527fd000014658b3","freq","img/green_2bandit_b2.png","70","70","test","1","90","90","4","",""
"null","339549","pSARL_v2","pSARL_v29u20s9hl","5a79ebf1527fd000014658b3","freq_resp","img/green_2bandit_b.png","70","70","test","","","","4","",""
"null","339716","pSARL_v2","pSARL_v29u20s9hl","5a79ebf1527fd000014658b3","fixation","img/fixation.png","null","","test","","","","","",""
"431.7999999523163","340149","pSARL_v2","pSARL_v29u20s9hl","5a79ebf1527fd000014658b3","freq","img/green_2bandit_b2.png","70","70","test","1","91","91","4","",""
"null","340522","pSARL_v2","pSARL_v29u20s9hl","5a79ebf1527fd000014658b3","freq_resp","img/green_2bandit_b.png","70","70","test","","","","4","",""
"null","340687","pSARL_v2","pSARL_v29u20s9hl","5a79ebf1527fd000014658b3","fixation","img/fixation.png","null","","test","","","","","",""
"460.90000009536743","341149","pSARL_v2","pSARL_v29u20s9hl","5a79ebf1527fd000014658b3","reward","img/slot.png","74","","test","","","","","",""
"null","341917","pSARL_v2","pSARL_v29u20s9hl","5a79ebf1527fd000014658b3","points","<div class=""verylowPoints""> -3 </div>","null","na","test","","","","4","-3","3"
"415.09999990463257","342333","pSARL_v2","pSARL_v29u20s9hl","5a79ebf1527fd000014658b3","freq","img/green_2bandit_b2.png","70","70","test","1","92","92","5","",""
"null","342729","pSARL_v2","pSARL_v29u20s9hl","5a79ebf1527fd000014658b3","freq_resp","img/green_2bandit_b.png","70","70","test","","","","5","",""
"null","342894","pSARL_v2","pSARL_v29u20s9hl","5a79ebf1527fd000014658b3","fixation","img/fixation.png","null","","test","","","","","",""
"382.09999990463257","343277","pSARL_v2","pSARL_v29u20s9hl","5a79ebf1527fd000014658b3","freq","img/green_2bandit_b2.png","70","70","test","1","93","93","5","",""
"null","343712","pSARL_v2","pSARL_v29u20s9hl","5a79ebf1527fd000014658b3","freq_resp","img/green_2bandit_b.png","70","70","test","","","","5","",""
"null","343881","pSARL_v2","pSARL_v29u20s9hl","5a79ebf1527fd000014658b3","fixation","img/fixation.png","null","","test","","","","","",""
"371.09999990463257","344253","pSARL_v2","pSARL_v29u20s9hl","5a79ebf1527fd000014658b3","freq","img/green_2bandit_b2.png","70","70","test","1","94","94","5","",""
"null","344697","pSARL_v2","pSARL_v29u20s9hl","5a79ebf1527fd000014658b3","freq_resp","img/green_2bandit_b.png","70","70","test","","","","5","",""
"null","344852","pSARL_v2","pSARL_v29u20s9hl","5a79ebf1527fd000014658b3","fixation","img/fixation.png","null","","test","","","","","",""
"431.2999999523163","345285","pSARL_v2","pSARL_v29u20s9hl","5a79ebf1527fd000014658b3","infreq","img/orange_2bandit_b2.png","70","68","test","0","95","95","5","",""
"null","345657","pSARL_v2","pSARL_v29u20s9hl","5a79ebf1527fd000014658b3","infreq_resp","img/orange_2bandit_b.png","70","68","test","","","","5","",""
"null","345820","pSARL_v2","pSARL_v29u20s9hl","5a79ebf1527fd000014658b3","fixation","img/fixation.png","null","","test","","","","","",""
"399.2000000476837","346221","pSARL_v2","pSARL_v29u20s9hl","5a79ebf1527fd000014658b3","freq","img/green_2bandit_b2.png","70","70","test","1","96","96","5","",""
"null","346625","pSARL_v2","pSARL_v29u20s9hl","5a79ebf1527fd000014658b3","freq_resp","img/green_2bandit_b.png","70","70","test","","","","5","",""
"null","346776","pSARL_v2","pSARL_v29u20s9hl","5a79ebf1527fd000014658b3","fixation","img/fixation.png","null","","test","","","","","",""
"555","347333","pSARL_v2","pSARL_v29u20s9hl","5a79ebf1527fd000014658b3","infreq","img/orange_2bandit_b2.png","68","68","test","1","97","97","5","",""
"null","347590","pSARL_v2","pSARL_v29u20s9hl","5a79ebf1527fd000014658b3","infreq_resp","img/orange_2bandit_b.png","68","68","test","","","","5","",""
"null","347746","pSARL_v2","pSARL_v29u20s9hl","5a79ebf1527fd000014658b3","fixation","img/fixation.png","null","","test","","","","","",""
"433.90000009536743","348181","pSARL_v2","pSARL_v29u20s9hl","5a79ebf1527fd000014658b3","freq","img/green_2bandit_b2.png","70","70","test","1","98","98","5","",""
"null","348565","pSARL_v2","pSARL_v29u20s9hl","5a79ebf1527fd000014658b3","freq_resp","img/green_2bandit_b.png","70","70","test","","","","5","",""
"null","348732","pSARL_v2","pSARL_v29u20s9hl","5a79ebf1527fd000014658b3","fixation","img/fixation.png","null","","test","","","","","",""
"439.5","349173","pSARL_v2","pSARL_v29u20s9hl","5a79ebf1527fd000014658b3","freq","img/green_2bandit_b2.png","70","70","test","1","99","99","5","",""
"null","349537","pSARL_v2","pSARL_v29u20s9hl","5a79ebf1527fd000014658b3","freq_resp","img/green_2bandit_b.png","70","70","test","","","","5","",""
"null","349700","pSARL_v2","pSARL_v29u20s9hl","5a79ebf1527fd000014658b3","fixation","img/fixation.png","null","","test","","","","","",""
"399.30000019073486","350101","pSARL_v2","pSARL_v29u20s9hl","5a79ebf1527fd000014658b3","freq","img/green_2bandit_b2.png","70","70","test","1","100","100","5","",""
"null","350505","pSARL_v2","pSARL_v29u20s9hl","5a79ebf1527fd000014658b3","freq_resp","img/green_2bandit_b.png","70","70","test","","","","5","",""
"null","350672","pSARL_v2","pSARL_v29u20s9hl","5a79ebf1527fd000014658b3","fixation","img/fixation.png","null","","test","","","","","",""
"395.90000009536743","351069","pSARL_v2","pSARL_v29u20s9hl","5a79ebf1527fd000014658b3","freq","img/green_2bandit_b2.png","70","70","test","1","101","101","5","",""
"null","351491","pSARL_v2","pSARL_v29u20s9hl","5a79ebf1527fd000014658b3","freq_resp","img/green_2bandit_b.png","70","70","test","","","","5","",""
"null","351658","pSARL_v2","pSARL_v29u20s9hl","5a79ebf1527fd000014658b3","fixation","img/fixation.png","null","","test","","","","","",""
"457.7000000476837","352117","pSARL_v2","pSARL_v29u20s9hl","5a79ebf1527fd000014658b3","freq","img/green_2bandit_b2.png","70","70","test","1","102","102","5","",""
"null","352467","pSARL_v2","pSARL_v29u20s9hl","5a79ebf1527fd000014658b3","freq_resp","img/green_2bandit_b.png","70","70","test","","","","5","",""
"null","352630","pSARL_v2","pSARL_v29u20s9hl","5a79ebf1527fd000014658b3","fixation","img/fixation.png","null","","test","","","","","",""
"525.8000001907349","353157","pSARL_v2","pSARL_v29u20s9hl","5a79ebf1527fd000014658b3","freq","img/green_2bandit_b2.png","70","70","test","1","103","103","5","",""
"null","353441","pSARL_v2","pSARL_v29u20s9hl","5a79ebf1527fd000014658b3","freq_resp","img/green_2bandit_b.png","70","70","test","","","","5","",""
"null","353598","pSARL_v2","pSARL_v29u20s9hl","5a79ebf1527fd000014658b3","fixation","img/fixation.png","null","","test","","","","","",""
"573.6000001430511","354173","pSARL_v2","pSARL_v29u20s9hl","5a79ebf1527fd000014658b3","freq","img/green_2bandit_b2.png","70","70","test","1","104","104","5","",""
"null","354413","pSARL_v2","pSARL_v29u20s9hl","5a79ebf1527fd000014658b3","freq_resp","img/green_2bandit_b.png","70","70","test","","","","5","",""
"null","354570","pSARL_v2","pSARL_v29u20s9hl","5a79ebf1527fd000014658b3","fixation","img/fixation.png","null","","test","","","","","",""
"600.8999998569489","355173","pSARL_v2","pSARL_v29u20s9hl","5a79ebf1527fd000014658b3","freq","img/green_2bandit_b2.png","70","70","test","1","105","105","5","",""
"null","355384","pSARL_v2","pSARL_v29u20s9hl","5a79ebf1527fd000014658b3","freq_resp","img/green_2bandit_b.png","70","70","test","","","","5","",""
"null","355540","pSARL_v2","pSARL_v29u20s9hl","5a79ebf1527fd000014658b3","fixation","img/fixation.png","null","","test","","","","","",""
"703.2000000476837","356245","pSARL_v2","pSARL_v29u20s9hl","5a79ebf1527fd000014658b3","freq","img/green_2bandit_b2.png","70","70","test","1","106","106","5","",""
"null","356346","pSARL_v2","pSARL_v29u20s9hl","5a79ebf1527fd000014658b3","freq_resp","img/green_2bandit_b.png","70","70","test","","","","5","",""
"null","356508","pSARL_v2","pSARL_v29u20s9hl","5a79ebf1527fd000014658b3","fixation","img/fixation.png","null","","test","","","","","",""
"711.2999999523163","357221","pSARL_v2","pSARL_v29u20s9hl","5a79ebf1527fd000014658b3","freq","img/green_2bandit_b2.png","70","70","test","1","107","107","5","",""
"null","357318","pSARL_v2","pSARL_v29u20s9hl","5a79ebf1527fd000014658b3","freq_resp","img/green_2bandit_b.png","70","70","test","","","","5","",""
"null","357480","pSARL_v2","pSARL_v29u20s9hl","5a79ebf1527fd000014658b3","fixation","img/fixation.png","null","","test","","","","","",""
"723.4000000953674","358205","pSARL_v2","pSARL_v29u20s9hl","5a79ebf1527fd000014658b3","freq","img/green_2bandit_b2.png","70","70","test","1","108","108","5","",""
"null","358288","pSARL_v2","pSARL_v29u20s9hl","5a79ebf1527fd000014658b3","freq_resp","img/green_2bandit_b.png","70","70","test","","","","5","",""
"null","358451","pSARL_v2","pSARL_v29u20s9hl","5a79ebf1527fd000014658b3","fixation","img/fixation.png","null","","test","","","","","",""
"752.5","359205","pSARL_v2","pSARL_v29u20s9hl","5a79ebf1527fd000014658b3","freq","img/green_2bandit_b2.png","70","70","test","1","109","109","5","",""
"null","359260","pSARL_v2","pSARL_v29u20s9hl","5a79ebf1527fd000014658b3","freq_resp","img/green_2bandit_b.png","70","70","test","","","","5","",""
"null","359420","pSARL_v2","pSARL_v29u20s9hl","5a79ebf1527fd000014658b3","fixation","img/fixation.png","null","","test","","","","","",""
"791.8000001907349","360213","pSARL_v2","pSARL_v29u20s9hl","5a79ebf1527fd000014658b3","freq","img/green_2bandit_b2.png","70","70","test","1","110","110","5","",""
"null","360223","pSARL_v2","pSARL_v29u20s9hl","5a79ebf1527fd000014658b3","freq_resp","img/green_2bandit_b.png","70","70","test","","","","5","",""
"null","360375","pSARL_v2","pSARL_v29u20s9hl","5a79ebf1527fd000014658b3","fixation","img/fixation.png","null","","test","","","","","",""
"null","361180","pSARL_v2","pSARL_v29u20s9hl","5a79ebf1527fd000014658b3","freq","img/green_2bandit_b2.png","null","70","test","0","111","111","5","",""
"null","361341","pSARL_v2","pSARL_v29u20s9hl","5a79ebf1527fd000014658b3","fixation","img/fixation.png","null","","test","","","","","",""
"454.40000009536743","361797","pSARL_v2","pSARL_v29u20s9hl","5a79ebf1527fd000014658b3","infreq","img/orange_2bandit_b2.png","68","68","test","1","112","112","5","",""
"null","362149","pSARL_v2","pSARL_v29u20s9hl","5a79ebf1527fd000014658b3","infreq_resp","img/orange_2bandit_b.png","68","68","test","","","","5","",""
"null","362312","pSARL_v2","pSARL_v29u20s9hl","5a79ebf1527fd000014658b3","fixation","img/fixation.png","null","","test","","","","","",""
"467.09999990463257","362781","pSARL_v2","pSARL_v29u20s9hl","5a79ebf1527fd000014658b3","freq","img/green_2bandit_b2.png","70","70","test","1","113","113","5","",""
"null","363121","pSARL_v2","pSARL_v29u20s9hl","5a79ebf1527fd000014658b3","freq_resp","img/green_2bandit_b.png","70","70","test","","","","5","",""
"null","363281","pSARL_v2","pSARL_v29u20s9hl","5a79ebf1527fd000014658b3","fixation","img/fixation.png","null","","test","","","","","",""
"434.2000000476837","363717","pSARL_v2","pSARL_v29u20s9hl","5a79ebf1527fd000014658b3","freq","img/green_2bandit_b2.png","70","70","test","1","114","114","5","",""
"null","364088","pSARL_v2","pSARL_v29u20s9hl","5a79ebf1527fd000014658b3","freq_resp","img/green_2bandit_b.png","70","70","test","","","","5","",""
"null","364253","pSARL_v2","pSARL_v29u20s9hl","5a79ebf1527fd000014658b3","fixation","img/fixation.png","null","","test","","","","","",""
"526.7000000476837","364781","pSARL_v2","pSARL_v29u20s9hl","5a79ebf1527fd000014658b3","reward","img/slot.png","74","","test","","","","","",""
"null","365533","pSARL_v2","pSARL_v29u20s9hl","5a79ebf1527fd000014658b3","points","<div class=""veryhighPoints""> +1 </div>","null","na","test","","","","5","1","4"
"590.1000001430511","366125","pSARL_v2","pSARL_v29u20s9hl","5a79ebf1527fd000014658b3","freq","img/green_2bandit_b2.png","70","70","test","1","115","115","6","",""
"null","366340","pSARL_v2","pSARL_v29u20s9hl","5a79ebf1527fd000014658b3","freq_resp","img/green_2bandit_b.png","70","70","test","","","","6","",""
"null","366494","pSARL_v2","pSARL_v29u20s9hl","5a79ebf1527fd000014658b3","fixation","img/fixation.png","null","","test","","","","","",""
"644.8999998569489","367141","pSARL_v2","pSARL_v29u20s9hl","5a79ebf1527fd000014658b3","freq","img/green_2bandit_b2.png","70","70","test","1","116","116","6","",""
"null","367298","pSARL_v2","pSARL_v29u20s9hl","5a79ebf1527fd000014658b3","freq_resp","img/green_2bandit_b.png","70","70","test","","","","6","",""
"null","367464","pSARL_v2","pSARL_v29u20s9hl","5a79ebf1527fd000014658b3","fixation","img/fixation.png","null","","test","","","","","",""
"658.5","368125","pSARL_v2","pSARL_v29u20s9hl","5a79ebf1527fd000014658b3","freq","img/green_2bandit_b2.png","70","70","test","1","117","117","6","",""
"null","368269","pSARL_v2","pSARL_v29u20s9hl","5a79ebf1527fd000014658b3","freq_resp","img/green_2bandit_b.png","70","70","test","","","","6","",""
"null","368433","pSARL_v2","pSARL_v29u20s9hl","5a79ebf1527fd000014658b3","fixation","img/fixation.png","null","","test","","","","","",""
"674.3999998569489","369109","pSARL_v2","pSARL_v29u20s9hl","5a79ebf1527fd000014658b3","freq","img/green_2bandit_b2.png","70","70","test","1","118","118","6","",""
"null","369240","pSARL_v2","pSARL_v29u20s9hl","5a79ebf1527fd000014658b3","freq_resp","img/green_2bandit_b.png","70","70","test","","","","6","",""
"null","369404","pSARL_v2","pSARL_v29u20s9hl","5a79ebf1527fd000014658b3","fixation","img/fixation.png","null","","test","","","","","",""
"542.7999999523163","369949","pSARL_v2","pSARL_v29u20s9hl","5a79ebf1527fd000014658b3","infreq","img/orange_2bandit_b2.png","68","68","test","1","119","119","6","",""
"null","370218","pSARL_v2","pSARL_v29u20s9hl","5a79ebf1527fd000014658b3","infreq_resp","img/orange_2bandit_b.png","68","68","test","","","","6","",""
"null","370375","pSARL_v2","pSARL_v29u20s9hl","5a79ebf1527fd000014658b3","fixation","img/fixation.png","null","","test","","","","","",""
"524.6000001430511","370901","pSARL_v2","pSARL_v29u20s9hl","5a79ebf1527fd000014658b3","freq","img/green_2bandit_b2.png","70","70","test","1","120","120","6","",""
"null","371186","pSARL_v2","pSARL_v29u20s9hl","5a79ebf1527fd000014658b3","freq_resp","img/green_2bandit_b.png","70","70","test","","","","6","",""
"null","371345","pSARL_v2","pSARL_v29u20s9hl","5a79ebf1527fd000014658b3","fixation","img/fixation.png","null","","test","","","","","",""
"609.7999999523163","371957","pSARL_v2","pSARL_v29u20s9hl","5a79ebf1527fd000014658b3","freq","img/green_2bandit_b2.png","70","70","test","1","121","121","6","",""
"null","372161","pSARL_v2","pSARL_v29u20s9hl","5a79ebf1527fd000014658b3","freq_resp","img/green_2bandit_b.png","70","70","test","","","","6","",""
"null","372316","pSARL_v2","pSARL_v29u20s9hl","5a79ebf1527fd000014658b3","fixation","img/fixation.png","null","","test","","","","","",""
"543.5999999046326","372861","pSARL_v2","pSARL_v29u20s9hl","5a79ebf1527fd000014658b3","freq","img/green_2bandit_b2.png","70","70","test","1","122","122","6","",""
"null","373127","pSARL_v2","pSARL_v29u20s9hl","5a79ebf1527fd000014658b3","freq_resp","img/green_2bandit_b.png","70","70","test","","","","6","",""
"null","373285","pSARL_v2","pSARL_v29u20s9hl","5a79ebf1527fd000014658b3","fixation","img/fixation.png","null","","test","","","","","",""
"517.6000001430511","373805","pSARL_v2","pSARL_v29u20s9hl","5a79ebf1527fd000014658b3","freq","img/green_2bandit_b2.png","70","70","test","1","123","123","6","",""
"null","374095","pSARL_v2","pSARL_v29u20s9hl","5a79ebf1527fd000014658b3","freq_resp","img/green_2bandit_b.png","70","70","test","","","","6","",""
"null","374257","pSARL_v2","pSARL_v29u20s9hl","5a79ebf1527fd000014658b3","fixation","img/fixation.png","null","","test","","","","","",""
"538.1999998092651","374797","pSARL_v2","pSARL_v29u20s9hl","5a79ebf1527fd000014658b3","freq","img/green_2bandit_b2.png","70","70","test","1","124","124","6","",""
"null","375068","pSARL_v2","pSARL_v29u20s9hl","5a79ebf1527fd000014658b3","freq_resp","img/green_2bandit_b.png","70","70","test","","","","6","",""
"null","375225","pSARL_v2","pSARL_v29u20s9hl","5a79ebf1527fd000014658b3","fixation","img/fixation.png","null","","test","","","","","",""
"497.59999990463257","375725","pSARL_v2","pSARL_v29u20s9hl","5a79ebf1527fd000014658b3","freq","img/green_2bandit_b2.png","70","70","test","1","125","125","6","",""
"null","376034","pSARL_v2","pSARL_v29u20s9hl","5a79ebf1527fd000014658b3","freq_resp","img/green_2bandit_b.png","70","70","test","","","","6","",""
"null","376195","pSARL_v2","pSARL_v29u20s9hl","5a79ebf1527fd000014658b3","fixation","img/fixation.png","null","","test","","","","","",""
"463.5","376661","pSARL_v2","pSARL_v29u20s9hl","5a79ebf1527fd000014658b3","freq","img/green_2bandit_b2.png","70","70","test","1","126","126","6","",""
"null","377001","pSARL_v2","pSARL_v29u20s9hl","5a79ebf1527fd000014658b3","freq_resp","img/green_2bandit_b.png","70","70","test","","","","6","",""
"null","377165","pSARL_v2","pSARL_v29u20s9hl","5a79ebf1527fd000014658b3","fixation","img/fixation.png","null","","test","","","","","",""
"413.7999999523163","377581","pSARL_v2","pSARL_v29u20s9hl","5a79ebf1527fd000014658b3","freq","img/green_2bandit_b2.png","70","70","test","1","127","127","6","",""
"null","377984","pSARL_v2","pSARL_v29u20s9hl","5a79ebf1527fd000014658b3","freq_resp","img/green_2bandit_b.png","70","70","test","","","","6","",""
"null","378136","pSARL_v2","pSARL_v29u20s9hl","5a79ebf1527fd000014658b3","fixation","img/fixation.png","null","","test","","","","","",""
"387.2999999523163","378525","pSARL_v2","pSARL_v29u20s9hl","5a79ebf1527fd000014658b3","freq","img/green_2bandit_b2.png","70","70","test","1","128","128","6","",""
"null","378954","pSARL_v2","pSARL_v29u20s9hl","5a79ebf1527fd000014658b3","freq_resp","img/green_2bandit_b.png","70","70","test","","","","6","",""
"null","379105","pSARL_v2","pSARL_v29u20s9hl","5a79ebf1527fd000014658b3","fixation","img/fixation.png","null","","test","","","","","",""
"401.90000009536743","379509","pSARL_v2","pSARL_v29u20s9hl","5a79ebf1527fd000014658b3","freq","img/green_2bandit_b2.png","70","70","test","1","129","129","6","",""
"null","379924","pSARL_v2","pSARL_v29u20s9hl","5a79ebf1527fd000014658b3","freq_resp","img/green_2bandit_b.png","70","70","test","","","","6","",""
"null","380079","pSARL_v2","pSARL_v29u20s9hl","5a79ebf1527fd000014658b3","fixation","img/fixation.png","null","","test","","","","","",""
"428.09999990463257","380509","pSARL_v2","pSARL_v29u20s9hl","5a79ebf1527fd000014658b3","freq","img/green_2bandit_b2.png","70","70","test","1","130","130","6","",""
"null","380895","pSARL_v2","pSARL_v29u20s9hl","5a79ebf1527fd000014658b3","freq_resp","img/green_2bandit_b.png","70","70","test","","","","6","",""
"null","381062","pSARL_v2","pSARL_v29u20s9hl","5a79ebf1527fd000014658b3","fixation","img/fixation.png","null","","test","","","","","",""
"445","381509","pSARL_v2","pSARL_v29u20s9hl","5a79ebf1527fd000014658b3","infreq","img/orange_2bandit_b2.png","68","68","test","1","131","131","6","",""
"null","381868","pSARL_v2","pSARL_v29u20s9hl","5a79ebf1527fd000014658b3","infreq_resp","img/orange_2bandit_b.png","68","68","test","","","","6","",""
"null","382031","pSARL_v2","pSARL_v29u20s9hl","5a79ebf1527fd000014658b3","fixation","img/fixation.png","null","","test","","","","","",""
"387.7999999523163","382421","pSARL_v2","pSARL_v29u20s9hl","5a79ebf1527fd000014658b3","freq","img/green_2bandit_b2.png","70","70","test","1","132","132","6","",""
"null","382850","pSARL_v2","pSARL_v29u20s9hl","5a79ebf1527fd000014658b3","freq_resp","img/green_2bandit_b.png","70","70","test","","","","6","",""
"null","383003","pSARL_v2","pSARL_v29u20s9hl","5a79ebf1527fd000014658b3","fixation","img/fixation.png","null","","test","","","","","",""
"376","383381","pSARL_v2","pSARL_v29u20s9hl","5a79ebf1527fd000014658b3","freq","img/green_2bandit_b2.png","70","70","test","1","133","133","6","",""
"null","383820","pSARL_v2","pSARL_v29u20s9hl","5a79ebf1527fd000014658b3","freq_resp","img/green_2bandit_b.png","70","70","test","","","","6","",""
"null","383973","pSARL_v2","pSARL_v29u20s9hl","5a79ebf1527fd000014658b3","fixation","img/fixation.png","null","","test","","","","","",""
"398.2000000476837","384373","pSARL_v2","pSARL_v29u20s9hl","5a79ebf1527fd000014658b3","freq","img/green_2bandit_b2.png","70","70","test","1","134","134","6","",""
"null","384782","pSARL_v2","pSARL_v29u20s9hl","5a79ebf1527fd000014658b3","freq_resp","img/green_2bandit_b.png","70","70","test","","","","6","",""
"null","384945","pSARL_v2","pSARL_v29u20s9hl","5a79ebf1527fd000014658b3","fixation","img/fixation.png","null","","test","","","","","",""
"410.40000009536743","385357","pSARL_v2","pSARL_v29u20s9hl","5a79ebf1527fd000014658b3","freq","img/green_2bandit_b2.png","70","70","test","1","135","135","6","",""
"null","385762","pSARL_v2","pSARL_v29u20s9hl","5a79ebf1527fd000014658b3","freq_resp","img/green_2bandit_b.png","70","70","test","","","","6","",""
"null","385928","pSARL_v2","pSARL_v29u20s9hl","5a79ebf1527fd000014658b3","fixation","img/fixation.png","null","","test","","","","","",""
"442.90000009536743","386373","pSARL_v2","pSARL_v29u20s9hl","5a79ebf1527fd000014658b3","freq","img/green_2bandit_b2.png","70","70","test","1","136","136","6","",""
"null","386736","pSARL_v2","pSARL_v29u20s9hl","5a79ebf1527fd000014658b3","freq_resp","img/green_2bandit_b.png","70","70","test","","","","6","",""
"null","386898","pSARL_v2","pSARL_v29u20s9hl","5a79ebf1527fd000014658b3","fixation","img/fixation.png","null","","test","","","","","",""
"569.7000000476837","387469","pSARL_v2","pSARL_v29u20s9hl","5a79ebf1527fd000014658b3","reward","img/slot.png","74","","test","","","","","",""
"null","388229","pSARL_v2","pSARL_v29u20s9hl","5a79ebf1527fd000014658b3","points","<div class=""verylowPoints""> -7 </div>","null","na","test","","","","6","-7","5"
"350.5","388581","pSARL_v2","pSARL_v29u20s9hl","5a79ebf1527fd000014658b3","freq","img/green_2bandit_b2.png","70","70","test","1","137","137","7","",""
"null","389037","pSARL_v2","pSARL_v29u20s9hl","5a79ebf1527fd000014658b3","freq_resp","img/green_2bandit_b.png","70","70","test","","","","7","",""
"null","389191","pSARL_v2","pSARL_v29u20s9hl","5a79ebf1527fd000014658b3","fixation","img/fixation.png","null","","test","","","","","",""
"379.90000009536743","389573","pSARL_v2","pSARL_v29u20s9hl","5a79ebf1527fd000014658b3","freq","img/green_2bandit_b2.png","70","70","test","1","138","138","7","",""
"null","390008","pSARL_v2","pSARL_v29u20s9hl","5a79ebf1527fd000014658b3","freq_resp","img/green_2bandit_b.png","70","70","test","","","","7","",""
"null","390162","pSARL_v2","pSARL_v29u20s9hl","5a79ebf1527fd000014658b3","fixation","img/fixation.png","null","","test","","","","","",""
"305.2999999523163","390469","pSARL_v2","pSARL_v29u20s9hl","5a79ebf1527fd000014658b3","freq","img/green_2bandit_b2.png","70","70","test","1","139","139","7","",""
"null","390974","pSARL_v2","pSARL_v29u20s9hl","5a79ebf1527fd000014658b3","freq_resp","img/green_2bandit_b.png","70","70","test","","","","7","",""
"null","391131","pSARL_v2","pSARL_v29u20s9hl","5a79ebf1527fd000014658b3","fixation","img/fixation.png","null","","test","","","","","",""
"320.10000014305115","391453","pSARL_v2","pSARL_v29u20s9hl","5a79ebf1527fd000014658b3","freq","img/green_2bandit_b2.png","70","70","test","1","140","140","7","",""
"null","391944","pSARL_v2","pSARL_v29u20s9hl","5a79ebf1527fd000014658b3","freq_resp","img/green_2bandit_b.png","70","70","test","","","","7","",""
"null","392102","pSARL_v2","pSARL_v29u20s9hl","5a79ebf1527fd000014658b3","fixation","img/fixation.png","null","","test","","","","","",""
"340.89999985694885","392445","pSARL_v2","pSARL_v29u20s9hl","5a79ebf1527fd000014658b3","freq","img/green_2bandit_b2.png","70","70","test","1","141","141","7","",""
"null","392916","pSARL_v2","pSARL_v29u20s9hl","5a79ebf1527fd000014658b3","freq_resp","img/green_2bandit_b.png","70","70","test","","","","7","",""
"null","393071","pSARL_v2","pSARL_v29u20s9hl","5a79ebf1527fd000014658b3","fixation","img/fixation.png","null","","test","","","","","",""
"332.19999980926514","393405","pSARL_v2","pSARL_v29u20s9hl","5a79ebf1527fd000014658b3","freq","img/green_2bandit_b2.png","70","70","test","1","142","142","7","",""
"null","393884","pSARL_v2","pSARL_v29u20s9hl","5a79ebf1527fd000014658b3","freq_resp","img/green_2bandit_b.png","70","70","test","","","","7","",""
"null","394041","pSARL_v2","pSARL_v29u20s9hl","5a79ebf1527fd000014658b3","fixation","img/fixation.png","null","","test","","","","","",""
"345.90000009536743","394389","pSARL_v2","pSARL_v29u20s9hl","5a79ebf1527fd000014658b3","freq","img/green_2bandit_b2.png","70","70","test","1","143","143","7","",""
"null","394856","pSARL_v2","pSARL_v29u20s9hl","5a79ebf1527fd000014658b3","freq_resp","img/green_2bandit_b.png","70","70","test","","","","7","",""
"null","395012","pSARL_v2","pSARL_v29u20s9hl","5a79ebf1527fd000014658b3","fixation","img/fixation.png","null","","test","","","","","",""
"511.10000014305115","395525","pSARL_v2","pSARL_v29u20s9hl","5a79ebf1527fd000014658b3","infreq","img/orange_2bandit_b2.png","68","68","test","1","144","144","7","",""
"null","395822","pSARL_v2","pSARL_v29u20s9hl","5a79ebf1527fd000014658b3","infreq_resp","img/orange_2bandit_b.png","68","68","test","","","","7","",""
"null","395982","pSARL_v2","pSARL_v29u20s9hl","5a79ebf1527fd000014658b3","fixation","img/fixation.png","null","","test","","","","","",""
"453.09999990463257","396437","pSARL_v2","pSARL_v29u20s9hl","5a79ebf1527fd000014658b3","infreq","img/orange_2bandit_b2.png","68","68","test","1","145","145","7","",""
"null","396788","pSARL_v2","pSARL_v29u20s9hl","5a79ebf1527fd000014658b3","infreq_resp","img/orange_2bandit_b.png","68","68","test","","","","7","",""
"null","396950","pSARL_v2","pSARL_v29u20s9hl","5a79ebf1527fd000014658b3","fixation","img/fixation.png","null","","test","","","","","",""
"428.7000000476837","397381","pSARL_v2","pSARL_v29u20s9hl","5a79ebf1527fd000014658b3","freq","img/green_2bandit_b2.png","70","70","test","1","146","146","7","",""
"null","397756","pSARL_v2","pSARL_v29u20s9hl","5a79ebf1527fd000014658b3","freq_resp","img/green_2bandit_b.png","70","70","test","","","","7","",""
"null","397920","pSARL_v2","pSARL_v29u20s9hl","5a79ebf1527fd000014658b3","fixation","img/fixation.png","null","","test","","","","","",""
"410.90000009536743","398333","pSARL_v2","pSARL_v29u20s9hl","5a79ebf1527fd000014658b3","freq","img/green_2bandit_b2.png","70","70","test","1","147","147","7","",""
"null","398725","pSARL_v2","pSARL_v29u20s9hl","5a79ebf1527fd000014658b3","freq_resp","img/green_2bandit_b.png","70","70","test","","","","7","",""
"null","398891","pSARL_v2","pSARL_v29u20s9hl","5a79ebf1527fd000014658b3","fixation","img/fixation.png","null","","test","","","","","",""
"560.5","399453","pSARL_v2","pSARL_v29u20s9hl","5a79ebf1527fd000014658b3","freq","img/green_2bandit_b2.png","70","70","test","1","148","148","7","",""
"null","399706","pSARL_v2","pSARL_v29u20s9hl","5a79ebf1527fd000014658b3","freq_resp","img/green_2bandit_b.png","70","70","test","","","","7","",""
"null","399861","pSARL_v2","pSARL_v29u20s9hl","5a79ebf1527fd000014658b3","fixation","img/fixation.png","null","","test","","","","","",""
"613.1000001430511","400477","pSARL_v2","pSARL_v29u20s9hl","5a79ebf1527fd000014658b3","freq","img/green_2bandit_b2.png","70","70","test","1","149","149","7","",""
"null","400678","pSARL_v2","pSARL_v29u20s9hl","5a79ebf1527fd000014658b3","freq_resp","img/green_2bandit_b.png","70","70","test","","","","7","",""
"null","400832","pSARL_v2","pSARL_v29u20s9hl","5a79ebf1527fd000014658b3","fixation","img/fixation.png","null","","test","","","","","",""
"675.0999999046326","401509","pSARL_v2","pSARL_v29u20s9hl","5a79ebf1527fd000014658b3","freq","img/green_2bandit_b2.png","70","70","test","1","150","150","7","",""
"null","401638","pSARL_v2","pSARL_v29u20s9hl","5a79ebf1527fd000014658b3","freq_resp","img/green_2bandit_b.png","70","70","test","","","","7","",""
"null","401801","pSARL_v2","pSARL_v29u20s9hl","5a79ebf1527fd000014658b3","fixation","img/fixation.png","null","","test","","","","","",""
"666.0999999046326","402469","pSARL_v2","pSARL_v29u20s9hl","5a79ebf1527fd000014658b3","freq","img/green_2bandit_b2.png","70","70","test","1","151","151","7","",""
"null","402606","pSARL_v2","pSARL_v29u20s9hl","5a79ebf1527fd000014658b3","freq_resp","img/green_2bandit_b.png","70","70","test","","","","7","",""
"null","402771","pSARL_v2","pSARL_v29u20s9hl","5a79ebf1527fd000014658b3","fixation","img/fixation.png","null","","test","","","","","",""
"728.0999999046326","403501","pSARL_v2","pSARL_v29u20s9hl","5a79ebf1527fd000014658b3","freq","img/green_2bandit_b2.png","70","70","test","1","152","152","7","",""
"null","403581","pSARL_v2","pSARL_v29u20s9hl","5a79ebf1527fd000014658b3","freq_resp","img/green_2bandit_b.png","70","70","test","","","","7","",""
"null","403744","pSARL_v2","pSARL_v29u20s9hl","5a79ebf1527fd000014658b3","fixation","img/fixation.png","null","","test","","","","","",""
"755","404501","pSARL_v2","pSARL_v29u20s9hl","5a79ebf1527fd000014658b3","freq","img/green_2bandit_b2.png","70","70","test","1","153","153","7","",""
"null","404548","pSARL_v2","pSARL_v29u20s9hl","5a79ebf1527fd000014658b3","freq_resp","img/green_2bandit_b.png","70","70","test","","","","7","",""
"null","404712","pSARL_v2","pSARL_v29u20s9hl","5a79ebf1527fd000014658b3","fixation","img/fixation.png","null","","test","","","","","",""
"null","405519","pSARL_v2","pSARL_v29u20s9hl","5a79ebf1527fd000014658b3","freq","img/green_2bandit_b2.png","null","70","test","0","154","154","7","",""
"null","405681","pSARL_v2","pSARL_v29u20s9hl","5a79ebf1527fd000014658b3","fixation","img/fixation.png","null","","test","","","","","",""
"null","406490","pSARL_v2","pSARL_v29u20s9hl","5a79ebf1527fd000014658b3","freq","img/green_2bandit_b2.png","null","70","test","0","155","155","7","",""
"null","406652","pSARL_v2","pSARL_v29u20s9hl","5a79ebf1527fd000014658b3","fixation","img/fixation.png","null","","test","","","","","",""
"775","407429","pSARL_v2","pSARL_v29u20s9hl","5a79ebf1527fd000014658b3","freq","img/green_2bandit_b2.png","70","70","test","1","156","156","7","",""
"null","407456","pSARL_v2","pSARL_v29u20s9hl","5a79ebf1527fd000014658b3","freq_resp","img/green_2bandit_b.png","70","70","test","","","","7","",""
"null","407621","pSARL_v2","pSARL_v29u20s9hl","5a79ebf1527fd000014658b3","fixation","img/fixation.png","null","","test","","","","","",""
"701.6999998092651","408325","pSARL_v2","pSARL_v29u20s9hl","5a79ebf1527fd000014658b3","freq","img/green_2bandit_b2.png","70","70","test","1","157","157","7","",""
"null","408428","pSARL_v2","pSARL_v29u20s9hl","5a79ebf1527fd000014658b3","freq_resp","img/green_2bandit_b.png","70","70","test","","","","7","",""
"null","408592","pSARL_v2","pSARL_v29u20s9hl","5a79ebf1527fd000014658b3","fixation","img/fixation.png","null","","test","","","","","",""
"675.2000000476837","409269","pSARL_v2","pSARL_v29u20s9hl","5a79ebf1527fd000014658b3","freq","img/green_2bandit_b2.png","70","70","test","1","158","158","7","",""
"null","409397","pSARL_v2","pSARL_v29u20s9hl","5a79ebf1527fd000014658b3","freq_resp","img/green_2bandit_b.png","70","70","test","","","","7","",""
"null","409561","pSARL_v2","pSARL_v29u20s9hl","5a79ebf1527fd000014658b3","fixation","img/fixation.png","null","","test","","","","","",""
"641.2999999523163","410205","pSARL_v2","pSARL_v29u20s9hl","5a79ebf1527fd000014658b3","freq","img/green_2bandit_b2.png","70","70","test","1","159","159","7","",""
"null","410367","pSARL_v2","pSARL_v29u20s9hl","5a79ebf1527fd000014658b3","freq_resp","img/green_2bandit_b.png","70","70","test","","","","7","",""
"null","410532","pSARL_v2","pSARL_v29u20s9hl","5a79ebf1527fd000014658b3","fixation","img/fixation.png","null","","test","","","","","",""
"743.2999999523163","411277","pSARL_v2","pSARL_v29u20s9hl","5a79ebf1527fd000014658b3","freq","img/green_2bandit_b2.png","70","70","test","1","160","160","7","",""
"null","411343","pSARL_v2","pSARL_v29u20s9hl","5a79ebf1527fd000014658b3","freq_resp","img/green_2bandit_b.png","70","70","test","","","","7","",""
"null","411504","pSARL_v2","pSARL_v29u20s9hl","5a79ebf1527fd000014658b3","fixation","img/fixation.png","null","","test","","","","","",""
"570.4000000953674","412076","pSARL_v2","pSARL_v29u20s9hl","5a79ebf1527fd000014658b3","reward","img/slot.png","74","","test","","","","","",""
"null","412833","pSARL_v2","pSARL_v29u20s9hl","5a79ebf1527fd000014658b3","points","<div class=""verylowPoints""> -6 </div>","null","na","test","","","","7","-6","6"
"346","413181","pSARL_v2","pSARL_v29u20s9hl","5a79ebf1527fd000014658b3","freq","img/green_2bandit_b2.png","70","70","test","1","161","161","8","",""
"null","413640","pSARL_v2","pSARL_v29u20s9hl","5a79ebf1527fd000014658b3","freq_resp","img/green_2bandit_b.png","70","70","test","","","","8","",""
"null","413794","pSARL_v2","pSARL_v29u20s9hl","5a79ebf1527fd000014658b3","fixation","img/fixation.png","null","","test","","","","","",""
"369.19999980926514","414165","pSARL_v2","pSARL_v29u20s9hl","5a79ebf1527fd000014658b3","freq","img/green_2bandit_b2.png","70","70","test","1","162","162","8","",""
"null","414611","pSARL_v2","pSARL_v29u20s9hl","5a79ebf1527fd000014658b3","freq_resp","img/green_2bandit_b.png","70","70","test","","","","8","",""
"null","414765","pSARL_v2","pSARL_v29u20s9hl","5a79ebf1527fd000014658b3","fixation","img/fixation.png","null","","test","","","","","",""
"445.5","415213","pSARL_v2","pSARL_v29u20s9hl","5a79ebf1527fd000014658b3","freq","img/green_2bandit_b2.png","70","70","test","1","163","163","8","",""
"null","415570","pSARL_v2","pSARL_v29u20s9hl","5a79ebf1527fd000014658b3","freq_resp","img/green_2bandit_b.png","70","70","test","","","","8","",""
"null","415734","pSARL_v2","pSARL_v29u20s9hl","5a79ebf1527fd000014658b3","fixation","img/fixation.png","null","","test","","","","","",""
"765","416500","pSARL_v2","pSARL_v29u20s9hl","5a79ebf1527fd000014658b3","freq","img/green_2bandit_b2.png","70","70","test","1","164","164","8","",""
"null","416544","pSARL_v2","pSARL_v29u20s9hl","5a79ebf1527fd000014658b3","freq_resp","img/green_2bandit_b.png","70","70","test","","","","8","",""
"null","416705","pSARL_v2","pSARL_v29u20s9hl","5a79ebf1527fd000014658b3","fixation","img/fixation.png","null","","test","","","","","",""
"null","417511","pSARL_v2","pSARL_v29u20s9hl","5a79ebf1527fd000014658b3","freq","img/green_2bandit_b2.png","null","70","test","0","165","165","8","",""
"null","417674","pSARL_v2","pSARL_v29u20s9hl","5a79ebf1527fd000014658b3","fixation","img/fixation.png","null","","test","","","","","",""
"529.1000001430511","418205","pSARL_v2","pSARL_v29u20s9hl","5a79ebf1527fd000014658b3","infreq","img/orange_2bandit_b2.png","68","68","test","1","166","166","8","",""
"null","418485","pSARL_v2","pSARL_v29u20s9hl","5a79ebf1527fd000014658b3","infreq_resp","img/orange_2bandit_b.png","68","68","test","","","","8","",""
"null","418646","pSARL_v2","pSARL_v29u20s9hl","5a79ebf1527fd000014658b3","fixation","img/fixation.png","null","","test","","","","","",""
"429.2000000476837","419077","pSARL_v2","pSARL_v29u20s9hl","5a79ebf1527fd000014658b3","freq","img/green_2bandit_b2.png","70","70","test","1","167","167","8","",""
"null","419449","pSARL_v2","pSARL_v29u20s9hl","5a79ebf1527fd000014658b3","freq_resp","img/green_2bandit_b.png","70","70","test","","","","8","",""
"null","419608","pSARL_v2","pSARL_v29u20s9hl","5a79ebf1527fd000014658b3","fixation","img/fixation.png","null","","test","","","","","",""
"530.7000000476837","420141","pSARL_v2","pSARL_v29u20s9hl","5a79ebf1527fd000014658b3","freq","img/green_2bandit_b2.png","70","70","test","1","168","168","8","",""
"null","420426","pSARL_v2","pSARL_v29u20s9hl","5a79ebf1527fd000014658b3","freq_resp","img/green_2bandit_b.png","70","70","test","","","","8","",""
"null","420585","pSARL_v2","pSARL_v29u20s9hl","5a79ebf1527fd000014658b3","fixation","img/fixation.png","null","","test","","","","","",""
"562.4000000953674","421149","pSARL_v2","pSARL_v29u20s9hl","5a79ebf1527fd000014658b3","freq","img/green_2bandit_b2.png","70","70","test","1","169","169","8","",""
"null","421398","pSARL_v2","pSARL_v29u20s9hl","5a79ebf1527fd000014658b3","freq_resp","img/green_2bandit_b.png","70","70","test","","","","8","",""
"null","421556","pSARL_v2","pSARL_v29u20s9hl","5a79ebf1527fd000014658b3","fixation","img/fixation.png","null","","test","","","","","",""
"622.8000001907349","422181","pSARL_v2","pSARL_v29u20s9hl","5a79ebf1527fd000014658b3","freq","img/green_2bandit_b2.png","70","70","test","1","170","170","8","",""
"null","422373","pSARL_v2","pSARL_v29u20s9hl","5a79ebf1527fd000014658b3","freq_resp","img/green_2bandit_b.png","70","70","test","","","","8","",""
"null","422525","pSARL_v2","pSARL_v29u20s9hl","5a79ebf1527fd000014658b3","fixation","img/fixation.png","null","","test","","","","","",""
"597.6999998092651","423124","pSARL_v2","pSARL_v29u20s9hl","5a79ebf1527fd000014658b3","freq","img/green_2bandit_b2.png","70","70","test","1","171","171","8","",""
"null","423335","pSARL_v2","pSARL_v29u20s9hl","5a79ebf1527fd000014658b3","freq_resp","img/green_2bandit_b.png","70","70","test","","","","8","",""
"null","423495","pSARL_v2","pSARL_v29u20s9hl","5a79ebf1527fd000014658b3","fixation","img/fixation.png","null","","test","","","","","",""
"595.1999998092651","424092","pSARL_v2","pSARL_v29u20s9hl","5a79ebf1527fd000014658b3","infreq","img/orange_2bandit_b2.png","68","68","test","1","172","172","8","",""
"null","424300","pSARL_v2","pSARL_v29u20s9hl","5a79ebf1527fd000014658b3","infreq_resp","img/orange_2bandit_b.png","68","68","test","","","","8","",""
"null","424465","pSARL_v2","pSARL_v29u20s9hl","5a79ebf1527fd000014658b3","fixation","img/fixation.png","null","","test","","","","","",""
"521.7000000476837","424989","pSARL_v2","pSARL_v29u20s9hl","5a79ebf1527fd000014658b3","freq","img/green_2bandit_b2.png","70","70","test","1","173","173","8","",""
"null","425276","pSARL_v2","pSARL_v29u20s9hl","5a79ebf1527fd000014658b3","freq_resp","img/green_2bandit_b.png","70","70","test","","","","8","",""
"null","425435","pSARL_v2","pSARL_v29u20s9hl","5a79ebf1527fd000014658b3","fixation","img/fixation.png","null","","test","","","","","",""
"511.59999990463257","425948","pSARL_v2","pSARL_v29u20s9hl","5a79ebf1527fd000014658b3","freq","img/green_2bandit_b2.png","70","70","test","1","174","174","8","",""
"null","426245","pSARL_v2","pSARL_v29u20s9hl","5a79ebf1527fd000014658b3","freq_resp","img/green_2bandit_b.png","70","70","test","","","","8","",""
"null","426407","pSARL_v2","pSARL_v29u20s9hl","5a79ebf1527fd000014658b3","fixation","img/fixation.png","null","","test","","","","","",""
"524","426933","pSARL_v2","pSARL_v29u20s9hl","5a79ebf1527fd000014658b3","freq","img/green_2bandit_b2.png","70","70","test","1","175","175","8","",""
"null","427217","pSARL_v2","pSARL_v29u20s9hl","5a79ebf1527fd000014658b3","freq_resp","img/green_2bandit_b.png","70","70","test","","","","8","",""
"null","427377","pSARL_v2","pSARL_v29u20s9hl","5a79ebf1527fd000014658b3","fixation","img/fixation.png","null","","test","","","","","",""
"441.89999985694885","427820","pSARL_v2","pSARL_v29u20s9hl","5a79ebf1527fd000014658b3","freq","img/green_2bandit_b2.png","70","70","test","1","176","176","8","",""
"null","428181","pSARL_v2","pSARL_v29u20s9hl","5a79ebf1527fd000014658b3","freq_resp","img/green_2bandit_b.png","70","70","test","","","","8","",""
"null","428345","pSARL_v2","pSARL_v29u20s9hl","5a79ebf1527fd000014658b3","fixation","img/fixation.png","null","","test","","","","","",""
"425.2999999523163","428772","pSARL_v2","pSARL_v29u20s9hl","5a79ebf1527fd000014658b3","freq","img/green_2bandit_b2.png","70","70","test","1","177","177","8","",""
"null","429150","pSARL_v2","pSARL_v29u20s9hl","5a79ebf1527fd000014658b3","freq_resp","img/green_2bandit_b.png","70","70","test","","","","8","",""
"null","429315","pSARL_v2","pSARL_v29u20s9hl","5a79ebf1527fd000014658b3","fixation","img/fixation.png","null","","test","","","","","",""
"399.7000000476837","429716","pSARL_v2","pSARL_v29u20s9hl","5a79ebf1527fd000014658b3","freq","img/green_2bandit_b2.png","70","70","test","1","178","178","8","",""
"null","430133","pSARL_v2","pSARL_v29u20s9hl","5a79ebf1527fd000014658b3","freq_resp","img/green_2bandit_b.png","70","70","test","","","","8","",""
"null","430286","pSARL_v2","pSARL_v29u20s9hl","5a79ebf1527fd000014658b3","fixation","img/fixation.png","null","","test","","","","","",""
"333.09999990463257","430620","pSARL_v2","pSARL_v29u20s9hl","5a79ebf1527fd000014658b3","freq","img/green_2bandit_b2.png","70","70","test","1","179","179","8","",""
"null","431099","pSARL_v2","pSARL_v29u20s9hl","5a79ebf1527fd000014658b3","freq_resp","img/green_2bandit_b.png","70","70","test","","","","8","",""
"null","431257","pSARL_v2","pSARL_v29u20s9hl","5a79ebf1527fd000014658b3","fixation","img/fixation.png","null","","test","","","","","",""
"377.89999985694885","431636","pSARL_v2","pSARL_v29u20s9hl","5a79ebf1527fd000014658b3","freq","img/green_2bandit_b2.png","70","70","test","1","180","180","8","",""
"null","432073","pSARL_v2","pSARL_v29u20s9hl","5a79ebf1527fd000014658b3","freq_resp","img/green_2bandit_b.png","70","70","test","","","","8","",""
"null","432226","pSARL_v2","pSARL_v29u20s9hl","5a79ebf1527fd000014658b3","fixation","img/fixation.png","null","","test","","","","","",""
"352.80000019073486","432580","pSARL_v2","pSARL_v29u20s9hl","5a79ebf1527fd000014658b3","freq","img/green_2bandit_b2.png","70","70","test","1","181","181","8","",""
"null","433040","pSARL_v2","pSARL_v29u20s9hl","5a79ebf1527fd000014658b3","freq_resp","img/green_2bandit_b.png","70","70","test","","","","8","",""
"null","433196","pSARL_v2","pSARL_v29u20s9hl","5a79ebf1527fd000014658b3","fixation","img/fixation.png","null","","test","","","","","",""
"374.7000000476837","433572","pSARL_v2","pSARL_v29u20s9hl","5a79ebf1527fd000014658b3","freq","img/green_2bandit_b2.png","70","70","test","1","182","182","8","",""
"null","434014","pSARL_v2","pSARL_v29u20s9hl","5a79ebf1527fd000014658b3","freq_resp","img/green_2bandit_b.png","70","70","test","","","","8","",""
"null","434181","pSARL_v2","pSARL_v29u20s9hl","5a79ebf1527fd000014658b3","fixation","img/fixation.png","null","","test","","","","","",""
"429.7000000476837","434612","pSARL_v2","pSARL_v29u20s9hl","5a79ebf1527fd000014658b3","freq","img/green_2bandit_b2.png","70","70","test","1","183","183","8","",""
"null","434987","pSARL_v2","pSARL_v29u20s9hl","5a79ebf1527fd000014658b3","freq_resp","img/green_2bandit_b.png","70","70","test","","","","8","",""
"null","435153","pSARL_v2","pSARL_v29u20s9hl","5a79ebf1527fd000014658b3","fixation","img/fixation.png","null","","test","","","","","",""
"537.8999998569489","435692","pSARL_v2","pSARL_v29u20s9hl","5a79ebf1527fd000014658b3","reward","img/slot.png","74","","test","","","","","",""
"null","436449","pSARL_v2","pSARL_v29u20s9hl","5a79ebf1527fd000014658b3","points","<div class=""verylowPoints""> -4 </div>","null","na","test","","","","8","-4","7"
"321.89999985694885","436772","pSARL_v2","pSARL_v29u20s9hl","5a79ebf1527fd000014658b3","freq","img/green_2bandit_b2.png","70","70","test","1","184","184","9","",""
"null","437254","pSARL_v2","pSARL_v29u20s9hl","5a79ebf1527fd000014658b3","freq_resp","img/green_2bandit_b.png","70","70","test","","","","9","",""
"null","437412","pSARL_v2","pSARL_v29u20s9hl","5a79ebf1527fd000014658b3","fixation","img/fixation.png","null","","test","","","","","",""
"567.1000001430511","437981","pSARL_v2","pSARL_v29u20s9hl","5a79ebf1527fd000014658b3","freq","img/green_2bandit_b2.png","70","70","test","1","185","185","9","",""
"null","438222","pSARL_v2","pSARL_v29u20s9hl","5a79ebf1527fd000014658b3","freq_resp","img/green_2bandit_b.png","70","70","test","","","","9","",""
"null","438382","pSARL_v2","pSARL_v29u20s9hl","5a79ebf1527fd000014658b3","fixation","img/fixation.png","null","","test","","","","","",""
"685.2000000476837","439068","pSARL_v2","pSARL_v29u20s9hl","5a79ebf1527fd000014658b3","freq","img/green_2bandit_b2.png","70","70","test","1","186","186","9","",""
"null","439186","pSARL_v2","pSARL_v29u20s9hl","5a79ebf1527fd000014658b3","freq_resp","img/green_2bandit_b.png","70","70","test","","","","9","",""
"null","439350","pSARL_v2","pSARL_v29u20s9hl","5a79ebf1527fd000014658b3","fixation","img/fixation.png","null","","test","","","","","",""
"781.0999999046326","440132","pSARL_v2","pSARL_v29u20s9hl","5a79ebf1527fd000014658b3","freq","img/green_2bandit_b2.png","70","70","test","1","187","187","9","",""
"null","440152","pSARL_v2","pSARL_v29u20s9hl","5a79ebf1527fd000014658b3","freq_resp","img/green_2bandit_b.png","70","70","test","","","","9","",""
"null","440304","pSARL_v2","pSARL_v29u20s9hl","5a79ebf1527fd000014658b3","fixation","img/fixation.png","null","","test","","","","","",""
"null","441107","pSARL_v2","pSARL_v29u20s9hl","5a79ebf1527fd000014658b3","freq","img/green_2bandit_b2.png","null","70","test","0","188","188","9","",""
"null","441273","pSARL_v2","pSARL_v29u20s9hl","5a79ebf1527fd000014658b3","fixation","img/fixation.png","null","","test","","","","","",""
"null","442081","pSARL_v2","pSARL_v29u20s9hl","5a79ebf1527fd000014658b3","freq","img/green_2bandit_b2.png","null","70","test","0","189","189","9","",""
"null","442242","pSARL_v2","pSARL_v29u20s9hl","5a79ebf1527fd000014658b3","fixation","img/fixation.png","null","","test","","","","","",""
"null","443051","pSARL_v2","pSARL_v29u20s9hl","5a79ebf1527fd000014658b3","freq","img/green_2bandit_b2.png","null","70","test","0","190","190","9","",""
"null","443204","pSARL_v2","pSARL_v29u20s9hl","5a79ebf1527fd000014658b3","fixation","img/fixation.png","null","","test","","","","","",""
"null","444007","pSARL_v2","pSARL_v29u20s9hl","5a79ebf1527fd000014658b3","infreq","img/orange_2bandit_b2.png","null","68","test","0","191","191","9","",""
"null","444169","pSARL_v2","pSARL_v29u20s9hl","5a79ebf1527fd000014658b3","fixation","img/fixation.png","null","","test","","","","","",""
"null","444987","pSARL_v2","pSARL_v29u20s9hl","5a79ebf1527fd000014658b3","freq","img/green_2bandit_b2.png","null","70","test","0","192","192","9","",""
"null","445153","pSARL_v2","pSARL_v29u20s9hl","5a79ebf1527fd000014658b3","fixation","img/fixation.png","null","","test","","","","","",""
"801.3999998569489","445956","pSARL_v2","pSARL_v29u20s9hl","5a79ebf1527fd000014658b3","freq","img/green_2bandit_b2.png","70","70","test","1","193","193","9","",""
"null","446123","pSARL_v2","pSARL_v29u20s9hl","5a79ebf1527fd000014658b3","fixation","img/fixation.png","null","","test","","","","","",""
"791","446916","pSARL_v2","pSARL_v29u20s9hl","5a79ebf1527fd000014658b3","infreq","img/orange_2bandit_b2.png","68","68","test","1","194","194","9","",""
"null","446926","pSARL_v2","pSARL_v29u20s9hl","5a79ebf1527fd000014658b3","infreq_resp","img/orange_2bandit_b.png","68","68","test","","","","9","",""
"null","447080","pSARL_v2","pSARL_v29u20s9hl","5a79ebf1527fd000014658b3","fixation","img/fixation.png","null","","test","","","","","",""
"666.6000001430511","447748","pSARL_v2","pSARL_v29u20s9hl","5a79ebf1527fd000014658b3","infreq","img/orange_2bandit_b2.png","68","68","test","1","195","195","9","",""
"null","447897","pSARL_v2","pSARL_v29u20s9hl","5a79ebf1527fd000014658b3","infreq_resp","img/orange_2bandit_b.png","68","68","test","","","","9","",""
"null","448064","pSARL_v2","pSARL_v29u20s9hl","5a79ebf1527fd000014658b3","fixation","img/fixation.png","null","","test","","","","","",""
"634.7999999523163","448700","pSARL_v2","pSARL_v29u20s9hl","5a79ebf1527fd000014658b3","freq","img/green_2bandit_b2.png","70","70","test","1","196","196","9","",""
"null","448867","pSARL_v2","pSARL_v29u20s9hl","5a79ebf1527fd000014658b3","freq_resp","img/green_2bandit_b.png","70","70","test","","","","9","",""
"null","449034","pSARL_v2","pSARL_v29u20s9hl","5a79ebf1527fd000014658b3","fixation","img/fixation.png","null","","test","","","","","",""
"560.2000000476837","449596","pSARL_v2","pSARL_v29u20s9hl","5a79ebf1527fd000014658b3","freq","img/green_2bandit_b2.png","70","70","test","1","197","197","9","",""
"null","449848","pSARL_v2","pSARL_v29u20s9hl","5a79ebf1527fd000014658b3","freq_resp","img/green_2bandit_b.png","70","70","test","","","","9","",""
"null","450005","pSARL_v2","pSARL_v29u20s9hl","5a79ebf1527fd000014658b3","fixation","img/fixation.png","null","","test","","","","","",""
"469.7000000476837","450476","pSARL_v2","pSARL_v29u20s9hl","5a79ebf1527fd000014658b3","freq","img/green_2bandit_b2.png","70","70","test","1","198","198","9","",""
"null","450812","pSARL_v2","pSARL_v29u20s9hl","5a79ebf1527fd000014658b3","freq_resp","img/green_2bandit_b.png","70","70","test","","","","9","",""
"null","450974","pSARL_v2","pSARL_v29u20s9hl","5a79ebf1527fd000014658b3","fixation","img/fixation.png","null","","test","","","","","",""
"380.10000014305115","451356","pSARL_v2","pSARL_v29u20s9hl","5a79ebf1527fd000014658b3","freq","img/green_2bandit_b2.png","70","70","test","1","199","199","9","",""
"null","451784","pSARL_v2","pSARL_v29u20s9hl","5a79ebf1527fd000014658b3","freq_resp","img/green_2bandit_b.png","70","70","test","","","","9","",""
"null","451947","pSARL_v2","pSARL_v29u20s9hl","5a79ebf1527fd000014658b3","fixation","img/fixation.png","null","","test","","","","","",""
"320.09999990463257","452268","pSARL_v2","pSARL_v29u20s9hl","5a79ebf1527fd000014658b3","freq","img/green_2bandit_b2.png","70","70","test","1","200","200","9","",""
"null","452759","pSARL_v2","pSARL_v29u20s9hl","5a79ebf1527fd000014658b3","freq_resp","img/green_2bandit_b.png","70","70","test","","","","9","",""
"null","452915","pSARL_v2","pSARL_v29u20s9hl","5a79ebf1527fd000014658b3","fixation","img/fixation.png","null","","test","","","","","",""
"352","453268","pSARL_v2","pSARL_v29u20s9hl","5a79ebf1527fd000014658b3","freq","img/green_2bandit_b2.png","70","70","test","1","201","201","9","",""
"null","453730","pSARL_v2","pSARL_v29u20s9hl","5a79ebf1527fd000014658b3","freq_resp","img/green_2bandit_b.png","70","70","test","","","","9","",""
"null","453886","pSARL_v2","pSARL_v29u20s9hl","5a79ebf1527fd000014658b3","fixation","img/fixation.png","null","","test","","","","","",""
"349.2000000476837","454236","pSARL_v2","pSARL_v29u20s9hl","5a79ebf1527fd000014658b3","freq","img/green_2bandit_b2.png","70","70","test","1","202","202","9","",""
"null","454699","pSARL_v2","pSARL_v29u20s9hl","5a79ebf1527fd000014658b3","freq_resp","img/green_2bandit_b.png","70","70","test","","","","9","",""
"null","454856","pSARL_v2","pSARL_v29u20s9hl","5a79ebf1527fd000014658b3","fixation","img/fixation.png","null","","test","","","","","",""
"338.5","455196","pSARL_v2","pSARL_v29u20s9hl","5a79ebf1527fd000014658b3","freq","img/green_2bandit_b2.png","70","70","test","1","203","203","9","",""
"null","455671","pSARL_v2","pSARL_v29u20s9hl","5a79ebf1527fd000014658b3","freq_resp","img/green_2bandit_b.png","70","70","test","","","","9","",""
"null","455826","pSARL_v2","pSARL_v29u20s9hl","5a79ebf1527fd000014658b3","fixation","img/fixation.png","null","","test","","","","","",""
"344.7000000476837","456172","pSARL_v2","pSARL_v29u20s9hl","5a79ebf1527fd000014658b3","freq","img/green_2bandit_b2.png","70","70","test","1","204","204","9","",""
"null","456640","pSARL_v2","pSARL_v29u20s9hl","5a79ebf1527fd000014658b3","freq_resp","img/green_2bandit_b.png","70","70","test","","","","9","",""
"null","456797","pSARL_v2","pSARL_v29u20s9hl","5a79ebf1527fd000014658b3","fixation","img/fixation.png","null","","test","","","","","",""
"350","457148","pSARL_v2","pSARL_v29u20s9hl","5a79ebf1527fd000014658b3","freq","img/green_2bandit_b2.png","70","70","test","1","205","205","9","",""
"null","457610","pSARL_v2","pSARL_v29u20s9hl","5a79ebf1527fd000014658b3","freq_resp","img/green_2bandit_b.png","70","70","test","","","","9","",""
"null","457766","pSARL_v2","pSARL_v29u20s9hl","5a79ebf1527fd000014658b3","fixation","img/fixation.png","null","","test","","","","","",""
"340.60000014305115","458108","pSARL_v2","pSARL_v29u20s9hl","5a79ebf1527fd000014658b3","freq","img/green_2bandit_b2.png","70","70","test","1","206","206","9","",""
"null","458581","pSARL_v2","pSARL_v29u20s9hl","5a79ebf1527fd000014658b3","freq_resp","img/green_2bandit_b.png","70","70","test","","","","9","",""
"null","458735","pSARL_v2","pSARL_v29u20s9hl","5a79ebf1527fd000014658b3","fixation","img/fixation.png","null","","test","","","","","",""
"380","459116","pSARL_v2","pSARL_v29u20s9hl","5a79ebf1527fd000014658b3","freq","img/green_2bandit_b2.png","70","70","test","1","207","207","9","",""
"null","459552","pSARL_v2","pSARL_v29u20s9hl","5a79ebf1527fd000014658b3","freq_resp","img/green_2bandit_b.png","70","70","test","","","","9","",""
"null","459706","pSARL_v2","pSARL_v29u20s9hl","5a79ebf1527fd000014658b3","fixation","img/fixation.png","null","","test","","","","","",""
"392.89999985694885","460100","pSARL_v2","pSARL_v29u20s9hl","5a79ebf1527fd000014658b3","freq","img/green_2bandit_b2.png","70","70","test","1","208","208","9","",""
"null","460516","pSARL_v2","pSARL_v29u20s9hl","5a79ebf1527fd000014658b3","freq_resp","img/green_2bandit_b.png","70","70","test","","","","9","",""
"null","460682","pSARL_v2","pSARL_v29u20s9hl","5a79ebf1527fd000014658b3","fixation","img/fixation.png","null","","test","","","","","",""
"536.2999999523163","461221","pSARL_v2","pSARL_v29u20s9hl","5a79ebf1527fd000014658b3","freq","img/green_2bandit_b2.png","70","70","test","1","209","209","9","",""
"null","461488","pSARL_v2","pSARL_v29u20s9hl","5a79ebf1527fd000014658b3","freq_resp","img/green_2bandit_b.png","70","70","test","","","","9","",""
"null","461647","pSARL_v2","pSARL_v29u20s9hl","5a79ebf1527fd000014658b3","fixation","img/fixation.png","null","","test","","","","","",""
"539.9000000953674","462188","pSARL_v2","pSARL_v29u20s9hl","5a79ebf1527fd000014658b3","freq","img/green_2bandit_b2.png","70","70","test","1","210","210","9","",""
"null","462459","pSARL_v2","pSARL_v29u20s9hl","5a79ebf1527fd000014658b3","freq_resp","img/green_2bandit_b.png","70","70","test","","","","9","",""
