"rt","time_elapsed","expId","subject","prolificID","trialType","stimulus","key_press","corrresp","phase","corr","trialNum","attentionRunNum","blockNum","points","rlNum"
"12716","12730","pSARL_v2","pSARL_v22ff0woad","6151c8ea2f7b31bdda93807d","","","","","","","","","","",""
"","15772","pSARL_v2","pSARL_v22ff0woad","6151c8ea2f7b31bdda93807d","fullscreen","","","","","","","","","",""
"65906","81683","pSARL_v2","pSARL_v22ff0woad","6151c8ea2f7b31bdda93807d","","","","","","","","","","",""
"null","82489","pSARL_v2","pSARL_v22ff0woad","6151c8ea2f7b31bdda93807d","freqPrac","img/green_2bandit_b2.png","null","70","prac","0","","","","",""
"null","83498","pSARL_v2","pSARL_v22ff0woad","6151c8ea2f7b31bdda93807d","feedback","img/tooSlow.png","null","na","prac","","","","","",""
"null","83666","pSARL_v2","pSARL_v22ff0woad","6151c8ea2f7b31bdda93807d","fixation","img/fixation.png","null","","prac","","","","","",""
"732","84402","pSARL_v2","pSARL_v22ff0woad","6151c8ea2f7b31bdda93807d","infreqPrac","img/orange_2bandit_b2.png","68","68","prac","1","","","","",""
"732","84485","pSARL_v2","pSARL_v22ff0woad","6151c8ea2f7b31bdda93807d","infreqPrac_resp","img/orange_2bandit_b.png","68","68","prac","","","","","",""
"null","84640","pSARL_v2","pSARL_v22ff0woad","6151c8ea2f7b31bdda93807d","fixation","img/fixation.png","null","","prac","","","","","",""
"550","85194","pSARL_v2","pSARL_v22ff0woad","6151c8ea2f7b31bdda93807d","freqPrac","img/green_2bandit_b2.png","70","70","prac","1","","","","",""
"550","85459","pSARL_v2","pSARL_v22ff0woad","6151c8ea2f7b31bdda93807d","freqPrac_resp","img/green_2bandit_b.png","70","70","prac","","","","","",""
"null","85621","pSARL_v2","pSARL_v22ff0woad","6151c8ea2f7b31bdda93807d","fixation","img/fixation.png","null","","prac","","","","","",""
"161","85786","pSARL_v2","pSARL_v22ff0woad","6151c8ea2f7b31bdda93807d","infreqPrac","img/orange_2bandit_b2.png","70","68","prac","0","","","","",""
"161","86446","pSARL_v2","pSARL_v22ff0woad","6151c8ea2f7b31bdda93807d","infreqPrac_resp","img/orange_2bandit_b.png","70","68","prac","","","","","",""
"null","87450","pSARL_v2","pSARL_v22ff0woad","6151c8ea2f7b31bdda93807d","feedback","img/wrongKey.png","null","na","prac","","","","","",""
"null","87613","pSARL_v2","pSARL_v22ff0woad","6151c8ea2f7b31bdda93807d","fixation","img/fixation.png","null","","prac","","","","","",""
"433","88050","pSARL_v2","pSARL_v22ff0woad","6151c8ea2f7b31bdda93807d","infreqPrac","img/orange_2bandit_b2.png","68","68","prac","1","","","","",""
"433","88432","pSARL_v2","pSARL_v22ff0woad","6151c8ea2f7b31bdda93807d","infreqPrac_resp","img/orange_2bandit_b.png","68","68","prac","","","","","",""
"null","88585","pSARL_v2","pSARL_v22ff0woad","6151c8ea2f7b31bdda93807d","fixation","img/fixation.png","null","","prac","","","","","",""
"429","89017","pSARL_v2","pSARL_v22ff0woad","6151c8ea2f7b31bdda93807d","infreqPrac","img/orange_2bandit_b2.png","68","68","prac","1","","","","",""
"429","89405","pSARL_v2","pSARL_v22ff0woad","6151c8ea2f7b31bdda93807d","infreqPrac_resp","img/orange_2bandit_b.png","68","68","prac","","","","","",""
"null","89558","pSARL_v2","pSARL_v22ff0woad","6151c8ea2f7b31bdda93807d","fixation","img/fixation.png","null","","prac","","","","","",""
"432","89994","pSARL_v2","pSARL_v22ff0woad","6151c8ea2f7b31bdda93807d","freqPrac","img/green_2bandit_b2.png","70","70","prac","1","","","","",""
"432","90377","pSARL_v2","pSARL_v22ff0woad","6151c8ea2f7b31bdda93807d","freqPrac_resp","img/green_2bandit_b.png","70","70","prac","","","","","",""
"null","90541","pSARL_v2","pSARL_v22ff0woad","6151c8ea2f7b31bdda93807d","fixation","img/fixation.png","null","","prac","","","","","",""
"417","90962","pSARL_v2","pSARL_v22ff0woad","6151c8ea2f7b31bdda93807d","infreqPrac","img/orange_2bandit_b2.png","68","68","prac","1","","","","",""
"417","91367","pSARL_v2","pSARL_v22ff0woad","6151c8ea2f7b31bdda93807d","infreqPrac_resp","img/orange_2bandit_b.png","68","68","prac","","","","","",""
"null","91529","pSARL_v2","pSARL_v22ff0woad","6151c8ea2f7b31bdda93807d","fixation","img/fixation.png","null","","prac","","","","","",""
"373","91906","pSARL_v2","pSARL_v22ff0woad","6151c8ea2f7b31bdda93807d","freqPrac","img/green_2bandit_b2.png","70","70","prac","1","","","","",""
"373","92349","pSARL_v2","pSARL_v22ff0woad","6151c8ea2f7b31bdda93807d","freqPrac_resp","img/green_2bandit_b.png","70","70","prac","","","","","",""
"null","92502","pSARL_v2","pSARL_v22ff0woad","6151c8ea2f7b31bdda93807d","fixation","img/fixation.png","null","","prac","","","","","",""
"416","92922","pSARL_v2","pSARL_v22ff0woad","6151c8ea2f7b31bdda93807d","freqPrac","img/green_2bandit_b2.png","70","70","prac","1","","","","",""
"416","93321","pSARL_v2","pSARL_v22ff0woad","6151c8ea2f7b31bdda93807d","freqPrac_resp","img/green_2bandit_b.png","70","70","prac","","","","","",""
"null","93475","pSARL_v2","pSARL_v22ff0woad","6151c8ea2f7b31bdda93807d","fixation","img/fixation.png","null","","prac","","","","","",""
"18635","112113","pSARL_v2","pSARL_v22ff0woad","6151c8ea2f7b31bdda93807d","","","","","prac","","","","","",""
"613","112729","pSARL_v2","pSARL_v22ff0woad","6151c8ea2f7b31bdda93807d","rewardPractice","img/slot.png","74","","prac","","","","","",""
"null","113492","pSARL_v2","pSARL_v22ff0woad","6151c8ea2f7b31bdda93807d","feedback","<div class=""veryhighPoints""> +15 </div>","null","na","prac","","","","","",""
"null","113650","pSARL_v2","pSARL_v22ff0woad","6151c8ea2f7b31bdda93807d","fixation","img/fixation.png","null","","prac","","","","","",""
"12020","125674","pSARL_v2","pSARL_v22ff0woad","6151c8ea2f7b31bdda93807d","","","","","prac","","","","","",""
"540","126217","pSARL_v2","pSARL_v22ff0woad","6151c8ea2f7b31bdda93807d","freq","img/green_2bandit_b2.png","70","70","test","1","1","1","1","",""
"null","126492","pSARL_v2","pSARL_v22ff0woad","6151c8ea2f7b31bdda93807d","freq_resp","img/green_2bandit_b.png","70","70","test","","","","1","",""
"null","126645","pSARL_v2","pSARL_v22ff0woad","6151c8ea2f7b31bdda93807d","fixation","img/fixation.png","null","","test","","","","","",""
"417","127065","pSARL_v2","pSARL_v22ff0woad","6151c8ea2f7b31bdda93807d","freq","img/green_2bandit_b2.png","70","70","test","1","2","2","1","",""
"null","127464","pSARL_v2","pSARL_v22ff0woad","6151c8ea2f7b31bdda93807d","freq_resp","img/green_2bandit_b.png","70","70","test","","","","1","",""
"null","127618","pSARL_v2","pSARL_v22ff0woad","6151c8ea2f7b31bdda93807d","fixation","img/fixation.png","null","","test","","","","","",""
"356","127978","pSARL_v2","pSARL_v22ff0woad","6151c8ea2f7b31bdda93807d","freq","img/green_2bandit_b2.png","70","70","test","1","3","3","1","",""
"null","128437","pSARL_v2","pSARL_v22ff0woad","6151c8ea2f7b31bdda93807d","freq_resp","img/green_2bandit_b.png","70","70","test","","","","1","",""
"null","128600","pSARL_v2","pSARL_v22ff0woad","6151c8ea2f7b31bdda93807d","fixation","img/fixation.png","null","","test","","","","","",""
"374","128977","pSARL_v2","pSARL_v22ff0woad","6151c8ea2f7b31bdda93807d","infreq","img/orange_2bandit_b2.png","68","68","test","1","4","4","1","",""
"null","129425","pSARL_v2","pSARL_v22ff0woad","6151c8ea2f7b31bdda93807d","infreq_resp","img/orange_2bandit_b.png","68","68","test","","","","1","",""
"null","129588","pSARL_v2","pSARL_v22ff0woad","6151c8ea2f7b31bdda93807d","fixation","img/fixation.png","null","","test","","","","","",""
"394","129985","pSARL_v2","pSARL_v22ff0woad","6151c8ea2f7b31bdda93807d","freq","img/green_2bandit_b2.png","70","70","test","1","5","5","1","",""
"null","130404","pSARL_v2","pSARL_v22ff0woad","6151c8ea2f7b31bdda93807d","freq_resp","img/green_2bandit_b.png","70","70","test","","","","1","",""
"null","130558","pSARL_v2","pSARL_v22ff0woad","6151c8ea2f7b31bdda93807d","fixation","img/fixation.png","null","","test","","","","","",""
"465","131025","pSARL_v2","pSARL_v22ff0woad","6151c8ea2f7b31bdda93807d","infreq","img/orange_2bandit_b2.png","68","68","test","1","6","6","1","",""
"null","131376","pSARL_v2","pSARL_v22ff0woad","6151c8ea2f7b31bdda93807d","infreq_resp","img/orange_2bandit_b.png","68","68","test","","","","1","",""
"null","131546","pSARL_v2","pSARL_v22ff0woad","6151c8ea2f7b31bdda93807d","fixation","img/fixation.png","null","","test","","","","","",""
"435","131985","pSARL_v2","pSARL_v22ff0woad","6151c8ea2f7b31bdda93807d","freq","img/green_2bandit_b2.png","70","70","test","1","7","7","1","",""
"null","132366","pSARL_v2","pSARL_v22ff0woad","6151c8ea2f7b31bdda93807d","freq_resp","img/green_2bandit_b.png","70","70","test","","","","1","",""
"null","132528","pSARL_v2","pSARL_v22ff0woad","6151c8ea2f7b31bdda93807d","fixation","img/fixation.png","null","","test","","","","","",""
"422","132953","pSARL_v2","pSARL_v22ff0woad","6151c8ea2f7b31bdda93807d","freq","img/green_2bandit_b2.png","70","70","test","1","8","8","1","",""
"null","133355","pSARL_v2","pSARL_v22ff0woad","6151c8ea2f7b31bdda93807d","freq_resp","img/green_2bandit_b.png","70","70","test","","","","1","",""
"null","133517","pSARL_v2","pSARL_v22ff0woad","6151c8ea2f7b31bdda93807d","fixation","img/fixation.png","null","","test","","","","","",""
"401","133922","pSARL_v2","pSARL_v22ff0woad","6151c8ea2f7b31bdda93807d","freq","img/green_2bandit_b2.png","70","70","test","1","9","9","1","",""
"null","134331","pSARL_v2","pSARL_v22ff0woad","6151c8ea2f7b31bdda93807d","freq_resp","img/green_2bandit_b.png","70","70","test","","","","1","",""
"null","134490","pSARL_v2","pSARL_v22ff0woad","6151c8ea2f7b31bdda93807d","fixation","img/fixation.png","null","","test","","","","","",""
"420","134914","pSARL_v2","pSARL_v22ff0woad","6151c8ea2f7b31bdda93807d","freq","img/green_2bandit_b2.png","70","70","test","1","10","10","1","",""
"null","135309","pSARL_v2","pSARL_v22ff0woad","6151c8ea2f7b31bdda93807d","freq_resp","img/green_2bandit_b.png","70","70","test","","","","1","",""
"null","135463","pSARL_v2","pSARL_v22ff0woad","6151c8ea2f7b31bdda93807d","fixation","img/fixation.png","null","","test","","","","","",""
"360","135826","pSARL_v2","pSARL_v22ff0woad","6151c8ea2f7b31bdda93807d","freq","img/green_2bandit_b2.png","70","70","test","1","11","11","1","",""
"null","136282","pSARL_v2","pSARL_v22ff0woad","6151c8ea2f7b31bdda93807d","freq_resp","img/green_2bandit_b.png","70","70","test","","","","1","",""
"null","136444","pSARL_v2","pSARL_v22ff0woad","6151c8ea2f7b31bdda93807d","fixation","img/fixation.png","null","","test","","","","","",""
"361","136809","pSARL_v2","pSARL_v22ff0woad","6151c8ea2f7b31bdda93807d","freq","img/green_2bandit_b2.png","70","70","test","1","12","12","1","",""
"null","137270","pSARL_v2","pSARL_v22ff0woad","6151c8ea2f7b31bdda93807d","freq_resp","img/green_2bandit_b.png","70","70","test","","","","1","",""
"null","137433","pSARL_v2","pSARL_v22ff0woad","6151c8ea2f7b31bdda93807d","fixation","img/fixation.png","null","","test","","","","","",""
"366","137801","pSARL_v2","pSARL_v22ff0woad","6151c8ea2f7b31bdda93807d","freq","img/green_2bandit_b2.png","70","70","test","1","13","13","1","",""
"null","138252","pSARL_v2","pSARL_v22ff0woad","6151c8ea2f7b31bdda93807d","freq_resp","img/green_2bandit_b.png","70","70","test","","","","1","",""
"null","138406","pSARL_v2","pSARL_v22ff0woad","6151c8ea2f7b31bdda93807d","fixation","img/fixation.png","null","","test","","","","","",""
"368","138778","pSARL_v2","pSARL_v22ff0woad","6151c8ea2f7b31bdda93807d","freq","img/green_2bandit_b2.png","70","70","test","1","14","14","1","",""
"null","139225","pSARL_v2","pSARL_v22ff0woad","6151c8ea2f7b31bdda93807d","freq_resp","img/green_2bandit_b.png","70","70","test","","","","1","",""
"null","139379","pSARL_v2","pSARL_v22ff0woad","6151c8ea2f7b31bdda93807d","fixation","img/fixation.png","null","","test","","","","","",""
"331","139713","pSARL_v2","pSARL_v22ff0woad","6151c8ea2f7b31bdda93807d","freq","img/green_2bandit_b2.png","70","70","test","1","15","15","1","",""
"null","140198","pSARL_v2","pSARL_v22ff0woad","6151c8ea2f7b31bdda93807d","freq_resp","img/green_2bandit_b.png","70","70","test","","","","1","",""
"null","140361","pSARL_v2","pSARL_v22ff0woad","6151c8ea2f7b31bdda93807d","fixation","img/fixation.png","null","","test","","","","","",""
"334","140698","pSARL_v2","pSARL_v22ff0woad","6151c8ea2f7b31bdda93807d","freq","img/green_2bandit_b2.png","70","70","test","1","16","16","1","",""
"null","141186","pSARL_v2","pSARL_v22ff0woad","6151c8ea2f7b31bdda93807d","freq_resp","img/green_2bandit_b.png","70","70","test","","","","1","",""
"null","141349","pSARL_v2","pSARL_v22ff0woad","6151c8ea2f7b31bdda93807d","fixation","img/fixation.png","null","","test","","","","","",""
"336","141690","pSARL_v2","pSARL_v22ff0woad","6151c8ea2f7b31bdda93807d","freq","img/green_2bandit_b2.png","70","70","test","1","17","17","1","",""
"null","142157","pSARL_v2","pSARL_v22ff0woad","6151c8ea2f7b31bdda93807d","freq_resp","img/green_2bandit_b.png","70","70","test","","","","1","",""
"null","142312","pSARL_v2","pSARL_v22ff0woad","6151c8ea2f7b31bdda93807d","fixation","img/fixation.png","null","","test","","","","","",""
"286","142602","pSARL_v2","pSARL_v22ff0woad","6151c8ea2f7b31bdda93807d","freq","img/green_2bandit_b2.png","70","70","test","1","18","18","1","",""
"null","143131","pSARL_v2","pSARL_v22ff0woad","6151c8ea2f7b31bdda93807d","freq_resp","img/green_2bandit_b.png","70","70","test","","","","1","",""
"null","143293","pSARL_v2","pSARL_v22ff0woad","6151c8ea2f7b31bdda93807d","fixation","img/fixation.png","null","","test","","","","","",""
"313","143610","pSARL_v2","pSARL_v22ff0woad","6151c8ea2f7b31bdda93807d","freq","img/green_2bandit_b2.png","70","70","test","1","19","19","1","",""
"null","144113","pSARL_v2","pSARL_v22ff0woad","6151c8ea2f7b31bdda93807d","freq_resp","img/green_2bandit_b.png","70","70","test","","","","1","",""
"null","144266","pSARL_v2","pSARL_v22ff0woad","6151c8ea2f7b31bdda93807d","fixation","img/fixation.png","null","","test","","","","","",""
"347","144618","pSARL_v2","pSARL_v22ff0woad","6151c8ea2f7b31bdda93807d","freq","img/green_2bandit_b2.png","70","70","test","1","20","20","1","",""
"null","145084","pSARL_v2","pSARL_v22ff0woad","6151c8ea2f7b31bdda93807d","freq_resp","img/green_2bandit_b.png","70","70","test","","","","1","",""
"null","145238","pSARL_v2","pSARL_v22ff0woad","6151c8ea2f7b31bdda93807d","fixation","img/fixation.png","null","","test","","","","","",""
"591","145833","pSARL_v2","pSARL_v22ff0woad","6151c8ea2f7b31bdda93807d","reward","img/slot.png","74","","test","","","","","",""
"null","146591","pSARL_v2","pSARL_v22ff0woad","6151c8ea2f7b31bdda93807d","points","<div class=""verylowPoints""> -6 </div>","null","na","test","","","","1","-6","0"
"567","147161","pSARL_v2","pSARL_v22ff0woad","6151c8ea2f7b31bdda93807d","freq","img/green_2bandit_b2.png","70","70","test","1","21","21","2","",""
"null","147410","pSARL_v2","pSARL_v22ff0woad","6151c8ea2f7b31bdda93807d","freq_resp","img/green_2bandit_b.png","70","70","test","","","","2","",""
"null","147564","pSARL_v2","pSARL_v22ff0woad","6151c8ea2f7b31bdda93807d","fixation","img/fixation.png","null","","test","","","","","",""
"641","148210","pSARL_v2","pSARL_v22ff0woad","6151c8ea2f7b31bdda93807d","freq","img/green_2bandit_b2.png","70","70","test","1","22","22","2","",""
"null","148383","pSARL_v2","pSARL_v22ff0woad","6151c8ea2f7b31bdda93807d","freq_resp","img/green_2bandit_b.png","70","70","test","","","","2","",""
"null","148552","pSARL_v2","pSARL_v22ff0woad","6151c8ea2f7b31bdda93807d","fixation","img/fixation.png","null","","test","","","","","",""
"517","149073","pSARL_v2","pSARL_v22ff0woad","6151c8ea2f7b31bdda93807d","freq","img/green_2bandit_b2.png","70","70","test","1","23","23","2","",""
"null","149372","pSARL_v2","pSARL_v22ff0woad","6151c8ea2f7b31bdda93807d","freq_resp","img/green_2bandit_b.png","70","70","test","","","","2","",""
"null","149534","pSARL_v2","pSARL_v22ff0woad","6151c8ea2f7b31bdda93807d","fixation","img/fixation.png","null","","test","","","","","",""
"336","149873","pSARL_v2","pSARL_v22ff0woad","6151c8ea2f7b31bdda93807d","freq","img/green_2bandit_b2.png","70","70","test","1","24","24","2","",""
"null","150359","pSARL_v2","pSARL_v22ff0woad","6151c8ea2f7b31bdda93807d","freq_resp","img/green_2bandit_b.png","70","70","test","","","","2","",""
"null","150522","pSARL_v2","pSARL_v22ff0woad","6151c8ea2f7b31bdda93807d","fixation","img/fixation.png","null","","test","","","","","",""
"333","150857","pSARL_v2","pSARL_v22ff0woad","6151c8ea2f7b31bdda93807d","freq","img/green_2bandit_b2.png","70","70","test","1","25","25","2","",""
"null","151378","pSARL_v2","pSARL_v22ff0woad","6151c8ea2f7b31bdda93807d","freq_resp","img/green_2bandit_b.png","70","70","test","","","","2","",""
"null","151543","pSARL_v2","pSARL_v22ff0woad","6151c8ea2f7b31bdda93807d","fixation","img/fixation.png","null","","test","","","","","",""
"160","151706","pSARL_v2","pSARL_v22ff0woad","6151c8ea2f7b31bdda93807d","freq","img/green_2bandit_b2.png","70","70","test","1","26","26","2","",""
"null","152367","pSARL_v2","pSARL_v22ff0woad","6151c8ea2f7b31bdda93807d","freq_resp","img/green_2bandit_b.png","70","70","test","","","","2","",""
"null","152529","pSARL_v2","pSARL_v22ff0woad","6151c8ea2f7b31bdda93807d","fixation","img/fixation.png","null","","test","","","","","",""
"133","152666","pSARL_v2","pSARL_v22ff0woad","6151c8ea2f7b31bdda93807d","freq","img/green_2bandit_b2.png","70","70","test","1","27","27","2","",""
"null","153402","pSARL_v2","pSARL_v22ff0woad","6151c8ea2f7b31bdda93807d","freq_resp","img/green_2bandit_b.png","70","70","test","","","","2","",""
"null","153572","pSARL_v2","pSARL_v22ff0woad","6151c8ea2f7b31bdda93807d","fixation","img/fixation.png","null","","test","","","","","",""
"131","153706","pSARL_v2","pSARL_v22ff0woad","6151c8ea2f7b31bdda93807d","freq","img/green_2bandit_b2.png","70","70","test","1","28","28","2","",""
"null","154391","pSARL_v2","pSARL_v22ff0woad","6151c8ea2f7b31bdda93807d","freq_resp","img/green_2bandit_b.png","70","70","test","","","","2","",""
"null","154554","pSARL_v2","pSARL_v22ff0woad","6151c8ea2f7b31bdda93807d","fixation","img/fixation.png","null","","test","","","","","",""
"276","154834","pSARL_v2","pSARL_v22ff0woad","6151c8ea2f7b31bdda93807d","freq","img/green_2bandit_b2.png","70","70","test","1","29","29","2","",""
"null","155411","pSARL_v2","pSARL_v22ff0woad","6151c8ea2f7b31bdda93807d","freq_resp","img/green_2bandit_b.png","70","70","test","","","","2","",""
"null","155580","pSARL_v2","pSARL_v22ff0woad","6151c8ea2f7b31bdda93807d","fixation","img/fixation.png","null","","test","","","","","",""
"202","155785","pSARL_v2","pSARL_v22ff0woad","6151c8ea2f7b31bdda93807d","freq","img/green_2bandit_b2.png","70","70","test","1","30","30","2","",""
"null","156398","pSARL_v2","pSARL_v22ff0woad","6151c8ea2f7b31bdda93807d","freq_resp","img/green_2bandit_b.png","70","70","test","","","","2","",""
"null","156561","pSARL_v2","pSARL_v22ff0woad","6151c8ea2f7b31bdda93807d","fixation","img/fixation.png","null","","test","","","","","",""
"301","156866","pSARL_v2","pSARL_v22ff0woad","6151c8ea2f7b31bdda93807d","infreq","img/orange_2bandit_b2.png","70","68","test","0","31","31","2","",""
"null","157386","pSARL_v2","pSARL_v22ff0woad","6151c8ea2f7b31bdda93807d","infreq_resp","img/orange_2bandit_b.png","70","68","test","","","","2","",""
"null","157549","pSARL_v2","pSARL_v22ff0woad","6151c8ea2f7b31bdda93807d","fixation","img/fixation.png","null","","test","","","","","",""
"594","158146","pSARL_v2","pSARL_v22ff0woad","6151c8ea2f7b31bdda93807d","freq","img/green_2bandit_b2.png","70","70","test","1","32","32","2","",""
"null","158368","pSARL_v2","pSARL_v22ff0woad","6151c8ea2f7b31bdda93807d","freq_resp","img/green_2bandit_b.png","70","70","test","","","","2","",""
"null","158522","pSARL_v2","pSARL_v22ff0woad","6151c8ea2f7b31bdda93807d","fixation","img/fixation.png","null","","test","","","","","",""
"557","159082","pSARL_v2","pSARL_v22ff0woad","6151c8ea2f7b31bdda93807d","freq","img/green_2bandit_b2.png","70","70","test","1","33","33","2","",""
"null","159341","pSARL_v2","pSARL_v22ff0woad","6151c8ea2f7b31bdda93807d","freq_resp","img/green_2bandit_b.png","70","70","test","","","","2","",""
"null","159495","pSARL_v2","pSARL_v22ff0woad","6151c8ea2f7b31bdda93807d","fixation","img/fixation.png","null","","test","","","","","",""
"472","159969","pSARL_v2","pSARL_v22ff0woad","6151c8ea2f7b31bdda93807d","freq","img/green_2bandit_b2.png","70","70","test","1","34","34","2","",""
"null","160314","pSARL_v2","pSARL_v22ff0woad","6151c8ea2f7b31bdda93807d","freq_resp","img/green_2bandit_b.png","70","70","test","","","","2","",""
"null","160476","pSARL_v2","pSARL_v22ff0woad","6151c8ea2f7b31bdda93807d","fixation","img/fixation.png","null","","test","","","","","",""
"442","160921","pSARL_v2","pSARL_v22ff0woad","6151c8ea2f7b31bdda93807d","freq","img/green_2bandit_b2.png","70","70","test","1","35","35","2","",""
"null","161302","pSARL_v2","pSARL_v22ff0woad","6151c8ea2f7b31bdda93807d","freq_resp","img/green_2bandit_b.png","70","70","test","","","","2","",""
"null","161465","pSARL_v2","pSARL_v22ff0woad","6151c8ea2f7b31bdda93807d","fixation","img/fixation.png","null","","test","","","","","",""
"406","161874","pSARL_v2","pSARL_v22ff0woad","6151c8ea2f7b31bdda93807d","freq","img/green_2bandit_b2.png","70","70","test","1","36","36","2","",""
"null","162282","pSARL_v2","pSARL_v22ff0woad","6151c8ea2f7b31bdda93807d","freq_resp","img/green_2bandit_b.png","70","70","test","","","","2","",""
"null","162436","pSARL_v2","pSARL_v22ff0woad","6151c8ea2f7b31bdda93807d","fixation","img/fixation.png","null","","test","","","","","",""
"418","162857","pSARL_v2","pSARL_v22ff0woad","6151c8ea2f7b31bdda93807d","freq","img/green_2bandit_b2.png","70","70","test","1","37","37","2","",""
"null","163255","pSARL_v2","pSARL_v22ff0woad","6151c8ea2f7b31bdda93807d","freq_resp","img/green_2bandit_b.png","70","70","test","","","","2","",""
"null","163409","pSARL_v2","pSARL_v22ff0woad","6151c8ea2f7b31bdda93807d","fixation","img/fixation.png","null","","test","","","","","",""
"380","163793","pSARL_v2","pSARL_v22ff0woad","6151c8ea2f7b31bdda93807d","freq","img/green_2bandit_b2.png","70","70","test","1","38","38","2","",""
"null","164228","pSARL_v2","pSARL_v22ff0woad","6151c8ea2f7b31bdda93807d","freq_resp","img/green_2bandit_b.png","70","70","test","","","","2","",""
"null","164391","pSARL_v2","pSARL_v22ff0woad","6151c8ea2f7b31bdda93807d","fixation","img/fixation.png","null","","test","","","","","",""
"351","164745","pSARL_v2","pSARL_v22ff0woad","6151c8ea2f7b31bdda93807d","freq","img/green_2bandit_b2.png","70","70","test","1","39","39","2","",""
"null","165217","pSARL_v2","pSARL_v22ff0woad","6151c8ea2f7b31bdda93807d","freq_resp","img/green_2bandit_b.png","70","70","test","","","","2","",""
"null","165380","pSARL_v2","pSARL_v22ff0woad","6151c8ea2f7b31bdda93807d","fixation","img/fixation.png","null","","test","","","","","",""
"385","165769","pSARL_v2","pSARL_v22ff0woad","6151c8ea2f7b31bdda93807d","freq","img/green_2bandit_b2.png","70","70","test","1","40","40","2","",""
"null","166236","pSARL_v2","pSARL_v22ff0woad","6151c8ea2f7b31bdda93807d","freq_resp","img/green_2bandit_b.png","70","70","test","","","","2","",""
"null","166400","pSARL_v2","pSARL_v22ff0woad","6151c8ea2f7b31bdda93807d","fixation","img/fixation.png","null","","test","","","","","",""
"478","166881","pSARL_v2","pSARL_v22ff0woad","6151c8ea2f7b31bdda93807d","infreq","img/orange_2bandit_b2.png","68","68","test","1","41","41","2","",""
"null","167209","pSARL_v2","pSARL_v22ff0woad","6151c8ea2f7b31bdda93807d","infreq_resp","img/orange_2bandit_b.png","68","68","test","","","","2","",""
"null","167371","pSARL_v2","pSARL_v22ff0woad","6151c8ea2f7b31bdda93807d","fixation","img/fixation.png","null","","test","","","","","",""
"522","167897","pSARL_v2","pSARL_v22ff0woad","6151c8ea2f7b31bdda93807d","freq","img/green_2bandit_b2.png","70","70","test","1","42","42","2","",""
"null","168191","pSARL_v2","pSARL_v22ff0woad","6151c8ea2f7b31bdda93807d","freq_resp","img/green_2bandit_b.png","70","70","test","","","","2","",""
"null","168344","pSARL_v2","pSARL_v22ff0woad","6151c8ea2f7b31bdda93807d","fixation","img/fixation.png","null","","test","","","","","",""
"510","168857","pSARL_v2","pSARL_v22ff0woad","6151c8ea2f7b31bdda93807d","reward","img/slot.png","74","","test","","","","","",""
"null","169612","pSARL_v2","pSARL_v22ff0woad","6151c8ea2f7b31bdda93807d","points","<div class=""verylowPoints""> -11 </div>","null","na","test","","","","2","-11","1"
"593","170209","pSARL_v2","pSARL_v22ff0woad","6151c8ea2f7b31bdda93807d","freq","img/green_2bandit_b2.png","70","70","test","1","43","43","3","",""
"null","170422","pSARL_v2","pSARL_v22ff0woad","6151c8ea2f7b31bdda93807d","freq_resp","img/green_2bandit_b.png","70","70","test","","","","3","",""
"null","170585","pSARL_v2","pSARL_v22ff0woad","6151c8ea2f7b31bdda93807d","fixation","img/fixation.png","null","","test","","","","","",""
"765","171354","pSARL_v2","pSARL_v22ff0woad","6151c8ea2f7b31bdda93807d","freq","img/green_2bandit_b2.png","70","70","test","1","44","44","3","",""
"null","171404","pSARL_v2","pSARL_v22ff0woad","6151c8ea2f7b31bdda93807d","freq_resp","img/green_2bandit_b.png","70","70","test","","","","3","",""
"null","171558","pSARL_v2","pSARL_v22ff0woad","6151c8ea2f7b31bdda93807d","fixation","img/fixation.png","null","","test","","","","","",""
"689","172249","pSARL_v2","pSARL_v22ff0woad","6151c8ea2f7b31bdda93807d","freq","img/green_2bandit_b2.png","70","70","test","1","45","45","3","",""
"null","172377","pSARL_v2","pSARL_v22ff0woad","6151c8ea2f7b31bdda93807d","freq_resp","img/green_2bandit_b.png","70","70","test","","","","3","",""
"null","172540","pSARL_v2","pSARL_v22ff0woad","6151c8ea2f7b31bdda93807d","fixation","img/fixation.png","null","","test","","","","","",""
"651","173193","pSARL_v2","pSARL_v22ff0woad","6151c8ea2f7b31bdda93807d","freq","img/green_2bandit_b2.png","70","70","test","1","46","46","3","",""
"null","173348","pSARL_v2","pSARL_v22ff0woad","6151c8ea2f7b31bdda93807d","freq_resp","img/green_2bandit_b.png","70","70","test","","","","3","",""
"null","173511","pSARL_v2","pSARL_v22ff0woad","6151c8ea2f7b31bdda93807d","fixation","img/fixation.png","null","","test","","","","","",""
"494","174009","pSARL_v2","pSARL_v22ff0woad","6151c8ea2f7b31bdda93807d","freq","img/green_2bandit_b2.png","70","70","test","1","47","47","3","",""
"null","174330","pSARL_v2","pSARL_v22ff0woad","6151c8ea2f7b31bdda93807d","freq_resp","img/green_2bandit_b.png","70","70","test","","","","3","",""
"null","174484","pSARL_v2","pSARL_v22ff0woad","6151c8ea2f7b31bdda93807d","fixation","img/fixation.png","null","","test","","","","","",""
"514","175002","pSARL_v2","pSARL_v22ff0woad","6151c8ea2f7b31bdda93807d","freq","img/green_2bandit_b2.png","70","70","test","1","48","48","3","",""
"null","175303","pSARL_v2","pSARL_v22ff0woad","6151c8ea2f7b31bdda93807d","freq_resp","img/green_2bandit_b.png","70","70","test","","","","3","",""
"null","175473","pSARL_v2","pSARL_v22ff0woad","6151c8ea2f7b31bdda93807d","fixation","img/fixation.png","null","","test","","","","","",""
"493","175969","pSARL_v2","pSARL_v22ff0woad","6151c8ea2f7b31bdda93807d","infreq","img/orange_2bandit_b2.png","68","68","test","1","49","49","3","",""
"null","176293","pSARL_v2","pSARL_v22ff0woad","6151c8ea2f7b31bdda93807d","infreq_resp","img/orange_2bandit_b.png","68","68","test","","","","3","",""
"null","176455","pSARL_v2","pSARL_v22ff0woad","6151c8ea2f7b31bdda93807d","fixation","img/fixation.png","null","","test","","","","","",""
"431","176889","pSARL_v2","pSARL_v22ff0woad","6151c8ea2f7b31bdda93807d","freq","img/green_2bandit_b2.png","70","70","test","1","50","50","3","",""
"null","177280","pSARL_v2","pSARL_v22ff0woad","6151c8ea2f7b31bdda93807d","freq_resp","img/green_2bandit_b.png","70","70","test","","","","3","",""
"null","177444","pSARL_v2","pSARL_v22ff0woad","6151c8ea2f7b31bdda93807d","fixation","img/fixation.png","null","","test","","","","","",""
"434","177882","pSARL_v2","pSARL_v22ff0woad","6151c8ea2f7b31bdda93807d","freq","img/green_2bandit_b2.png","70","70","test","1","51","51","3","",""
"null","178263","pSARL_v2","pSARL_v22ff0woad","6151c8ea2f7b31bdda93807d","freq_resp","img/green_2bandit_b.png","70","70","test","","","","3","",""
"null","178417","pSARL_v2","pSARL_v22ff0woad","6151c8ea2f7b31bdda93807d","fixation","img/fixation.png","null","","test","","","","","",""
"389","178809","pSARL_v2","pSARL_v22ff0woad","6151c8ea2f7b31bdda93807d","freq","img/green_2bandit_b2.png","70","70","test","1","52","52","3","",""
"null","179236","pSARL_v2","pSARL_v22ff0woad","6151c8ea2f7b31bdda93807d","freq_resp","img/green_2bandit_b.png","70","70","test","","","","3","",""
"null","179390","pSARL_v2","pSARL_v22ff0woad","6151c8ea2f7b31bdda93807d","fixation","img/fixation.png","null","","test","","","","","",""
"368","179761","pSARL_v2","pSARL_v22ff0woad","6151c8ea2f7b31bdda93807d","freq","img/green_2bandit_b2.png","70","70","test","1","53","53","3","",""
"null","180209","pSARL_v2","pSARL_v22ff0woad","6151c8ea2f7b31bdda93807d","freq_resp","img/green_2bandit_b.png","70","70","test","","","","3","",""
"null","180372","pSARL_v2","pSARL_v22ff0woad","6151c8ea2f7b31bdda93807d","fixation","img/fixation.png","null","","test","","","","","",""
"338","180713","pSARL_v2","pSARL_v22ff0woad","6151c8ea2f7b31bdda93807d","freq","img/green_2bandit_b2.png","70","70","test","1","54","54","3","",""
"null","181198","pSARL_v2","pSARL_v22ff0woad","6151c8ea2f7b31bdda93807d","freq_resp","img/green_2bandit_b.png","70","70","test","","","","3","",""
"null","181360","pSARL_v2","pSARL_v22ff0woad","6151c8ea2f7b31bdda93807d","fixation","img/fixation.png","null","","test","","","","","",""
"446","181809","pSARL_v2","pSARL_v22ff0woad","6151c8ea2f7b31bdda93807d","infreq","img/orange_2bandit_b2.png","68","68","test","1","55","55","3","",""
"null","182179","pSARL_v2","pSARL_v22ff0woad","6151c8ea2f7b31bdda93807d","infreq_resp","img/orange_2bandit_b.png","68","68","test","","","","3","",""
"null","182333","pSARL_v2","pSARL_v22ff0woad","6151c8ea2f7b31bdda93807d","fixation","img/fixation.png","null","","test","","","","","",""
"378","182713","pSARL_v2","pSARL_v22ff0woad","6151c8ea2f7b31bdda93807d","freq","img/green_2bandit_b2.png","70","70","test","1","56","56","3","",""
"null","183152","pSARL_v2","pSARL_v22ff0woad","6151c8ea2f7b31bdda93807d","freq_resp","img/green_2bandit_b.png","70","70","test","","","","3","",""
"null","183306","pSARL_v2","pSARL_v22ff0woad","6151c8ea2f7b31bdda93807d","fixation","img/fixation.png","null","","test","","","","","",""
"340","183649","pSARL_v2","pSARL_v22ff0woad","6151c8ea2f7b31bdda93807d","freq","img/green_2bandit_b2.png","70","70","test","1","57","57","3","",""
"null","184125","pSARL_v2","pSARL_v22ff0woad","6151c8ea2f7b31bdda93807d","freq_resp","img/green_2bandit_b.png","70","70","test","","","","3","",""
"null","184288","pSARL_v2","pSARL_v22ff0woad","6151c8ea2f7b31bdda93807d","fixation","img/fixation.png","null","","test","","","","","",""
"526","184817","pSARL_v2","pSARL_v22ff0woad","6151c8ea2f7b31bdda93807d","freq","img/green_2bandit_b2.png","70","70","test","1","58","58","3","",""
"null","185113","pSARL_v2","pSARL_v22ff0woad","6151c8ea2f7b31bdda93807d","freq_resp","img/green_2bandit_b.png","70","70","test","","","","3","",""
"null","185276","pSARL_v2","pSARL_v22ff0woad","6151c8ea2f7b31bdda93807d","fixation","img/fixation.png","null","","test","","","","","",""
"451","185729","pSARL_v2","pSARL_v22ff0woad","6151c8ea2f7b31bdda93807d","freq","img/green_2bandit_b2.png","70","70","test","1","59","59","3","",""
"null","186096","pSARL_v2","pSARL_v22ff0woad","6151c8ea2f7b31bdda93807d","freq_resp","img/green_2bandit_b.png","70","70","test","","","","3","",""
"null","186249","pSARL_v2","pSARL_v22ff0woad","6151c8ea2f7b31bdda93807d","fixation","img/fixation.png","null","","test","","","","","",""
"436","186689","pSARL_v2","pSARL_v22ff0woad","6151c8ea2f7b31bdda93807d","freq","img/green_2bandit_b2.png","70","70","test","1","60","60","3","",""
"null","187068","pSARL_v2","pSARL_v22ff0woad","6151c8ea2f7b31bdda93807d","freq_resp","img/green_2bandit_b.png","70","70","test","","","","3","",""
"null","187223","pSARL_v2","pSARL_v22ff0woad","6151c8ea2f7b31bdda93807d","fixation","img/fixation.png","null","","test","","","","","",""
"391","187618","pSARL_v2","pSARL_v22ff0woad","6151c8ea2f7b31bdda93807d","freq","img/green_2bandit_b2.png","70","70","test","1","61","61","3","",""
"null","188042","pSARL_v2","pSARL_v22ff0woad","6151c8ea2f7b31bdda93807d","freq_resp","img/green_2bandit_b.png","70","70","test","","","","3","",""
"null","188205","pSARL_v2","pSARL_v22ff0woad","6151c8ea2f7b31bdda93807d","fixation","img/fixation.png","null","","test","","","","","",""
"353","188562","pSARL_v2","pSARL_v22ff0woad","6151c8ea2f7b31bdda93807d","freq","img/green_2bandit_b2.png","70","70","test","1","62","62","3","",""
"null","189030","pSARL_v2","pSARL_v22ff0woad","6151c8ea2f7b31bdda93807d","freq_resp","img/green_2bandit_b.png","70","70","test","","","","3","",""
"null","189193","pSARL_v2","pSARL_v22ff0woad","6151c8ea2f7b31bdda93807d","fixation","img/fixation.png","null","","test","","","","","",""
"357","189554","pSARL_v2","pSARL_v22ff0woad","6151c8ea2f7b31bdda93807d","freq","img/green_2bandit_b2.png","70","70","test","1","63","63","3","",""
"null","190012","pSARL_v2","pSARL_v22ff0woad","6151c8ea2f7b31bdda93807d","freq_resp","img/green_2bandit_b.png","70","70","test","","","","3","",""
"null","190165","pSARL_v2","pSARL_v22ff0woad","6151c8ea2f7b31bdda93807d","fixation","img/fixation.png","null","","test","","","","","",""
"329","190498","pSARL_v2","pSARL_v22ff0woad","6151c8ea2f7b31bdda93807d","freq","img/green_2bandit_b2.png","70","70","test","1","64","64","3","",""
"null","190985","pSARL_v2","pSARL_v22ff0woad","6151c8ea2f7b31bdda93807d","freq_resp","img/green_2bandit_b.png","70","70","test","","","","3","",""
"null","191138","pSARL_v2","pSARL_v22ff0woad","6151c8ea2f7b31bdda93807d","fixation","img/fixation.png","null","","test","","","","","",""
"500","191642","pSARL_v2","pSARL_v22ff0woad","6151c8ea2f7b31bdda93807d","reward","img/slot.png","74","","test","","","","","",""
"null","192407","pSARL_v2","pSARL_v22ff0woad","6151c8ea2f7b31bdda93807d","points","<div class=""verylowPoints""> -7 </div>","null","na","test","","","","3","-7","2"
"528","192937","pSARL_v2","pSARL_v22ff0woad","6151c8ea2f7b31bdda93807d","freq","img/green_2bandit_b2.png","70","70","test","1","65","65","4","",""
"null","193226","pSARL_v2","pSARL_v22ff0woad","6151c8ea2f7b31bdda93807d","freq_resp","img/green_2bandit_b.png","70","70","test","","","","4","",""
"null","193379","pSARL_v2","pSARL_v22ff0woad","6151c8ea2f7b31bdda93807d","fixation","img/fixation.png","null","","test","","","","","",""
"524","193906","pSARL_v2","pSARL_v22ff0woad","6151c8ea2f7b31bdda93807d","freq","img/green_2bandit_b2.png","70","70","test","1","66","66","4","",""
"null","194198","pSARL_v2","pSARL_v22ff0woad","6151c8ea2f7b31bdda93807d","freq_resp","img/green_2bandit_b.png","70","70","test","","","","4","",""
"null","194352","pSARL_v2","pSARL_v22ff0woad","6151c8ea2f7b31bdda93807d","fixation","img/fixation.png","null","","test","","","","","",""
"550","194906","pSARL_v2","pSARL_v22ff0woad","6151c8ea2f7b31bdda93807d","freq","img/green_2bandit_b2.png","70","70","test","1","67","67","4","",""
"null","195170","pSARL_v2","pSARL_v22ff0woad","6151c8ea2f7b31bdda93807d","freq_resp","img/green_2bandit_b.png","70","70","test","","","","4","",""
"null","195333","pSARL_v2","pSARL_v22ff0woad","6151c8ea2f7b31bdda93807d","fixation","img/fixation.png","null","","test","","","","","",""
"400","195737","pSARL_v2","pSARL_v22ff0woad","6151c8ea2f7b31bdda93807d","freq","img/green_2bandit_b2.png","70","70","test","1","68","68","4","",""
"null","196142","pSARL_v2","pSARL_v22ff0woad","6151c8ea2f7b31bdda93807d","freq_resp","img/green_2bandit_b.png","70","70","test","","","","4","",""
"null","196296","pSARL_v2","pSARL_v22ff0woad","6151c8ea2f7b31bdda93807d","fixation","img/fixation.png","null","","test","","","","","",""
"366","196665","pSARL_v2","pSARL_v22ff0woad","6151c8ea2f7b31bdda93807d","freq","img/green_2bandit_b2.png","70","70","test","1","69","69","4","",""
"null","197115","pSARL_v2","pSARL_v22ff0woad","6151c8ea2f7b31bdda93807d","freq_resp","img/green_2bandit_b.png","70","70","test","","","","4","",""
"null","197284","pSARL_v2","pSARL_v22ff0woad","6151c8ea2f7b31bdda93807d","fixation","img/fixation.png","null","","test","","","","","",""
"338","197625","pSARL_v2","pSARL_v22ff0woad","6151c8ea2f7b31bdda93807d","freq","img/green_2bandit_b2.png","70","70","test","1","70","70","4","",""
"null","198104","pSARL_v2","pSARL_v22ff0woad","6151c8ea2f7b31bdda93807d","freq_resp","img/green_2bandit_b.png","70","70","test","","","","4","",""
"null","198273","pSARL_v2","pSARL_v22ff0woad","6151c8ea2f7b31bdda93807d","fixation","img/fixation.png","null","","test","","","","","",""
"349","198625","pSARL_v2","pSARL_v22ff0woad","6151c8ea2f7b31bdda93807d","freq","img/green_2bandit_b2.png","70","70","test","1","71","71","4","",""
"null","199122","pSARL_v2","pSARL_v22ff0woad","6151c8ea2f7b31bdda93807d","freq_resp","img/green_2bandit_b.png","70","70","test","","","","4","",""
"null","199276","pSARL_v2","pSARL_v22ff0woad","6151c8ea2f7b31bdda93807d","fixation","img/fixation.png","null","","test","","","","","",""
"331","199609","pSARL_v2","pSARL_v22ff0woad","6151c8ea2f7b31bdda93807d","freq","img/green_2bandit_b2.png","70","70","test","1","72","72","4","",""
"null","200094","pSARL_v2","pSARL_v22ff0woad","6151c8ea2f7b31bdda93807d","freq_resp","img/green_2bandit_b.png","70","70","test","","","","4","",""
"null","200254","pSARL_v2","pSARL_v22ff0woad","6151c8ea2f7b31bdda93807d","fixation","img/fixation.png","null","","test","","","","","",""
"255","200513","pSARL_v2","pSARL_v22ff0woad","6151c8ea2f7b31bdda93807d","freq","img/green_2bandit_b2.png","70","70","test","1","73","73","4","",""
"null","201084","pSARL_v2","pSARL_v22ff0woad","6151c8ea2f7b31bdda93807d","freq_resp","img/green_2bandit_b.png","70","70","test","","","","4","",""
"null","201246","pSARL_v2","pSARL_v22ff0woad","6151c8ea2f7b31bdda93807d","fixation","img/fixation.png","null","","test","","","","","",""
"336","201585","pSARL_v2","pSARL_v22ff0woad","6151c8ea2f7b31bdda93807d","freq","img/green_2bandit_b2.png","70","70","test","1","74","74","4","",""
"null","202065","pSARL_v2","pSARL_v22ff0woad","6151c8ea2f7b31bdda93807d","freq_resp","img/green_2bandit_b.png","70","70","test","","","","4","",""
"null","202218","pSARL_v2","pSARL_v22ff0woad","6151c8ea2f7b31bdda93807d","fixation","img/fixation.png","null","","test","","","","","",""
"451","202673","pSARL_v2","pSARL_v22ff0woad","6151c8ea2f7b31bdda93807d","infreq","img/orange_2bandit_b2.png","68","68","test","1","75","75","4","",""
"null","203037","pSARL_v2","pSARL_v22ff0woad","6151c8ea2f7b31bdda93807d","infreq_resp","img/orange_2bandit_b.png","68","68","test","","","","4","",""
"null","203191","pSARL_v2","pSARL_v22ff0woad","6151c8ea2f7b31bdda93807d","fixation","img/fixation.png","null","","test","","","","","",""
"398","203593","pSARL_v2","pSARL_v22ff0woad","6151c8ea2f7b31bdda93807d","freq","img/green_2bandit_b2.png","70","70","test","1","76","76","4","",""
"null","204011","pSARL_v2","pSARL_v22ff0woad","6151c8ea2f7b31bdda93807d","freq_resp","img/green_2bandit_b.png","70","70","test","","","","4","",""
"null","204173","pSARL_v2","pSARL_v22ff0woad","6151c8ea2f7b31bdda93807d","fixation","img/fixation.png","null","","test","","","","","",""
"416","204594","pSARL_v2","pSARL_v22ff0woad","6151c8ea2f7b31bdda93807d","freq","img/green_2bandit_b2.png","70","70","test","1","77","77","4","",""
"null","204998","pSARL_v2","pSARL_v22ff0woad","6151c8ea2f7b31bdda93807d","freq_resp","img/green_2bandit_b.png","70","70","test","","","","4","",""
"null","205161","pSARL_v2","pSARL_v22ff0woad","6151c8ea2f7b31bdda93807d","fixation","img/fixation.png","null","","test","","","","","",""
"404","205569","pSARL_v2","pSARL_v22ff0woad","6151c8ea2f7b31bdda93807d","freq","img/green_2bandit_b2.png","70","70","test","1","78","78","4","",""
"null","205980","pSARL_v2","pSARL_v22ff0woad","6151c8ea2f7b31bdda93807d","freq_resp","img/green_2bandit_b.png","70","70","test","","","","4","",""
"null","206133","pSARL_v2","pSARL_v22ff0woad","6151c8ea2f7b31bdda93807d","fixation","img/fixation.png","null","","test","","","","","",""
"368","206505","pSARL_v2","pSARL_v22ff0woad","6151c8ea2f7b31bdda93807d","infreq","img/orange_2bandit_b2.png","70","68","test","0","79","79","4","",""
"null","206952","pSARL_v2","pSARL_v22ff0woad","6151c8ea2f7b31bdda93807d","infreq_resp","img/orange_2bandit_b.png","70","68","test","","","","4","",""
"null","207106","pSARL_v2","pSARL_v22ff0woad","6151c8ea2f7b31bdda93807d","fixation","img/fixation.png","null","","test","","","","","",""
"420","207529","pSARL_v2","pSARL_v22ff0woad","6151c8ea2f7b31bdda93807d","freq","img/green_2bandit_b2.png","70","70","test","1","80","80","4","",""
"null","207925","pSARL_v2","pSARL_v22ff0woad","6151c8ea2f7b31bdda93807d","freq_resp","img/green_2bandit_b.png","70","70","test","","","","4","",""
"null","208088","pSARL_v2","pSARL_v22ff0woad","6151c8ea2f7b31bdda93807d","fixation","img/fixation.png","null","","test","","","","","",""
"429","208522","pSARL_v2","pSARL_v22ff0woad","6151c8ea2f7b31bdda93807d","freq","img/green_2bandit_b2.png","70","70","test","1","81","81","4","",""
"null","208914","pSARL_v2","pSARL_v22ff0woad","6151c8ea2f7b31bdda93807d","freq_resp","img/green_2bandit_b.png","70","70","test","","","","4","",""
"null","209077","pSARL_v2","pSARL_v22ff0woad","6151c8ea2f7b31bdda93807d","fixation","img/fixation.png","null","","test","","","","","",""
"409","209490","pSARL_v2","pSARL_v22ff0woad","6151c8ea2f7b31bdda93807d","freq","img/green_2bandit_b2.png","70","70","test","1","82","82","4","",""
"null","209896","pSARL_v2","pSARL_v22ff0woad","6151c8ea2f7b31bdda93807d","freq_resp","img/green_2bandit_b.png","70","70","test","","","","4","",""
"null","210065","pSARL_v2","pSARL_v22ff0woad","6151c8ea2f7b31bdda93807d","fixation","img/fixation.png","null","","test","","","","","",""
"391","210457","pSARL_v2","pSARL_v22ff0woad","6151c8ea2f7b31bdda93807d","freq","img/green_2bandit_b2.png","70","70","test","1","83","83","4","",""
"null","210883","pSARL_v2","pSARL_v22ff0woad","6151c8ea2f7b31bdda93807d","freq_resp","img/green_2bandit_b.png","70","70","test","","","","4","",""
"null","211053","pSARL_v2","pSARL_v22ff0woad","6151c8ea2f7b31bdda93807d","fixation","img/fixation.png","null","","test","","","","","",""
"346","211402","pSARL_v2","pSARL_v22ff0woad","6151c8ea2f7b31bdda93807d","freq","img/green_2bandit_b2.png","70","70","test","1","84","84","4","",""
"null","211902","pSARL_v2","pSARL_v22ff0woad","6151c8ea2f7b31bdda93807d","freq_resp","img/green_2bandit_b.png","70","70","test","","","","4","",""
"null","212057","pSARL_v2","pSARL_v22ff0woad","6151c8ea2f7b31bdda93807d","fixation","img/fixation.png","null","","test","","","","","",""
"374","212433","pSARL_v2","pSARL_v22ff0woad","6151c8ea2f7b31bdda93807d","freq","img/green_2bandit_b2.png","70","70","test","1","85","85","4","",""
"null","212875","pSARL_v2","pSARL_v22ff0woad","6151c8ea2f7b31bdda93807d","freq_resp","img/green_2bandit_b.png","70","70","test","","","","4","",""
"null","213029","pSARL_v2","pSARL_v22ff0woad","6151c8ea2f7b31bdda93807d","fixation","img/fixation.png","null","","test","","","","","",""
"377","213409","pSARL_v2","pSARL_v22ff0woad","6151c8ea2f7b31bdda93807d","freq","img/green_2bandit_b2.png","70","70","test","1","86","86","4","",""
"null","213854","pSARL_v2","pSARL_v22ff0woad","6151c8ea2f7b31bdda93807d","freq_resp","img/green_2bandit_b.png","70","70","test","","","","4","",""
"null","214017","pSARL_v2","pSARL_v22ff0woad","6151c8ea2f7b31bdda93807d","fixation","img/fixation.png","null","","test","","","","","",""
"316","214338","pSARL_v2","pSARL_v22ff0woad","6151c8ea2f7b31bdda93807d","freq","img/green_2bandit_b2.png","70","70","test","1","87","87","4","",""
"null","214825","pSARL_v2","pSARL_v22ff0woad","6151c8ea2f7b31bdda93807d","freq_resp","img/green_2bandit_b.png","70","70","test","","","","4","",""
"null","214979","pSARL_v2","pSARL_v22ff0woad","6151c8ea2f7b31bdda93807d","fixation","img/fixation.png","null","","test","","","","","",""
"379","215361","pSARL_v2","pSARL_v22ff0woad","6151c8ea2f7b31bdda93807d","freq","img/green_2bandit_b2.png","70","70","test","1","88","88","4","",""
"null","215798","pSARL_v2","pSARL_v22ff0woad","6151c8ea2f7b31bdda93807d","freq_resp","img/green_2bandit_b.png","70","70","test","","","","4","",""
"null","215968","pSARL_v2","pSARL_v22ff0woad","6151c8ea2f7b31bdda93807d","fixation","img/fixation.png","null","","test","","","","","",""
"438","216409","pSARL_v2","pSARL_v22ff0woad","6151c8ea2f7b31bdda93807d","reward","img/slot.png","74","","test","","","","","",""
"null","217173","pSARL_v2","pSARL_v22ff0woad","6151c8ea2f7b31bdda93807d","points","<div class=""verylowPoints""> -3 </div>","null","na","test","","","","4","-3","3"
"408","217585","pSARL_v2","pSARL_v22ff0woad","6151c8ea2f7b31bdda93807d","freq","img/green_2bandit_b2.png","70","70","test","1","89","89","5","",""
"null","217991","pSARL_v2","pSARL_v22ff0woad","6151c8ea2f7b31bdda93807d","freq_resp","img/green_2bandit_b.png","70","70","test","","","","5","",""
"null","218154","pSARL_v2","pSARL_v22ff0woad","6151c8ea2f7b31bdda93807d","fixation","img/fixation.png","null","","test","","","","","",""
"435","218593","pSARL_v2","pSARL_v22ff0woad","6151c8ea2f7b31bdda93807d","freq","img/green_2bandit_b2.png","70","70","test","1","90","90","5","",""
"null","218964","pSARL_v2","pSARL_v22ff0woad","6151c8ea2f7b31bdda93807d","freq_resp","img/green_2bandit_b.png","70","70","test","","","","5","",""
"null","219127","pSARL_v2","pSARL_v22ff0woad","6151c8ea2f7b31bdda93807d","fixation","img/fixation.png","null","","test","","","","","",""
"366","219497","pSARL_v2","pSARL_v22ff0woad","6151c8ea2f7b31bdda93807d","freq","img/green_2bandit_b2.png","70","70","test","1","91","91","5","",""
"null","219947","pSARL_v2","pSARL_v22ff0woad","6151c8ea2f7b31bdda93807d","freq_resp","img/green_2bandit_b.png","70","70","test","","","","5","",""
"null","220100","pSARL_v2","pSARL_v22ff0woad","6151c8ea2f7b31bdda93807d","fixation","img/fixation.png","null","","test","","","","","",""
"345","220449","pSARL_v2","pSARL_v22ff0woad","6151c8ea2f7b31bdda93807d","freq","img/green_2bandit_b2.png","70","70","test","1","92","92","5","",""
"null","220920","pSARL_v2","pSARL_v22ff0woad","6151c8ea2f7b31bdda93807d","freq_resp","img/green_2bandit_b.png","70","70","test","","","","5","",""
"null","221090","pSARL_v2","pSARL_v22ff0woad","6151c8ea2f7b31bdda93807d","fixation","img/fixation.png","null","","test","","","","","",""
"381","221474","pSARL_v2","pSARL_v22ff0woad","6151c8ea2f7b31bdda93807d","freq","img/green_2bandit_b2.png","70","70","test","1","93","93","5","",""
"null","221909","pSARL_v2","pSARL_v22ff0woad","6151c8ea2f7b31bdda93807d","freq_resp","img/green_2bandit_b.png","70","70","test","","","","5","",""
"null","222071","pSARL_v2","pSARL_v22ff0woad","6151c8ea2f7b31bdda93807d","fixation","img/fixation.png","null","","test","","","","","",""
"343","222418","pSARL_v2","pSARL_v22ff0woad","6151c8ea2f7b31bdda93807d","freq","img/green_2bandit_b2.png","70","70","test","1","94","94","5","",""
"null","222897","pSARL_v2","pSARL_v22ff0woad","6151c8ea2f7b31bdda93807d","freq_resp","img/green_2bandit_b.png","70","70","test","","","","5","",""
"null","223060","pSARL_v2","pSARL_v22ff0woad","6151c8ea2f7b31bdda93807d","fixation","img/fixation.png","null","","test","","","","","",""
"339","223402","pSARL_v2","pSARL_v22ff0woad","6151c8ea2f7b31bdda93807d","freq","img/green_2bandit_b2.png","70","70","test","1","95","95","5","",""
"null","223877","pSARL_v2","pSARL_v22ff0woad","6151c8ea2f7b31bdda93807d","freq_resp","img/green_2bandit_b.png","70","70","test","","","","5","",""
"null","224031","pSARL_v2","pSARL_v22ff0woad","6151c8ea2f7b31bdda93807d","fixation","img/fixation.png","null","","test","","","","","",""
"334","224369","pSARL_v2","pSARL_v22ff0woad","6151c8ea2f7b31bdda93807d","freq","img/green_2bandit_b2.png","70","70","test","1","96","96","5","",""
"null","224850","pSARL_v2","pSARL_v22ff0woad","6151c8ea2f7b31bdda93807d","freq_resp","img/green_2bandit_b.png","70","70","test","","","","5","",""
"null","225004","pSARL_v2","pSARL_v22ff0woad","6151c8ea2f7b31bdda93807d","fixation","img/fixation.png","null","","test","","","","","",""
"347","225354","pSARL_v2","pSARL_v22ff0woad","6151c8ea2f7b31bdda93807d","freq","img/green_2bandit_b2.png","70","70","test","1","97","97","5","",""
"null","225823","pSARL_v2","pSARL_v22ff0woad","6151c8ea2f7b31bdda93807d","freq_resp","img/green_2bandit_b.png","70","70","test","","","","5","",""
"null","225982","pSARL_v2","pSARL_v22ff0woad","6151c8ea2f7b31bdda93807d","fixation","img/fixation.png","null","","test","","","","","",""
"343","226330","pSARL_v2","pSARL_v22ff0woad","6151c8ea2f7b31bdda93807d","freq","img/green_2bandit_b2.png","70","70","test","1","98","98","5","",""
"null","226812","pSARL_v2","pSARL_v22ff0woad","6151c8ea2f7b31bdda93807d","freq_resp","img/green_2bandit_b.png","70","70","test","","","","5","",""
"null","226974","pSARL_v2","pSARL_v22ff0woad","6151c8ea2f7b31bdda93807d","fixation","img/fixation.png","null","","test","","","","","",""
"440","227416","pSARL_v2","pSARL_v22ff0woad","6151c8ea2f7b31bdda93807d","infreq","img/orange_2bandit_b2.png","68","68","test","1","99","99","5","",""
"null","227794","pSARL_v2","pSARL_v22ff0woad","6151c8ea2f7b31bdda93807d","infreq_resp","img/orange_2bandit_b.png","68","68","test","","","","5","",""
"null","227947","pSARL_v2","pSARL_v22ff0woad","6151c8ea2f7b31bdda93807d","fixation","img/fixation.png","null","","test","","","","","",""
"442","228394","pSARL_v2","pSARL_v22ff0woad","6151c8ea2f7b31bdda93807d","infreq","img/orange_2bandit_b2.png","68","68","test","1","100","100","5","",""
"null","228767","pSARL_v2","pSARL_v22ff0woad","6151c8ea2f7b31bdda93807d","infreq_resp","img/orange_2bandit_b.png","68","68","test","","","","5","",""
"null","228936","pSARL_v2","pSARL_v22ff0woad","6151c8ea2f7b31bdda93807d","fixation","img/fixation.png","null","","test","","","","","",""
"430","229369","pSARL_v2","pSARL_v22ff0woad","6151c8ea2f7b31bdda93807d","freq","img/green_2bandit_b2.png","70","70","test","1","101","101","5","",""
"null","229754","pSARL_v2","pSARL_v22ff0woad","6151c8ea2f7b31bdda93807d","freq_resp","img/green_2bandit_b.png","70","70","test","","","","5","",""
"null","229923","pSARL_v2","pSARL_v22ff0woad","6151c8ea2f7b31bdda93807d","fixation","img/fixation.png","null","","test","","","","","",""
"339","230265","pSARL_v2","pSARL_v22ff0woad","6151c8ea2f7b31bdda93807d","freq","img/green_2bandit_b2.png","70","70","test","1","102","102","5","",""
"null","230743","pSARL_v2","pSARL_v22ff0woad","6151c8ea2f7b31bdda93807d","freq_resp","img/green_2bandit_b.png","70","70","test","","","","5","",""
"null","230905","pSARL_v2","pSARL_v22ff0woad","6151c8ea2f7b31bdda93807d","fixation","img/fixation.png","null","","test","","","","","",""
"356","231265","pSARL_v2","pSARL_v22ff0woad","6151c8ea2f7b31bdda93807d","freq","img/green_2bandit_b2.png","70","70","test","1","103","103","5","",""
"null","231732","pSARL_v2","pSARL_v22ff0woad","6151c8ea2f7b31bdda93807d","freq_resp","img/green_2bandit_b.png","70","70","test","","","","5","",""
"null","231894","pSARL_v2","pSARL_v22ff0woad","6151c8ea2f7b31bdda93807d","fixation","img/fixation.png","null","","test","","","","","",""
"343","232241","pSARL_v2","pSARL_v22ff0woad","6151c8ea2f7b31bdda93807d","freq","img/green_2bandit_b2.png","70","70","test","1","104","104","5","",""
"null","232713","pSARL_v2","pSARL_v22ff0woad","6151c8ea2f7b31bdda93807d","freq_resp","img/green_2bandit_b.png","70","70","test","","","","5","",""
"null","232867","pSARL_v2","pSARL_v22ff0woad","6151c8ea2f7b31bdda93807d","fixation","img/fixation.png","null","","test","","","","","",""
"339","233209","pSARL_v2","pSARL_v22ff0woad","6151c8ea2f7b31bdda93807d","freq","img/green_2bandit_b2.png","70","70","test","1","105","105","5","",""
"null","233686","pSARL_v2","pSARL_v22ff0woad","6151c8ea2f7b31bdda93807d","freq_resp","img/green_2bandit_b.png","70","70","test","","","","5","",""
"null","233840","pSARL_v2","pSARL_v22ff0woad","6151c8ea2f7b31bdda93807d","fixation","img/fixation.png","null","","test","","","","","",""
"358","234201","pSARL_v2","pSARL_v22ff0woad","6151c8ea2f7b31bdda93807d","freq","img/green_2bandit_b2.png","70","70","test","1","106","106","5","",""
"null","234658","pSARL_v2","pSARL_v22ff0woad","6151c8ea2f7b31bdda93807d","freq_resp","img/green_2bandit_b.png","70","70","test","","","","5","",""
"null","234822","pSARL_v2","pSARL_v22ff0woad","6151c8ea2f7b31bdda93807d","fixation","img/fixation.png","null","","test","","","","","",""
"353","235177","pSARL_v2","pSARL_v22ff0woad","6151c8ea2f7b31bdda93807d","freq","img/green_2bandit_b2.png","70","70","test","1","107","107","5","",""
"null","235648","pSARL_v2","pSARL_v22ff0woad","6151c8ea2f7b31bdda93807d","freq_resp","img/green_2bandit_b.png","70","70","test","","","","5","",""
"null","235810","pSARL_v2","pSARL_v22ff0woad","6151c8ea2f7b31bdda93807d","fixation","img/fixation.png","null","","test","","","","","",""
"403","236218","pSARL_v2","pSARL_v22ff0woad","6151c8ea2f7b31bdda93807d","freq","img/green_2bandit_b2.png","70","70","test","1","108","108","5","",""
"null","236630","pSARL_v2","pSARL_v22ff0woad","6151c8ea2f7b31bdda93807d","freq_resp","img/green_2bandit_b.png","70","70","test","","","","5","",""
"null","236783","pSARL_v2","pSARL_v22ff0woad","6151c8ea2f7b31bdda93807d","fixation","img/fixation.png","null","","test","","","","","",""
"454","237242","pSARL_v2","pSARL_v22ff0woad","6151c8ea2f7b31bdda93807d","freq","img/green_2bandit_b2.png","70","70","test","1","109","109","5","",""
"null","237603","pSARL_v2","pSARL_v22ff0woad","6151c8ea2f7b31bdda93807d","freq_resp","img/green_2bandit_b.png","70","70","test","","","","5","",""
"null","237756","pSARL_v2","pSARL_v22ff0woad","6151c8ea2f7b31bdda93807d","fixation","img/fixation.png","null","","test","","","","","",""
"386","238146","pSARL_v2","pSARL_v22ff0woad","6151c8ea2f7b31bdda93807d","freq","img/green_2bandit_b2.png","70","70","test","1","110","110","5","",""
"null","238576","pSARL_v2","pSARL_v22ff0woad","6151c8ea2f7b31bdda93807d","freq_resp","img/green_2bandit_b.png","70","70","test","","","","5","",""
"null","238738","pSARL_v2","pSARL_v22ff0woad","6151c8ea2f7b31bdda93807d","fixation","img/fixation.png","null","","test","","","","","",""
"363","239105","pSARL_v2","pSARL_v22ff0woad","6151c8ea2f7b31bdda93807d","freq","img/green_2bandit_b2.png","70","70","test","1","111","111","5","",""
"null","239564","pSARL_v2","pSARL_v22ff0woad","6151c8ea2f7b31bdda93807d","freq_resp","img/green_2bandit_b.png","70","70","test","","","","5","",""
"null","239727","pSARL_v2","pSARL_v22ff0woad","6151c8ea2f7b31bdda93807d","fixation","img/fixation.png","null","","test","","","","","",""
"480","240210","pSARL_v2","pSARL_v22ff0woad","6151c8ea2f7b31bdda93807d","reward","img/slot.png","74","","test","","","","","",""
"null","240969","pSARL_v2","pSARL_v22ff0woad","6151c8ea2f7b31bdda93807d","points","<div class=""veryhighPoints""> +1 </div>","null","na","test","","","","5","1","4"
"420","241393","pSARL_v2","pSARL_v22ff0woad","6151c8ea2f7b31bdda93807d","freq","img/green_2bandit_b2.png","70","70","test","1","112","112","6","",""
"null","241778","pSARL_v2","pSARL_v22ff0woad","6151c8ea2f7b31bdda93807d","freq_resp","img/green_2bandit_b.png","70","70","test","","","","6","",""
"null","241941","pSARL_v2","pSARL_v22ff0woad","6151c8ea2f7b31bdda93807d","fixation","img/fixation.png","null","","test","","","","","",""
"337","242282","pSARL_v2","pSARL_v22ff0woad","6151c8ea2f7b31bdda93807d","freq","img/green_2bandit_b2.png","70","70","test","1","113","113","6","",""
"null","242760","pSARL_v2","pSARL_v22ff0woad","6151c8ea2f7b31bdda93807d","freq_resp","img/green_2bandit_b.png","70","70","test","","","","6","",""
"null","242913","pSARL_v2","pSARL_v22ff0woad","6151c8ea2f7b31bdda93807d","fixation","img/fixation.png","null","","test","","","","","",""
"310","243226","pSARL_v2","pSARL_v22ff0woad","6151c8ea2f7b31bdda93807d","freq","img/green_2bandit_b2.png","70","70","test","1","114","114","6","",""
"null","243732","pSARL_v2","pSARL_v22ff0woad","6151c8ea2f7b31bdda93807d","freq_resp","img/green_2bandit_b.png","70","70","test","","","","6","",""
"null","243886","pSARL_v2","pSARL_v22ff0woad","6151c8ea2f7b31bdda93807d","fixation","img/fixation.png","null","","test","","","","","",""
"232","244122","pSARL_v2","pSARL_v22ff0woad","6151c8ea2f7b31bdda93807d","freq","img/green_2bandit_b2.png","70","70","test","1","115","115","6","",""
"null","244705","pSARL_v2","pSARL_v22ff0woad","6151c8ea2f7b31bdda93807d","freq_resp","img/green_2bandit_b.png","70","70","test","","","","6","",""
"null","244868","pSARL_v2","pSARL_v22ff0woad","6151c8ea2f7b31bdda93807d","fixation","img/fixation.png","null","","test","","","","","",""
"298","245170","pSARL_v2","pSARL_v22ff0woad","6151c8ea2f7b31bdda93807d","infreq","img/orange_2bandit_b2.png","70","68","test","0","116","116","6","",""
"null","245693","pSARL_v2","pSARL_v22ff0woad","6151c8ea2f7b31bdda93807d","infreq_resp","img/orange_2bandit_b.png","70","68","test","","","","6","",""
"null","245856","pSARL_v2","pSARL_v22ff0woad","6151c8ea2f7b31bdda93807d","fixation","img/fixation.png","null","","test","","","","","",""
"334","246193","pSARL_v2","pSARL_v22ff0woad","6151c8ea2f7b31bdda93807d","freq","img/green_2bandit_b2.png","70","70","test","1","117","117","6","",""
"null","246713","pSARL_v2","pSARL_v22ff0woad","6151c8ea2f7b31bdda93807d","freq_resp","img/green_2bandit_b.png","70","70","test","","","","6","",""
"null","246876","pSARL_v2","pSARL_v22ff0woad","6151c8ea2f7b31bdda93807d","fixation","img/fixation.png","null","","test","","","","","",""
"337","247217","pSARL_v2","pSARL_v22ff0woad","6151c8ea2f7b31bdda93807d","freq","img/green_2bandit_b2.png","70","70","test","1","118","118","6","",""
"null","247702","pSARL_v2","pSARL_v22ff0woad","6151c8ea2f7b31bdda93807d","freq_resp","img/green_2bandit_b.png","70","70","test","","","","6","",""
"null","247865","pSARL_v2","pSARL_v22ff0woad","6151c8ea2f7b31bdda93807d","fixation","img/fixation.png","null","","test","","","","","",""
"374","248241","pSARL_v2","pSARL_v22ff0woad","6151c8ea2f7b31bdda93807d","freq","img/green_2bandit_b2.png","70","70","test","1","119","119","6","",""
"null","248722","pSARL_v2","pSARL_v22ff0woad","6151c8ea2f7b31bdda93807d","freq_resp","img/green_2bandit_b.png","70","70","test","","","","6","",""
"null","248884","pSARL_v2","pSARL_v22ff0woad","6151c8ea2f7b31bdda93807d","fixation","img/fixation.png","null","","test","","","","","",""
"354","249241","pSARL_v2","pSARL_v22ff0woad","6151c8ea2f7b31bdda93807d","freq","img/green_2bandit_b2.png","70","70","test","1","120","120","6","",""
"null","249709","pSARL_v2","pSARL_v22ff0woad","6151c8ea2f7b31bdda93807d","freq_resp","img/green_2bandit_b.png","70","70","test","","","","6","",""
"null","249871","pSARL_v2","pSARL_v22ff0woad","6151c8ea2f7b31bdda93807d","fixation","img/fixation.png","null","","test","","","","","",""
"350","250225","pSARL_v2","pSARL_v22ff0woad","6151c8ea2f7b31bdda93807d","freq","img/green_2bandit_b2.png","70","70","test","1","121","121","6","",""
"null","250728","pSARL_v2","pSARL_v22ff0woad","6151c8ea2f7b31bdda93807d","freq_resp","img/green_2bandit_b.png","70","70","test","","","","6","",""
"null","250891","pSARL_v2","pSARL_v22ff0woad","6151c8ea2f7b31bdda93807d","fixation","img/fixation.png","null","","test","","","","","",""
"314","251209","pSARL_v2","pSARL_v22ff0woad","6151c8ea2f7b31bdda93807d","infreq","img/orange_2bandit_b2.png","70","68","test","0","122","122","6","",""
"null","251716","pSARL_v2","pSARL_v22ff0woad","6151c8ea2f7b31bdda93807d","infreq_resp","img/orange_2bandit_b.png","70","68","test","","","","6","",""
"null","251879","pSARL_v2","pSARL_v22ff0woad","6151c8ea2f7b31bdda93807d","fixation","img/fixation.png","null","","test","","","","","",""
"431","252313","pSARL_v2","pSARL_v22ff0woad","6151c8ea2f7b31bdda93807d","freq","img/green_2bandit_b2.png","70","70","test","1","123","123","6","",""
"null","252699","pSARL_v2","pSARL_v22ff0woad","6151c8ea2f7b31bdda93807d","freq_resp","img/green_2bandit_b.png","70","70","test","","","","6","",""
"null","252851","pSARL_v2","pSARL_v22ff0woad","6151c8ea2f7b31bdda93807d","fixation","img/fixation.png","null","","test","","","","","",""
"531","253385","pSARL_v2","pSARL_v22ff0woad","6151c8ea2f7b31bdda93807d","infreq","img/orange_2bandit_b2.png","68","68","test","1","124","124","6","",""
"null","253670","pSARL_v2","pSARL_v22ff0woad","6151c8ea2f7b31bdda93807d","infreq_resp","img/orange_2bandit_b.png","68","68","test","","","","6","",""
"null","253824","pSARL_v2","pSARL_v22ff0woad","6151c8ea2f7b31bdda93807d","fixation","img/fixation.png","null","","test","","","","","",""
"430","254258","pSARL_v2","pSARL_v22ff0woad","6151c8ea2f7b31bdda93807d","freq","img/green_2bandit_b2.png","70","70","test","1","125","125","6","",""
"null","254644","pSARL_v2","pSARL_v22ff0woad","6151c8ea2f7b31bdda93807d","freq_resp","img/green_2bandit_b.png","70","70","test","","","","6","",""
"null","254806","pSARL_v2","pSARL_v22ff0woad","6151c8ea2f7b31bdda93807d","fixation","img/fixation.png","null","","test","","","","","",""
"447","255257","pSARL_v2","pSARL_v22ff0woad","6151c8ea2f7b31bdda93807d","freq","img/green_2bandit_b2.png","70","70","test","1","126","126","6","",""
"null","255631","pSARL_v2","pSARL_v22ff0woad","6151c8ea2f7b31bdda93807d","freq_resp","img/green_2bandit_b.png","70","70","test","","","","6","",""
"null","255794","pSARL_v2","pSARL_v22ff0woad","6151c8ea2f7b31bdda93807d","fixation","img/fixation.png","null","","test","","","","","",""
"395","256194","pSARL_v2","pSARL_v22ff0woad","6151c8ea2f7b31bdda93807d","freq","img/green_2bandit_b2.png","70","70","test","1","127","127","6","",""
"null","256614","pSARL_v2","pSARL_v22ff0woad","6151c8ea2f7b31bdda93807d","freq_resp","img/green_2bandit_b.png","70","70","test","","","","6","",""
"null","256782","pSARL_v2","pSARL_v22ff0woad","6151c8ea2f7b31bdda93807d","fixation","img/fixation.png","null","","test","","","","","",""
"440","257225","pSARL_v2","pSARL_v22ff0woad","6151c8ea2f7b31bdda93807d","freq","img/green_2bandit_b2.png","70","70","test","1","128","128","6","",""
"null","257602","pSARL_v2","pSARL_v22ff0woad","6151c8ea2f7b31bdda93807d","freq_resp","img/green_2bandit_b.png","70","70","test","","","","6","",""
"null","257757","pSARL_v2","pSARL_v22ff0woad","6151c8ea2f7b31bdda93807d","fixation","img/fixation.png","null","","test","","","","","",""
"442","258201","pSARL_v2","pSARL_v22ff0woad","6151c8ea2f7b31bdda93807d","freq","img/green_2bandit_b2.png","70","70","test","1","129","129","6","",""
"null","258575","pSARL_v2","pSARL_v22ff0woad","6151c8ea2f7b31bdda93807d","freq_resp","img/green_2bandit_b.png","70","70","test","","","","6","",""
"null","258729","pSARL_v2","pSARL_v22ff0woad","6151c8ea2f7b31bdda93807d","fixation","img/fixation.png","null","","test","","","","","",""
"373","259105","pSARL_v2","pSARL_v22ff0woad","6151c8ea2f7b31bdda93807d","freq","img/green_2bandit_b2.png","70","70","test","1","130","130","6","",""
"null","259548","pSARL_v2","pSARL_v22ff0woad","6151c8ea2f7b31bdda93807d","freq_resp","img/green_2bandit_b.png","70","70","test","","","","6","",""
"null","259711","pSARL_v2","pSARL_v22ff0woad","6151c8ea2f7b31bdda93807d","fixation","img/fixation.png","null","","test","","","","","",""
"384","260097","pSARL_v2","pSARL_v22ff0woad","6151c8ea2f7b31bdda93807d","freq","img/green_2bandit_b2.png","70","70","test","1","131","131","6","",""
"null","260530","pSARL_v2","pSARL_v22ff0woad","6151c8ea2f7b31bdda93807d","freq_resp","img/green_2bandit_b.png","70","70","test","","","","6","",""
"null","260683","pSARL_v2","pSARL_v22ff0woad","6151c8ea2f7b31bdda93807d","fixation","img/fixation.png","null","","test","","","","","",""
"419","261105","pSARL_v2","pSARL_v22ff0woad","6151c8ea2f7b31bdda93807d","freq","img/green_2bandit_b2.png","70","70","test","1","132","132","6","",""
"null","261501","pSARL_v2","pSARL_v22ff0woad","6151c8ea2f7b31bdda93807d","freq_resp","img/green_2bandit_b.png","70","70","test","","","","6","",""
"null","261655","pSARL_v2","pSARL_v22ff0woad","6151c8ea2f7b31bdda93807d","fixation","img/fixation.png","null","","test","","","","","",""
"431","262089","pSARL_v2","pSARL_v22ff0woad","6151c8ea2f7b31bdda93807d","freq","img/green_2bandit_b2.png","70","70","test","1","133","133","6","",""
"null","262475","pSARL_v2","pSARL_v22ff0woad","6151c8ea2f7b31bdda93807d","freq_resp","img/green_2bandit_b.png","70","70","test","","","","6","",""
"null","262637","pSARL_v2","pSARL_v22ff0woad","6151c8ea2f7b31bdda93807d","fixation","img/fixation.png","null","","test","","","","","",""
"472","263113","pSARL_v2","pSARL_v22ff0woad","6151c8ea2f7b31bdda93807d","reward","img/slot.png","74","","test","","","","","",""
"null","263877","pSARL_v2","pSARL_v22ff0woad","6151c8ea2f7b31bdda93807d","points","<div class=""verylowPoints""> -7 </div>","null","na","test","","","","6","-7","5"
"498","264377","pSARL_v2","pSARL_v22ff0woad","6151c8ea2f7b31bdda93807d","freq","img/green_2bandit_b2.png","70","70","test","1","134","134","7","",""
"null","264695","pSARL_v2","pSARL_v22ff0woad","6151c8ea2f7b31bdda93807d","freq_resp","img/green_2bandit_b.png","70","70","test","","","","7","",""
"null","264858","pSARL_v2","pSARL_v22ff0woad","6151c8ea2f7b31bdda93807d","fixation","img/fixation.png","null","","test","","","","","",""
"412","265273","pSARL_v2","pSARL_v22ff0woad","6151c8ea2f7b31bdda93807d","freq","img/green_2bandit_b2.png","70","70","test","1","135","135","7","",""
"null","265684","pSARL_v2","pSARL_v22ff0woad","6151c8ea2f7b31bdda93807d","freq_resp","img/green_2bandit_b.png","70","70","test","","","","7","",""
"null","265846","pSARL_v2","pSARL_v22ff0woad","6151c8ea2f7b31bdda93807d","fixation","img/fixation.png","null","","test","","","","","",""
"400","266249","pSARL_v2","pSARL_v22ff0woad","6151c8ea2f7b31bdda93807d","freq","img/green_2bandit_b2.png","70","70","test","1","136","136","7","",""
"null","266666","pSARL_v2","pSARL_v22ff0woad","6151c8ea2f7b31bdda93807d","freq_resp","img/green_2bandit_b.png","70","70","test","","","","7","",""
"null","266819","pSARL_v2","pSARL_v22ff0woad","6151c8ea2f7b31bdda93807d","fixation","img/fixation.png","null","","test","","","","","",""
"475","267297","pSARL_v2","pSARL_v22ff0woad","6151c8ea2f7b31bdda93807d","freq","img/green_2bandit_b2.png","70","70","test","1","137","137","7","",""
"null","267638","pSARL_v2","pSARL_v22ff0woad","6151c8ea2f7b31bdda93807d","freq_resp","img/green_2bandit_b.png","70","70","test","","","","7","",""
"null","267791","pSARL_v2","pSARL_v22ff0woad","6151c8ea2f7b31bdda93807d","fixation","img/fixation.png","null","","test","","","","","",""
"375","268170","pSARL_v2","pSARL_v22ff0woad","6151c8ea2f7b31bdda93807d","freq","img/green_2bandit_b2.png","70","70","test","1","138","138","7","",""
"null","268609","pSARL_v2","pSARL_v22ff0woad","6151c8ea2f7b31bdda93807d","freq_resp","img/green_2bandit_b.png","70","70","test","","","","7","",""
"null","268772","pSARL_v2","pSARL_v22ff0woad","6151c8ea2f7b31bdda93807d","fixation","img/fixation.png","null","","test","","","","","",""
"346","269121","pSARL_v2","pSARL_v22ff0woad","6151c8ea2f7b31bdda93807d","freq","img/green_2bandit_b2.png","70","70","test","1","139","139","7","",""
"null","269598","pSARL_v2","pSARL_v22ff0woad","6151c8ea2f7b31bdda93807d","freq_resp","img/green_2bandit_b.png","70","70","test","","","","7","",""
"null","269761","pSARL_v2","pSARL_v22ff0woad","6151c8ea2f7b31bdda93807d","fixation","img/fixation.png","null","","test","","","","","",""
"325","270089","pSARL_v2","pSARL_v22ff0woad","6151c8ea2f7b31bdda93807d","freq","img/green_2bandit_b2.png","70","70","test","1","140","140","7","",""
"null","270580","pSARL_v2","pSARL_v22ff0woad","6151c8ea2f7b31bdda93807d","freq_resp","img/green_2bandit_b.png","70","70","test","","","","7","",""
"null","270733","pSARL_v2","pSARL_v22ff0woad","6151c8ea2f7b31bdda93807d","fixation","img/fixation.png","null","","test","","","","","",""
"296","271033","pSARL_v2","pSARL_v22ff0woad","6151c8ea2f7b31bdda93807d","freq","img/green_2bandit_b2.png","70","70","test","1","141","141","7","",""
"null","271553","pSARL_v2","pSARL_v22ff0woad","6151c8ea2f7b31bdda93807d","freq_resp","img/green_2bandit_b.png","70","70","test","","","","7","",""
"null","271707","pSARL_v2","pSARL_v22ff0woad","6151c8ea2f7b31bdda93807d","fixation","img/fixation.png","null","","test","","","","","",""
"339","272049","pSARL_v2","pSARL_v22ff0woad","6151c8ea2f7b31bdda93807d","freq","img/green_2bandit_b2.png","70","70","test","1","142","142","7","",""
"null","272526","pSARL_v2","pSARL_v22ff0woad","6151c8ea2f7b31bdda93807d","freq_resp","img/green_2bandit_b.png","70","70","test","","","","7","",""
"null","272689","pSARL_v2","pSARL_v22ff0woad","6151c8ea2f7b31bdda93807d","fixation","img/fixation.png","null","","test","","","","","",""
"294","272986","pSARL_v2","pSARL_v22ff0woad","6151c8ea2f7b31bdda93807d","freq","img/green_2bandit_b2.png","70","70","test","1","143","143","7","",""
"null","273515","pSARL_v2","pSARL_v22ff0woad","6151c8ea2f7b31bdda93807d","freq_resp","img/green_2bandit_b.png","70","70","test","","","","7","",""
"null","273677","pSARL_v2","pSARL_v22ff0woad","6151c8ea2f7b31bdda93807d","fixation","img/fixation.png","null","","test","","","","","",""
"201","273881","pSARL_v2","pSARL_v22ff0woad","6151c8ea2f7b31bdda93807d","freq","img/green_2bandit_b2.png","70","70","test","1","144","144","7","",""
"null","274485","pSARL_v2","pSARL_v22ff0woad","6151c8ea2f7b31bdda93807d","freq_resp","img/green_2bandit_b.png","70","70","test","","","","7","",""
"null","274638","pSARL_v2","pSARL_v22ff0woad","6151c8ea2f7b31bdda93807d","fixation","img/fixation.png","null","","test","","","","","",""
"200","274841","pSARL_v2","pSARL_v22ff0woad","6151c8ea2f7b31bdda93807d","freq","img/green_2bandit_b2.png","70","70","test","1","145","145","7","",""
"null","275458","pSARL_v2","pSARL_v22ff0woad","6151c8ea2f7b31bdda93807d","freq_resp","img/green_2bandit_b.png","70","70","test","","","","7","",""
"null","275621","pSARL_v2","pSARL_v22ff0woad","6151c8ea2f7b31bdda93807d","fixation","img/fixation.png","null","","test","","","","","",""
"186","275809","pSARL_v2","pSARL_v22ff0woad","6151c8ea2f7b31bdda93807d","freq","img/green_2bandit_b2.png","70","70","test","1","146","146","7","",""
"null","276446","pSARL_v2","pSARL_v22ff0woad","6151c8ea2f7b31bdda93807d","freq_resp","img/green_2bandit_b.png","70","70","test","","","","7","",""
"null","276609","pSARL_v2","pSARL_v22ff0woad","6151c8ea2f7b31bdda93807d","fixation","img/fixation.png","null","","test","","","","","",""
"181","276793","pSARL_v2","pSARL_v22ff0woad","6151c8ea2f7b31bdda93807d","freq","img/green_2bandit_b2.png","70","70","test","1","147","147","7","",""
"null","277428","pSARL_v2","pSARL_v22ff0woad","6151c8ea2f7b31bdda93807d","freq_resp","img/green_2bandit_b.png","70","70","test","","","","7","",""
"null","277582","pSARL_v2","pSARL_v22ff0woad","6151c8ea2f7b31bdda93807d","fixation","img/fixation.png","null","","test","","","","","",""
"183","277769","pSARL_v2","pSARL_v22ff0woad","6151c8ea2f7b31bdda93807d","freq","img/green_2bandit_b2.png","70","70","test","1","148","148","7","",""
"null","278400","pSARL_v2","pSARL_v22ff0woad","6151c8ea2f7b31bdda93807d","freq_resp","img/green_2bandit_b.png","70","70","test","","","","7","",""
"null","278554","pSARL_v2","pSARL_v22ff0woad","6151c8ea2f7b31bdda93807d","fixation","img/fixation.png","null","","test","","","","","",""
"260","278817","pSARL_v2","pSARL_v22ff0woad","6151c8ea2f7b31bdda93807d","infreq","img/orange_2bandit_b2.png","70","68","test","0","149","149","7","",""
"null","279373","pSARL_v2","pSARL_v22ff0woad","6151c8ea2f7b31bdda93807d","infreq_resp","img/orange_2bandit_b.png","70","68","test","","","","7","",""
"null","279536","pSARL_v2","pSARL_v22ff0woad","6151c8ea2f7b31bdda93807d","fixation","img/fixation.png","null","","test","","","","","",""
"422","279961","pSARL_v2","pSARL_v22ff0woad","6151c8ea2f7b31bdda93807d","infreq","img/orange_2bandit_b2.png","68","68","test","1","150","150","7","",""
"null","280362","pSARL_v2","pSARL_v22ff0woad","6151c8ea2f7b31bdda93807d","infreq_resp","img/orange_2bandit_b.png","68","68","test","","","","7","",""
"null","280525","pSARL_v2","pSARL_v22ff0woad","6151c8ea2f7b31bdda93807d","fixation","img/fixation.png","null","","test","","","","","",""
"514","281042","pSARL_v2","pSARL_v22ff0woad","6151c8ea2f7b31bdda93807d","freq","img/green_2bandit_b2.png","70","70","test","1","151","151","7","",""
"null","281344","pSARL_v2","pSARL_v22ff0woad","6151c8ea2f7b31bdda93807d","freq_resp","img/green_2bandit_b.png","70","70","test","","","","7","",""
"null","281497","pSARL_v2","pSARL_v22ff0woad","6151c8ea2f7b31bdda93807d","fixation","img/fixation.png","null","","test","","","","","",""
"452","281953","pSARL_v2","pSARL_v22ff0woad","6151c8ea2f7b31bdda93807d","freq","img/green_2bandit_b2.png","70","70","test","1","152","152","7","",""
"null","282317","pSARL_v2","pSARL_v22ff0woad","6151c8ea2f7b31bdda93807d","freq_resp","img/green_2bandit_b.png","70","70","test","","","","7","",""
"null","282485","pSARL_v2","pSARL_v22ff0woad","6151c8ea2f7b31bdda93807d","fixation","img/fixation.png","null","","test","","","","","",""
"472","282961","pSARL_v2","pSARL_v22ff0woad","6151c8ea2f7b31bdda93807d","freq","img/green_2bandit_b2.png","70","70","test","1","153","153","7","",""
"null","283304","pSARL_v2","pSARL_v22ff0woad","6151c8ea2f7b31bdda93807d","freq_resp","img/green_2bandit_b.png","70","70","test","","","","7","",""
"null","283468","pSARL_v2","pSARL_v22ff0woad","6151c8ea2f7b31bdda93807d","fixation","img/fixation.png","null","","test","","","","","",""
"443","283913","pSARL_v2","pSARL_v22ff0woad","6151c8ea2f7b31bdda93807d","freq","img/green_2bandit_b2.png","70","70","test","1","154","154","7","",""
"null","284293","pSARL_v2","pSARL_v22ff0woad","6151c8ea2f7b31bdda93807d","freq_resp","img/green_2bandit_b.png","70","70","test","","","","7","",""
"null","284455","pSARL_v2","pSARL_v22ff0woad","6151c8ea2f7b31bdda93807d","fixation","img/fixation.png","null","","test","","","","","",""
"414","284873","pSARL_v2","pSARL_v22ff0woad","6151c8ea2f7b31bdda93807d","freq","img/green_2bandit_b2.png","70","70","test","1","155","155","7","",""
"null","285273","pSARL_v2","pSARL_v22ff0woad","6151c8ea2f7b31bdda93807d","freq_resp","img/green_2bandit_b.png","70","70","test","","","","7","",""
"null","285427","pSARL_v2","pSARL_v22ff0woad","6151c8ea2f7b31bdda93807d","fixation","img/fixation.png","null","","test","","","","","",""
"387","285818","pSARL_v2","pSARL_v22ff0woad","6151c8ea2f7b31bdda93807d","freq","img/green_2bandit_b2.png","70","70","test","1","156","156","7","",""
"null","286246","pSARL_v2","pSARL_v22ff0woad","6151c8ea2f7b31bdda93807d","freq_resp","img/green_2bandit_b.png","70","70","test","","","","7","",""
"null","286400","pSARL_v2","pSARL_v22ff0woad","6151c8ea2f7b31bdda93807d","fixation","img/fixation.png","null","","test","","","","","",""
"398","286802","pSARL_v2","pSARL_v22ff0woad","6151c8ea2f7b31bdda93807d","freq","img/green_2bandit_b2.png","70","70","test","1","157","157","7","",""
"null","287220","pSARL_v2","pSARL_v22ff0woad","6151c8ea2f7b31bdda93807d","freq_resp","img/green_2bandit_b.png","70","70","test","","","","7","",""
"null","287382","pSARL_v2","pSARL_v22ff0woad","6151c8ea2f7b31bdda93807d","fixation","img/fixation.png","null","","test","","","","","",""
"488","287873","pSARL_v2","pSARL_v22ff0woad","6151c8ea2f7b31bdda93807d","reward","img/slot.png","74","","test","","","","","",""
"null","288641","pSARL_v2","pSARL_v22ff0woad","6151c8ea2f7b31bdda93807d","points","<div class=""verylowPoints""> -6 </div>","null","na","test","","","","7","-6","6"
"508","289153","pSARL_v2","pSARL_v22ff0woad","6151c8ea2f7b31bdda93807d","freq","img/green_2bandit_b2.png","70","70","test","1","158","158","8","",""
"null","289460","pSARL_v2","pSARL_v22ff0woad","6151c8ea2f7b31bdda93807d","freq_resp","img/green_2bandit_b.png","70","70","test","","","","8","",""
"null","289629","pSARL_v2","pSARL_v22ff0woad","6151c8ea2f7b31bdda93807d","fixation","img/fixation.png","null","","test","","","","","",""
"545","290177","pSARL_v2","pSARL_v22ff0woad","6151c8ea2f7b31bdda93807d","freq","img/green_2bandit_b2.png","70","70","test","1","159","159","8","",""
"null","290448","pSARL_v2","pSARL_v22ff0woad","6151c8ea2f7b31bdda93807d","freq_resp","img/green_2bandit_b.png","70","70","test","","","","8","",""
"null","290617","pSARL_v2","pSARL_v22ff0woad","6151c8ea2f7b31bdda93807d","fixation","img/fixation.png","null","","test","","","","","",""
"437","291057","pSARL_v2","pSARL_v22ff0woad","6151c8ea2f7b31bdda93807d","freq","img/green_2bandit_b2.png","70","70","test","1","160","160","8","",""
"null","291436","pSARL_v2","pSARL_v22ff0woad","6151c8ea2f7b31bdda93807d","freq_resp","img/green_2bandit_b.png","70","70","test","","","","8","",""
"null","291601","pSARL_v2","pSARL_v22ff0woad","6151c8ea2f7b31bdda93807d","fixation","img/fixation.png","null","","test","","","","","",""
"470","292073","pSARL_v2","pSARL_v22ff0woad","6151c8ea2f7b31bdda93807d","freq","img/green_2bandit_b2.png","70","70","test","1","161","161","8","",""
"null","292425","pSARL_v2","pSARL_v22ff0woad","6151c8ea2f7b31bdda93807d","freq_resp","img/green_2bandit_b.png","70","70","test","","","","8","",""
"null","292587","pSARL_v2","pSARL_v22ff0woad","6151c8ea2f7b31bdda93807d","fixation","img/fixation.png","null","","test","","","","","",""
"642","293234","pSARL_v2","pSARL_v22ff0woad","6151c8ea2f7b31bdda93807d","infreq","img/orange_2bandit_b2.png","68","68","test","1","162","162","8","",""
"null","293406","pSARL_v2","pSARL_v22ff0woad","6151c8ea2f7b31bdda93807d","infreq_resp","img/orange_2bandit_b.png","68","68","test","","","","8","",""
"null","293560","pSARL_v2","pSARL_v22ff0woad","6151c8ea2f7b31bdda93807d","fixation","img/fixation.png","null","","test","","","","","",""
"461","294025","pSARL_v2","pSARL_v22ff0woad","6151c8ea2f7b31bdda93807d","freq","img/green_2bandit_b2.png","70","70","test","1","163","163","8","",""
"null","294379","pSARL_v2","pSARL_v22ff0woad","6151c8ea2f7b31bdda93807d","freq_resp","img/green_2bandit_b.png","70","70","test","","","","8","",""
"null","294534","pSARL_v2","pSARL_v22ff0woad","6151c8ea2f7b31bdda93807d","fixation","img/fixation.png","null","","test","","","","","",""
"440","294977","pSARL_v2","pSARL_v22ff0woad","6151c8ea2f7b31bdda93807d","freq","img/green_2bandit_b2.png","70","70","test","1","164","164","8","",""
"null","295353","pSARL_v2","pSARL_v22ff0woad","6151c8ea2f7b31bdda93807d","freq_resp","img/green_2bandit_b.png","70","70","test","","","","8","",""
"null","295515","pSARL_v2","pSARL_v22ff0woad","6151c8ea2f7b31bdda93807d","fixation","img/fixation.png","null","","test","","","","","",""
"426","295945","pSARL_v2","pSARL_v22ff0woad","6151c8ea2f7b31bdda93807d","freq","img/green_2bandit_b2.png","70","70","test","1","165","165","8","",""
"null","296341","pSARL_v2","pSARL_v22ff0woad","6151c8ea2f7b31bdda93807d","freq_resp","img/green_2bandit_b.png","70","70","test","","","","8","",""
"null","296504","pSARL_v2","pSARL_v22ff0woad","6151c8ea2f7b31bdda93807d","fixation","img/fixation.png","null","","test","","","","","",""
"397","296906","pSARL_v2","pSARL_v22ff0woad","6151c8ea2f7b31bdda93807d","freq","img/green_2bandit_b2.png","70","70","test","1","166","166","8","",""
"null","297324","pSARL_v2","pSARL_v22ff0woad","6151c8ea2f7b31bdda93807d","freq_resp","img/green_2bandit_b.png","70","70","test","","","","8","",""
"null","297477","pSARL_v2","pSARL_v22ff0woad","6151c8ea2f7b31bdda93807d","fixation","img/fixation.png","null","","test","","","","","",""
"386","297866","pSARL_v2","pSARL_v22ff0woad","6151c8ea2f7b31bdda93807d","freq","img/green_2bandit_b2.png","70","70","test","1","167","167","8","",""
"null","298296","pSARL_v2","pSARL_v22ff0woad","6151c8ea2f7b31bdda93807d","freq_resp","img/green_2bandit_b.png","70","70","test","","","","8","",""
"null","298449","pSARL_v2","pSARL_v22ff0woad","6151c8ea2f7b31bdda93807d","fixation","img/fixation.png","null","","test","","","","","",""
"476","298929","pSARL_v2","pSARL_v22ff0woad","6151c8ea2f7b31bdda93807d","freq","img/green_2bandit_b2.png","70","70","test","1","168","168","8","",""
"null","299285","pSARL_v2","pSARL_v22ff0woad","6151c8ea2f7b31bdda93807d","freq_resp","img/green_2bandit_b.png","70","70","test","","","","8","",""
"null","299453","pSARL_v2","pSARL_v22ff0woad","6151c8ea2f7b31bdda93807d","fixation","img/fixation.png","null","","test","","","","","",""
"368","299826","pSARL_v2","pSARL_v22ff0woad","6151c8ea2f7b31bdda93807d","freq","img/green_2bandit_b2.png","70","70","test","1","169","169","8","",""
"null","300320","pSARL_v2","pSARL_v22ff0woad","6151c8ea2f7b31bdda93807d","freq_resp","img/green_2bandit_b.png","70","70","test","","","","8","",""
"null","300489","pSARL_v2","pSARL_v22ff0woad","6151c8ea2f7b31bdda93807d","fixation","img/fixation.png","null","","test","","","","","",""
"373","300865","pSARL_v2","pSARL_v22ff0woad","6151c8ea2f7b31bdda93807d","freq","img/green_2bandit_b2.png","70","70","test","1","170","170","8","",""
"null","301308","pSARL_v2","pSARL_v22ff0woad","6151c8ea2f7b31bdda93807d","freq_resp","img/green_2bandit_b.png","70","70","test","","","","8","",""
"null","301462","pSARL_v2","pSARL_v22ff0woad","6151c8ea2f7b31bdda93807d","fixation","img/fixation.png","null","","test","","","","","",""
"464","301929","pSARL_v2","pSARL_v22ff0woad","6151c8ea2f7b31bdda93807d","infreq","img/orange_2bandit_b2.png","68","68","test","1","171","171","8","",""
"null","302281","pSARL_v2","pSARL_v22ff0woad","6151c8ea2f7b31bdda93807d","infreq_resp","img/orange_2bandit_b.png","68","68","test","","","","8","",""
"null","302443","pSARL_v2","pSARL_v22ff0woad","6151c8ea2f7b31bdda93807d","fixation","img/fixation.png","null","","test","","","","","",""
"442","302889","pSARL_v2","pSARL_v22ff0woad","6151c8ea2f7b31bdda93807d","freq","img/green_2bandit_b2.png","70","70","test","1","172","172","8","",""
"null","303269","pSARL_v2","pSARL_v22ff0woad","6151c8ea2f7b31bdda93807d","freq_resp","img/green_2bandit_b.png","70","70","test","","","","8","",""
"null","303432","pSARL_v2","pSARL_v22ff0woad","6151c8ea2f7b31bdda93807d","fixation","img/fixation.png","null","","test","","","","","",""
"495","303929","pSARL_v2","pSARL_v22ff0woad","6151c8ea2f7b31bdda93807d","freq","img/green_2bandit_b2.png","70","70","test","1","173","173","8","",""
"null","304250","pSARL_v2","pSARL_v22ff0woad","6151c8ea2f7b31bdda93807d","freq_resp","img/green_2bandit_b.png","70","70","test","","","","8","",""
"null","304404","pSARL_v2","pSARL_v22ff0woad","6151c8ea2f7b31bdda93807d","fixation","img/fixation.png","null","","test","","","","","",""
"457","304865","pSARL_v2","pSARL_v22ff0woad","6151c8ea2f7b31bdda93807d","freq","img/green_2bandit_b2.png","70","70","test","1","174","174","8","",""
"null","305223","pSARL_v2","pSARL_v22ff0woad","6151c8ea2f7b31bdda93807d","freq_resp","img/green_2bandit_b.png","70","70","test","","","","8","",""
"null","305377","pSARL_v2","pSARL_v22ff0woad","6151c8ea2f7b31bdda93807d","fixation","img/fixation.png","null","","test","","","","","",""
"429","305809","pSARL_v2","pSARL_v22ff0woad","6151c8ea2f7b31bdda93807d","freq","img/green_2bandit_b2.png","70","70","test","1","175","175","8","",""
"null","306196","pSARL_v2","pSARL_v22ff0woad","6151c8ea2f7b31bdda93807d","freq_resp","img/green_2bandit_b.png","70","70","test","","","","8","",""
"null","306359","pSARL_v2","pSARL_v22ff0woad","6151c8ea2f7b31bdda93807d","fixation","img/fixation.png","null","","test","","","","","",""
"399","306761","pSARL_v2","pSARL_v22ff0woad","6151c8ea2f7b31bdda93807d","freq","img/green_2bandit_b2.png","70","70","test","1","176","176","8","",""
"null","307182","pSARL_v2","pSARL_v22ff0woad","6151c8ea2f7b31bdda93807d","freq_resp","img/green_2bandit_b.png","70","70","test","","","","8","",""
"null","307345","pSARL_v2","pSARL_v22ff0woad","6151c8ea2f7b31bdda93807d","fixation","img/fixation.png","null","","test","","","","","",""
"348","307697","pSARL_v2","pSARL_v22ff0woad","6151c8ea2f7b31bdda93807d","freq","img/green_2bandit_b2.png","70","70","test","1","177","177","8","",""
"null","308164","pSARL_v2","pSARL_v22ff0woad","6151c8ea2f7b31bdda93807d","freq_resp","img/green_2bandit_b.png","70","70","test","","","","8","",""
"null","308317","pSARL_v2","pSARL_v22ff0woad","6151c8ea2f7b31bdda93807d","fixation","img/fixation.png","null","","test","","","","","",""
"440","308761","pSARL_v2","pSARL_v22ff0woad","6151c8ea2f7b31bdda93807d","freq","img/green_2bandit_b2.png","70","70","test","1","178","178","8","",""
"null","309136","pSARL_v2","pSARL_v22ff0woad","6151c8ea2f7b31bdda93807d","freq_resp","img/green_2bandit_b.png","70","70","test","","","","8","",""
"null","309290","pSARL_v2","pSARL_v22ff0woad","6151c8ea2f7b31bdda93807d","fixation","img/fixation.png","null","","test","","","","","",""
"379","309673","pSARL_v2","pSARL_v22ff0woad","6151c8ea2f7b31bdda93807d","freq","img/green_2bandit_b2.png","70","70","test","1","179","179","8","",""
"null","310109","pSARL_v2","pSARL_v22ff0woad","6151c8ea2f7b31bdda93807d","freq_resp","img/green_2bandit_b.png","70","70","test","","","","8","",""
"null","310272","pSARL_v2","pSARL_v22ff0woad","6151c8ea2f7b31bdda93807d","fixation","img/fixation.png","null","","test","","","","","",""
"382","310657","pSARL_v2","pSARL_v22ff0woad","6151c8ea2f7b31bdda93807d","freq","img/green_2bandit_b2.png","70","70","test","1","180","180","8","",""
"null","311087","pSARL_v2","pSARL_v22ff0woad","6151c8ea2f7b31bdda93807d","freq_resp","img/green_2bandit_b.png","70","70","test","","","","8","",""
"null","311240","pSARL_v2","pSARL_v22ff0woad","6151c8ea2f7b31bdda93807d","fixation","img/fixation.png","null","","test","","","","","",""
"406","311649","pSARL_v2","pSARL_v22ff0woad","6151c8ea2f7b31bdda93807d","freq","img/green_2bandit_b2.png","70","70","test","1","181","181","8","",""
"null","312060","pSARL_v2","pSARL_v22ff0woad","6151c8ea2f7b31bdda93807d","freq_resp","img/green_2bandit_b.png","70","70","test","","","","8","",""
"null","312213","pSARL_v2","pSARL_v22ff0woad","6151c8ea2f7b31bdda93807d","fixation","img/fixation.png","null","","test","","","","","",""
"345","312561","pSARL_v2","pSARL_v22ff0woad","6151c8ea2f7b31bdda93807d","freq","img/green_2bandit_b2.png","70","70","test","1","182","182","8","",""
"null","313032","pSARL_v2","pSARL_v22ff0woad","6151c8ea2f7b31bdda93807d","freq_resp","img/green_2bandit_b.png","70","70","test","","","","8","",""
"null","313196","pSARL_v2","pSARL_v22ff0woad","6151c8ea2f7b31bdda93807d","fixation","img/fixation.png","null","","test","","","","","",""
"363","313561","pSARL_v2","pSARL_v22ff0woad","6151c8ea2f7b31bdda93807d","freq","img/green_2bandit_b2.png","70","70","test","1","183","183","8","",""
"null","314022","pSARL_v2","pSARL_v22ff0woad","6151c8ea2f7b31bdda93807d","freq_resp","img/green_2bandit_b.png","70","70","test","","","","8","",""
"null","314183","pSARL_v2","pSARL_v22ff0woad","6151c8ea2f7b31bdda93807d","fixation","img/fixation.png","null","","test","","","","","",""
"430","314618","pSARL_v2","pSARL_v22ff0woad","6151c8ea2f7b31bdda93807d","reward","img/slot.png","74","","test","","","","","",""
"null","315373","pSARL_v2","pSARL_v22ff0woad","6151c8ea2f7b31bdda93807d","points","<div class=""verylowPoints""> -4 </div>","null","na","test","","","","8","-4","7"
"352","315729","pSARL_v2","pSARL_v22ff0woad","6151c8ea2f7b31bdda93807d","freq","img/green_2bandit_b2.png","70","70","test","1","184","184","9","",""
"null","316192","pSARL_v2","pSARL_v22ff0woad","6151c8ea2f7b31bdda93807d","freq_resp","img/green_2bandit_b.png","70","70","test","","","","9","",""
"null","316346","pSARL_v2","pSARL_v22ff0woad","6151c8ea2f7b31bdda93807d","fixation","img/fixation.png","null","","test","","","","","",""
"365","316714","pSARL_v2","pSARL_v22ff0woad","6151c8ea2f7b31bdda93807d","freq","img/green_2bandit_b2.png","70","70","test","1","185","185","9","",""
"null","317164","pSARL_v2","pSARL_v22ff0woad","6151c8ea2f7b31bdda93807d","freq_resp","img/green_2bandit_b.png","70","70","test","","","","9","",""
"null","317334","pSARL_v2","pSARL_v22ff0woad","6151c8ea2f7b31bdda93807d","fixation","img/fixation.png","null","","test","","","","","",""
"327","317666","pSARL_v2","pSARL_v22ff0woad","6151c8ea2f7b31bdda93807d","freq","img/green_2bandit_b2.png","70","70","test","1","186","186","9","",""
"null","318153","pSARL_v2","pSARL_v22ff0woad","6151c8ea2f7b31bdda93807d","freq_resp","img/green_2bandit_b.png","70","70","test","","","","9","",""
"null","318316","pSARL_v2","pSARL_v22ff0woad","6151c8ea2f7b31bdda93807d","fixation","img/fixation.png","null","","test","","","","","",""
"275","318593","pSARL_v2","pSARL_v22ff0woad","6151c8ea2f7b31bdda93807d","freq","img/green_2bandit_b2.png","70","70","test","1","187","187","9","",""
"null","319142","pSARL_v2","pSARL_v22ff0woad","6151c8ea2f7b31bdda93807d","freq_resp","img/green_2bandit_b.png","70","70","test","","","","9","",""
"null","319304","pSARL_v2","pSARL_v22ff0woad","6151c8ea2f7b31bdda93807d","fixation","img/fixation.png","null","","test","","","","","",""
"197","319505","pSARL_v2","pSARL_v22ff0woad","6151c8ea2f7b31bdda93807d","infreq","img/orange_2bandit_b2.png","70","68","test","0","188","188","9","",""
"null","320123","pSARL_v2","pSARL_v22ff0woad","6151c8ea2f7b31bdda93807d","infreq_resp","img/orange_2bandit_b.png","70","68","test","","","","9","",""
"null","320277","pSARL_v2","pSARL_v22ff0woad","6151c8ea2f7b31bdda93807d","fixation","img/fixation.png","null","","test","","","","","",""
"313","320593","pSARL_v2","pSARL_v22ff0woad","6151c8ea2f7b31bdda93807d","freq","img/green_2bandit_b2.png","70","70","test","1","189","189","9","",""
"null","321096","pSARL_v2","pSARL_v22ff0woad","6151c8ea2f7b31bdda93807d","freq_resp","img/green_2bandit_b.png","70","70","test","","","","9","",""
"null","321250","pSARL_v2","pSARL_v22ff0woad","6151c8ea2f7b31bdda93807d","fixation","img/fixation.png","null","","test","","","","","",""
"467","321721","pSARL_v2","pSARL_v22ff0woad","6151c8ea2f7b31bdda93807d","infreq","img/orange_2bandit_b2.png","68","68","test","1","190","190","9","",""
"null","322069","pSARL_v2","pSARL_v22ff0woad","6151c8ea2f7b31bdda93807d","infreq_resp","img/orange_2bandit_b.png","68","68","test","","","","9","",""
"null","322232","pSARL_v2","pSARL_v22ff0woad","6151c8ea2f7b31bdda93807d","fixation","img/fixation.png","null","","test","","","","","",""
"453","322689","pSARL_v2","pSARL_v22ff0woad","6151c8ea2f7b31bdda93807d","freq","img/green_2bandit_b2.png","70","70","test","1","191","191","9","",""
"null","323041","pSARL_v2","pSARL_v22ff0woad","6151c8ea2f7b31bdda93807d","freq_resp","img/green_2bandit_b.png","70","70","test","","","","9","",""
"null","323204","pSARL_v2","pSARL_v22ff0woad","6151c8ea2f7b31bdda93807d","fixation","img/fixation.png","null","","test","","","","","",""
"481","323690","pSARL_v2","pSARL_v22ff0woad","6151c8ea2f7b31bdda93807d","freq","img/green_2bandit_b2.png","70","70","test","1","192","192","9","",""
"null","324024","pSARL_v2","pSARL_v22ff0woad","6151c8ea2f7b31bdda93807d","freq_resp","img/green_2bandit_b.png","70","70","test","","","","9","",""
"null","324177","pSARL_v2","pSARL_v22ff0woad","6151c8ea2f7b31bdda93807d","fixation","img/fixation.png","null","","test","","","","","",""
"437","324617","pSARL_v2","pSARL_v22ff0woad","6151c8ea2f7b31bdda93807d","freq","img/green_2bandit_b2.png","70","70","test","1","193","193","9","",""
"null","324997","pSARL_v2","pSARL_v22ff0woad","6151c8ea2f7b31bdda93807d","freq_resp","img/green_2bandit_b.png","70","70","test","","","","9","",""
"null","325166","pSARL_v2","pSARL_v22ff0woad","6151c8ea2f7b31bdda93807d","fixation","img/fixation.png","null","","test","","","","","",""
"463","325633","pSARL_v2","pSARL_v22ff0woad","6151c8ea2f7b31bdda93807d","freq","img/green_2bandit_b2.png","70","70","test","1","194","194","9","",""
"null","325984","pSARL_v2","pSARL_v22ff0woad","6151c8ea2f7b31bdda93807d","freq_resp","img/green_2bandit_b.png","70","70","test","","","","9","",""
"null","326147","pSARL_v2","pSARL_v22ff0woad","6151c8ea2f7b31bdda93807d","fixation","img/fixation.png","null","","test","","","","","",""
"426","326577","pSARL_v2","pSARL_v22ff0woad","6151c8ea2f7b31bdda93807d","freq","img/green_2bandit_b2.png","70","70","test","1","195","195","9","",""
"null","326957","pSARL_v2","pSARL_v22ff0woad","6151c8ea2f7b31bdda93807d","freq_resp","img/green_2bandit_b.png","70","70","test","","","","9","",""
"null","327120","pSARL_v2","pSARL_v22ff0woad","6151c8ea2f7b31bdda93807d","fixation","img/fixation.png","null","","test","","","","","",""
"374","327497","pSARL_v2","pSARL_v22ff0woad","6151c8ea2f7b31bdda93807d","freq","img/green_2bandit_b2.png","70","70","test","1","196","196","9","",""
"null","327939","pSARL_v2","pSARL_v22ff0woad","6151c8ea2f7b31bdda93807d","freq_resp","img/green_2bandit_b.png","70","70","test","","","","9","",""
"null","328093","pSARL_v2","pSARL_v22ff0woad","6151c8ea2f7b31bdda93807d","fixation","img/fixation.png","null","","test","","","","","",""
"376","328473","pSARL_v2","pSARL_v22ff0woad","6151c8ea2f7b31bdda93807d","freq","img/green_2bandit_b2.png","70","70","test","1","197","197","9","",""
"null","328912","pSARL_v2","pSARL_v22ff0woad","6151c8ea2f7b31bdda93807d","freq_resp","img/green_2bandit_b.png","70","70","test","","","","9","",""
"null","329082","pSARL_v2","pSARL_v22ff0woad","6151c8ea2f7b31bdda93807d","fixation","img/fixation.png","null","","test","","","","","",""
"404","329489","pSARL_v2","pSARL_v22ff0woad","6151c8ea2f7b31bdda93807d","freq","img/green_2bandit_b2.png","70","70","test","1","198","198","9","",""
"null","329901","pSARL_v2","pSARL_v22ff0woad","6151c8ea2f7b31bdda93807d","freq_resp","img/green_2bandit_b.png","70","70","test","","","","9","",""
"null","330064","pSARL_v2","pSARL_v22ff0woad","6151c8ea2f7b31bdda93807d","fixation","img/fixation.png","null","","test","","","","","",""
"357","330426","pSARL_v2","pSARL_v22ff0woad","6151c8ea2f7b31bdda93807d","freq","img/green_2bandit_b2.png","70","70","test","1","199","199","9","",""
"null","330890","pSARL_v2","pSARL_v22ff0woad","6151c8ea2f7b31bdda93807d","freq_resp","img/green_2bandit_b.png","70","70","test","","","","9","",""
"null","331053","pSARL_v2","pSARL_v22ff0woad","6151c8ea2f7b31bdda93807d","fixation","img/fixation.png","null","","test","","","","","",""
"304","331362","pSARL_v2","pSARL_v22ff0woad","6151c8ea2f7b31bdda93807d","freq","img/green_2bandit_b2.png","70","70","test","1","200","200","9","",""
"null","331872","pSARL_v2","pSARL_v22ff0woad","6151c8ea2f7b31bdda93807d","freq_resp","img/green_2bandit_b.png","70","70","test","","","","9","",""
"null","332025","pSARL_v2","pSARL_v22ff0woad","6151c8ea2f7b31bdda93807d","fixation","img/fixation.png","null","","test","","","","","",""
"350","332378","pSARL_v2","pSARL_v22ff0woad","6151c8ea2f7b31bdda93807d","freq","img/green_2bandit_b2.png","70","70","test","1","201","201","9","",""
"null","332844","pSARL_v2","pSARL_v22ff0woad","6151c8ea2f7b31bdda93807d","freq_resp","img/green_2bandit_b.png","70","70","test","","","","9","",""
"null","332997","pSARL_v2","pSARL_v22ff0woad","6151c8ea2f7b31bdda93807d","fixation","img/fixation.png","null","","test","","","","","",""
"352","333353","pSARL_v2","pSARL_v22ff0woad","6151c8ea2f7b31bdda93807d","freq","img/green_2bandit_b2.png","70","70","test","1","202","202","9","",""
"null","333817","pSARL_v2","pSARL_v22ff0woad","6151c8ea2f7b31bdda93807d","freq_resp","img/green_2bandit_b.png","70","70","test","","","","9","",""
"null","333980","pSARL_v2","pSARL_v22ff0woad","6151c8ea2f7b31bdda93807d","fixation","img/fixation.png","null","","test","","","","","",""
"378","334361","pSARL_v2","pSARL_v22ff0woad","6151c8ea2f7b31bdda93807d","freq","img/green_2bandit_b2.png","70","70","test","1","203","203","9","",""
"null","334821","pSARL_v2","pSARL_v22ff0woad","6151c8ea2f7b31bdda93807d","freq_resp","img/green_2bandit_b.png","70","70","test","","","","9","",""
"null","334984","pSARL_v2","pSARL_v22ff0woad","6151c8ea2f7b31bdda93807d","fixation","img/fixation.png","null","","test","","","","","",""
"485","335473","pSARL_v2","pSARL_v22ff0woad","6151c8ea2f7b31bdda93807d","infreq","img/orange_2bandit_b2.png","68","68","test","1","204","204","9","",""
"null","335810","pSARL_v2","pSARL_v22ff0woad","6151c8ea2f7b31bdda93807d","infreq_resp","img/orange_2bandit_b.png","68","68","test","","","","9","",""
"null","335973","pSARL_v2","pSARL_v22ff0woad","6151c8ea2f7b31bdda93807d","fixation","img/fixation.png","null","","test","","","","","",""
"529","336505","pSARL_v2","pSARL_v22ff0woad","6151c8ea2f7b31bdda93807d","freq","img/green_2bandit_b2.png","70","70","test","1","205","205","9","",""
"null","336791","pSARL_v2","pSARL_v22ff0woad","6151c8ea2f7b31bdda93807d","freq_resp","img/green_2bandit_b.png","70","70","test","","","","9","",""
"null","336944","pSARL_v2","pSARL_v22ff0woad","6151c8ea2f7b31bdda93807d","fixation","img/fixation.png","null","","test","","","","","",""
"390","337337","pSARL_v2","pSARL_v22ff0woad","6151c8ea2f7b31bdda93807d","freq","img/green_2bandit_b2.png","70","70","test","1","206","206","9","",""
"null","337764","pSARL_v2","pSARL_v22ff0woad","6151c8ea2f7b31bdda93807d","freq_resp","img/green_2bandit_b.png","70","70","test","","","","9","",""
"null","337917","pSARL_v2","pSARL_v22ff0woad","6151c8ea2f7b31bdda93807d","fixation","img/fixation.png","null","","test","","","","","",""
"457","338378","pSARL_v2","pSARL_v22ff0woad","6151c8ea2f7b31bdda93807d","reward","img/slot.png","74","","test","","","","","",""
"null","339138","pSARL_v2","pSARL_v22ff0woad","6151c8ea2f7b31bdda93807d","points","<div class=""verylowPoints""> -3 </div>","null","na","test","","","","9","-3","8"
"396","339537","pSARL_v2","pSARL_v22ff0woad","6151c8ea2f7b31bdda93807d","freq","img/green_2bandit_b2.png","70","70","test","1","207","207","10","",""
"null","339956","pSARL_v2","pSARL_v22ff0woad","6151c8ea2f7b31bdda93807d","freq_resp","img/green_2bandit_b.png","70","70","test","","","","10","",""
"null","340126","pSARL_v2","pSARL_v22ff0woad","6151c8ea2f7b31bdda93807d","fixation","img/fixation.png","null","","test","","","","","",""
"430","340561","pSARL_v2","pSARL_v22ff0woad","6151c8ea2f7b31bdda93807d","freq","img/green_2bandit_b2.png","70","70","test","1","208","208","10","",""
"null","340945","pSARL_v2","pSARL_v22ff0woad","6151c8ea2f7b31bdda93807d","freq_resp","img/green_2bandit_b.png","70","70","test","","","","10","",""
"null","341108","pSARL_v2","pSARL_v22ff0woad","6151c8ea2f7b31bdda93807d","fixation","img/fixation.png","null","","test","","","","","",""
"434","341545","pSARL_v2","pSARL_v22ff0woad","6151c8ea2f7b31bdda93807d","freq","img/green_2bandit_b2.png","70","70","test","1","209","209","10","",""
"null","341965","pSARL_v2","pSARL_v22ff0woad","6151c8ea2f7b31bdda93807d","freq_resp","img/green_2bandit_b.png","70","70","test","","","","10","",""
"null","342118","pSARL_v2","pSARL_v22ff0woad","6151c8ea2f7b31bdda93807d","fixation","img/fixation.png","null","","test","","","","","",""
"400","342521","pSARL_v2","pSARL_v22ff0woad","6151c8ea2f7b31bdda93807d","freq","img/green_2bandit_b2.png","70","70","test","1","210","210","10","",""
"null","342938","pSARL_v2","pSARL_v22ff0woad","6151c8ea2f7b31bdda93807d","freq_resp","img/green_2bandit_b.png","70","70","test","","","","10","",""
"null","343101","pSARL_v2","pSARL_v22ff0woad","6151c8ea2f7b31bdda93807d","fixation","img/fixation.png","null","","test","","","","","",""
"384","343489","pSARL_v2","pSARL_v22ff0woad","6151c8ea2f7b31bdda93807d","freq","img/green_2bandit_b2.png","70","70","test","1","211","211","10","",""
"null","343920","pSARL_v2","pSARL_v22ff0woad","6151c8ea2f7b31bdda93807d","freq_resp","img/green_2bandit_b.png","70","70","test","","","","10","",""
"null","344073","pSARL_v2","pSARL_v22ff0woad","6151c8ea2f7b31bdda93807d","fixation","img/fixation.png","null","","test","","","","","",""
"395","344473","pSARL_v2","pSARL_v22ff0woad","6151c8ea2f7b31bdda93807d","freq","img/green_2bandit_b2.png","70","70","test","1","212","212","10","",""
