"rt","time_elapsed","expId","subject","prolificID","trialType","stimulus","key_press","corrresp","phase","corr","trialNum","attentionRunNum","blockNum","points","rlNum"
"4154.600000023842","4161","pSARL_v2","pSARL_v22dkpbhrh","5fbe03df1a17c0034aee7bb8","","","","","","","","","","",""
"","6828","pSARL_v2","pSARL_v22dkpbhrh","5fbe03df1a17c0034aee7bb8","fullscreen","","","","","","","","","",""
"37497","44333","pSARL_v2","pSARL_v22dkpbhrh","5fbe03df1a17c0034aee7bb8","","","","","","","","","","",""
"null","45144","pSARL_v2","pSARL_v22dkpbhrh","5fbe03df1a17c0034aee7bb8","freqPrac","img/orange_2bandit_b2.png","null","70","prac","0","","","","",""
"null","46164","pSARL_v2","pSARL_v22dkpbhrh","5fbe03df1a17c0034aee7bb8","feedback","img/tooSlow.png","null","na","prac","","","","","",""
"null","46334","pSARL_v2","pSARL_v22dkpbhrh","5fbe03df1a17c0034aee7bb8","fixation","img/fixation.png","null","","prac","","","","","",""
"null","47149","pSARL_v2","pSARL_v22dkpbhrh","5fbe03df1a17c0034aee7bb8","infreqPrac","img/green_2bandit_b2.png","null","68","prac","0","","","","",""
"null","48156","pSARL_v2","pSARL_v22dkpbhrh","5fbe03df1a17c0034aee7bb8","feedback","img/tooSlow.png","null","na","prac","","","","","",""
"null","48323","pSARL_v2","pSARL_v22dkpbhrh","5fbe03df1a17c0034aee7bb8","fixation","img/fixation.png","null","","prac","","","","","",""
"356.2999999523163","48684","pSARL_v2","pSARL_v22dkpbhrh","5fbe03df1a17c0034aee7bb8","freqPrac","img/orange_2bandit_b2.png","70","70","prac","1","","","","",""
"356.2999999523163","49131","pSARL_v2","pSARL_v22dkpbhrh","5fbe03df1a17c0034aee7bb8","freqPrac_resp","img/orange_2bandit_b.png","70","70","prac","","","","","",""
"null","49295","pSARL_v2","pSARL_v22dkpbhrh","5fbe03df1a17c0034aee7bb8","fixation","img/fixation.png","null","","prac","","","","","",""
"null","50108","pSARL_v2","pSARL_v22dkpbhrh","5fbe03df1a17c0034aee7bb8","infreqPrac","img/green_2bandit_b2.png","null","68","prac","0","","","","",""
"null","51124","pSARL_v2","pSARL_v22dkpbhrh","5fbe03df1a17c0034aee7bb8","feedback","img/tooSlow.png","null","na","prac","","","","","",""
"null","51284","pSARL_v2","pSARL_v22dkpbhrh","5fbe03df1a17c0034aee7bb8","fixation","img/fixation.png","null","","prac","","","","","",""
"520","51807","pSARL_v2","pSARL_v22dkpbhrh","5fbe03df1a17c0034aee7bb8","infreqPrac","img/green_2bandit_b2.png","68","68","prac","1","","","","",""
"520","52105","pSARL_v2","pSARL_v22dkpbhrh","5fbe03df1a17c0034aee7bb8","infreqPrac_resp","img/green_2bandit_b.png","68","68","prac","","","","","",""
"null","52269","pSARL_v2","pSARL_v22dkpbhrh","5fbe03df1a17c0034aee7bb8","fixation","img/fixation.png","null","","prac","","","","","",""
"null","53084","pSARL_v2","pSARL_v22dkpbhrh","5fbe03df1a17c0034aee7bb8","infreqPrac","img/green_2bandit_b2.png","null","68","prac","0","","","","",""
"null","54097","pSARL_v2","pSARL_v22dkpbhrh","5fbe03df1a17c0034aee7bb8","feedback","img/tooSlow.png","null","na","prac","","","","","",""
"null","54252","pSARL_v2","pSARL_v22dkpbhrh","5fbe03df1a17c0034aee7bb8","fixation","img/fixation.png","null","","prac","","","","","",""
"332.69999998807907","54589","pSARL_v2","pSARL_v22dkpbhrh","5fbe03df1a17c0034aee7bb8","freqPrac","img/orange_2bandit_b2.png","70","70","prac","1","","","","",""
"332.69999998807907","55065","pSARL_v2","pSARL_v22dkpbhrh","5fbe03df1a17c0034aee7bb8","freqPrac_resp","img/orange_2bandit_b.png","70","70","prac","","","","","",""
"null","55234","pSARL_v2","pSARL_v22dkpbhrh","5fbe03df1a17c0034aee7bb8","fixation","img/fixation.png","null","","prac","","","","","",""
"782.3999999761581","56019","pSARL_v2","pSARL_v22dkpbhrh","5fbe03df1a17c0034aee7bb8","infreqPrac","img/green_2bandit_b2.png","68","68","prac","1","","","","",""
"782.3999999761581","56047","pSARL_v2","pSARL_v22dkpbhrh","5fbe03df1a17c0034aee7bb8","infreqPrac_resp","img/green_2bandit_b.png","68","68","prac","","","","","",""
"null","56212","pSARL_v2","pSARL_v22dkpbhrh","5fbe03df1a17c0034aee7bb8","fixation","img/fixation.png","null","","prac","","","","","",""
"null","57023","pSARL_v2","pSARL_v22dkpbhrh","5fbe03df1a17c0034aee7bb8","freqPrac","img/orange_2bandit_b2.png","null","70","prac","0","","","","",""
"null","58042","pSARL_v2","pSARL_v22dkpbhrh","5fbe03df1a17c0034aee7bb8","feedback","img/tooSlow.png","null","na","prac","","","","","",""
"null","58201","pSARL_v2","pSARL_v22dkpbhrh","5fbe03df1a17c0034aee7bb8","fixation","img/fixation.png","null","","prac","","","","","",""
"288.30000001192093","58494","pSARL_v2","pSARL_v22dkpbhrh","5fbe03df1a17c0034aee7bb8","freqPrac","img/orange_2bandit_b2.png","70","70","prac","1","","","","",""
"288.30000001192093","59024","pSARL_v2","pSARL_v22dkpbhrh","5fbe03df1a17c0034aee7bb8","freqPrac_resp","img/orange_2bandit_b.png","70","70","prac","","","","","",""
"null","59194","pSARL_v2","pSARL_v22dkpbhrh","5fbe03df1a17c0034aee7bb8","fixation","img/fixation.png","null","","prac","","","","","",""
"17475.399999976158","76673","pSARL_v2","pSARL_v22dkpbhrh","5fbe03df1a17c0034aee7bb8","","","","","prac","","","","","",""
"398.19999998807907","77075","pSARL_v2","pSARL_v22dkpbhrh","5fbe03df1a17c0034aee7bb8","rewardPractice","img/slot.png","74","","prac","","","","","",""
"null","77837","pSARL_v2","pSARL_v22dkpbhrh","5fbe03df1a17c0034aee7bb8","feedback","<div class=""veryhighPoints""> +15 </div>","null","na","prac","","","","","",""
"null","77994","pSARL_v2","pSARL_v22dkpbhrh","5fbe03df1a17c0034aee7bb8","fixation","img/fixation.png","null","","prac","","","","","",""
"18197.80000001192","96196","pSARL_v2","pSARL_v22dkpbhrh","5fbe03df1a17c0034aee7bb8","","","","","prac","","","","","",""
"575.0999999642372","96776","pSARL_v2","pSARL_v22dkpbhrh","5fbe03df1a17c0034aee7bb8","freq","img/orange_2bandit_b2.png","68","70","test","0","1","1","1","",""
"null","97016","pSARL_v2","pSARL_v22dkpbhrh","5fbe03df1a17c0034aee7bb8","freq_resp","img/orange_2bandit_b.png","68","70","test","","","","1","",""
"null","97184","pSARL_v2","pSARL_v22dkpbhrh","5fbe03df1a17c0034aee7bb8","fixation","img/fixation.png","null","","test","","","","","",""
"null","97989","pSARL_v2","pSARL_v22dkpbhrh","5fbe03df1a17c0034aee7bb8","freq","img/orange_2bandit_b2.png","null","70","test","0","2","2","1","",""
"null","98149","pSARL_v2","pSARL_v22dkpbhrh","5fbe03df1a17c0034aee7bb8","fixation","img/fixation.png","null","","test","","","","","",""
"null","98957","pSARL_v2","pSARL_v22dkpbhrh","5fbe03df1a17c0034aee7bb8","freq","img/orange_2bandit_b2.png","null","70","test","0","3","3","1","",""
"null","99117","pSARL_v2","pSARL_v22dkpbhrh","5fbe03df1a17c0034aee7bb8","fixation","img/fixation.png","null","","test","","","","","",""
"661.1999999880791","99782","pSARL_v2","pSARL_v22dkpbhrh","5fbe03df1a17c0034aee7bb8","freq","img/orange_2bandit_b2.png","70","70","test","1","4","4","1","",""
"null","99934","pSARL_v2","pSARL_v22dkpbhrh","5fbe03df1a17c0034aee7bb8","freq_resp","img/orange_2bandit_b.png","70","70","test","","","","1","",""
"null","100093","pSARL_v2","pSARL_v22dkpbhrh","5fbe03df1a17c0034aee7bb8","fixation","img/fixation.png","null","","test","","","","","",""
"303.2999999523163","100401","pSARL_v2","pSARL_v22dkpbhrh","5fbe03df1a17c0034aee7bb8","freq","img/orange_2bandit_b2.png","70","70","test","1","5","5","1","",""
"null","100902","pSARL_v2","pSARL_v22dkpbhrh","5fbe03df1a17c0034aee7bb8","freq_resp","img/orange_2bandit_b.png","70","70","test","","","","1","",""
"null","101057","pSARL_v2","pSARL_v22dkpbhrh","5fbe03df1a17c0034aee7bb8","fixation","img/fixation.png","null","","test","","","","","",""
"244.5","101306","pSARL_v2","pSARL_v22dkpbhrh","5fbe03df1a17c0034aee7bb8","freq","img/orange_2bandit_b2.png","70","70","test","1","6","6","1","",""
"null","101868","pSARL_v2","pSARL_v22dkpbhrh","5fbe03df1a17c0034aee7bb8","freq_resp","img/orange_2bandit_b.png","70","70","test","","","","1","",""
"null","102032","pSARL_v2","pSARL_v22dkpbhrh","5fbe03df1a17c0034aee7bb8","fixation","img/fixation.png","null","","test","","","","","",""
"69.39999997615814","102105","pSARL_v2","pSARL_v22dkpbhrh","5fbe03df1a17c0034aee7bb8","infreq","img/green_2bandit_b2.png","70","68","test","0","7","7","1","",""
"null","102847","pSARL_v2","pSARL_v22dkpbhrh","5fbe03df1a17c0034aee7bb8","infreq_resp","img/green_2bandit_b.png","70","68","test","","","","1","",""
"null","103017","pSARL_v2","pSARL_v22dkpbhrh","5fbe03df1a17c0034aee7bb8","fixation","img/fixation.png","null","","test","","","","","",""
"444.5","103466","pSARL_v2","pSARL_v22dkpbhrh","5fbe03df1a17c0034aee7bb8","freq","img/orange_2bandit_b2.png","70","70","test","1","8","8","1","",""
"null","103830","pSARL_v2","pSARL_v22dkpbhrh","5fbe03df1a17c0034aee7bb8","freq_resp","img/orange_2bandit_b.png","70","70","test","","","","1","",""
"null","103992","pSARL_v2","pSARL_v22dkpbhrh","5fbe03df1a17c0034aee7bb8","fixation","img/fixation.png","null","","test","","","","","",""
"748.3999999761581","104746","pSARL_v2","pSARL_v22dkpbhrh","5fbe03df1a17c0034aee7bb8","freq","img/orange_2bandit_b2.png","70","70","test","1","9","9","1","",""
"null","104821","pSARL_v2","pSARL_v22dkpbhrh","5fbe03df1a17c0034aee7bb8","freq_resp","img/orange_2bandit_b.png","70","70","test","","","","1","",""
"null","104983","pSARL_v2","pSARL_v22dkpbhrh","5fbe03df1a17c0034aee7bb8","fixation","img/fixation.png","null","","test","","","","","",""
"785.3000000119209","105773","pSARL_v2","pSARL_v22dkpbhrh","5fbe03df1a17c0034aee7bb8","freq","img/orange_2bandit_b2.png","70","70","test","1","10","10","1","",""
"null","105798","pSARL_v2","pSARL_v22dkpbhrh","5fbe03df1a17c0034aee7bb8","freq_resp","img/orange_2bandit_b.png","70","70","test","","","","1","",""
"null","105965","pSARL_v2","pSARL_v22dkpbhrh","5fbe03df1a17c0034aee7bb8","fixation","img/fixation.png","null","","test","","","","","",""
"682.3000000119209","106652","pSARL_v2","pSARL_v22dkpbhrh","5fbe03df1a17c0034aee7bb8","freq","img/orange_2bandit_b2.png","70","70","test","1","11","11","1","",""
"null","106784","pSARL_v2","pSARL_v22dkpbhrh","5fbe03df1a17c0034aee7bb8","freq_resp","img/orange_2bandit_b.png","70","70","test","","","","1","",""
"null","106951","pSARL_v2","pSARL_v22dkpbhrh","5fbe03df1a17c0034aee7bb8","fixation","img/fixation.png","null","","test","","","","","",""
"435.19999998807907","107391","pSARL_v2","pSARL_v22dkpbhrh","5fbe03df1a17c0034aee7bb8","freq","img/orange_2bandit_b2.png","70","70","test","1","12","12","1","",""
"null","107773","pSARL_v2","pSARL_v22dkpbhrh","5fbe03df1a17c0034aee7bb8","freq_resp","img/orange_2bandit_b.png","70","70","test","","","","1","",""
"null","107930","pSARL_v2","pSARL_v22dkpbhrh","5fbe03df1a17c0034aee7bb8","fixation","img/fixation.png","null","","test","","","","","",""
"420.2999999523163","108355","pSARL_v2","pSARL_v22dkpbhrh","5fbe03df1a17c0034aee7bb8","freq","img/orange_2bandit_b2.png","70","70","test","1","13","13","1","",""
"null","108747","pSARL_v2","pSARL_v22dkpbhrh","5fbe03df1a17c0034aee7bb8","freq_resp","img/orange_2bandit_b.png","70","70","test","","","","1","",""
"null","108916","pSARL_v2","pSARL_v22dkpbhrh","5fbe03df1a17c0034aee7bb8","fixation","img/fixation.png","null","","test","","","","","",""
"275.69999998807907","109198","pSARL_v2","pSARL_v22dkpbhrh","5fbe03df1a17c0034aee7bb8","infreq","img/green_2bandit_b2.png","68","68","test","1","14","14","1","",""
"null","109741","pSARL_v2","pSARL_v22dkpbhrh","5fbe03df1a17c0034aee7bb8","infreq_resp","img/green_2bandit_b.png","68","68","test","","","","1","",""
"null","109896","pSARL_v2","pSARL_v22dkpbhrh","5fbe03df1a17c0034aee7bb8","fixation","img/fixation.png","null","","test","","","","","",""
"479.19999998807907","110380","pSARL_v2","pSARL_v22dkpbhrh","5fbe03df1a17c0034aee7bb8","freq","img/orange_2bandit_b2.png","70","70","test","1","15","15","1","",""
"null","110721","pSARL_v2","pSARL_v22dkpbhrh","5fbe03df1a17c0034aee7bb8","freq_resp","img/orange_2bandit_b.png","70","70","test","","","","1","",""
"null","110880","pSARL_v2","pSARL_v22dkpbhrh","5fbe03df1a17c0034aee7bb8","fixation","img/fixation.png","null","","test","","","","","",""
"409.9000000357628","111295","pSARL_v2","pSARL_v22dkpbhrh","5fbe03df1a17c0034aee7bb8","freq","img/orange_2bandit_b2.png","70","70","test","1","16","16","1","",""
"null","111691","pSARL_v2","pSARL_v22dkpbhrh","5fbe03df1a17c0034aee7bb8","freq_resp","img/orange_2bandit_b.png","70","70","test","","","","1","",""
"null","111847","pSARL_v2","pSARL_v22dkpbhrh","5fbe03df1a17c0034aee7bb8","fixation","img/fixation.png","null","","test","","","","","",""
"306.80000001192093","112159","pSARL_v2","pSARL_v22dkpbhrh","5fbe03df1a17c0034aee7bb8","freq","img/orange_2bandit_b2.png","70","70","test","1","17","17","1","",""
"null","112668","pSARL_v2","pSARL_v22dkpbhrh","5fbe03df1a17c0034aee7bb8","freq_resp","img/orange_2bandit_b.png","70","70","test","","","","1","",""
"null","112830","pSARL_v2","pSARL_v22dkpbhrh","5fbe03df1a17c0034aee7bb8","fixation","img/fixation.png","null","","test","","","","","",""
"275.30000001192093","113110","pSARL_v2","pSARL_v22dkpbhrh","5fbe03df1a17c0034aee7bb8","infreq","img/green_2bandit_b2.png","70","68","test","0","18","18","1","",""
"null","113644","pSARL_v2","pSARL_v22dkpbhrh","5fbe03df1a17c0034aee7bb8","infreq_resp","img/green_2bandit_b.png","70","68","test","","","","1","",""
"null","113812","pSARL_v2","pSARL_v22dkpbhrh","5fbe03df1a17c0034aee7bb8","fixation","img/fixation.png","null","","test","","","","","",""
"357.10000002384186","114173","pSARL_v2","pSARL_v22dkpbhrh","5fbe03df1a17c0034aee7bb8","freq","img/orange_2bandit_b2.png","70","70","test","1","19","19","1","",""
"null","114624","pSARL_v2","pSARL_v22dkpbhrh","5fbe03df1a17c0034aee7bb8","freq_resp","img/orange_2bandit_b.png","70","70","test","","","","1","",""
"null","114782","pSARL_v2","pSARL_v22dkpbhrh","5fbe03df1a17c0034aee7bb8","fixation","img/fixation.png","null","","test","","","","","",""
"295.2000000476837","115080","pSARL_v2","pSARL_v22dkpbhrh","5fbe03df1a17c0034aee7bb8","freq","img/orange_2bandit_b2.png","70","70","test","1","20","20","1","",""
"null","115589","pSARL_v2","pSARL_v22dkpbhrh","5fbe03df1a17c0034aee7bb8","freq_resp","img/orange_2bandit_b.png","70","70","test","","","","1","",""
"null","115749","pSARL_v2","pSARL_v22dkpbhrh","5fbe03df1a17c0034aee7bb8","fixation","img/fixation.png","null","","test","","","","","",""
"284.7999999523163","116037","pSARL_v2","pSARL_v22dkpbhrh","5fbe03df1a17c0034aee7bb8","freq","img/orange_2bandit_b2.png","70","70","test","1","21","21","1","",""
"null","116564","pSARL_v2","pSARL_v22dkpbhrh","5fbe03df1a17c0034aee7bb8","freq_resp","img/orange_2bandit_b.png","70","70","test","","","","1","",""
"null","116719","pSARL_v2","pSARL_v22dkpbhrh","5fbe03df1a17c0034aee7bb8","fixation","img/fixation.png","null","","test","","","","","",""
"253.5","116975","pSARL_v2","pSARL_v22dkpbhrh","5fbe03df1a17c0034aee7bb8","freq","img/orange_2bandit_b2.png","70","70","test","1","22","22","1","",""
"null","117540","pSARL_v2","pSARL_v22dkpbhrh","5fbe03df1a17c0034aee7bb8","freq_resp","img/orange_2bandit_b.png","70","70","test","","","","1","",""
"null","117695","pSARL_v2","pSARL_v22dkpbhrh","5fbe03df1a17c0034aee7bb8","fixation","img/fixation.png","null","","test","","","","","",""
"295.5","117993","pSARL_v2","pSARL_v22dkpbhrh","5fbe03df1a17c0034aee7bb8","freq","img/orange_2bandit_b2.png","70","70","test","1","23","23","1","",""
"null","118502","pSARL_v2","pSARL_v22dkpbhrh","5fbe03df1a17c0034aee7bb8","freq_resp","img/orange_2bandit_b.png","70","70","test","","","","1","",""
"null","118662","pSARL_v2","pSARL_v22dkpbhrh","5fbe03df1a17c0034aee7bb8","fixation","img/fixation.png","null","","test","","","","","",""
"295","118962","pSARL_v2","pSARL_v22dkpbhrh","5fbe03df1a17c0034aee7bb8","freq","img/orange_2bandit_b2.png","70","70","test","1","24","24","1","",""
"null","119486","pSARL_v2","pSARL_v22dkpbhrh","5fbe03df1a17c0034aee7bb8","freq_resp","img/orange_2bandit_b.png","70","70","test","","","","1","",""
"null","119642","pSARL_v2","pSARL_v22dkpbhrh","5fbe03df1a17c0034aee7bb8","fixation","img/fixation.png","null","","test","","","","","",""
"621.9000000357628","120269","pSARL_v2","pSARL_v22dkpbhrh","5fbe03df1a17c0034aee7bb8","reward","img/slot.png","74","","test","","","","","",""
"null","121039","pSARL_v2","pSARL_v22dkpbhrh","5fbe03df1a17c0034aee7bb8","points","<div class=""verylowPoints""> -6 </div>","null","na","test","","","","1","-6","0"
"627","121670","pSARL_v2","pSARL_v22dkpbhrh","5fbe03df1a17c0034aee7bb8","freq","img/orange_2bandit_b2.png","70","70","test","1","25","25","2","",""
"null","121861","pSARL_v2","pSARL_v22dkpbhrh","5fbe03df1a17c0034aee7bb8","freq_resp","img/orange_2bandit_b.png","70","70","test","","","","2","",""
"null","122016","pSARL_v2","pSARL_v22dkpbhrh","5fbe03df1a17c0034aee7bb8","fixation","img/fixation.png","null","","test","","","","","",""
"277.60000002384186","122298","pSARL_v2","pSARL_v22dkpbhrh","5fbe03df1a17c0034aee7bb8","freq","img/orange_2bandit_b2.png","68","70","test","0","26","26","2","",""
"null","122824","pSARL_v2","pSARL_v22dkpbhrh","5fbe03df1a17c0034aee7bb8","freq_resp","img/orange_2bandit_b.png","68","70","test","","","","2","",""
"null","122993","pSARL_v2","pSARL_v22dkpbhrh","5fbe03df1a17c0034aee7bb8","fixation","img/fixation.png","null","","test","","","","","",""
"275.0999999642372","123273","pSARL_v2","pSARL_v22dkpbhrh","5fbe03df1a17c0034aee7bb8","freq","img/orange_2bandit_b2.png","68","70","test","0","27","27","2","",""
"null","123813","pSARL_v2","pSARL_v22dkpbhrh","5fbe03df1a17c0034aee7bb8","freq_resp","img/orange_2bandit_b.png","68","70","test","","","","2","",""
"null","123978","pSARL_v2","pSARL_v22dkpbhrh","5fbe03df1a17c0034aee7bb8","fixation","img/fixation.png","null","","test","","","","","",""
"273.30000001192093","124255","pSARL_v2","pSARL_v22dkpbhrh","5fbe03df1a17c0034aee7bb8","freq","img/orange_2bandit_b2.png","68","70","test","0","28","28","2","",""
"null","124795","pSARL_v2","pSARL_v22dkpbhrh","5fbe03df1a17c0034aee7bb8","freq_resp","img/orange_2bandit_b.png","68","70","test","","","","2","",""
"null","124960","pSARL_v2","pSARL_v22dkpbhrh","5fbe03df1a17c0034aee7bb8","fixation","img/fixation.png","null","","test","","","","","",""
"395.39999997615814","125359","pSARL_v2","pSARL_v22dkpbhrh","5fbe03df1a17c0034aee7bb8","infreq","img/green_2bandit_b2.png","70","68","test","0","29","29","2","",""
"null","125779","pSARL_v2","pSARL_v22dkpbhrh","5fbe03df1a17c0034aee7bb8","infreq_resp","img/green_2bandit_b.png","70","68","test","","","","2","",""
"null","125945","pSARL_v2","pSARL_v22dkpbhrh","5fbe03df1a17c0034aee7bb8","fixation","img/fixation.png","null","","test","","","","","",""
"616.1999999880791","126565","pSARL_v2","pSARL_v22dkpbhrh","5fbe03df1a17c0034aee7bb8","freq","img/orange_2bandit_b2.png","70","70","test","1","30","30","2","",""
"null","126764","pSARL_v2","pSARL_v22dkpbhrh","5fbe03df1a17c0034aee7bb8","freq_resp","img/orange_2bandit_b.png","70","70","test","","","","2","",""
"null","126932","pSARL_v2","pSARL_v22dkpbhrh","5fbe03df1a17c0034aee7bb8","fixation","img/fixation.png","null","","test","","","","","",""
"null","127747","pSARL_v2","pSARL_v22dkpbhrh","5fbe03df1a17c0034aee7bb8","infreq","img/green_2bandit_b2.png","null","68","test","0","31","31","2","",""
"null","127902","pSARL_v2","pSARL_v22dkpbhrh","5fbe03df1a17c0034aee7bb8","fixation","img/fixation.png","null","","test","","","","","",""
"0","127905","pSARL_v2","pSARL_v22dkpbhrh","5fbe03df1a17c0034aee7bb8","freq","img/orange_2bandit_b2.png","68","70","test","0","32","32","2","",""
"null","128717","pSARL_v2","pSARL_v22dkpbhrh","5fbe03df1a17c0034aee7bb8","freq_resp","img/orange_2bandit_b.png","68","70","test","","","","2","",""
"null","128884","pSARL_v2","pSARL_v22dkpbhrh","5fbe03df1a17c0034aee7bb8","fixation","img/fixation.png","null","","test","","","","","",""
"292.39999997615814","129180","pSARL_v2","pSARL_v22dkpbhrh","5fbe03df1a17c0034aee7bb8","freq","img/orange_2bandit_b2.png","70","70","test","1","33","33","2","",""
"null","129704","pSARL_v2","pSARL_v22dkpbhrh","5fbe03df1a17c0034aee7bb8","freq_resp","img/orange_2bandit_b.png","70","70","test","","","","2","",""
"null","129862","pSARL_v2","pSARL_v22dkpbhrh","5fbe03df1a17c0034aee7bb8","fixation","img/fixation.png","null","","test","","","","","",""
"277.69999998807907","130143","pSARL_v2","pSARL_v22dkpbhrh","5fbe03df1a17c0034aee7bb8","freq","img/orange_2bandit_b2.png","70","70","test","1","34","34","2","",""
"null","130675","pSARL_v2","pSARL_v22dkpbhrh","5fbe03df1a17c0034aee7bb8","freq_resp","img/orange_2bandit_b.png","70","70","test","","","","2","",""
"null","130833","pSARL_v2","pSARL_v22dkpbhrh","5fbe03df1a17c0034aee7bb8","fixation","img/fixation.png","null","","test","","","","","",""
"259.5","131097","pSARL_v2","pSARL_v22dkpbhrh","5fbe03df1a17c0034aee7bb8","freq","img/orange_2bandit_b2.png","70","70","test","1","35","35","2","",""
"null","131643","pSARL_v2","pSARL_v22dkpbhrh","5fbe03df1a17c0034aee7bb8","freq_resp","img/orange_2bandit_b.png","70","70","test","","","","2","",""
"null","131799","pSARL_v2","pSARL_v22dkpbhrh","5fbe03df1a17c0034aee7bb8","fixation","img/fixation.png","null","","test","","","","","",""
"334.2000000476837","132137","pSARL_v2","pSARL_v22dkpbhrh","5fbe03df1a17c0034aee7bb8","freq","img/orange_2bandit_b2.png","70","70","test","1","36","36","2","",""
"null","132616","pSARL_v2","pSARL_v22dkpbhrh","5fbe03df1a17c0034aee7bb8","freq_resp","img/orange_2bandit_b.png","70","70","test","","","","2","",""
"null","132775","pSARL_v2","pSARL_v22dkpbhrh","5fbe03df1a17c0034aee7bb8","fixation","img/fixation.png","null","","test","","","","","",""
"340.10000002384186","133118","pSARL_v2","pSARL_v22dkpbhrh","5fbe03df1a17c0034aee7bb8","freq","img/orange_2bandit_b2.png","70","70","test","1","37","37","2","",""
"null","133593","pSARL_v2","pSARL_v22dkpbhrh","5fbe03df1a17c0034aee7bb8","freq_resp","img/orange_2bandit_b.png","70","70","test","","","","2","",""
"null","133762","pSARL_v2","pSARL_v22dkpbhrh","5fbe03df1a17c0034aee7bb8","fixation","img/fixation.png","null","","test","","","","","",""
"324.4000000357628","134090","pSARL_v2","pSARL_v22dkpbhrh","5fbe03df1a17c0034aee7bb8","freq","img/orange_2bandit_b2.png","70","70","test","1","38","38","2","",""
"null","134585","pSARL_v2","pSARL_v22dkpbhrh","5fbe03df1a17c0034aee7bb8","freq_resp","img/orange_2bandit_b.png","70","70","test","","","","2","",""
"null","134745","pSARL_v2","pSARL_v22dkpbhrh","5fbe03df1a17c0034aee7bb8","fixation","img/fixation.png","null","","test","","","","","",""
"345.19999998807907","135096","pSARL_v2","pSARL_v22dkpbhrh","5fbe03df1a17c0034aee7bb8","freq","img/orange_2bandit_b2.png","70","70","test","1","39","39","2","",""
"null","135561","pSARL_v2","pSARL_v22dkpbhrh","5fbe03df1a17c0034aee7bb8","freq_resp","img/orange_2bandit_b.png","70","70","test","","","","2","",""
"null","135726","pSARL_v2","pSARL_v22dkpbhrh","5fbe03df1a17c0034aee7bb8","fixation","img/fixation.png","null","","test","","","","","",""
"286.80000001192093","136019","pSARL_v2","pSARL_v22dkpbhrh","5fbe03df1a17c0034aee7bb8","freq","img/orange_2bandit_b2.png","70","70","test","1","40","40","2","",""
"null","136545","pSARL_v2","pSARL_v22dkpbhrh","5fbe03df1a17c0034aee7bb8","freq_resp","img/orange_2bandit_b.png","70","70","test","","","","2","",""
"null","136714","pSARL_v2","pSARL_v22dkpbhrh","5fbe03df1a17c0034aee7bb8","fixation","img/fixation.png","null","","test","","","","","",""
"302.39999997615814","137022","pSARL_v2","pSARL_v22dkpbhrh","5fbe03df1a17c0034aee7bb8","freq","img/orange_2bandit_b2.png","70","70","test","1","41","41","2","",""
"null","137532","pSARL_v2","pSARL_v22dkpbhrh","5fbe03df1a17c0034aee7bb8","freq_resp","img/orange_2bandit_b.png","70","70","test","","","","2","",""
"null","137697","pSARL_v2","pSARL_v22dkpbhrh","5fbe03df1a17c0034aee7bb8","fixation","img/fixation.png","null","","test","","","","","",""
"305","138006","pSARL_v2","pSARL_v22dkpbhrh","5fbe03df1a17c0034aee7bb8","freq","img/orange_2bandit_b2.png","70","70","test","1","42","42","2","",""
"null","138510","pSARL_v2","pSARL_v22dkpbhrh","5fbe03df1a17c0034aee7bb8","freq_resp","img/orange_2bandit_b.png","70","70","test","","","","2","",""
"null","138672","pSARL_v2","pSARL_v22dkpbhrh","5fbe03df1a17c0034aee7bb8","fixation","img/fixation.png","null","","test","","","","","",""
"317.4000000357628","138996","pSARL_v2","pSARL_v22dkpbhrh","5fbe03df1a17c0034aee7bb8","freq","img/orange_2bandit_b2.png","70","70","test","1","43","43","2","",""
"null","139495","pSARL_v2","pSARL_v22dkpbhrh","5fbe03df1a17c0034aee7bb8","freq_resp","img/orange_2bandit_b.png","70","70","test","","","","2","",""
"null","139651","pSARL_v2","pSARL_v22dkpbhrh","5fbe03df1a17c0034aee7bb8","fixation","img/fixation.png","null","","test","","","","","",""
"258.89999997615814","139914","pSARL_v2","pSARL_v22dkpbhrh","5fbe03df1a17c0034aee7bb8","freq","img/orange_2bandit_b2.png","70","70","test","1","44","44","2","",""
"null","140460","pSARL_v2","pSARL_v22dkpbhrh","5fbe03df1a17c0034aee7bb8","freq_resp","img/orange_2bandit_b.png","70","70","test","","","","2","",""
"null","140616","pSARL_v2","pSARL_v22dkpbhrh","5fbe03df1a17c0034aee7bb8","fixation","img/fixation.png","null","","test","","","","","",""
"282.89999997615814","140903","pSARL_v2","pSARL_v22dkpbhrh","5fbe03df1a17c0034aee7bb8","freq","img/orange_2bandit_b2.png","70","70","test","1","45","45","2","",""
"null","141430","pSARL_v2","pSARL_v22dkpbhrh","5fbe03df1a17c0034aee7bb8","freq_resp","img/orange_2bandit_b.png","70","70","test","","","","2","",""
"null","141591","pSARL_v2","pSARL_v22dkpbhrh","5fbe03df1a17c0034aee7bb8","fixation","img/fixation.png","null","","test","","","","","",""
"240.69999998807907","141836","pSARL_v2","pSARL_v22dkpbhrh","5fbe03df1a17c0034aee7bb8","freq","img/orange_2bandit_b2.png","70","70","test","1","46","46","2","",""
"null","142402","pSARL_v2","pSARL_v22dkpbhrh","5fbe03df1a17c0034aee7bb8","freq_resp","img/orange_2bandit_b.png","70","70","test","","","","2","",""
"null","142563","pSARL_v2","pSARL_v22dkpbhrh","5fbe03df1a17c0034aee7bb8","fixation","img/fixation.png","null","","test","","","","","",""
"270.0999999642372","142838","pSARL_v2","pSARL_v22dkpbhrh","5fbe03df1a17c0034aee7bb8","freq","img/orange_2bandit_b2.png","70","70","test","1","47","47","2","",""
"null","143384","pSARL_v2","pSARL_v22dkpbhrh","5fbe03df1a17c0034aee7bb8","freq_resp","img/orange_2bandit_b.png","70","70","test","","","","2","",""
"null","143546","pSARL_v2","pSARL_v22dkpbhrh","5fbe03df1a17c0034aee7bb8","fixation","img/fixation.png","null","","test","","","","","",""
"274.9000000357628","143825","pSARL_v2","pSARL_v22dkpbhrh","5fbe03df1a17c0034aee7bb8","freq","img/orange_2bandit_b2.png","70","70","test","1","48","48","2","",""
"null","144364","pSARL_v2","pSARL_v22dkpbhrh","5fbe03df1a17c0034aee7bb8","freq_resp","img/orange_2bandit_b.png","70","70","test","","","","2","",""
"null","144526","pSARL_v2","pSARL_v22dkpbhrh","5fbe03df1a17c0034aee7bb8","fixation","img/fixation.png","null","","test","","","","","",""
"690.0999999642372","145220","pSARL_v2","pSARL_v22dkpbhrh","5fbe03df1a17c0034aee7bb8","reward","img/slot.png","74","","test","","","","","",""
"null","145985","pSARL_v2","pSARL_v22dkpbhrh","5fbe03df1a17c0034aee7bb8","points","<div class=""verylowPoints""> -11 </div>","null","na","test","","","","2","-11","1"
"508","146499","pSARL_v2","pSARL_v22dkpbhrh","5fbe03df1a17c0034aee7bb8","freq","img/orange_2bandit_b2.png","70","70","test","1","49","49","3","",""
"null","146807","pSARL_v2","pSARL_v22dkpbhrh","5fbe03df1a17c0034aee7bb8","freq_resp","img/orange_2bandit_b.png","70","70","test","","","","3","",""
"null","146977","pSARL_v2","pSARL_v22dkpbhrh","5fbe03df1a17c0034aee7bb8","fixation","img/fixation.png","null","","test","","","","","",""
"436.80000001192093","147418","pSARL_v2","pSARL_v22dkpbhrh","5fbe03df1a17c0034aee7bb8","infreq","img/green_2bandit_b2.png","68","68","test","1","50","50","3","",""
"null","147795","pSARL_v2","pSARL_v22dkpbhrh","5fbe03df1a17c0034aee7bb8","infreq_resp","img/green_2bandit_b.png","68","68","test","","","","3","",""
"null","147958","pSARL_v2","pSARL_v22dkpbhrh","5fbe03df1a17c0034aee7bb8","fixation","img/fixation.png","null","","test","","","","","",""
"347","148311","pSARL_v2","pSARL_v22dkpbhrh","5fbe03df1a17c0034aee7bb8","freq","img/orange_2bandit_b2.png","70","70","test","1","51","51","3","",""
"null","148784","pSARL_v2","pSARL_v22dkpbhrh","5fbe03df1a17c0034aee7bb8","freq_resp","img/orange_2bandit_b.png","70","70","test","","","","3","",""
"null","148941","pSARL_v2","pSARL_v22dkpbhrh","5fbe03df1a17c0034aee7bb8","fixation","img/fixation.png","null","","test","","","","","",""
"172.69999998807907","149119","pSARL_v2","pSARL_v22dkpbhrh","5fbe03df1a17c0034aee7bb8","freq","img/orange_2bandit_b2.png","70","70","test","1","52","52","3","",""
"null","149764","pSARL_v2","pSARL_v22dkpbhrh","5fbe03df1a17c0034aee7bb8","freq_resp","img/orange_2bandit_b.png","70","70","test","","","","3","",""
"null","149925","pSARL_v2","pSARL_v22dkpbhrh","5fbe03df1a17c0034aee7bb8","fixation","img/fixation.png","null","","test","","","","","",""
"86.89999997615814","150016","pSARL_v2","pSARL_v22dkpbhrh","5fbe03df1a17c0034aee7bb8","freq","img/orange_2bandit_b2.png","70","70","test","1","53","53","3","",""
"null","150750","pSARL_v2","pSARL_v22dkpbhrh","5fbe03df1a17c0034aee7bb8","freq_resp","img/orange_2bandit_b.png","70","70","test","","","","3","",""
"null","150910","pSARL_v2","pSARL_v22dkpbhrh","5fbe03df1a17c0034aee7bb8","fixation","img/fixation.png","null","","test","","","","","",""
"81.60000002384186","150996","pSARL_v2","pSARL_v22dkpbhrh","5fbe03df1a17c0034aee7bb8","infreq","img/green_2bandit_b2.png","70","68","test","0","54","54","3","",""
"null","151731","pSARL_v2","pSARL_v22dkpbhrh","5fbe03df1a17c0034aee7bb8","infreq_resp","img/green_2bandit_b.png","70","68","test","","","","3","",""
"null","151894","pSARL_v2","pSARL_v22dkpbhrh","5fbe03df1a17c0034aee7bb8","fixation","img/fixation.png","null","","test","","","","","",""
"409.2999999523163","152307","pSARL_v2","pSARL_v22dkpbhrh","5fbe03df1a17c0034aee7bb8","freq","img/orange_2bandit_b2.png","70","70","test","1","55","55","3","",""
"null","152713","pSARL_v2","pSARL_v22dkpbhrh","5fbe03df1a17c0034aee7bb8","freq_resp","img/orange_2bandit_b.png","70","70","test","","","","3","",""
"null","152869","pSARL_v2","pSARL_v22dkpbhrh","5fbe03df1a17c0034aee7bb8","fixation","img/fixation.png","null","","test","","","","","",""
"268.2999999523163","153142","pSARL_v2","pSARL_v22dkpbhrh","5fbe03df1a17c0034aee7bb8","freq","img/orange_2bandit_b2.png","70","70","test","1","56","56","3","",""
"null","153691","pSARL_v2","pSARL_v22dkpbhrh","5fbe03df1a17c0034aee7bb8","freq_resp","img/orange_2bandit_b.png","70","70","test","","","","3","",""
"null","153857","pSARL_v2","pSARL_v22dkpbhrh","5fbe03df1a17c0034aee7bb8","fixation","img/fixation.png","null","","test","","","","","",""
"80.39999997615814","153941","pSARL_v2","pSARL_v22dkpbhrh","5fbe03df1a17c0034aee7bb8","freq","img/orange_2bandit_b2.png","70","70","test","1","57","57","3","",""
"null","154666","pSARL_v2","pSARL_v22dkpbhrh","5fbe03df1a17c0034aee7bb8","freq_resp","img/orange_2bandit_b.png","70","70","test","","","","3","",""
"null","154828","pSARL_v2","pSARL_v22dkpbhrh","5fbe03df1a17c0034aee7bb8","fixation","img/fixation.png","null","","test","","","","","",""
"123.69999998807907","154956","pSARL_v2","pSARL_v22dkpbhrh","5fbe03df1a17c0034aee7bb8","freq","img/orange_2bandit_b2.png","70","70","test","1","58","58","3","",""
"null","155647","pSARL_v2","pSARL_v22dkpbhrh","5fbe03df1a17c0034aee7bb8","freq_resp","img/orange_2bandit_b.png","70","70","test","","","","3","",""
"null","155810","pSARL_v2","pSARL_v22dkpbhrh","5fbe03df1a17c0034aee7bb8","fixation","img/fixation.png","null","","test","","","","","",""
"278.0999999642372","156092","pSARL_v2","pSARL_v22dkpbhrh","5fbe03df1a17c0034aee7bb8","freq","img/orange_2bandit_b2.png","70","70","test","1","59","59","3","",""
"null","156623","pSARL_v2","pSARL_v22dkpbhrh","5fbe03df1a17c0034aee7bb8","freq_resp","img/orange_2bandit_b.png","70","70","test","","","","3","",""
"null","156787","pSARL_v2","pSARL_v22dkpbhrh","5fbe03df1a17c0034aee7bb8","fixation","img/fixation.png","null","","test","","","","","",""
"269.60000002384186","157060","pSARL_v2","pSARL_v22dkpbhrh","5fbe03df1a17c0034aee7bb8","freq","img/orange_2bandit_b2.png","70","70","test","1","60","60","3","",""
"null","157594","pSARL_v2","pSARL_v22dkpbhrh","5fbe03df1a17c0034aee7bb8","freq_resp","img/orange_2bandit_b.png","70","70","test","","","","3","",""
"null","157753","pSARL_v2","pSARL_v22dkpbhrh","5fbe03df1a17c0034aee7bb8","fixation","img/fixation.png","null","","test","","","","","",""
"289.2000000476837","158046","pSARL_v2","pSARL_v22dkpbhrh","5fbe03df1a17c0034aee7bb8","freq","img/orange_2bandit_b2.png","70","70","test","1","61","61","3","",""
"null","158570","pSARL_v2","pSARL_v22dkpbhrh","5fbe03df1a17c0034aee7bb8","freq_resp","img/orange_2bandit_b.png","70","70","test","","","","3","",""
"null","158725","pSARL_v2","pSARL_v22dkpbhrh","5fbe03df1a17c0034aee7bb8","fixation","img/fixation.png","null","","test","","","","","",""
"309.19999998807907","159037","pSARL_v2","pSARL_v22dkpbhrh","5fbe03df1a17c0034aee7bb8","freq","img/orange_2bandit_b2.png","70","70","test","1","62","62","3","",""
"null","159542","pSARL_v2","pSARL_v22dkpbhrh","5fbe03df1a17c0034aee7bb8","freq_resp","img/orange_2bandit_b.png","70","70","test","","","","3","",""
"null","159711","pSARL_v2","pSARL_v22dkpbhrh","5fbe03df1a17c0034aee7bb8","fixation","img/fixation.png","null","","test","","","","","",""
"273.30000001192093","159989","pSARL_v2","pSARL_v22dkpbhrh","5fbe03df1a17c0034aee7bb8","freq","img/orange_2bandit_b2.png","70","70","test","1","63","63","3","",""
"null","160529","pSARL_v2","pSARL_v22dkpbhrh","5fbe03df1a17c0034aee7bb8","freq_resp","img/orange_2bandit_b.png","70","70","test","","","","3","",""
"null","160696","pSARL_v2","pSARL_v22dkpbhrh","5fbe03df1a17c0034aee7bb8","fixation","img/fixation.png","null","","test","","","","","",""
"267.5","160968","pSARL_v2","pSARL_v22dkpbhrh","5fbe03df1a17c0034aee7bb8","freq","img/orange_2bandit_b2.png","70","70","test","1","64","64","3","",""
"null","161512","pSARL_v2","pSARL_v22dkpbhrh","5fbe03df1a17c0034aee7bb8","freq_resp","img/orange_2bandit_b.png","70","70","test","","","","3","",""
"null","161679","pSARL_v2","pSARL_v22dkpbhrh","5fbe03df1a17c0034aee7bb8","fixation","img/fixation.png","null","","test","","","","","",""
"146.10000002384186","161830","pSARL_v2","pSARL_v22dkpbhrh","5fbe03df1a17c0034aee7bb8","freq","img/orange_2bandit_b2.png","70","70","test","1","65","65","3","",""
"null","162491","pSARL_v2","pSARL_v22dkpbhrh","5fbe03df1a17c0034aee7bb8","freq_resp","img/orange_2bandit_b.png","70","70","test","","","","3","",""
"null","162653","pSARL_v2","pSARL_v22dkpbhrh","5fbe03df1a17c0034aee7bb8","fixation","img/fixation.png","null","","test","","","","","",""
"263.9000000357628","162922","pSARL_v2","pSARL_v22dkpbhrh","5fbe03df1a17c0034aee7bb8","freq","img/orange_2bandit_b2.png","70","70","test","1","66","66","3","",""
"null","163475","pSARL_v2","pSARL_v22dkpbhrh","5fbe03df1a17c0034aee7bb8","freq_resp","img/orange_2bandit_b.png","70","70","test","","","","3","",""
"null","163638","pSARL_v2","pSARL_v22dkpbhrh","5fbe03df1a17c0034aee7bb8","fixation","img/fixation.png","null","","test","","","","","",""
"227.80000001192093","163870","pSARL_v2","pSARL_v22dkpbhrh","5fbe03df1a17c0034aee7bb8","freq","img/orange_2bandit_b2.png","70","70","test","1","67","67","3","",""
"null","164449","pSARL_v2","pSARL_v22dkpbhrh","5fbe03df1a17c0034aee7bb8","freq_resp","img/orange_2bandit_b.png","70","70","test","","","","3","",""
"null","164605","pSARL_v2","pSARL_v22dkpbhrh","5fbe03df1a17c0034aee7bb8","fixation","img/fixation.png","null","","test","","","","","",""
"546.8000000119209","165158","pSARL_v2","pSARL_v22dkpbhrh","5fbe03df1a17c0034aee7bb8","reward","img/slot.png","74","","test","","","","","",""
"null","165916","pSARL_v2","pSARL_v22dkpbhrh","5fbe03df1a17c0034aee7bb8","points","<div class=""verylowPoints""> -7 </div>","null","na","test","","","","3","-7","2"
"263.60000002384186","166184","pSARL_v2","pSARL_v22dkpbhrh","5fbe03df1a17c0034aee7bb8","freq","img/orange_2bandit_b2.png","70","70","test","1","68","68","4","",""
"null","166726","pSARL_v2","pSARL_v22dkpbhrh","5fbe03df1a17c0034aee7bb8","freq_resp","img/orange_2bandit_b.png","70","70","test","","","","4","",""
"null","166889","pSARL_v2","pSARL_v22dkpbhrh","5fbe03df1a17c0034aee7bb8","fixation","img/fixation.png","null","","test","","","","","",""
"474.5","167366","pSARL_v2","pSARL_v22dkpbhrh","5fbe03df1a17c0034aee7bb8","freq","img/orange_2bandit_b2.png","70","70","test","1","69","69","4","",""
"null","167704","pSARL_v2","pSARL_v22dkpbhrh","5fbe03df1a17c0034aee7bb8","freq_resp","img/orange_2bandit_b.png","70","70","test","","","","4","",""
"null","167876","pSARL_v2","pSARL_v22dkpbhrh","5fbe03df1a17c0034aee7bb8","fixation","img/fixation.png","null","","test","","","","","",""
"285.80000001192093","168166","pSARL_v2","pSARL_v22dkpbhrh","5fbe03df1a17c0034aee7bb8","freq","img/orange_2bandit_b2.png","70","70","test","1","70","70","4","",""
"null","168693","pSARL_v2","pSARL_v22dkpbhrh","5fbe03df1a17c0034aee7bb8","freq_resp","img/orange_2bandit_b.png","70","70","test","","","","4","",""
"null","168865","pSARL_v2","pSARL_v22dkpbhrh","5fbe03df1a17c0034aee7bb8","fixation","img/fixation.png","null","","test","","","","","",""
"340.2999999523163","169209","pSARL_v2","pSARL_v22dkpbhrh","5fbe03df1a17c0034aee7bb8","freq","img/orange_2bandit_b2.png","70","70","test","1","71","71","4","",""
"null","169674","pSARL_v2","pSARL_v22dkpbhrh","5fbe03df1a17c0034aee7bb8","freq_resp","img/orange_2bandit_b.png","70","70","test","","","","4","",""
"null","169840","pSARL_v2","pSARL_v22dkpbhrh","5fbe03df1a17c0034aee7bb8","fixation","img/fixation.png","null","","test","","","","","",""
"209.5","170053","pSARL_v2","pSARL_v22dkpbhrh","5fbe03df1a17c0034aee7bb8","freq","img/orange_2bandit_b2.png","70","70","test","1","72","72","4","",""
"null","170658","pSARL_v2","pSARL_v22dkpbhrh","5fbe03df1a17c0034aee7bb8","freq_resp","img/orange_2bandit_b.png","70","70","test","","","","4","",""
"null","170821","pSARL_v2","pSARL_v22dkpbhrh","5fbe03df1a17c0034aee7bb8","fixation","img/fixation.png","null","","test","","","","","",""
"117.30000001192093","170943","pSARL_v2","pSARL_v22dkpbhrh","5fbe03df1a17c0034aee7bb8","freq","img/orange_2bandit_b2.png","70","70","test","1","73","73","4","",""
"null","171633","pSARL_v2","pSARL_v22dkpbhrh","5fbe03df1a17c0034aee7bb8","freq_resp","img/orange_2bandit_b.png","70","70","test","","","","4","",""
"null","171791","pSARL_v2","pSARL_v22dkpbhrh","5fbe03df1a17c0034aee7bb8","fixation","img/fixation.png","null","","test","","","","","",""
"263.30000001192093","172059","pSARL_v2","pSARL_v22dkpbhrh","5fbe03df1a17c0034aee7bb8","freq","img/orange_2bandit_b2.png","70","70","test","1","74","74","4","",""
"null","172607","pSARL_v2","pSARL_v22dkpbhrh","5fbe03df1a17c0034aee7bb8","freq_resp","img/orange_2bandit_b.png","70","70","test","","","","4","",""
"null","172761","pSARL_v2","pSARL_v22dkpbhrh","5fbe03df1a17c0034aee7bb8","fixation","img/fixation.png","null","","test","","","","","",""
"245.10000002384186","173010","pSARL_v2","pSARL_v22dkpbhrh","5fbe03df1a17c0034aee7bb8","infreq","img/green_2bandit_b2.png","70","68","test","0","75","75","4","",""
"null","173583","pSARL_v2","pSARL_v22dkpbhrh","5fbe03df1a17c0034aee7bb8","infreq_resp","img/green_2bandit_b.png","70","68","test","","","","4","",""
"null","173738","pSARL_v2","pSARL_v22dkpbhrh","5fbe03df1a17c0034aee7bb8","fixation","img/fixation.png","null","","test","","","","","",""
"309.89999997615814","174052","pSARL_v2","pSARL_v22dkpbhrh","5fbe03df1a17c0034aee7bb8","freq","img/orange_2bandit_b2.png","70","70","test","1","76","76","4","",""
"null","174551","pSARL_v2","pSARL_v22dkpbhrh","5fbe03df1a17c0034aee7bb8","freq_resp","img/orange_2bandit_b.png","70","70","test","","","","4","",""
"null","174711","pSARL_v2","pSARL_v22dkpbhrh","5fbe03df1a17c0034aee7bb8","fixation","img/fixation.png","null","","test","","","","","",""
"236.30000001192093","174951","pSARL_v2","pSARL_v22dkpbhrh","5fbe03df1a17c0034aee7bb8","freq","img/orange_2bandit_b2.png","70","70","test","1","77","77","4","",""
"null","175528","pSARL_v2","pSARL_v22dkpbhrh","5fbe03df1a17c0034aee7bb8","freq_resp","img/orange_2bandit_b.png","70","70","test","","","","4","",""
"null","175688","pSARL_v2","pSARL_v22dkpbhrh","5fbe03df1a17c0034aee7bb8","fixation","img/fixation.png","null","","test","","","","","",""
"231.19999998807907","175923","pSARL_v2","pSARL_v22dkpbhrh","5fbe03df1a17c0034aee7bb8","infreq","img/green_2bandit_b2.png","70","68","test","0","78","78","4","",""
"null","176502","pSARL_v2","pSARL_v22dkpbhrh","5fbe03df1a17c0034aee7bb8","infreq_resp","img/green_2bandit_b.png","70","68","test","","","","4","",""
"null","176670","pSARL_v2","pSARL_v22dkpbhrh","5fbe03df1a17c0034aee7bb8","fixation","img/fixation.png","null","","test","","","","","",""
"291.80000001192093","176965","pSARL_v2","pSARL_v22dkpbhrh","5fbe03df1a17c0034aee7bb8","freq","img/orange_2bandit_b2.png","70","70","test","1","79","79","4","",""
"null","177486","pSARL_v2","pSARL_v22dkpbhrh","5fbe03df1a17c0034aee7bb8","freq_resp","img/orange_2bandit_b.png","70","70","test","","","","4","",""
"null","177652","pSARL_v2","pSARL_v22dkpbhrh","5fbe03df1a17c0034aee7bb8","fixation","img/fixation.png","null","","test","","","","","",""
"260.19999998807907","177916","pSARL_v2","pSARL_v22dkpbhrh","5fbe03df1a17c0034aee7bb8","freq","img/orange_2bandit_b2.png","70","70","test","1","80","80","4","",""
"null","178474","pSARL_v2","pSARL_v22dkpbhrh","5fbe03df1a17c0034aee7bb8","freq_resp","img/orange_2bandit_b.png","70","70","test","","","","4","",""
"null","178638","pSARL_v2","pSARL_v22dkpbhrh","5fbe03df1a17c0034aee7bb8","fixation","img/fixation.png","null","","test","","","","","",""
"382.5","179024","pSARL_v2","pSARL_v22dkpbhrh","5fbe03df1a17c0034aee7bb8","freq","img/orange_2bandit_b2.png","70","70","test","1","81","81","4","",""
"null","179453","pSARL_v2","pSARL_v22dkpbhrh","5fbe03df1a17c0034aee7bb8","freq_resp","img/orange_2bandit_b.png","70","70","test","","","","4","",""
"null","179621","pSARL_v2","pSARL_v22dkpbhrh","5fbe03df1a17c0034aee7bb8","fixation","img/fixation.png","null","","test","","","","","",""
"278.9000000357628","179904","pSARL_v2","pSARL_v22dkpbhrh","5fbe03df1a17c0034aee7bb8","freq","img/orange_2bandit_b2.png","70","70","test","1","82","82","4","",""
"null","180442","pSARL_v2","pSARL_v22dkpbhrh","5fbe03df1a17c0034aee7bb8","freq_resp","img/orange_2bandit_b.png","70","70","test","","","","4","",""
"null","180605","pSARL_v2","pSARL_v22dkpbhrh","5fbe03df1a17c0034aee7bb8","fixation","img/fixation.png","null","","test","","","","","",""
"253.30000001192093","180863","pSARL_v2","pSARL_v22dkpbhrh","5fbe03df1a17c0034aee7bb8","freq","img/orange_2bandit_b2.png","70","70","test","1","83","83","4","",""
"null","181426","pSARL_v2","pSARL_v22dkpbhrh","5fbe03df1a17c0034aee7bb8","freq_resp","img/orange_2bandit_b.png","70","70","test","","","","4","",""
"null","181591","pSARL_v2","pSARL_v22dkpbhrh","5fbe03df1a17c0034aee7bb8","fixation","img/fixation.png","null","","test","","","","","",""
"232.30000001192093","181828","pSARL_v2","pSARL_v22dkpbhrh","5fbe03df1a17c0034aee7bb8","freq","img/orange_2bandit_b2.png","70","70","test","1","84","84","4","",""
"null","182411","pSARL_v2","pSARL_v22dkpbhrh","5fbe03df1a17c0034aee7bb8","freq_resp","img/orange_2bandit_b.png","70","70","test","","","","4","",""
"null","182573","pSARL_v2","pSARL_v22dkpbhrh","5fbe03df1a17c0034aee7bb8","fixation","img/fixation.png","null","","test","","","","","",""
"284.39999997615814","182861","pSARL_v2","pSARL_v22dkpbhrh","5fbe03df1a17c0034aee7bb8","freq","img/orange_2bandit_b2.png","70","70","test","1","85","85","4","",""
"null","183385","pSARL_v2","pSARL_v22dkpbhrh","5fbe03df1a17c0034aee7bb8","freq_resp","img/orange_2bandit_b.png","70","70","test","","","","4","",""
"null","183549","pSARL_v2","pSARL_v22dkpbhrh","5fbe03df1a17c0034aee7bb8","fixation","img/fixation.png","null","","test","","","","","",""
"296","183848","pSARL_v2","pSARL_v22dkpbhrh","5fbe03df1a17c0034aee7bb8","freq","img/orange_2bandit_b2.png","70","70","test","1","86","86","4","",""
"null","184370","pSARL_v2","pSARL_v22dkpbhrh","5fbe03df1a17c0034aee7bb8","freq_resp","img/orange_2bandit_b.png","70","70","test","","","","4","",""
"null","184526","pSARL_v2","pSARL_v22dkpbhrh","5fbe03df1a17c0034aee7bb8","fixation","img/fixation.png","null","","test","","","","","",""
"324.30000001192093","184854","pSARL_v2","pSARL_v22dkpbhrh","5fbe03df1a17c0034aee7bb8","freq","img/orange_2bandit_b2.png","70","70","test","1","87","87","4","",""
"null","185334","pSARL_v2","pSARL_v22dkpbhrh","5fbe03df1a17c0034aee7bb8","freq_resp","img/orange_2bandit_b.png","70","70","test","","","","4","",""
"null","185493","pSARL_v2","pSARL_v22dkpbhrh","5fbe03df1a17c0034aee7bb8","fixation","img/fixation.png","null","","test","","","","","",""
"269.69999998807907","185766","pSARL_v2","pSARL_v22dkpbhrh","5fbe03df1a17c0034aee7bb8","freq","img/orange_2bandit_b2.png","70","70","test","1","88","88","4","",""
"null","186314","pSARL_v2","pSARL_v22dkpbhrh","5fbe03df1a17c0034aee7bb8","freq_resp","img/orange_2bandit_b.png","70","70","test","","","","4","",""
"null","186473","pSARL_v2","pSARL_v22dkpbhrh","5fbe03df1a17c0034aee7bb8","fixation","img/fixation.png","null","","test","","","","","",""
"276.5","186753","pSARL_v2","pSARL_v22dkpbhrh","5fbe03df1a17c0034aee7bb8","freq","img/orange_2bandit_b2.png","70","70","test","1","89","89","4","",""
"null","187292","pSARL_v2","pSARL_v22dkpbhrh","5fbe03df1a17c0034aee7bb8","freq_resp","img/orange_2bandit_b.png","70","70","test","","","","4","",""
"null","187448","pSARL_v2","pSARL_v22dkpbhrh","5fbe03df1a17c0034aee7bb8","fixation","img/fixation.png","null","","test","","","","","",""
"301.9000000357628","187753","pSARL_v2","pSARL_v22dkpbhrh","5fbe03df1a17c0034aee7bb8","freq","img/orange_2bandit_b2.png","70","70","test","1","90","90","4","",""
"null","188266","pSARL_v2","pSARL_v22dkpbhrh","5fbe03df1a17c0034aee7bb8","freq_resp","img/orange_2bandit_b.png","70","70","test","","","","4","",""
"null","188428","pSARL_v2","pSARL_v22dkpbhrh","5fbe03df1a17c0034aee7bb8","fixation","img/fixation.png","null","","test","","","","","",""
"469.2999999523163","188900","pSARL_v2","pSARL_v22dkpbhrh","5fbe03df1a17c0034aee7bb8","reward","img/slot.png","74","","test","","","","","",""
"null","189656","pSARL_v2","pSARL_v22dkpbhrh","5fbe03df1a17c0034aee7bb8","points","<div class=""verylowPoints""> -3 </div>","null","na","test","","","","4","-3","3"
"545.5","190206","pSARL_v2","pSARL_v22dkpbhrh","5fbe03df1a17c0034aee7bb8","freq","img/orange_2bandit_b2.png","70","70","test","1","91","91","5","",""
"null","190476","pSARL_v2","pSARL_v22dkpbhrh","5fbe03df1a17c0034aee7bb8","freq_resp","img/orange_2bandit_b.png","70","70","test","","","","5","",""
"null","190642","pSARL_v2","pSARL_v22dkpbhrh","5fbe03df1a17c0034aee7bb8","fixation","img/fixation.png","null","","test","","","","","",""
"374.5","191020","pSARL_v2","pSARL_v22dkpbhrh","5fbe03df1a17c0034aee7bb8","freq","img/orange_2bandit_b2.png","70","70","test","1","92","92","5","",""
"null","191451","pSARL_v2","pSARL_v22dkpbhrh","5fbe03df1a17c0034aee7bb8","freq_resp","img/orange_2bandit_b.png","70","70","test","","","","5","",""
"null","191621","pSARL_v2","pSARL_v22dkpbhrh","5fbe03df1a17c0034aee7bb8","fixation","img/fixation.png","null","","test","","","","","",""
"273.9000000357628","191898","pSARL_v2","pSARL_v22dkpbhrh","5fbe03df1a17c0034aee7bb8","freq","img/orange_2bandit_b2.png","70","70","test","1","93","93","5","",""
"null","192430","pSARL_v2","pSARL_v22dkpbhrh","5fbe03df1a17c0034aee7bb8","freq_resp","img/orange_2bandit_b.png","70","70","test","","","","5","",""
"null","192595","pSARL_v2","pSARL_v22dkpbhrh","5fbe03df1a17c0034aee7bb8","fixation","img/fixation.png","null","","test","","","","","",""
"152.10000002384186","192751","pSARL_v2","pSARL_v22dkpbhrh","5fbe03df1a17c0034aee7bb8","freq","img/orange_2bandit_b2.png","70","70","test","1","94","94","5","",""
"null","193407","pSARL_v2","pSARL_v22dkpbhrh","5fbe03df1a17c0034aee7bb8","freq_resp","img/orange_2bandit_b.png","70","70","test","","","","5","",""
"null","193562","pSARL_v2","pSARL_v22dkpbhrh","5fbe03df1a17c0034aee7bb8","fixation","img/fixation.png","null","","test","","","","","",""
"109.59999996423721","193676","pSARL_v2","pSARL_v22dkpbhrh","5fbe03df1a17c0034aee7bb8","freq","img/orange_2bandit_b2.png","70","70","test","1","95","95","5","",""
"null","194386","pSARL_v2","pSARL_v22dkpbhrh","5fbe03df1a17c0034aee7bb8","freq_resp","img/orange_2bandit_b.png","70","70","test","","","","5","",""
"null","194547","pSARL_v2","pSARL_v22dkpbhrh","5fbe03df1a17c0034aee7bb8","fixation","img/fixation.png","null","","test","","","","","",""
"252.30000001192093","194803","pSARL_v2","pSARL_v22dkpbhrh","5fbe03df1a17c0034aee7bb8","freq","img/orange_2bandit_b2.png","70","70","test","1","96","96","5","",""
"null","195357","pSARL_v2","pSARL_v22dkpbhrh","5fbe03df1a17c0034aee7bb8","freq_resp","img/orange_2bandit_b.png","70","70","test","","","","5","",""
"null","195522","pSARL_v2","pSARL_v22dkpbhrh","5fbe03df1a17c0034aee7bb8","fixation","img/fixation.png","null","","test","","","","","",""
"166.30000001192093","195693","pSARL_v2","pSARL_v22dkpbhrh","5fbe03df1a17c0034aee7bb8","freq","img/orange_2bandit_b2.png","70","70","test","1","97","97","5","",""
"null","196332","pSARL_v2","pSARL_v22dkpbhrh","5fbe03df1a17c0034aee7bb8","freq_resp","img/orange_2bandit_b.png","70","70","test","","","","5","",""
"null","196490","pSARL_v2","pSARL_v22dkpbhrh","5fbe03df1a17c0034aee7bb8","fixation","img/fixation.png","null","","test","","","","","",""
"104.40000003576279","196598","pSARL_v2","pSARL_v22dkpbhrh","5fbe03df1a17c0034aee7bb8","infreq","img/green_2bandit_b2.png","70","68","test","0","98","98","5","",""
"null","197305","pSARL_v2","pSARL_v22dkpbhrh","5fbe03df1a17c0034aee7bb8","infreq_resp","img/green_2bandit_b.png","70","68","test","","","","5","",""
"null","197474","pSARL_v2","pSARL_v22dkpbhrh","5fbe03df1a17c0034aee7bb8","fixation","img/fixation.png","null","","test","","","","","",""
"308.69999998807907","197787","pSARL_v2","pSARL_v22dkpbhrh","5fbe03df1a17c0034aee7bb8","freq","img/orange_2bandit_b2.png","70","70","test","1","99","99","5","",""
"null","198285","pSARL_v2","pSARL_v22dkpbhrh","5fbe03df1a17c0034aee7bb8","freq_resp","img/orange_2bandit_b.png","70","70","test","","","","5","",""
"null","198454","pSARL_v2","pSARL_v22dkpbhrh","5fbe03df1a17c0034aee7bb8","fixation","img/fixation.png","null","","test","","","","","",""
"274","198732","pSARL_v2","pSARL_v22dkpbhrh","5fbe03df1a17c0034aee7bb8","freq","img/orange_2bandit_b2.png","70","70","test","1","100","100","5","",""
"null","199277","pSARL_v2","pSARL_v22dkpbhrh","5fbe03df1a17c0034aee7bb8","freq_resp","img/orange_2bandit_b.png","70","70","test","","","","5","",""
"null","199441","pSARL_v2","pSARL_v22dkpbhrh","5fbe03df1a17c0034aee7bb8","fixation","img/fixation.png","null","","test","","","","","",""
"107","199552","pSARL_v2","pSARL_v22dkpbhrh","5fbe03df1a17c0034aee7bb8","freq","img/orange_2bandit_b2.png","70","70","test","1","101","101","5","",""
"null","200253","pSARL_v2","pSARL_v22dkpbhrh","5fbe03df1a17c0034aee7bb8","freq_resp","img/orange_2bandit_b.png","70","70","test","","","","5","",""
"null","200412","pSARL_v2","pSARL_v22dkpbhrh","5fbe03df1a17c0034aee7bb8","fixation","img/fixation.png","null","","test","","","","","",""
"137","200553","pSARL_v2","pSARL_v22dkpbhrh","5fbe03df1a17c0034aee7bb8","freq","img/orange_2bandit_b2.png","70","70","test","1","102","102","5","",""
"null","201233","pSARL_v2","pSARL_v22dkpbhrh","5fbe03df1a17c0034aee7bb8","freq_resp","img/orange_2bandit_b.png","70","70","test","","","","5","",""
"null","201391","pSARL_v2","pSARL_v22dkpbhrh","5fbe03df1a17c0034aee7bb8","fixation","img/fixation.png","null","","test","","","","","",""
"287.19999998807907","201681","pSARL_v2","pSARL_v22dkpbhrh","5fbe03df1a17c0034aee7bb8","freq","img/orange_2bandit_b2.png","70","70","test","1","103","103","5","",""
"null","202213","pSARL_v2","pSARL_v22dkpbhrh","5fbe03df1a17c0034aee7bb8","freq_resp","img/orange_2bandit_b.png","70","70","test","","","","5","",""
"null","202372","pSARL_v2","pSARL_v22dkpbhrh","5fbe03df1a17c0034aee7bb8","fixation","img/fixation.png","null","","test","","","","","",""
"328.10000002384186","202704","pSARL_v2","pSARL_v22dkpbhrh","5fbe03df1a17c0034aee7bb8","freq","img/orange_2bandit_b2.png","70","70","test","1","104","104","5","",""
"null","203179","pSARL_v2","pSARL_v22dkpbhrh","5fbe03df1a17c0034aee7bb8","freq_resp","img/orange_2bandit_b.png","70","70","test","","","","5","",""
"null","203342","pSARL_v2","pSARL_v22dkpbhrh","5fbe03df1a17c0034aee7bb8","fixation","img/fixation.png","null","","test","","","","","",""
"285.2000000476837","203632","pSARL_v2","pSARL_v22dkpbhrh","5fbe03df1a17c0034aee7bb8","freq","img/orange_2bandit_b2.png","70","70","test","1","105","105","5","",""
"null","204155","pSARL_v2","pSARL_v22dkpbhrh","5fbe03df1a17c0034aee7bb8","freq_resp","img/orange_2bandit_b.png","70","70","test","","","","5","",""
"null","204311","pSARL_v2","pSARL_v22dkpbhrh","5fbe03df1a17c0034aee7bb8","fixation","img/fixation.png","null","","test","","","","","",""
"283.60000002384186","204599","pSARL_v2","pSARL_v22dkpbhrh","5fbe03df1a17c0034aee7bb8","freq","img/orange_2bandit_b2.png","70","70","test","1","106","106","5","",""
"null","205124","pSARL_v2","pSARL_v22dkpbhrh","5fbe03df1a17c0034aee7bb8","freq_resp","img/orange_2bandit_b.png","70","70","test","","","","5","",""
"null","205286","pSARL_v2","pSARL_v22dkpbhrh","5fbe03df1a17c0034aee7bb8","fixation","img/fixation.png","null","","test","","","","","",""
"284.69999998807907","205575","pSARL_v2","pSARL_v22dkpbhrh","5fbe03df1a17c0034aee7bb8","freq","img/orange_2bandit_b2.png","70","70","test","1","107","107","5","",""
"null","206107","pSARL_v2","pSARL_v22dkpbhrh","5fbe03df1a17c0034aee7bb8","freq_resp","img/orange_2bandit_b.png","70","70","test","","","","5","",""
"null","206279","pSARL_v2","pSARL_v22dkpbhrh","5fbe03df1a17c0034aee7bb8","fixation","img/fixation.png","null","","test","","","","","",""
"271.60000002384186","206554","pSARL_v2","pSARL_v22dkpbhrh","5fbe03df1a17c0034aee7bb8","freq","img/orange_2bandit_b2.png","70","70","test","1","108","108","5","",""
"null","207093","pSARL_v2","pSARL_v22dkpbhrh","5fbe03df1a17c0034aee7bb8","freq_resp","img/orange_2bandit_b.png","70","70","test","","","","5","",""
"null","207259","pSARL_v2","pSARL_v22dkpbhrh","5fbe03df1a17c0034aee7bb8","fixation","img/fixation.png","null","","test","","","","","",""
"307.89999997615814","207571","pSARL_v2","pSARL_v22dkpbhrh","5fbe03df1a17c0034aee7bb8","freq","img/orange_2bandit_b2.png","70","70","test","1","109","109","5","",""
"null","208080","pSARL_v2","pSARL_v22dkpbhrh","5fbe03df1a17c0034aee7bb8","freq_resp","img/orange_2bandit_b.png","70","70","test","","","","5","",""
"null","208244","pSARL_v2","pSARL_v22dkpbhrh","5fbe03df1a17c0034aee7bb8","fixation","img/fixation.png","null","","test","","","","","",""
"272.19999998807907","208522","pSARL_v2","pSARL_v22dkpbhrh","5fbe03df1a17c0034aee7bb8","infreq","img/green_2bandit_b2.png","70","68","test","0","110","110","5","",""
"null","209058","pSARL_v2","pSARL_v22dkpbhrh","5fbe03df1a17c0034aee7bb8","infreq_resp","img/green_2bandit_b.png","70","68","test","","","","5","",""
"null","209216","pSARL_v2","pSARL_v22dkpbhrh","5fbe03df1a17c0034aee7bb8","fixation","img/fixation.png","null","","test","","","","","",""
"261.2999999523163","209482","pSARL_v2","pSARL_v22dkpbhrh","5fbe03df1a17c0034aee7bb8","freq","img/orange_2bandit_b2.png","70","70","test","1","111","111","5","",""
"null","210031","pSARL_v2","pSARL_v22dkpbhrh","5fbe03df1a17c0034aee7bb8","freq_resp","img/orange_2bandit_b.png","70","70","test","","","","5","",""
"null","210187","pSARL_v2","pSARL_v22dkpbhrh","5fbe03df1a17c0034aee7bb8","fixation","img/fixation.png","null","","test","","","","","",""
"109.10000002384186","210301","pSARL_v2","pSARL_v22dkpbhrh","5fbe03df1a17c0034aee7bb8","freq","img/orange_2bandit_b2.png","70","70","test","1","112","112","5","",""
"null","210998","pSARL_v2","pSARL_v22dkpbhrh","5fbe03df1a17c0034aee7bb8","freq_resp","img/orange_2bandit_b.png","70","70","test","","","","5","",""
"null","211157","pSARL_v2","pSARL_v22dkpbhrh","5fbe03df1a17c0034aee7bb8","fixation","img/fixation.png","null","","test","","","","","",""
"417.19999998807907","211577","pSARL_v2","pSARL_v22dkpbhrh","5fbe03df1a17c0034aee7bb8","reward","img/slot.png","74","","test","","","","","",""
"null","212333","pSARL_v2","pSARL_v22dkpbhrh","5fbe03df1a17c0034aee7bb8","points","<div class=""veryhighPoints""> +1 </div>","null","na","test","","","","5","1","4"
"504.89999997615814","212842","pSARL_v2","pSARL_v22dkpbhrh","5fbe03df1a17c0034aee7bb8","freq","img/orange_2bandit_b2.png","70","70","test","1","113","113","6","",""
"null","213154","pSARL_v2","pSARL_v22dkpbhrh","5fbe03df1a17c0034aee7bb8","freq_resp","img/orange_2bandit_b.png","70","70","test","","","","6","",""
"null","213311","pSARL_v2","pSARL_v22dkpbhrh","5fbe03df1a17c0034aee7bb8","fixation","img/fixation.png","null","","test","","","","","",""
"374.5","213691","pSARL_v2","pSARL_v22dkpbhrh","5fbe03df1a17c0034aee7bb8","freq","img/orange_2bandit_b2.png","70","70","test","1","114","114","6","",""
"null","214136","pSARL_v2","pSARL_v22dkpbhrh","5fbe03df1a17c0034aee7bb8","freq_resp","img/orange_2bandit_b.png","70","70","test","","","","6","",""
"null","214297","pSARL_v2","pSARL_v22dkpbhrh","5fbe03df1a17c0034aee7bb8","fixation","img/fixation.png","null","","test","","","","","",""
"139.69999998807907","214442","pSARL_v2","pSARL_v22dkpbhrh","5fbe03df1a17c0034aee7bb8","freq","img/orange_2bandit_b2.png","70","70","test","1","115","115","6","",""
"null","215122","pSARL_v2","pSARL_v22dkpbhrh","5fbe03df1a17c0034aee7bb8","freq_resp","img/orange_2bandit_b.png","70","70","test","","","","6","",""
"null","215286","pSARL_v2","pSARL_v22dkpbhrh","5fbe03df1a17c0034aee7bb8","fixation","img/fixation.png","null","","test","","","","","",""
"95.5","215389","pSARL_v2","pSARL_v22dkpbhrh","5fbe03df1a17c0034aee7bb8","freq","img/orange_2bandit_b2.png","70","70","test","1","116","116","6","",""
"null","216114","pSARL_v2","pSARL_v22dkpbhrh","5fbe03df1a17c0034aee7bb8","freq_resp","img/orange_2bandit_b.png","70","70","test","","","","6","",""
"null","216282","pSARL_v2","pSARL_v22dkpbhrh","5fbe03df1a17c0034aee7bb8","fixation","img/fixation.png","null","","test","","","","","",""
"178.5","216466","pSARL_v2","pSARL_v22dkpbhrh","5fbe03df1a17c0034aee7bb8","freq","img/orange_2bandit_b2.png","70","70","test","1","117","117","6","",""
"null","217105","pSARL_v2","pSARL_v22dkpbhrh","5fbe03df1a17c0034aee7bb8","freq_resp","img/orange_2bandit_b.png","70","70","test","","","","6","",""
"null","217277","pSARL_v2","pSARL_v22dkpbhrh","5fbe03df1a17c0034aee7bb8","fixation","img/fixation.png","null","","test","","","","","",""
"129.30000001192093","217411","pSARL_v2","pSARL_v22dkpbhrh","5fbe03df1a17c0034aee7bb8","freq","img/orange_2bandit_b2.png","70","70","test","1","118","118","6","",""
"null","218093","pSARL_v2","pSARL_v22dkpbhrh","5fbe03df1a17c0034aee7bb8","freq_resp","img/orange_2bandit_b.png","70","70","test","","","","6","",""
"null","218260","pSARL_v2","pSARL_v22dkpbhrh","5fbe03df1a17c0034aee7bb8","fixation","img/fixation.png","null","","test","","","","","",""
"112.30000001192093","218379","pSARL_v2","pSARL_v22dkpbhrh","5fbe03df1a17c0034aee7bb8","freq","img/orange_2bandit_b2.png","70","70","test","1","119","119","6","",""
"null","219074","pSARL_v2","pSARL_v22dkpbhrh","5fbe03df1a17c0034aee7bb8","freq_resp","img/orange_2bandit_b.png","70","70","test","","","","6","",""
"null","219240","pSARL_v2","pSARL_v22dkpbhrh","5fbe03df1a17c0034aee7bb8","fixation","img/fixation.png","null","","test","","","","","",""
"203.5","219449","pSARL_v2","pSARL_v22dkpbhrh","5fbe03df1a17c0034aee7bb8","freq","img/orange_2bandit_b2.png","70","70","test","1","120","120","6","",""
"null","220064","pSARL_v2","pSARL_v22dkpbhrh","5fbe03df1a17c0034aee7bb8","freq_resp","img/orange_2bandit_b.png","70","70","test","","","","6","",""
"null","220221","pSARL_v2","pSARL_v22dkpbhrh","5fbe03df1a17c0034aee7bb8","fixation","img/fixation.png","null","","test","","","","","",""
"305.5999999642372","220533","pSARL_v2","pSARL_v22dkpbhrh","5fbe03df1a17c0034aee7bb8","freq","img/orange_2bandit_b2.png","70","70","test","1","121","121","6","",""
"null","221034","pSARL_v2","pSARL_v22dkpbhrh","5fbe03df1a17c0034aee7bb8","freq_resp","img/orange_2bandit_b.png","70","70","test","","","","6","",""
"null","221193","pSARL_v2","pSARL_v22dkpbhrh","5fbe03df1a17c0034aee7bb8","fixation","img/fixation.png","null","","test","","","","","",""
"344.89999997615814","221543","pSARL_v2","pSARL_v22dkpbhrh","5fbe03df1a17c0034aee7bb8","freq","img/orange_2bandit_b2.png","70","70","test","1","122","122","6","",""
"null","222010","pSARL_v2","pSARL_v22dkpbhrh","5fbe03df1a17c0034aee7bb8","freq_resp","img/orange_2bandit_b.png","70","70","test","","","","6","",""
"null","222180","pSARL_v2","pSARL_v22dkpbhrh","5fbe03df1a17c0034aee7bb8","fixation","img/fixation.png","null","","test","","","","","",""
"507.5999999642372","222694","pSARL_v2","pSARL_v22dkpbhrh","5fbe03df1a17c0034aee7bb8","freq","img/orange_2bandit_b2.png","70","70","test","1","123","123","6","",""
"null","223004","pSARL_v2","pSARL_v22dkpbhrh","5fbe03df1a17c0034aee7bb8","freq_resp","img/orange_2bandit_b.png","70","70","test","","","","6","",""
"null","223171","pSARL_v2","pSARL_v22dkpbhrh","5fbe03df1a17c0034aee7bb8","fixation","img/fixation.png","null","","test","","","","","",""
"307.69999998807907","223483","pSARL_v2","pSARL_v22dkpbhrh","5fbe03df1a17c0034aee7bb8","freq","img/orange_2bandit_b2.png","70","70","test","1","124","124","6","",""
"null","223994","pSARL_v2","pSARL_v22dkpbhrh","5fbe03df1a17c0034aee7bb8","freq_resp","img/orange_2bandit_b.png","70","70","test","","","","6","",""
"null","224156","pSARL_v2","pSARL_v22dkpbhrh","5fbe03df1a17c0034aee7bb8","fixation","img/fixation.png","null","","test","","","","","",""
"320.0999999642372","224482","pSARL_v2","pSARL_v22dkpbhrh","5fbe03df1a17c0034aee7bb8","freq","img/orange_2bandit_b2.png","70","70","test","1","125","125","6","",""
"null","224970","pSARL_v2","pSARL_v22dkpbhrh","5fbe03df1a17c0034aee7bb8","freq_resp","img/orange_2bandit_b.png","70","70","test","","","","6","",""
"null","225126","pSARL_v2","pSARL_v22dkpbhrh","5fbe03df1a17c0034aee7bb8","fixation","img/fixation.png","null","","test","","","","","",""
"355.89999997615814","225487","pSARL_v2","pSARL_v22dkpbhrh","5fbe03df1a17c0034aee7bb8","infreq","img/green_2bandit_b2.png","68","68","test","1","126","126","6","",""
"null","225941","pSARL_v2","pSARL_v22dkpbhrh","5fbe03df1a17c0034aee7bb8","infreq_resp","img/green_2bandit_b.png","68","68","test","","","","6","",""
"null","226108","pSARL_v2","pSARL_v22dkpbhrh","5fbe03df1a17c0034aee7bb8","fixation","img/fixation.png","null","","test","","","","","",""
"284.19999998807907","226397","pSARL_v2","pSARL_v22dkpbhrh","5fbe03df1a17c0034aee7bb8","freq","img/orange_2bandit_b2.png","70","70","test","1","127","127","6","",""
"null","226918","pSARL_v2","pSARL_v22dkpbhrh","5fbe03df1a17c0034aee7bb8","freq_resp","img/orange_2bandit_b.png","70","70","test","","","","6","",""
"null","227078","pSARL_v2","pSARL_v22dkpbhrh","5fbe03df1a17c0034aee7bb8","fixation","img/fixation.png","null","","test","","","","","",""
"218.5","227302","pSARL_v2","pSARL_v22dkpbhrh","5fbe03df1a17c0034aee7bb8","infreq","img/green_2bandit_b2.png","70","68","test","0","128","128","6","",""
"null","227900","pSARL_v2","pSARL_v22dkpbhrh","5fbe03df1a17c0034aee7bb8","infreq_resp","img/green_2bandit_b.png","70","68","test","","","","6","",""
"null","228069","pSARL_v2","pSARL_v22dkpbhrh","5fbe03df1a17c0034aee7bb8","fixation","img/fixation.png","null","","test","","","","","",""
"310.7000000476837","228384","pSARL_v2","pSARL_v22dkpbhrh","5fbe03df1a17c0034aee7bb8","freq","img/orange_2bandit_b2.png","70","70","test","1","129","129","6","",""
"null","228883","pSARL_v2","pSARL_v22dkpbhrh","5fbe03df1a17c0034aee7bb8","freq_resp","img/orange_2bandit_b.png","70","70","test","","","","6","",""
"null","229054","pSARL_v2","pSARL_v22dkpbhrh","5fbe03df1a17c0034aee7bb8","fixation","img/fixation.png","null","","test","","","","","",""
"476.80000001192093","229536","pSARL_v2","pSARL_v22dkpbhrh","5fbe03df1a17c0034aee7bb8","infreq","img/green_2bandit_b2.png","68","68","test","1","130","130","6","",""
"null","229879","pSARL_v2","pSARL_v22dkpbhrh","5fbe03df1a17c0034aee7bb8","infreq_resp","img/green_2bandit_b.png","68","68","test","","","","6","",""
"null","230042","pSARL_v2","pSARL_v22dkpbhrh","5fbe03df1a17c0034aee7bb8","fixation","img/fixation.png","null","","test","","","","","",""
"368.7999999523163","230414","pSARL_v2","pSARL_v22dkpbhrh","5fbe03df1a17c0034aee7bb8","freq","img/orange_2bandit_b2.png","70","70","test","1","131","131","6","",""
"null","230866","pSARL_v2","pSARL_v22dkpbhrh","5fbe03df1a17c0034aee7bb8","freq_resp","img/orange_2bandit_b.png","70","70","test","","","","6","",""
"null","231023","pSARL_v2","pSARL_v22dkpbhrh","5fbe03df1a17c0034aee7bb8","fixation","img/fixation.png","null","","test","","","","","",""
"296.5","231326","pSARL_v2","pSARL_v22dkpbhrh","5fbe03df1a17c0034aee7bb8","freq","img/orange_2bandit_b2.png","70","70","test","1","132","132","6","",""
"null","231836","pSARL_v2","pSARL_v22dkpbhrh","5fbe03df1a17c0034aee7bb8","freq_resp","img/orange_2bandit_b.png","70","70","test","","","","6","",""
"null","232003","pSARL_v2","pSARL_v22dkpbhrh","5fbe03df1a17c0034aee7bb8","fixation","img/fixation.png","null","","test","","","","","",""
"285.89999997615814","232294","pSARL_v2","pSARL_v22dkpbhrh","5fbe03df1a17c0034aee7bb8","freq","img/orange_2bandit_b2.png","70","70","test","1","133","133","6","",""
"null","232823","pSARL_v2","pSARL_v22dkpbhrh","5fbe03df1a17c0034aee7bb8","freq_resp","img/orange_2bandit_b.png","70","70","test","","","","6","",""
"null","232979","pSARL_v2","pSARL_v22dkpbhrh","5fbe03df1a17c0034aee7bb8","fixation","img/fixation.png","null","","test","","","","","",""
"329.4000000357628","233314","pSARL_v2","pSARL_v22dkpbhrh","5fbe03df1a17c0034aee7bb8","freq","img/orange_2bandit_b2.png","70","70","test","1","134","134","6","",""
"null","233793","pSARL_v2","pSARL_v22dkpbhrh","5fbe03df1a17c0034aee7bb8","freq_resp","img/orange_2bandit_b.png","70","70","test","","","","6","",""
"null","233953","pSARL_v2","pSARL_v22dkpbhrh","5fbe03df1a17c0034aee7bb8","fixation","img/fixation.png","null","","test","","","","","",""
"293.39999997615814","234251","pSARL_v2","pSARL_v22dkpbhrh","5fbe03df1a17c0034aee7bb8","freq","img/orange_2bandit_b2.png","70","70","test","1","135","135","6","",""
"null","234768","pSARL_v2","pSARL_v22dkpbhrh","5fbe03df1a17c0034aee7bb8","freq_resp","img/orange_2bandit_b.png","70","70","test","","","","6","",""
"null","234930","pSARL_v2","pSARL_v22dkpbhrh","5fbe03df1a17c0034aee7bb8","fixation","img/fixation.png","null","","test","","","","","",""
"278.4000000357628","235214","pSARL_v2","pSARL_v22dkpbhrh","5fbe03df1a17c0034aee7bb8","freq","img/orange_2bandit_b2.png","70","70","test","1","136","136","6","",""
"null","235757","pSARL_v2","pSARL_v22dkpbhrh","5fbe03df1a17c0034aee7bb8","freq_resp","img/orange_2bandit_b.png","70","70","test","","","","6","",""
"null","235923","pSARL_v2","pSARL_v22dkpbhrh","5fbe03df1a17c0034aee7bb8","fixation","img/fixation.png","null","","test","","","","","",""
"298.5","236226","pSARL_v2","pSARL_v22dkpbhrh","5fbe03df1a17c0034aee7bb8","freq","img/orange_2bandit_b2.png","70","70","test","1","137","137","6","",""
"null","236742","pSARL_v2","pSARL_v22dkpbhrh","5fbe03df1a17c0034aee7bb8","freq_resp","img/orange_2bandit_b.png","70","70","test","","","","6","",""
"null","236898","pSARL_v2","pSARL_v22dkpbhrh","5fbe03df1a17c0034aee7bb8","fixation","img/fixation.png","null","","test","","","","","",""
"304.30000001192093","237206","pSARL_v2","pSARL_v22dkpbhrh","5fbe03df1a17c0034aee7bb8","freq","img/orange_2bandit_b2.png","70","70","test","1","138","138","6","",""
"null","237719","pSARL_v2","pSARL_v22dkpbhrh","5fbe03df1a17c0034aee7bb8","freq_resp","img/orange_2bandit_b.png","70","70","test","","","","6","",""
"null","237877","pSARL_v2","pSARL_v22dkpbhrh","5fbe03df1a17c0034aee7bb8","fixation","img/fixation.png","null","","test","","","","","",""
"386.5","238268","pSARL_v2","pSARL_v22dkpbhrh","5fbe03df1a17c0034aee7bb8","reward","img/slot.png","74","","test","","","","","",""
"null","239032","pSARL_v2","pSARL_v22dkpbhrh","5fbe03df1a17c0034aee7bb8","points","<div class=""verylowPoints""> -7 </div>","null","na","test","","","","6","-7","5"
"504.10000002384186","239540","pSARL_v2","pSARL_v22dkpbhrh","5fbe03df1a17c0034aee7bb8","freq","img/orange_2bandit_b2.png","70","70","test","1","139","139","7","",""
"null","239852","pSARL_v2","pSARL_v22dkpbhrh","5fbe03df1a17c0034aee7bb8","freq_resp","img/orange_2bandit_b.png","70","70","test","","","","7","",""
"null","240019","pSARL_v2","pSARL_v22dkpbhrh","5fbe03df1a17c0034aee7bb8","fixation","img/fixation.png","null","","test","","","","","",""
"316.7999999523163","240340","pSARL_v2","pSARL_v22dkpbhrh","5fbe03df1a17c0034aee7bb8","freq","img/orange_2bandit_b2.png","70","70","test","1","140","140","7","",""
"null","240841","pSARL_v2","pSARL_v22dkpbhrh","5fbe03df1a17c0034aee7bb8","freq_resp","img/orange_2bandit_b.png","70","70","test","","","","7","",""
"null","241005","pSARL_v2","pSARL_v22dkpbhrh","5fbe03df1a17c0034aee7bb8","fixation","img/fixation.png","null","","test","","","","","",""
"174.70000004768372","241184","pSARL_v2","pSARL_v22dkpbhrh","5fbe03df1a17c0034aee7bb8","freq","img/orange_2bandit_b2.png","70","70","test","1","141","141","7","",""
"null","241826","pSARL_v2","pSARL_v22dkpbhrh","5fbe03df1a17c0034aee7bb8","freq_resp","img/orange_2bandit_b.png","70","70","test","","","","7","",""
"null","241987","pSARL_v2","pSARL_v22dkpbhrh","5fbe03df1a17c0034aee7bb8","fixation","img/fixation.png","null","","test","","","","","",""
"282.39999997615814","242273","pSARL_v2","pSARL_v22dkpbhrh","5fbe03df1a17c0034aee7bb8","freq","img/orange_2bandit_b2.png","70","70","test","1","142","142","7","",""
"null","242796","pSARL_v2","pSARL_v22dkpbhrh","5fbe03df1a17c0034aee7bb8","freq_resp","img/orange_2bandit_b.png","70","70","test","","","","7","",""
"null","242953","pSARL_v2","pSARL_v22dkpbhrh","5fbe03df1a17c0034aee7bb8","fixation","img/fixation.png","null","","test","","","","","",""
"276.69999998807907","243233","pSARL_v2","pSARL_v22dkpbhrh","5fbe03df1a17c0034aee7bb8","freq","img/orange_2bandit_b2.png","70","70","test","1","143","143","7","",""
"null","243762","pSARL_v2","pSARL_v22dkpbhrh","5fbe03df1a17c0034aee7bb8","freq_resp","img/orange_2bandit_b.png","70","70","test","","","","7","",""
"null","243920","pSARL_v2","pSARL_v22dkpbhrh","5fbe03df1a17c0034aee7bb8","fixation","img/fixation.png","null","","test","","","","","",""
"246.0999999642372","244171","pSARL_v2","pSARL_v22dkpbhrh","5fbe03df1a17c0034aee7bb8","freq","img/orange_2bandit_b2.png","70","70","test","1","144","144","7","",""
"null","244732","pSARL_v2","pSARL_v22dkpbhrh","5fbe03df1a17c0034aee7bb8","freq_resp","img/orange_2bandit_b.png","70","70","test","","","","7","",""
"null","244896","pSARL_v2","pSARL_v22dkpbhrh","5fbe03df1a17c0034aee7bb8","fixation","img/fixation.png","null","","test","","","","","",""
"284.5","245185","pSARL_v2","pSARL_v22dkpbhrh","5fbe03df1a17c0034aee7bb8","freq","img/orange_2bandit_b2.png","70","70","test","1","145","145","7","",""
"null","245710","pSARL_v2","pSARL_v22dkpbhrh","5fbe03df1a17c0034aee7bb8","freq_resp","img/orange_2bandit_b.png","70","70","test","","","","7","",""
"null","245875","pSARL_v2","pSARL_v22dkpbhrh","5fbe03df1a17c0034aee7bb8","fixation","img/fixation.png","null","","test","","","","","",""
"275.89999997615814","246154","pSARL_v2","pSARL_v22dkpbhrh","5fbe03df1a17c0034aee7bb8","freq","img/orange_2bandit_b2.png","70","70","test","1","146","146","7","",""
"null","246693","pSARL_v2","pSARL_v22dkpbhrh","5fbe03df1a17c0034aee7bb8","freq_resp","img/orange_2bandit_b.png","70","70","test","","","","7","",""
"null","246851","pSARL_v2","pSARL_v22dkpbhrh","5fbe03df1a17c0034aee7bb8","fixation","img/fixation.png","null","","test","","","","","",""
"266.19999998807907","247120","pSARL_v2","pSARL_v22dkpbhrh","5fbe03df1a17c0034aee7bb8","freq","img/orange_2bandit_b2.png","70","70","test","1","147","147","7","",""
"null","247669","pSARL_v2","pSARL_v22dkpbhrh","5fbe03df1a17c0034aee7bb8","freq_resp","img/orange_2bandit_b.png","70","70","test","","","","7","",""
"null","247835","pSARL_v2","pSARL_v22dkpbhrh","5fbe03df1a17c0034aee7bb8","fixation","img/fixation.png","null","","test","","","","","",""
"254.70000004768372","248093","pSARL_v2","pSARL_v22dkpbhrh","5fbe03df1a17c0034aee7bb8","freq","img/orange_2bandit_b2.png","70","70","test","1","148","148","7","",""
"null","248650","pSARL_v2","pSARL_v22dkpbhrh","5fbe03df1a17c0034aee7bb8","freq_resp","img/orange_2bandit_b.png","70","70","test","","","","7","",""
"null","248819","pSARL_v2","pSARL_v22dkpbhrh","5fbe03df1a17c0034aee7bb8","fixation","img/fixation.png","null","","test","","","","","",""
"279.19999998807907","249102","pSARL_v2","pSARL_v22dkpbhrh","5fbe03df1a17c0034aee7bb8","freq","img/orange_2bandit_b2.png","70","70","test","1","149","149","7","",""
"null","249639","pSARL_v2","pSARL_v22dkpbhrh","5fbe03df1a17c0034aee7bb8","freq_resp","img/orange_2bandit_b.png","70","70","test","","","","7","",""
"null","249803","pSARL_v2","pSARL_v22dkpbhrh","5fbe03df1a17c0034aee7bb8","fixation","img/fixation.png","null","","test","","","","","",""
"285.89999997615814","250093","pSARL_v2","pSARL_v22dkpbhrh","5fbe03df1a17c0034aee7bb8","freq","img/orange_2bandit_b2.png","70","70","test","1","150","150","7","",""
"null","250618","pSARL_v2","pSARL_v22dkpbhrh","5fbe03df1a17c0034aee7bb8","freq_resp","img/orange_2bandit_b.png","70","70","test","","","","7","",""
"null","250773","pSARL_v2","pSARL_v22dkpbhrh","5fbe03df1a17c0034aee7bb8","fixation","img/fixation.png","null","","test","","","","","",""
"293.30000001192093","251069","pSARL_v2","pSARL_v22dkpbhrh","5fbe03df1a17c0034aee7bb8","freq","img/orange_2bandit_b2.png","70","70","test","1","151","151","7","",""
"null","251586","pSARL_v2","pSARL_v22dkpbhrh","5fbe03df1a17c0034aee7bb8","freq_resp","img/orange_2bandit_b.png","70","70","test","","","","7","",""
"null","251751","pSARL_v2","pSARL_v22dkpbhrh","5fbe03df1a17c0034aee7bb8","fixation","img/fixation.png","null","","test","","","","","",""
"275.30000001192093","252030","pSARL_v2","pSARL_v22dkpbhrh","5fbe03df1a17c0034aee7bb8","freq","img/orange_2bandit_b2.png","70","70","test","1","152","152","7","",""
"null","252568","pSARL_v2","pSARL_v22dkpbhrh","5fbe03df1a17c0034aee7bb8","freq_resp","img/orange_2bandit_b.png","70","70","test","","","","7","",""
"null","252731","pSARL_v2","pSARL_v22dkpbhrh","5fbe03df1a17c0034aee7bb8","fixation","img/fixation.png","null","","test","","","","","",""
"301.5","253037","pSARL_v2","pSARL_v22dkpbhrh","5fbe03df1a17c0034aee7bb8","freq","img/orange_2bandit_b2.png","70","70","test","1","153","153","7","",""
"null","253542","pSARL_v2","pSARL_v22dkpbhrh","5fbe03df1a17c0034aee7bb8","freq_resp","img/orange_2bandit_b.png","70","70","test","","","","7","",""
"null","253710","pSARL_v2","pSARL_v22dkpbhrh","5fbe03df1a17c0034aee7bb8","fixation","img/fixation.png","null","","test","","","","","",""
"279","253994","pSARL_v2","pSARL_v22dkpbhrh","5fbe03df1a17c0034aee7bb8","freq","img/orange_2bandit_b2.png","70","70","test","1","154","154","7","",""
"null","254531","pSARL_v2","pSARL_v22dkpbhrh","5fbe03df1a17c0034aee7bb8","freq_resp","img/orange_2bandit_b.png","70","70","test","","","","7","",""
"null","254698","pSARL_v2","pSARL_v22dkpbhrh","5fbe03df1a17c0034aee7bb8","fixation","img/fixation.png","null","","test","","","","","",""
"288.89999997615814","254994","pSARL_v2","pSARL_v22dkpbhrh","5fbe03df1a17c0034aee7bb8","freq","img/orange_2bandit_b2.png","70","70","test","1","155","155","7","",""
"null","255510","pSARL_v2","pSARL_v22dkpbhrh","5fbe03df1a17c0034aee7bb8","freq_resp","img/orange_2bandit_b.png","70","70","test","","","","7","",""
"null","255674","pSARL_v2","pSARL_v22dkpbhrh","5fbe03df1a17c0034aee7bb8","fixation","img/fixation.png","null","","test","","","","","",""
"315.19999998807907","255994","pSARL_v2","pSARL_v22dkpbhrh","5fbe03df1a17c0034aee7bb8","freq","img/orange_2bandit_b2.png","70","70","test","1","156","156","7","",""
"null","256490","pSARL_v2","pSARL_v22dkpbhrh","5fbe03df1a17c0034aee7bb8","freq_resp","img/orange_2bandit_b.png","70","70","test","","","","7","",""
"null","256653","pSARL_v2","pSARL_v22dkpbhrh","5fbe03df1a17c0034aee7bb8","fixation","img/fixation.png","null","","test","","","","","",""
"282.7000000476837","256941","pSARL_v2","pSARL_v22dkpbhrh","5fbe03df1a17c0034aee7bb8","freq","img/orange_2bandit_b2.png","70","70","test","1","157","157","7","",""
"null","257471","pSARL_v2","pSARL_v22dkpbhrh","5fbe03df1a17c0034aee7bb8","freq_resp","img/orange_2bandit_b.png","70","70","test","","","","7","",""
"null","257639","pSARL_v2","pSARL_v22dkpbhrh","5fbe03df1a17c0034aee7bb8","fixation","img/fixation.png","null","","test","","","","","",""
"373.5","258018","pSARL_v2","pSARL_v22dkpbhrh","5fbe03df1a17c0034aee7bb8","freq","img/orange_2bandit_b2.png","70","70","test","1","158","158","7","",""
"null","258461","pSARL_v2","pSARL_v22dkpbhrh","5fbe03df1a17c0034aee7bb8","freq_resp","img/orange_2bandit_b.png","70","70","test","","","","7","",""
"null","258619","pSARL_v2","pSARL_v22dkpbhrh","5fbe03df1a17c0034aee7bb8","fixation","img/fixation.png","null","","test","","","","","",""
"348","258974","pSARL_v2","pSARL_v22dkpbhrh","5fbe03df1a17c0034aee7bb8","freq","img/orange_2bandit_b2.png","70","70","test","1","159","159","7","",""
"null","259431","pSARL_v2","pSARL_v22dkpbhrh","5fbe03df1a17c0034aee7bb8","freq_resp","img/orange_2bandit_b.png","70","70","test","","","","7","",""
"null","259590","pSARL_v2","pSARL_v22dkpbhrh","5fbe03df1a17c0034aee7bb8","fixation","img/fixation.png","null","","test","","","","","",""
"292","259887","pSARL_v2","pSARL_v22dkpbhrh","5fbe03df1a17c0034aee7bb8","freq","img/orange_2bandit_b2.png","70","70","test","1","160","160","7","",""
"null","260410","pSARL_v2","pSARL_v22dkpbhrh","5fbe03df1a17c0034aee7bb8","freq_resp","img/orange_2bandit_b.png","70","70","test","","","","7","",""
"null","260578","pSARL_v2","pSARL_v22dkpbhrh","5fbe03df1a17c0034aee7bb8","fixation","img/fixation.png","null","","test","","","","","",""
"465.80000001192093","261049","pSARL_v2","pSARL_v22dkpbhrh","5fbe03df1a17c0034aee7bb8","infreq","img/green_2bandit_b2.png","68","68","test","1","161","161","7","",""
"null","261395","pSARL_v2","pSARL_v22dkpbhrh","5fbe03df1a17c0034aee7bb8","infreq_resp","img/green_2bandit_b.png","68","68","test","","","","7","",""
"null","261565","pSARL_v2","pSARL_v22dkpbhrh","5fbe03df1a17c0034aee7bb8","fixation","img/fixation.png","null","","test","","","","","",""
"476.89999997615814","262047","pSARL_v2","pSARL_v22dkpbhrh","5fbe03df1a17c0034aee7bb8","infreq","img/green_2bandit_b2.png","68","68","test","1","162","162","7","",""
"null","262381","pSARL_v2","pSARL_v22dkpbhrh","5fbe03df1a17c0034aee7bb8","infreq_resp","img/green_2bandit_b.png","68","68","test","","","","7","",""
"null","262539","pSARL_v2","pSARL_v22dkpbhrh","5fbe03df1a17c0034aee7bb8","fixation","img/fixation.png","null","","test","","","","","",""
"503.19999998807907","263048","pSARL_v2","pSARL_v22dkpbhrh","5fbe03df1a17c0034aee7bb8","freq","img/orange_2bandit_b2.png","70","70","test","1","163","163","7","",""
"null","263351","pSARL_v2","pSARL_v22dkpbhrh","5fbe03df1a17c0034aee7bb8","freq_resp","img/orange_2bandit_b.png","70","70","test","","","","7","",""
"null","263513","pSARL_v2","pSARL_v22dkpbhrh","5fbe03df1a17c0034aee7bb8","fixation","img/fixation.png","null","","test","","","","","",""
"463.19999998807907","263982","pSARL_v2","pSARL_v22dkpbhrh","5fbe03df1a17c0034aee7bb8","reward","img/slot.png","74","","test","","","","","",""
"null","264751","pSARL_v2","pSARL_v22dkpbhrh","5fbe03df1a17c0034aee7bb8","points","<div class=""verylowPoints""> -6 </div>","null","na","test","","","","7","-6","6"
"361.80000001192093","265118","pSARL_v2","pSARL_v22dkpbhrh","5fbe03df1a17c0034aee7bb8","freq","img/orange_2bandit_b2.png","70","70","test","1","164","164","8","",""
"null","265575","pSARL_v2","pSARL_v22dkpbhrh","5fbe03df1a17c0034aee7bb8","freq_resp","img/orange_2bandit_b.png","70","70","test","","","","8","",""
"null","265733","pSARL_v2","pSARL_v22dkpbhrh","5fbe03df1a17c0034aee7bb8","fixation","img/fixation.png","null","","test","","","","","",""
"295.39999997615814","266033","pSARL_v2","pSARL_v22dkpbhrh","5fbe03df1a17c0034aee7bb8","freq","img/orange_2bandit_b2.png","70","70","test","1","165","165","8","",""
"null","266549","pSARL_v2","pSARL_v22dkpbhrh","5fbe03df1a17c0034aee7bb8","freq_resp","img/orange_2bandit_b.png","70","70","test","","","","8","",""
"null","266705","pSARL_v2","pSARL_v22dkpbhrh","5fbe03df1a17c0034aee7bb8","fixation","img/fixation.png","null","","test","","","","","",""
"306.80000001192093","267018","pSARL_v2","pSARL_v22dkpbhrh","5fbe03df1a17c0034aee7bb8","freq","img/orange_2bandit_b2.png","70","70","test","1","166","166","8","",""
"null","267522","pSARL_v2","pSARL_v22dkpbhrh","5fbe03df1a17c0034aee7bb8","freq_resp","img/orange_2bandit_b.png","70","70","test","","","","8","",""
"null","267679","pSARL_v2","pSARL_v22dkpbhrh","5fbe03df1a17c0034aee7bb8","fixation","img/fixation.png","null","","test","","","","","",""
"218.19999998807907","267902","pSARL_v2","pSARL_v22dkpbhrh","5fbe03df1a17c0034aee7bb8","freq","img/orange_2bandit_b2.png","70","70","test","1","167","167","8","",""
"null","268501","pSARL_v2","pSARL_v22dkpbhrh","5fbe03df1a17c0034aee7bb8","freq_resp","img/orange_2bandit_b.png","70","70","test","","","","8","",""
"null","268670","pSARL_v2","pSARL_v22dkpbhrh","5fbe03df1a17c0034aee7bb8","fixation","img/fixation.png","null","","test","","","","","",""
"214.5","268890","pSARL_v2","pSARL_v22dkpbhrh","5fbe03df1a17c0034aee7bb8","freq","img/orange_2bandit_b2.png","70","70","test","1","168","168","8","",""
"null","269489","pSARL_v2","pSARL_v22dkpbhrh","5fbe03df1a17c0034aee7bb8","freq_resp","img/orange_2bandit_b.png","70","70","test","","","","8","",""
"null","269653","pSARL_v2","pSARL_v22dkpbhrh","5fbe03df1a17c0034aee7bb8","fixation","img/fixation.png","null","","test","","","","","",""
"215.10000002384186","269874","pSARL_v2","pSARL_v22dkpbhrh","5fbe03df1a17c0034aee7bb8","freq","img/orange_2bandit_b2.png","70","70","test","1","169","169","8","",""
"null","270465","pSARL_v2","pSARL_v22dkpbhrh","5fbe03df1a17c0034aee7bb8","freq_resp","img/orange_2bandit_b.png","70","70","test","","","","8","",""
"null","270621","pSARL_v2","pSARL_v22dkpbhrh","5fbe03df1a17c0034aee7bb8","fixation","img/fixation.png","null","","test","","","","","",""
"149.80000001192093","270777","pSARL_v2","pSARL_v22dkpbhrh","5fbe03df1a17c0034aee7bb8","freq","img/orange_2bandit_b2.png","70","70","test","1","170","170","8","",""
"null","271439","pSARL_v2","pSARL_v22dkpbhrh","5fbe03df1a17c0034aee7bb8","freq_resp","img/orange_2bandit_b.png","70","70","test","","","","8","",""
"null","271604","pSARL_v2","pSARL_v22dkpbhrh","5fbe03df1a17c0034aee7bb8","fixation","img/fixation.png","null","","test","","","","","",""
"139.4000000357628","271751","pSARL_v2","pSARL_v22dkpbhrh","5fbe03df1a17c0034aee7bb8","freq","img/orange_2bandit_b2.png","70","70","test","1","171","171","8","",""
"null","272431","pSARL_v2","pSARL_v22dkpbhrh","5fbe03df1a17c0034aee7bb8","freq_resp","img/orange_2bandit_b.png","70","70","test","","","","8","",""
"null","272595","pSARL_v2","pSARL_v22dkpbhrh","5fbe03df1a17c0034aee7bb8","fixation","img/fixation.png","null","","test","","","","","",""
"247.9000000357628","272848","pSARL_v2","pSARL_v22dkpbhrh","5fbe03df1a17c0034aee7bb8","freq","img/orange_2bandit_b2.png","70","70","test","1","172","172","8","",""
"null","273419","pSARL_v2","pSARL_v22dkpbhrh","5fbe03df1a17c0034aee7bb8","freq_resp","img/orange_2bandit_b.png","70","70","test","","","","8","",""
"null","273582","pSARL_v2","pSARL_v22dkpbhrh","5fbe03df1a17c0034aee7bb8","fixation","img/fixation.png","null","","test","","","","","",""
"433.4000000357628","274020","pSARL_v2","pSARL_v22dkpbhrh","5fbe03df1a17c0034aee7bb8","infreq","img/green_2bandit_b2.png","68","68","test","1","173","173","8","",""
"null","274392","pSARL_v2","pSARL_v22dkpbhrh","5fbe03df1a17c0034aee7bb8","infreq_resp","img/green_2bandit_b.png","68","68","test","","","","8","",""
"null","274553","pSARL_v2","pSARL_v22dkpbhrh","5fbe03df1a17c0034aee7bb8","fixation","img/fixation.png","null","","test","","","","","",""
"312.89999997615814","274872","pSARL_v2","pSARL_v22dkpbhrh","5fbe03df1a17c0034aee7bb8","freq","img/orange_2bandit_b2.png","70","70","test","1","174","174","8","",""
"null","275373","pSARL_v2","pSARL_v22dkpbhrh","5fbe03df1a17c0034aee7bb8","freq_resp","img/orange_2bandit_b.png","70","70","test","","","","8","",""
"null","275540","pSARL_v2","pSARL_v22dkpbhrh","5fbe03df1a17c0034aee7bb8","fixation","img/fixation.png","null","","test","","","","","",""
"261.69999998807907","275807","pSARL_v2","pSARL_v22dkpbhrh","5fbe03df1a17c0034aee7bb8","infreq","img/green_2bandit_b2.png","70","68","test","0","175","175","8","",""
"null","276359","pSARL_v2","pSARL_v22dkpbhrh","5fbe03df1a17c0034aee7bb8","infreq_resp","img/green_2bandit_b.png","70","68","test","","","","8","",""
"null","276529","pSARL_v2","pSARL_v22dkpbhrh","5fbe03df1a17c0034aee7bb8","fixation","img/fixation.png","null","","test","","","","","",""
"385.5","276920","pSARL_v2","pSARL_v22dkpbhrh","5fbe03df1a17c0034aee7bb8","freq","img/orange_2bandit_b2.png","70","70","test","1","176","176","8","",""
"null","277340","pSARL_v2","pSARL_v22dkpbhrh","5fbe03df1a17c0034aee7bb8","freq_resp","img/orange_2bandit_b.png","70","70","test","","","","8","",""
"null","277504","pSARL_v2","pSARL_v22dkpbhrh","5fbe03df1a17c0034aee7bb8","fixation","img/fixation.png","null","","test","","","","","",""
"296.30000001192093","277805","pSARL_v2","pSARL_v22dkpbhrh","5fbe03df1a17c0034aee7bb8","freq","img/orange_2bandit_b2.png","70","70","test","1","177","177","8","",""
"null","278324","pSARL_v2","pSARL_v22dkpbhrh","5fbe03df1a17c0034aee7bb8","freq_resp","img/orange_2bandit_b.png","70","70","test","","","","8","",""
"null","278492","pSARL_v2","pSARL_v22dkpbhrh","5fbe03df1a17c0034aee7bb8","fixation","img/fixation.png","null","","test","","","","","",""
"289.30000001192093","278786","pSARL_v2","pSARL_v22dkpbhrh","5fbe03df1a17c0034aee7bb8","freq","img/orange_2bandit_b2.png","70","70","test","1","178","178","8","",""
"null","279315","pSARL_v2","pSARL_v22dkpbhrh","5fbe03df1a17c0034aee7bb8","freq_resp","img/orange_2bandit_b.png","70","70","test","","","","8","",""
"null","279478","pSARL_v2","pSARL_v22dkpbhrh","5fbe03df1a17c0034aee7bb8","fixation","img/fixation.png","null","","test","","","","","",""
"298.4000000357628","279780","pSARL_v2","pSARL_v22dkpbhrh","5fbe03df1a17c0034aee7bb8","freq","img/orange_2bandit_b2.png","70","70","test","1","179","179","8","",""
"null","280294","pSARL_v2","pSARL_v22dkpbhrh","5fbe03df1a17c0034aee7bb8","freq_resp","img/orange_2bandit_b.png","70","70","test","","","","8","",""
"null","280458","pSARL_v2","pSARL_v22dkpbhrh","5fbe03df1a17c0034aee7bb8","fixation","img/fixation.png","null","","test","","","","","",""
"326.69999998807907","280789","pSARL_v2","pSARL_v22dkpbhrh","5fbe03df1a17c0034aee7bb8","freq","img/orange_2bandit_b2.png","70","70","test","1","180","180","8","",""
"null","281275","pSARL_v2","pSARL_v22dkpbhrh","5fbe03df1a17c0034aee7bb8","freq_resp","img/orange_2bandit_b.png","70","70","test","","","","8","",""
"null","281442","pSARL_v2","pSARL_v22dkpbhrh","5fbe03df1a17c0034aee7bb8","fixation","img/fixation.png","null","","test","","","","","",""
"316","281763","pSARL_v2","pSARL_v22dkpbhrh","5fbe03df1a17c0034aee7bb8","freq","img/orange_2bandit_b2.png","70","70","test","1","181","181","8","",""
"null","282252","pSARL_v2","pSARL_v22dkpbhrh","5fbe03df1a17c0034aee7bb8","freq_resp","img/orange_2bandit_b.png","70","70","test","","","","8","",""
"null","282423","pSARL_v2","pSARL_v22dkpbhrh","5fbe03df1a17c0034aee7bb8","fixation","img/fixation.png","null","","test","","","","","",""
"240.4000000357628","282670","pSARL_v2","pSARL_v22dkpbhrh","5fbe03df1a17c0034aee7bb8","freq","img/orange_2bandit_b2.png","70","70","test","1","182","182","8","",""
"null","283235","pSARL_v2","pSARL_v22dkpbhrh","5fbe03df1a17c0034aee7bb8","freq_resp","img/orange_2bandit_b.png","70","70","test","","","","8","",""
"null","283392","pSARL_v2","pSARL_v22dkpbhrh","5fbe03df1a17c0034aee7bb8","fixation","img/fixation.png","null","","test","","","","","",""
"297.4000000357628","283694","pSARL_v2","pSARL_v22dkpbhrh","5fbe03df1a17c0034aee7bb8","freq","img/orange_2bandit_b2.png","70","70","test","1","183","183","8","",""
"null","284210","pSARL_v2","pSARL_v22dkpbhrh","5fbe03df1a17c0034aee7bb8","freq_resp","img/orange_2bandit_b.png","70","70","test","","","","8","",""
"null","284373","pSARL_v2","pSARL_v22dkpbhrh","5fbe03df1a17c0034aee7bb8","fixation","img/fixation.png","null","","test","","","","","",""
"381.5","284761","pSARL_v2","pSARL_v22dkpbhrh","5fbe03df1a17c0034aee7bb8","freq","img/orange_2bandit_b2.png","70","70","test","1","184","184","8","",""
"null","285184","pSARL_v2","pSARL_v22dkpbhrh","5fbe03df1a17c0034aee7bb8","freq_resp","img/orange_2bandit_b.png","70","70","test","","","","8","",""
"null","285354","pSARL_v2","pSARL_v22dkpbhrh","5fbe03df1a17c0034aee7bb8","fixation","img/fixation.png","null","","test","","","","","",""
"390.0999999642372","285749","pSARL_v2","pSARL_v22dkpbhrh","5fbe03df1a17c0034aee7bb8","infreq","img/green_2bandit_b2.png","68","68","test","1","185","185","8","",""
"null","286167","pSARL_v2","pSARL_v22dkpbhrh","5fbe03df1a17c0034aee7bb8","infreq_resp","img/green_2bandit_b.png","68","68","test","","","","8","",""
"null","286328","pSARL_v2","pSARL_v22dkpbhrh","5fbe03df1a17c0034aee7bb8","fixation","img/fixation.png","null","","test","","","","","",""
"279.30000001192093","286613","pSARL_v2","pSARL_v22dkpbhrh","5fbe03df1a17c0034aee7bb8","freq","img/orange_2bandit_b2.png","70","70","test","1","186","186","8","",""
"null","287153","pSARL_v2","pSARL_v22dkpbhrh","5fbe03df1a17c0034aee7bb8","freq_resp","img/orange_2bandit_b.png","70","70","test","","","","8","",""
"null","287320","pSARL_v2","pSARL_v22dkpbhrh","5fbe03df1a17c0034aee7bb8","fixation","img/fixation.png","null","","test","","","","","",""
"102.20000004768372","287427","pSARL_v2","pSARL_v22dkpbhrh","5fbe03df1a17c0034aee7bb8","freq","img/orange_2bandit_b2.png","70","70","test","1","187","187","8","",""
"null","288141","pSARL_v2","pSARL_v22dkpbhrh","5fbe03df1a17c0034aee7bb8","freq_resp","img/orange_2bandit_b.png","70","70","test","","","","8","",""
"null","288302","pSARL_v2","pSARL_v22dkpbhrh","5fbe03df1a17c0034aee7bb8","fixation","img/fixation.png","null","","test","","","","","",""
"115.60000002384186","288422","pSARL_v2","pSARL_v22dkpbhrh","5fbe03df1a17c0034aee7bb8","freq","img/orange_2bandit_b2.png","70","70","test","1","188","188","8","",""
"null","289122","pSARL_v2","pSARL_v22dkpbhrh","5fbe03df1a17c0034aee7bb8","freq_resp","img/orange_2bandit_b.png","70","70","test","","","","8","",""
"null","289293","pSARL_v2","pSARL_v22dkpbhrh","5fbe03df1a17c0034aee7bb8","fixation","img/fixation.png","null","","test","","","","","",""
"409.9000000357628","289709","pSARL_v2","pSARL_v22dkpbhrh","5fbe03df1a17c0034aee7bb8","reward","img/slot.png","74","","test","","","","","",""
"null","290478","pSARL_v2","pSARL_v22dkpbhrh","5fbe03df1a17c0034aee7bb8","points","<div class=""verylowPoints""> -4 </div>","null","na","test","","","","8","-4","7"
"245.5","290729","pSARL_v2","pSARL_v22dkpbhrh","5fbe03df1a17c0034aee7bb8","freq","img/orange_2bandit_b2.png","70","70","test","1","189","189","9","",""
"null","291298","pSARL_v2","pSARL_v22dkpbhrh","5fbe03df1a17c0034aee7bb8","freq_resp","img/orange_2bandit_b.png","70","70","test","","","","9","",""
"null","291460","pSARL_v2","pSARL_v22dkpbhrh","5fbe03df1a17c0034aee7bb8","fixation","img/fixation.png","null","","test","","","","","",""
"108.5","291573","pSARL_v2","pSARL_v22dkpbhrh","5fbe03df1a17c0034aee7bb8","freq","img/orange_2bandit_b2.png","70","70","test","1","190","190","9","",""
"null","292286","pSARL_v2","pSARL_v22dkpbhrh","5fbe03df1a17c0034aee7bb8","freq_resp","img/orange_2bandit_b.png","70","70","test","","","","9","",""
"null","292445","pSARL_v2","pSARL_v22dkpbhrh","5fbe03df1a17c0034aee7bb8","fixation","img/fixation.png","null","","test","","","","","",""
"370","292819","pSARL_v2","pSARL_v22dkpbhrh","5fbe03df1a17c0034aee7bb8","freq","img/orange_2bandit_b2.png","70","70","test","1","191","191","9","",""
"null","293260","pSARL_v2","pSARL_v22dkpbhrh","5fbe03df1a17c0034aee7bb8","freq_resp","img/orange_2bandit_b.png","70","70","test","","","","9","",""
"null","293428","pSARL_v2","pSARL_v22dkpbhrh","5fbe03df1a17c0034aee7bb8","fixation","img/fixation.png","null","","test","","","","","",""
"214.20000004768372","293646","pSARL_v2","pSARL_v22dkpbhrh","5fbe03df1a17c0034aee7bb8","freq","img/orange_2bandit_b2.png","70","70","test","1","192","192","9","",""
"null","294238","pSARL_v2","pSARL_v22dkpbhrh","5fbe03df1a17c0034aee7bb8","freq_resp","img/orange_2bandit_b.png","70","70","test","","","","9","",""
"null","294399","pSARL_v2","pSARL_v22dkpbhrh","5fbe03df1a17c0034aee7bb8","fixation","img/fixation.png","null","","test","","","","","",""
"244.60000002384186","294648","pSARL_v2","pSARL_v22dkpbhrh","5fbe03df1a17c0034aee7bb8","freq","img/orange_2bandit_b2.png","70","70","test","1","193","193","9","",""
"null","295220","pSARL_v2","pSARL_v22dkpbhrh","5fbe03df1a17c0034aee7bb8","freq_resp","img/orange_2bandit_b.png","70","70","test","","","","9","",""
"null","295382","pSARL_v2","pSARL_v22dkpbhrh","5fbe03df1a17c0034aee7bb8","fixation","img/fixation.png","null","","test","","","","","",""
"111.30000001192093","295498","pSARL_v2","pSARL_v22dkpbhrh","5fbe03df1a17c0034aee7bb8","freq","img/orange_2bandit_b2.png","70","70","test","1","194","194","9","",""
"null","296203","pSARL_v2","pSARL_v22dkpbhrh","5fbe03df1a17c0034aee7bb8","freq_resp","img/orange_2bandit_b.png","70","70","test","","","","9","",""
"null","296360","pSARL_v2","pSARL_v22dkpbhrh","5fbe03df1a17c0034aee7bb8","fixation","img/fixation.png","null","","test","","","","","",""
"76.60000002384186","296443","pSARL_v2","pSARL_v22dkpbhrh","5fbe03df1a17c0034aee7bb8","infreq","img/green_2bandit_b2.png","70","68","test","0","195","195","9","",""
"null","297185","pSARL_v2","pSARL_v22dkpbhrh","5fbe03df1a17c0034aee7bb8","infreq_resp","img/green_2bandit_b.png","70","68","test","","","","9","",""
"null","297344","pSARL_v2","pSARL_v22dkpbhrh","5fbe03df1a17c0034aee7bb8","fixation","img/fixation.png","null","","test","","","","","",""
"null","298156","pSARL_v2","pSARL_v22dkpbhrh","5fbe03df1a17c0034aee7bb8","freq","img/orange_2bandit_b2.png","null","70","test","0","196","196","9","",""
"null","298323","pSARL_v2","pSARL_v22dkpbhrh","5fbe03df1a17c0034aee7bb8","fixation","img/fixation.png","null","","test","","","","","",""
"731.9000000357628","299062","pSARL_v2","pSARL_v22dkpbhrh","5fbe03df1a17c0034aee7bb8","freq","img/orange_2bandit_b2.png","70","70","test","1","197","197","9","",""
"null","299146","pSARL_v2","pSARL_v22dkpbhrh","5fbe03df1a17c0034aee7bb8","freq_resp","img/orange_2bandit_b.png","70","70","test","","","","9","",""
"null","299309","pSARL_v2","pSARL_v22dkpbhrh","5fbe03df1a17c0034aee7bb8","fixation","img/fixation.png","null","","test","","","","","",""
"458.69999998807907","299772","pSARL_v2","pSARL_v22dkpbhrh","5fbe03df1a17c0034aee7bb8","freq","img/orange_2bandit_b2.png","70","70","test","1","198","198","9","",""
"null","300118","pSARL_v2","pSARL_v22dkpbhrh","5fbe03df1a17c0034aee7bb8","freq_resp","img/orange_2bandit_b.png","70","70","test","","","","9","",""
"null","300277","pSARL_v2","pSARL_v22dkpbhrh","5fbe03df1a17c0034aee7bb8","fixation","img/fixation.png","null","","test","","","","","",""
"331.19999998807907","300612","pSARL_v2","pSARL_v22dkpbhrh","5fbe03df1a17c0034aee7bb8","freq","img/orange_2bandit_b2.png","70","70","test","1","199","199","9","",""
"null","301086","pSARL_v2","pSARL_v22dkpbhrh","5fbe03df1a17c0034aee7bb8","freq_resp","img/orange_2bandit_b.png","70","70","test","","","","9","",""
"null","301247","pSARL_v2","pSARL_v22dkpbhrh","5fbe03df1a17c0034aee7bb8","fixation","img/fixation.png","null","","test","","","","","",""
"279.2999999523163","301531","pSARL_v2","pSARL_v22dkpbhrh","5fbe03df1a17c0034aee7bb8","freq","img/orange_2bandit_b2.png","70","70","test","1","200","200","9","",""
"null","302069","pSARL_v2","pSARL_v22dkpbhrh","5fbe03df1a17c0034aee7bb8","freq_resp","img/orange_2bandit_b.png","70","70","test","","","","9","",""
"null","302229","pSARL_v2","pSARL_v22dkpbhrh","5fbe03df1a17c0034aee7bb8","fixation","img/fixation.png","null","","test","","","","","",""
"278.9000000357628","302512","pSARL_v2","pSARL_v22dkpbhrh","5fbe03df1a17c0034aee7bb8","freq","img/orange_2bandit_b2.png","70","70","test","1","201","201","9","",""
"null","303054","pSARL_v2","pSARL_v22dkpbhrh","5fbe03df1a17c0034aee7bb8","freq_resp","img/orange_2bandit_b.png","70","70","test","","","","9","",""
"null","303224","pSARL_v2","pSARL_v22dkpbhrh","5fbe03df1a17c0034aee7bb8","fixation","img/fixation.png","null","","test","","","","","",""
"153.80000001192093","303383","pSARL_v2","pSARL_v22dkpbhrh","5fbe03df1a17c0034aee7bb8","freq","img/orange_2bandit_b2.png","70","70","test","1","202","202","9","",""
"null","304043","pSARL_v2","pSARL_v22dkpbhrh","5fbe03df1a17c0034aee7bb8","freq_resp","img/orange_2bandit_b.png","70","70","test","","","","9","",""
"null","304198","pSARL_v2","pSARL_v22dkpbhrh","5fbe03df1a17c0034aee7bb8","fixation","img/fixation.png","null","","test","","","","","",""
"409.89999997615814","304614","pSARL_v2","pSARL_v22dkpbhrh","5fbe03df1a17c0034aee7bb8","infreq","img/green_2bandit_b2.png","68","68","test","1","203","203","9","",""
"null","305010","pSARL_v2","pSARL_v22dkpbhrh","5fbe03df1a17c0034aee7bb8","infreq_resp","img/green_2bandit_b.png","68","68","test","","","","9","",""
"null","305172","pSARL_v2","pSARL_v22dkpbhrh","5fbe03df1a17c0034aee7bb8","fixation","img/fixation.png","null","","test","","","","","",""
"394.60000002384186","305570","pSARL_v2","pSARL_v22dkpbhrh","5fbe03df1a17c0034aee7bb8","freq","img/orange_2bandit_b2.png","70","70","test","1","204","204","9","",""
"null","305978","pSARL_v2","pSARL_v22dkpbhrh","5fbe03df1a17c0034aee7bb8","freq_resp","img/orange_2bandit_b.png","70","70","test","","","","9","",""
"null","306142","pSARL_v2","pSARL_v22dkpbhrh","5fbe03df1a17c0034aee7bb8","fixation","img/fixation.png","null","","test","","","","","",""
"290.60000002384186","306437","pSARL_v2","pSARL_v22dkpbhrh","5fbe03df1a17c0034aee7bb8","freq","img/orange_2bandit_b2.png","70","70","test","1","205","205","9","",""
"null","306961","pSARL_v2","pSARL_v22dkpbhrh","5fbe03df1a17c0034aee7bb8","freq_resp","img/orange_2bandit_b.png","70","70","test","","","","9","",""
"null","307120","pSARL_v2","pSARL_v22dkpbhrh","5fbe03df1a17c0034aee7bb8","fixation","img/fixation.png","null","","test","","","","","",""
"152.60000002384186","307277","pSARL_v2","pSARL_v22dkpbhrh","5fbe03df1a17c0034aee7bb8","freq","img/orange_2bandit_b2.png","70","70","test","1","206","206","9","",""
"null","307938","pSARL_v2","pSARL_v22dkpbhrh","5fbe03df1a17c0034aee7bb8","freq_resp","img/orange_2bandit_b.png","70","70","test","","","","9","",""
"null","308106","pSARL_v2","pSARL_v22dkpbhrh","5fbe03df1a17c0034aee7bb8","fixation","img/fixation.png","null","","test","","","","","",""
"165.69999998807907","308276","pSARL_v2","pSARL_v22dkpbhrh","5fbe03df1a17c0034aee7bb8","freq","img/orange_2bandit_b2.png","70","70","test","1","207","207","9","",""
"null","308915","pSARL_v2","pSARL_v22dkpbhrh","5fbe03df1a17c0034aee7bb8","freq_resp","img/orange_2bandit_b.png","70","70","test","","","","9","",""
"null","309075","pSARL_v2","pSARL_v22dkpbhrh","5fbe03df1a17c0034aee7bb8","fixation","img/fixation.png","null","","test","","","","","",""
