"rt","time_elapsed","expId","subject","prolificID","trialType","stimulus","key_press","corrresp","phase","corr","trialNum","attentionRunNum","blockNum","points","rlNum"
"147722.29999995232","147726","pSARL_v2","pSARL_v23700p3em","5c6709ab926a5b0001eb29c1","","","","","","","","","","",""
"","150163","pSARL_v2","pSARL_v23700p3em","5c6709ab926a5b0001eb29c1","fullscreen","","","","","","","","","",""
"167211.59999990463","317377","pSARL_v2","pSARL_v23700p3em","5c6709ab926a5b0001eb29c1","","","","","","","","","","",""
"522.6000000238419","317904","pSARL_v2","pSARL_v23700p3em","5c6709ab926a5b0001eb29c1","freqPrac","img/green_2bandit_b2.png","70","70","prac","1","","","","",""
"522.6000000238419","318185","pSARL_v2","pSARL_v23700p3em","5c6709ab926a5b0001eb29c1","freqPrac_resp","img/green_2bandit_b.png","70","70","prac","","","","","",""
"null","318339","pSARL_v2","pSARL_v23700p3em","5c6709ab926a5b0001eb29c1","fixation","img/fixation.png","null","","prac","","","","","",""
"null","319142","pSARL_v2","pSARL_v23700p3em","5c6709ab926a5b0001eb29c1","infreqPrac","img/orange_2bandit_b2.png","null","68","prac","0","","","","",""
"null","320145","pSARL_v2","pSARL_v23700p3em","5c6709ab926a5b0001eb29c1","feedback","img/tooSlow.png","null","na","prac","","","","","",""
"null","320298","pSARL_v2","pSARL_v23700p3em","5c6709ab926a5b0001eb29c1","fixation","img/fixation.png","null","","prac","","","","","",""
"null","321101","pSARL_v2","pSARL_v23700p3em","5c6709ab926a5b0001eb29c1","freqPrac","img/green_2bandit_b2.png","null","70","prac","0","","","","",""
"null","322104","pSARL_v2","pSARL_v23700p3em","5c6709ab926a5b0001eb29c1","feedback","img/tooSlow.png","null","na","prac","","","","","",""
"null","322258","pSARL_v2","pSARL_v23700p3em","5c6709ab926a5b0001eb29c1","fixation","img/fixation.png","null","","prac","","","","","",""
"697.5","322959","pSARL_v2","pSARL_v23700p3em","5c6709ab926a5b0001eb29c1","infreqPrac","img/orange_2bandit_b2.png","68","68","prac","1","","","","",""
"697.5","323064","pSARL_v2","pSARL_v23700p3em","5c6709ab926a5b0001eb29c1","infreqPrac_resp","img/orange_2bandit_b.png","68","68","prac","","","","","",""
"null","323217","pSARL_v2","pSARL_v23700p3em","5c6709ab926a5b0001eb29c1","fixation","img/fixation.png","null","","prac","","","","","",""
"null","324023","pSARL_v2","pSARL_v23700p3em","5c6709ab926a5b0001eb29c1","infreqPrac","img/orange_2bandit_b2.png","null","68","prac","0","","","","",""
"null","325026","pSARL_v2","pSARL_v23700p3em","5c6709ab926a5b0001eb29c1","feedback","img/tooSlow.png","null","na","prac","","","","","",""
"null","325180","pSARL_v2","pSARL_v23700p3em","5c6709ab926a5b0001eb29c1","fixation","img/fixation.png","null","","prac","","","","","",""
"251.5","325434","pSARL_v2","pSARL_v23700p3em","5c6709ab926a5b0001eb29c1","infreqPrac","img/orange_2bandit_b2.png","68","68","prac","1","","","","",""
"251.5","325986","pSARL_v2","pSARL_v23700p3em","5c6709ab926a5b0001eb29c1","infreqPrac_resp","img/orange_2bandit_b.png","68","68","prac","","","","","",""
"null","326139","pSARL_v2","pSARL_v23700p3em","5c6709ab926a5b0001eb29c1","fixation","img/fixation.png","null","","prac","","","","","",""
"410","326552","pSARL_v2","pSARL_v23700p3em","5c6709ab926a5b0001eb29c1","freqPrac","img/green_2bandit_b2.png","70","70","prac","1","","","","",""
"410","326945","pSARL_v2","pSARL_v23700p3em","5c6709ab926a5b0001eb29c1","freqPrac_resp","img/green_2bandit_b.png","70","70","prac","","","","","",""
"null","327098","pSARL_v2","pSARL_v23700p3em","5c6709ab926a5b0001eb29c1","fixation","img/fixation.png","null","","prac","","","","","",""
"432","327533","pSARL_v2","pSARL_v23700p3em","5c6709ab926a5b0001eb29c1","infreqPrac","img/orange_2bandit_b2.png","68","68","prac","1","","","","",""
"432","327904","pSARL_v2","pSARL_v23700p3em","5c6709ab926a5b0001eb29c1","infreqPrac_resp","img/orange_2bandit_b.png","68","68","prac","","","","","",""
"null","328056","pSARL_v2","pSARL_v23700p3em","5c6709ab926a5b0001eb29c1","fixation","img/fixation.png","null","","prac","","","","","",""
"438.10000002384186","328497","pSARL_v2","pSARL_v23700p3em","5c6709ab926a5b0001eb29c1","freqPrac","img/green_2bandit_b2.png","70","70","prac","1","","","","",""
"438.10000002384186","328861","pSARL_v2","pSARL_v23700p3em","5c6709ab926a5b0001eb29c1","freqPrac_resp","img/green_2bandit_b.png","70","70","prac","","","","","",""
"null","329014","pSARL_v2","pSARL_v23700p3em","5c6709ab926a5b0001eb29c1","fixation","img/fixation.png","null","","prac","","","","","",""
"650.9000000953674","329668","pSARL_v2","pSARL_v23700p3em","5c6709ab926a5b0001eb29c1","freqPrac","img/green_2bandit_b2.png","70","70","prac","1","","","","",""
"650.9000000953674","329820","pSARL_v2","pSARL_v23700p3em","5c6709ab926a5b0001eb29c1","freqPrac_resp","img/green_2bandit_b.png","70","70","prac","","","","","",""
"null","329973","pSARL_v2","pSARL_v23700p3em","5c6709ab926a5b0001eb29c1","fixation","img/fixation.png","null","","prac","","","","","",""
"180329.19999992847","510306","pSARL_v2","pSARL_v23700p3em","5c6709ab926a5b0001eb29c1","","","","","prac","","","","","",""
"777.2999999523163","511086","pSARL_v2","pSARL_v23700p3em","5c6709ab926a5b0001eb29c1","rewardPractice","img/slot.png","74","","prac","","","","","",""
"null","511839","pSARL_v2","pSARL_v23700p3em","5c6709ab926a5b0001eb29c1","feedback","<div class=""veryhighPoints""> +15 </div>","null","na","prac","","","","","",""
"null","511994","pSARL_v2","pSARL_v23700p3em","5c6709ab926a5b0001eb29c1","fixation","img/fixation.png","null","","prac","","","","","",""
"22655","534651","pSARL_v2","pSARL_v23700p3em","5c6709ab926a5b0001eb29c1","","","","","prac","","","","","",""
"589.3999999761581","535244","pSARL_v2","pSARL_v23700p3em","5c6709ab926a5b0001eb29c1","freq","img/green_2bandit_b2.png","70","70","test","1","1","1","1","",""
"null","535458","pSARL_v2","pSARL_v23700p3em","5c6709ab926a5b0001eb29c1","freq_resp","img/green_2bandit_b.png","70","70","test","","","","1","",""
"null","535611","pSARL_v2","pSARL_v23700p3em","5c6709ab926a5b0001eb29c1","fixation","img/fixation.png","null","","test","","","","","",""
"null","536415","pSARL_v2","pSARL_v23700p3em","5c6709ab926a5b0001eb29c1","freq","img/green_2bandit_b2.png","null","70","test","0","2","2","1","",""
"null","536568","pSARL_v2","pSARL_v23700p3em","5c6709ab926a5b0001eb29c1","fixation","img/fixation.png","null","","test","","","","","",""
"616.1999999284744","537187","pSARL_v2","pSARL_v23700p3em","5c6709ab926a5b0001eb29c1","freq","img/green_2bandit_b2.png","70","70","test","1","3","3","1","",""
"null","537373","pSARL_v2","pSARL_v23700p3em","5c6709ab926a5b0001eb29c1","freq_resp","img/green_2bandit_b.png","70","70","test","","","","1","",""
"null","537525","pSARL_v2","pSARL_v23700p3em","5c6709ab926a5b0001eb29c1","fixation","img/fixation.png","null","","test","","","","","",""
"414.6999999284744","537942","pSARL_v2","pSARL_v23700p3em","5c6709ab926a5b0001eb29c1","freq","img/green_2bandit_b2.png","70","70","test","1","4","4","1","",""
"null","538330","pSARL_v2","pSARL_v23700p3em","5c6709ab926a5b0001eb29c1","freq_resp","img/green_2bandit_b.png","70","70","test","","","","1","",""
"null","538484","pSARL_v2","pSARL_v23700p3em","5c6709ab926a5b0001eb29c1","fixation","img/fixation.png","null","","test","","","","","",""
"354.6999999284744","538840","pSARL_v2","pSARL_v23700p3em","5c6709ab926a5b0001eb29c1","freq","img/green_2bandit_b2.png","70","70","test","1","5","5","1","",""
"null","539289","pSARL_v2","pSARL_v23700p3em","5c6709ab926a5b0001eb29c1","freq_resp","img/green_2bandit_b.png","70","70","test","","","","1","",""
"null","539442","pSARL_v2","pSARL_v23700p3em","5c6709ab926a5b0001eb29c1","fixation","img/fixation.png","null","","test","","","","","",""
"456.40000009536743","539903","pSARL_v2","pSARL_v23700p3em","5c6709ab926a5b0001eb29c1","freq","img/green_2bandit_b2.png","70","70","test","1","6","6","1","",""
"null","540250","pSARL_v2","pSARL_v23700p3em","5c6709ab926a5b0001eb29c1","freq_resp","img/green_2bandit_b.png","70","70","test","","","","1","",""
"null","540404","pSARL_v2","pSARL_v23700p3em","5c6709ab926a5b0001eb29c1","fixation","img/fixation.png","null","","test","","","","","",""
"422.10000002384186","540829","pSARL_v2","pSARL_v23700p3em","5c6709ab926a5b0001eb29c1","freq","img/green_2bandit_b2.png","70","70","test","1","7","7","1","",""
"null","541209","pSARL_v2","pSARL_v23700p3em","5c6709ab926a5b0001eb29c1","freq_resp","img/green_2bandit_b.png","70","70","test","","","","1","",""
"null","541363","pSARL_v2","pSARL_v23700p3em","5c6709ab926a5b0001eb29c1","fixation","img/fixation.png","null","","test","","","","","",""
"370.7000000476837","541737","pSARL_v2","pSARL_v23700p3em","5c6709ab926a5b0001eb29c1","infreq","img/orange_2bandit_b2.png","68","68","test","1","8","8","1","",""
"null","542169","pSARL_v2","pSARL_v23700p3em","5c6709ab926a5b0001eb29c1","infreq_resp","img/orange_2bandit_b.png","68","68","test","","","","1","",""
"null","542322","pSARL_v2","pSARL_v23700p3em","5c6709ab926a5b0001eb29c1","fixation","img/fixation.png","null","","test","","","","","",""
"377","542702","pSARL_v2","pSARL_v23700p3em","5c6709ab926a5b0001eb29c1","freq","img/green_2bandit_b2.png","70","70","test","1","9","9","1","",""
"null","543128","pSARL_v2","pSARL_v23700p3em","5c6709ab926a5b0001eb29c1","freq_resp","img/green_2bandit_b.png","70","70","test","","","","1","",""
"null","543282","pSARL_v2","pSARL_v23700p3em","5c6709ab926a5b0001eb29c1","fixation","img/fixation.png","null","","test","","","","","",""
"313.40000009536743","543598","pSARL_v2","pSARL_v23700p3em","5c6709ab926a5b0001eb29c1","freq","img/green_2bandit_b2.png","70","70","test","1","10","10","1","",""
"null","544087","pSARL_v2","pSARL_v23700p3em","5c6709ab926a5b0001eb29c1","freq_resp","img/green_2bandit_b.png","70","70","test","","","","1","",""
"null","544240","pSARL_v2","pSARL_v23700p3em","5c6709ab926a5b0001eb29c1","fixation","img/fixation.png","null","","test","","","","","",""
"290.59999990463257","544533","pSARL_v2","pSARL_v23700p3em","5c6709ab926a5b0001eb29c1","freq","img/green_2bandit_b2.png","70","70","test","1","11","11","1","",""
"null","545046","pSARL_v2","pSARL_v23700p3em","5c6709ab926a5b0001eb29c1","freq_resp","img/green_2bandit_b.png","70","70","test","","","","1","",""
"null","545200","pSARL_v2","pSARL_v23700p3em","5c6709ab926a5b0001eb29c1","fixation","img/fixation.png","null","","test","","","","","",""
"291.89999997615814","545495","pSARL_v2","pSARL_v23700p3em","5c6709ab926a5b0001eb29c1","freq","img/green_2bandit_b2.png","70","70","test","1","12","12","1","",""
"null","546007","pSARL_v2","pSARL_v23700p3em","5c6709ab926a5b0001eb29c1","freq_resp","img/green_2bandit_b.png","70","70","test","","","","1","",""
"null","546161","pSARL_v2","pSARL_v23700p3em","5c6709ab926a5b0001eb29c1","fixation","img/fixation.png","null","","test","","","","","",""
"327.39999997615814","546491","pSARL_v2","pSARL_v23700p3em","5c6709ab926a5b0001eb29c1","freq","img/green_2bandit_b2.png","70","70","test","1","13","13","1","",""
"null","546966","pSARL_v2","pSARL_v23700p3em","5c6709ab926a5b0001eb29c1","freq_resp","img/green_2bandit_b.png","70","70","test","","","","1","",""
"null","547119","pSARL_v2","pSARL_v23700p3em","5c6709ab926a5b0001eb29c1","fixation","img/fixation.png","null","","test","","","","","",""
"305.8000000715256","547427","pSARL_v2","pSARL_v23700p3em","5c6709ab926a5b0001eb29c1","freq","img/green_2bandit_b2.png","70","70","test","1","14","14","1","",""
"null","547924","pSARL_v2","pSARL_v23700p3em","5c6709ab926a5b0001eb29c1","freq_resp","img/green_2bandit_b.png","70","70","test","","","","1","",""
"null","548079","pSARL_v2","pSARL_v23700p3em","5c6709ab926a5b0001eb29c1","fixation","img/fixation.png","null","","test","","","","","",""
"290.10000002384186","548371","pSARL_v2","pSARL_v23700p3em","5c6709ab926a5b0001eb29c1","freq","img/green_2bandit_b2.png","70","70","test","1","15","15","1","",""
"null","548884","pSARL_v2","pSARL_v23700p3em","5c6709ab926a5b0001eb29c1","freq_resp","img/green_2bandit_b.png","70","70","test","","","","1","",""
"null","549037","pSARL_v2","pSARL_v23700p3em","5c6709ab926a5b0001eb29c1","fixation","img/fixation.png","null","","test","","","","","",""
"234.5","549274","pSARL_v2","pSARL_v23700p3em","5c6709ab926a5b0001eb29c1","freq","img/green_2bandit_b2.png","70","70","test","1","16","16","1","",""
"null","549843","pSARL_v2","pSARL_v23700p3em","5c6709ab926a5b0001eb29c1","freq_resp","img/green_2bandit_b.png","70","70","test","","","","1","",""
"null","549997","pSARL_v2","pSARL_v23700p3em","5c6709ab926a5b0001eb29c1","fixation","img/fixation.png","null","","test","","","","","",""
"284.60000002384186","550284","pSARL_v2","pSARL_v23700p3em","5c6709ab926a5b0001eb29c1","freq","img/green_2bandit_b2.png","70","70","test","1","17","17","1","",""
"null","550802","pSARL_v2","pSARL_v23700p3em","5c6709ab926a5b0001eb29c1","freq_resp","img/green_2bandit_b.png","70","70","test","","","","1","",""
"null","550955","pSARL_v2","pSARL_v23700p3em","5c6709ab926a5b0001eb29c1","fixation","img/fixation.png","null","","test","","","","","",""
"282.1999999284744","551240","pSARL_v2","pSARL_v23700p3em","5c6709ab926a5b0001eb29c1","freq","img/green_2bandit_b2.png","70","70","test","1","18","18","1","",""
"null","551760","pSARL_v2","pSARL_v23700p3em","5c6709ab926a5b0001eb29c1","freq_resp","img/green_2bandit_b.png","70","70","test","","","","1","",""
"null","551913","pSARL_v2","pSARL_v23700p3em","5c6709ab926a5b0001eb29c1","fixation","img/fixation.png","null","","test","","","","","",""
"318.8000000715256","552235","pSARL_v2","pSARL_v23700p3em","5c6709ab926a5b0001eb29c1","freq","img/green_2bandit_b2.png","70","70","test","1","19","19","1","",""
"null","552719","pSARL_v2","pSARL_v23700p3em","5c6709ab926a5b0001eb29c1","freq_resp","img/green_2bandit_b.png","70","70","test","","","","1","",""
"null","552871","pSARL_v2","pSARL_v23700p3em","5c6709ab926a5b0001eb29c1","fixation","img/fixation.png","null","","test","","","","","",""
"281.2999999523163","553155","pSARL_v2","pSARL_v23700p3em","5c6709ab926a5b0001eb29c1","freq","img/green_2bandit_b2.png","70","70","test","1","20","20","1","",""
"null","553677","pSARL_v2","pSARL_v23700p3em","5c6709ab926a5b0001eb29c1","freq_resp","img/green_2bandit_b.png","70","70","test","","","","1","",""
"null","553830","pSARL_v2","pSARL_v23700p3em","5c6709ab926a5b0001eb29c1","fixation","img/fixation.png","null","","test","","","","","",""
"295.39999997615814","554128","pSARL_v2","pSARL_v23700p3em","5c6709ab926a5b0001eb29c1","freq","img/green_2bandit_b2.png","70","70","test","1","21","21","1","",""
"null","554635","pSARL_v2","pSARL_v23700p3em","5c6709ab926a5b0001eb29c1","freq_resp","img/green_2bandit_b.png","70","70","test","","","","1","",""
"null","554789","pSARL_v2","pSARL_v23700p3em","5c6709ab926a5b0001eb29c1","fixation","img/fixation.png","null","","test","","","","","",""
"320.1999999284744","555111","pSARL_v2","pSARL_v23700p3em","5c6709ab926a5b0001eb29c1","freq","img/green_2bandit_b2.png","70","70","test","1","22","22","1","",""
"null","555595","pSARL_v2","pSARL_v23700p3em","5c6709ab926a5b0001eb29c1","freq_resp","img/green_2bandit_b.png","70","70","test","","","","1","",""
"null","555748","pSARL_v2","pSARL_v23700p3em","5c6709ab926a5b0001eb29c1","fixation","img/fixation.png","null","","test","","","","","",""
"493.39999997615814","556245","pSARL_v2","pSARL_v23700p3em","5c6709ab926a5b0001eb29c1","infreq","img/orange_2bandit_b2.png","68","68","test","1","23","23","1","",""
"null","556553","pSARL_v2","pSARL_v23700p3em","5c6709ab926a5b0001eb29c1","infreq_resp","img/orange_2bandit_b.png","68","68","test","","","","1","",""
"null","556707","pSARL_v2","pSARL_v23700p3em","5c6709ab926a5b0001eb29c1","fixation","img/fixation.png","null","","test","","","","","",""
"412.7999999523163","557122","pSARL_v2","pSARL_v23700p3em","5c6709ab926a5b0001eb29c1","freq","img/green_2bandit_b2.png","70","70","test","1","24","24","1","",""
"null","557513","pSARL_v2","pSARL_v23700p3em","5c6709ab926a5b0001eb29c1","freq_resp","img/green_2bandit_b.png","70","70","test","","","","1","",""
"null","557666","pSARL_v2","pSARL_v23700p3em","5c6709ab926a5b0001eb29c1","fixation","img/fixation.png","null","","test","","","","","",""
"334","558002","pSARL_v2","pSARL_v23700p3em","5c6709ab926a5b0001eb29c1","freq","img/green_2bandit_b2.png","70","70","test","1","25","25","1","",""
"null","558473","pSARL_v2","pSARL_v23700p3em","5c6709ab926a5b0001eb29c1","freq_resp","img/green_2bandit_b.png","70","70","test","","","","1","",""
"null","558626","pSARL_v2","pSARL_v23700p3em","5c6709ab926a5b0001eb29c1","fixation","img/fixation.png","null","","test","","","","","",""
"296.59999990463257","558925","pSARL_v2","pSARL_v23700p3em","5c6709ab926a5b0001eb29c1","freq","img/green_2bandit_b2.png","70","70","test","1","26","26","1","",""
"null","559431","pSARL_v2","pSARL_v23700p3em","5c6709ab926a5b0001eb29c1","freq_resp","img/green_2bandit_b.png","70","70","test","","","","1","",""
"null","559584","pSARL_v2","pSARL_v23700p3em","5c6709ab926a5b0001eb29c1","fixation","img/fixation.png","null","","test","","","","","",""
"529.7999999523163","560116","pSARL_v2","pSARL_v23700p3em","5c6709ab926a5b0001eb29c1","reward","img/slot.png","74","","test","","","","","",""
"null","560871","pSARL_v2","pSARL_v23700p3em","5c6709ab926a5b0001eb29c1","points","<div class=""verylowPoints""> -6 </div>","null","na","test","","","","1","-6","0"
"398.09999990463257","561271","pSARL_v2","pSARL_v23700p3em","5c6709ab926a5b0001eb29c1","freq","img/green_2bandit_b2.png","70","70","test","1","27","27","2","",""
"null","561676","pSARL_v2","pSARL_v23700p3em","5c6709ab926a5b0001eb29c1","freq_resp","img/green_2bandit_b.png","70","70","test","","","","2","",""
"null","561829","pSARL_v2","pSARL_v23700p3em","5c6709ab926a5b0001eb29c1","fixation","img/fixation.png","null","","test","","","","","",""
"274.7000000476837","562106","pSARL_v2","pSARL_v23700p3em","5c6709ab926a5b0001eb29c1","freq","img/green_2bandit_b2.png","70","70","test","1","28","28","2","",""
"null","562635","pSARL_v2","pSARL_v23700p3em","5c6709ab926a5b0001eb29c1","freq_resp","img/green_2bandit_b.png","70","70","test","","","","2","",""
"null","562788","pSARL_v2","pSARL_v23700p3em","5c6709ab926a5b0001eb29c1","fixation","img/fixation.png","null","","test","","","","","",""
"177.59999990463257","562969","pSARL_v2","pSARL_v23700p3em","5c6709ab926a5b0001eb29c1","freq","img/green_2bandit_b2.png","70","70","test","1","29","29","2","",""
"null","563595","pSARL_v2","pSARL_v23700p3em","5c6709ab926a5b0001eb29c1","freq_resp","img/green_2bandit_b.png","70","70","test","","","","2","",""
"null","563749","pSARL_v2","pSARL_v23700p3em","5c6709ab926a5b0001eb29c1","fixation","img/fixation.png","null","","test","","","","","",""
"175.89999997615814","563927","pSARL_v2","pSARL_v23700p3em","5c6709ab926a5b0001eb29c1","infreq","img/orange_2bandit_b2.png","70","68","test","0","30","30","2","",""
"null","564554","pSARL_v2","pSARL_v23700p3em","5c6709ab926a5b0001eb29c1","infreq_resp","img/orange_2bandit_b.png","70","68","test","","","","2","",""
"null","564707","pSARL_v2","pSARL_v23700p3em","5c6709ab926a5b0001eb29c1","fixation","img/fixation.png","null","","test","","","","","",""
"376.39999997615814","565085","pSARL_v2","pSARL_v23700p3em","5c6709ab926a5b0001eb29c1","freq","img/green_2bandit_b2.png","70","70","test","1","31","31","2","",""
"null","565513","pSARL_v2","pSARL_v23700p3em","5c6709ab926a5b0001eb29c1","freq_resp","img/green_2bandit_b.png","70","70","test","","","","2","",""
"null","565667","pSARL_v2","pSARL_v23700p3em","5c6709ab926a5b0001eb29c1","fixation","img/fixation.png","null","","test","","","","","",""
"259.2000000476837","565930","pSARL_v2","pSARL_v23700p3em","5c6709ab926a5b0001eb29c1","freq","img/green_2bandit_b2.png","70","70","test","1","32","32","2","",""
"null","566473","pSARL_v2","pSARL_v23700p3em","5c6709ab926a5b0001eb29c1","freq_resp","img/green_2bandit_b.png","70","70","test","","","","2","",""
"null","566627","pSARL_v2","pSARL_v23700p3em","5c6709ab926a5b0001eb29c1","fixation","img/fixation.png","null","","test","","","","","",""
"241.29999995231628","566872","pSARL_v2","pSARL_v23700p3em","5c6709ab926a5b0001eb29c1","freq","img/green_2bandit_b2.png","70","70","test","1","33","33","2","",""
"null","567434","pSARL_v2","pSARL_v23700p3em","5c6709ab926a5b0001eb29c1","freq_resp","img/green_2bandit_b.png","70","70","test","","","","2","",""
"null","567587","pSARL_v2","pSARL_v23700p3em","5c6709ab926a5b0001eb29c1","fixation","img/fixation.png","null","","test","","","","","",""
"260.7999999523163","567850","pSARL_v2","pSARL_v23700p3em","5c6709ab926a5b0001eb29c1","infreq","img/orange_2bandit_b2.png","70","68","test","0","34","34","2","",""
"null","568392","pSARL_v2","pSARL_v23700p3em","5c6709ab926a5b0001eb29c1","infreq_resp","img/orange_2bandit_b.png","70","68","test","","","","2","",""
"null","568545","pSARL_v2","pSARL_v23700p3em","5c6709ab926a5b0001eb29c1","fixation","img/fixation.png","null","","test","","","","","",""
"303.7000000476837","568851","pSARL_v2","pSARL_v23700p3em","5c6709ab926a5b0001eb29c1","freq","img/green_2bandit_b2.png","70","70","test","1","35","35","2","",""
"null","569350","pSARL_v2","pSARL_v23700p3em","5c6709ab926a5b0001eb29c1","freq_resp","img/green_2bandit_b.png","70","70","test","","","","2","",""
"null","569503","pSARL_v2","pSARL_v23700p3em","5c6709ab926a5b0001eb29c1","fixation","img/fixation.png","null","","test","","","","","",""
"282.2000000476837","569788","pSARL_v2","pSARL_v23700p3em","5c6709ab926a5b0001eb29c1","freq","img/green_2bandit_b2.png","70","70","test","1","36","36","2","",""
"null","570308","pSARL_v2","pSARL_v23700p3em","5c6709ab926a5b0001eb29c1","freq_resp","img/green_2bandit_b.png","70","70","test","","","","2","",""
"null","570462","pSARL_v2","pSARL_v23700p3em","5c6709ab926a5b0001eb29c1","fixation","img/fixation.png","null","","test","","","","","",""
"253.5","570718","pSARL_v2","pSARL_v23700p3em","5c6709ab926a5b0001eb29c1","freq","img/green_2bandit_b2.png","70","70","test","1","37","37","2","",""
"null","571267","pSARL_v2","pSARL_v23700p3em","5c6709ab926a5b0001eb29c1","freq_resp","img/green_2bandit_b.png","70","70","test","","","","2","",""
"null","571420","pSARL_v2","pSARL_v23700p3em","5c6709ab926a5b0001eb29c1","fixation","img/fixation.png","null","","test","","","","","",""
"139.89999997615814","571562","pSARL_v2","pSARL_v23700p3em","5c6709ab926a5b0001eb29c1","freq","img/green_2bandit_b2.png","70","70","test","1","38","38","2","",""
"null","572226","pSARL_v2","pSARL_v23700p3em","5c6709ab926a5b0001eb29c1","freq_resp","img/green_2bandit_b.png","70","70","test","","","","2","",""
"null","572379","pSARL_v2","pSARL_v23700p3em","5c6709ab926a5b0001eb29c1","fixation","img/fixation.png","null","","test","","","","","",""
"215","572597","pSARL_v2","pSARL_v23700p3em","5c6709ab926a5b0001eb29c1","freq","img/green_2bandit_b2.png","70","70","test","1","39","39","2","",""
"null","573184","pSARL_v2","pSARL_v23700p3em","5c6709ab926a5b0001eb29c1","freq_resp","img/green_2bandit_b.png","70","70","test","","","","2","",""
"null","573337","pSARL_v2","pSARL_v23700p3em","5c6709ab926a5b0001eb29c1","fixation","img/fixation.png","null","","test","","","","","",""
"136.30000007152557","573476","pSARL_v2","pSARL_v23700p3em","5c6709ab926a5b0001eb29c1","freq","img/green_2bandit_b2.png","70","70","test","1","40","40","2","",""
"null","574142","pSARL_v2","pSARL_v23700p3em","5c6709ab926a5b0001eb29c1","freq_resp","img/green_2bandit_b.png","70","70","test","","","","2","",""
"null","574295","pSARL_v2","pSARL_v23700p3em","5c6709ab926a5b0001eb29c1","fixation","img/fixation.png","null","","test","","","","","",""
"266.2999999523163","574564","pSARL_v2","pSARL_v23700p3em","5c6709ab926a5b0001eb29c1","freq","img/green_2bandit_b2.png","70","70","test","1","41","41","2","",""
"null","575100","pSARL_v2","pSARL_v23700p3em","5c6709ab926a5b0001eb29c1","freq_resp","img/green_2bandit_b.png","70","70","test","","","","2","",""
"null","575253","pSARL_v2","pSARL_v23700p3em","5c6709ab926a5b0001eb29c1","fixation","img/fixation.png","null","","test","","","","","",""
"390.1999999284744","575645","pSARL_v2","pSARL_v23700p3em","5c6709ab926a5b0001eb29c1","freq","img/green_2bandit_b2.png","70","70","test","1","42","42","2","",""
"null","576057","pSARL_v2","pSARL_v23700p3em","5c6709ab926a5b0001eb29c1","freq_resp","img/green_2bandit_b.png","70","70","test","","","","2","",""
"null","576211","pSARL_v2","pSARL_v23700p3em","5c6709ab926a5b0001eb29c1","fixation","img/fixation.png","null","","test","","","","","",""
"286.60000002384186","576500","pSARL_v2","pSARL_v23700p3em","5c6709ab926a5b0001eb29c1","freq","img/green_2bandit_b2.png","70","70","test","1","43","43","2","",""
"null","577016","pSARL_v2","pSARL_v23700p3em","5c6709ab926a5b0001eb29c1","freq_resp","img/green_2bandit_b.png","70","70","test","","","","2","",""
"null","577169","pSARL_v2","pSARL_v23700p3em","5c6709ab926a5b0001eb29c1","fixation","img/fixation.png","null","","test","","","","","",""
"292.39999997615814","577464","pSARL_v2","pSARL_v23700p3em","5c6709ab926a5b0001eb29c1","freq","img/green_2bandit_b2.png","70","70","test","1","44","44","2","",""
"null","577974","pSARL_v2","pSARL_v23700p3em","5c6709ab926a5b0001eb29c1","freq_resp","img/green_2bandit_b.png","70","70","test","","","","2","",""
"null","578128","pSARL_v2","pSARL_v23700p3em","5c6709ab926a5b0001eb29c1","fixation","img/fixation.png","null","","test","","","","","",""
"300.7000000476837","578431","pSARL_v2","pSARL_v23700p3em","5c6709ab926a5b0001eb29c1","freq","img/green_2bandit_b2.png","70","70","test","1","45","45","2","",""
"null","578933","pSARL_v2","pSARL_v23700p3em","5c6709ab926a5b0001eb29c1","freq_resp","img/green_2bandit_b.png","70","70","test","","","","2","",""
"null","579086","pSARL_v2","pSARL_v23700p3em","5c6709ab926a5b0001eb29c1","fixation","img/fixation.png","null","","test","","","","","",""
"303","579391","pSARL_v2","pSARL_v23700p3em","5c6709ab926a5b0001eb29c1","freq","img/green_2bandit_b2.png","70","70","test","1","46","46","2","",""
"null","579892","pSARL_v2","pSARL_v23700p3em","5c6709ab926a5b0001eb29c1","freq_resp","img/green_2bandit_b.png","70","70","test","","","","2","",""
"null","580045","pSARL_v2","pSARL_v23700p3em","5c6709ab926a5b0001eb29c1","fixation","img/fixation.png","null","","test","","","","","",""
"309.3000000715256","580357","pSARL_v2","pSARL_v23700p3em","5c6709ab926a5b0001eb29c1","freq","img/green_2bandit_b2.png","70","70","test","1","47","47","2","",""
"null","580850","pSARL_v2","pSARL_v23700p3em","5c6709ab926a5b0001eb29c1","freq_resp","img/green_2bandit_b.png","70","70","test","","","","2","",""
"null","581004","pSARL_v2","pSARL_v23700p3em","5c6709ab926a5b0001eb29c1","fixation","img/fixation.png","null","","test","","","","","",""
"307.59999990463257","581314","pSARL_v2","pSARL_v23700p3em","5c6709ab926a5b0001eb29c1","freq","img/green_2bandit_b2.png","70","70","test","1","48","48","2","",""
"null","581809","pSARL_v2","pSARL_v23700p3em","5c6709ab926a5b0001eb29c1","freq_resp","img/green_2bandit_b.png","70","70","test","","","","2","",""
"null","581962","pSARL_v2","pSARL_v23700p3em","5c6709ab926a5b0001eb29c1","fixation","img/fixation.png","null","","test","","","","","",""
"506.5","582471","pSARL_v2","pSARL_v23700p3em","5c6709ab926a5b0001eb29c1","reward","img/slot.png","74","","test","","","","","",""
"null","583224","pSARL_v2","pSARL_v23700p3em","5c6709ab926a5b0001eb29c1","points","<div class=""verylowPoints""> -11 </div>","null","na","test","","","","2","-11","1"
"586.3999999761581","583813","pSARL_v2","pSARL_v23700p3em","5c6709ab926a5b0001eb29c1","freq","img/green_2bandit_b2.png","70","70","test","1","49","49","3","",""
"null","584029","pSARL_v2","pSARL_v23700p3em","5c6709ab926a5b0001eb29c1","freq_resp","img/green_2bandit_b.png","70","70","test","","","","3","",""
"null","584182","pSARL_v2","pSARL_v23700p3em","5c6709ab926a5b0001eb29c1","fixation","img/fixation.png","null","","test","","","","","",""
"504.60000002384186","584689","pSARL_v2","pSARL_v23700p3em","5c6709ab926a5b0001eb29c1","freq","img/green_2bandit_b2.png","70","70","test","1","50","50","3","",""
"null","584988","pSARL_v2","pSARL_v23700p3em","5c6709ab926a5b0001eb29c1","freq_resp","img/green_2bandit_b.png","70","70","test","","","","3","",""
"null","585142","pSARL_v2","pSARL_v23700p3em","5c6709ab926a5b0001eb29c1","fixation","img/fixation.png","null","","test","","","","","",""
"540.2999999523163","585685","pSARL_v2","pSARL_v23700p3em","5c6709ab926a5b0001eb29c1","freq","img/green_2bandit_b2.png","70","70","test","1","51","51","3","",""
"null","585947","pSARL_v2","pSARL_v23700p3em","5c6709ab926a5b0001eb29c1","freq_resp","img/green_2bandit_b.png","70","70","test","","","","3","",""
"null","586100","pSARL_v2","pSARL_v23700p3em","5c6709ab926a5b0001eb29c1","fixation","img/fixation.png","null","","test","","","","","",""
"364","586467","pSARL_v2","pSARL_v23700p3em","5c6709ab926a5b0001eb29c1","freq","img/green_2bandit_b2.png","70","70","test","1","52","52","3","",""
"null","586906","pSARL_v2","pSARL_v23700p3em","5c6709ab926a5b0001eb29c1","freq_resp","img/green_2bandit_b.png","70","70","test","","","","3","",""
"null","587060","pSARL_v2","pSARL_v23700p3em","5c6709ab926a5b0001eb29c1","fixation","img/fixation.png","null","","test","","","","","",""
"163","587226","pSARL_v2","pSARL_v23700p3em","5c6709ab926a5b0001eb29c1","freq","img/green_2bandit_b2.png","70","70","test","1","53","53","3","",""
"null","587867","pSARL_v2","pSARL_v23700p3em","5c6709ab926a5b0001eb29c1","freq_resp","img/green_2bandit_b.png","70","70","test","","","","3","",""
"null","588021","pSARL_v2","pSARL_v23700p3em","5c6709ab926a5b0001eb29c1","fixation","img/fixation.png","null","","test","","","","","",""
"133","588156","pSARL_v2","pSARL_v23700p3em","5c6709ab926a5b0001eb29c1","freq","img/green_2bandit_b2.png","70","70","test","1","54","54","3","",""
"null","588827","pSARL_v2","pSARL_v23700p3em","5c6709ab926a5b0001eb29c1","freq_resp","img/green_2bandit_b.png","70","70","test","","","","3","",""
"null","588980","pSARL_v2","pSARL_v23700p3em","5c6709ab926a5b0001eb29c1","fixation","img/fixation.png","null","","test","","","","","",""
"112.89999997615814","589095","pSARL_v2","pSARL_v23700p3em","5c6709ab926a5b0001eb29c1","infreq","img/orange_2bandit_b2.png","70","68","test","0","55","55","3","",""
"null","589786","pSARL_v2","pSARL_v23700p3em","5c6709ab926a5b0001eb29c1","infreq_resp","img/orange_2bandit_b.png","70","68","test","","","","3","",""
"null","589940","pSARL_v2","pSARL_v23700p3em","5c6709ab926a5b0001eb29c1","fixation","img/fixation.png","null","","test","","","","","",""
"122.69999992847443","590065","pSARL_v2","pSARL_v23700p3em","5c6709ab926a5b0001eb29c1","freq","img/green_2bandit_b2.png","70","70","test","1","56","56","3","",""
"null","590745","pSARL_v2","pSARL_v23700p3em","5c6709ab926a5b0001eb29c1","freq_resp","img/green_2bandit_b.png","70","70","test","","","","3","",""
"null","590898","pSARL_v2","pSARL_v23700p3em","5c6709ab926a5b0001eb29c1","fixation","img/fixation.png","null","","test","","","","","",""
"102.39999997615814","591005","pSARL_v2","pSARL_v23700p3em","5c6709ab926a5b0001eb29c1","freq","img/green_2bandit_b2.png","70","70","test","1","57","57","3","",""
"null","591706","pSARL_v2","pSARL_v23700p3em","5c6709ab926a5b0001eb29c1","freq_resp","img/green_2bandit_b.png","70","70","test","","","","3","",""
"null","591859","pSARL_v2","pSARL_v23700p3em","5c6709ab926a5b0001eb29c1","fixation","img/fixation.png","null","","test","","","","","",""
"68.29999995231628","591930","pSARL_v2","pSARL_v23700p3em","5c6709ab926a5b0001eb29c1","freq","img/green_2bandit_b2.png","70","70","test","1","58","58","3","",""
"null","592664","pSARL_v2","pSARL_v23700p3em","5c6709ab926a5b0001eb29c1","freq_resp","img/green_2bandit_b.png","70","70","test","","","","3","",""
"null","592817","pSARL_v2","pSARL_v23700p3em","5c6709ab926a5b0001eb29c1","fixation","img/fixation.png","null","","test","","","","","",""
"326","593146","pSARL_v2","pSARL_v23700p3em","5c6709ab926a5b0001eb29c1","infreq","img/orange_2bandit_b2.png","68","68","test","1","59","59","3","",""
"null","593624","pSARL_v2","pSARL_v23700p3em","5c6709ab926a5b0001eb29c1","infreq_resp","img/orange_2bandit_b.png","68","68","test","","","","3","",""
"null","593777","pSARL_v2","pSARL_v23700p3em","5c6709ab926a5b0001eb29c1","fixation","img/fixation.png","null","","test","","","","","",""
"175.5","593955","pSARL_v2","pSARL_v23700p3em","5c6709ab926a5b0001eb29c1","freq","img/green_2bandit_b2.png","70","70","test","1","60","60","3","",""
"null","594582","pSARL_v2","pSARL_v23700p3em","5c6709ab926a5b0001eb29c1","freq_resp","img/green_2bandit_b.png","70","70","test","","","","3","",""
"null","594736","pSARL_v2","pSARL_v23700p3em","5c6709ab926a5b0001eb29c1","fixation","img/fixation.png","null","","test","","","","","",""
"190.90000009536743","594929","pSARL_v2","pSARL_v23700p3em","5c6709ab926a5b0001eb29c1","freq","img/green_2bandit_b2.png","70","70","test","1","61","61","3","",""
"null","595541","pSARL_v2","pSARL_v23700p3em","5c6709ab926a5b0001eb29c1","freq_resp","img/green_2bandit_b.png","70","70","test","","","","3","",""
"null","595695","pSARL_v2","pSARL_v23700p3em","5c6709ab926a5b0001eb29c1","fixation","img/fixation.png","null","","test","","","","","",""
"301","595999","pSARL_v2","pSARL_v23700p3em","5c6709ab926a5b0001eb29c1","freq","img/green_2bandit_b2.png","70","70","test","1","62","62","3","",""
"null","596501","pSARL_v2","pSARL_v23700p3em","5c6709ab926a5b0001eb29c1","freq_resp","img/green_2bandit_b.png","70","70","test","","","","3","",""
"null","596654","pSARL_v2","pSARL_v23700p3em","5c6709ab926a5b0001eb29c1","fixation","img/fixation.png","null","","test","","","","","",""
"313.60000002384186","596970","pSARL_v2","pSARL_v23700p3em","5c6709ab926a5b0001eb29c1","freq","img/green_2bandit_b2.png","70","70","test","1","63","63","3","",""
"null","597460","pSARL_v2","pSARL_v23700p3em","5c6709ab926a5b0001eb29c1","freq_resp","img/green_2bandit_b.png","70","70","test","","","","3","",""
"null","597614","pSARL_v2","pSARL_v23700p3em","5c6709ab926a5b0001eb29c1","fixation","img/fixation.png","null","","test","","","","","",""
"308.5","597926","pSARL_v2","pSARL_v23700p3em","5c6709ab926a5b0001eb29c1","freq","img/green_2bandit_b2.png","70","70","test","1","64","64","3","",""
"null","598422","pSARL_v2","pSARL_v23700p3em","5c6709ab926a5b0001eb29c1","freq_resp","img/green_2bandit_b.png","70","70","test","","","","3","",""
"null","598576","pSARL_v2","pSARL_v23700p3em","5c6709ab926a5b0001eb29c1","fixation","img/fixation.png","null","","test","","","","","",""
"295.7000000476837","598874","pSARL_v2","pSARL_v23700p3em","5c6709ab926a5b0001eb29c1","freq","img/green_2bandit_b2.png","70","70","test","1","65","65","3","",""
"null","599382","pSARL_v2","pSARL_v23700p3em","5c6709ab926a5b0001eb29c1","freq_resp","img/green_2bandit_b.png","70","70","test","","","","3","",""
"null","599535","pSARL_v2","pSARL_v23700p3em","5c6709ab926a5b0001eb29c1","fixation","img/fixation.png","null","","test","","","","","",""
"283.60000002384186","599821","pSARL_v2","pSARL_v23700p3em","5c6709ab926a5b0001eb29c1","freq","img/green_2bandit_b2.png","70","70","test","1","66","66","3","",""
"null","600341","pSARL_v2","pSARL_v23700p3em","5c6709ab926a5b0001eb29c1","freq_resp","img/green_2bandit_b.png","70","70","test","","","","3","",""
"null","600494","pSARL_v2","pSARL_v23700p3em","5c6709ab926a5b0001eb29c1","fixation","img/fixation.png","null","","test","","","","","",""
"340.7999999523163","600837","pSARL_v2","pSARL_v23700p3em","5c6709ab926a5b0001eb29c1","freq","img/green_2bandit_b2.png","70","70","test","1","67","67","3","",""
"null","601299","pSARL_v2","pSARL_v23700p3em","5c6709ab926a5b0001eb29c1","freq_resp","img/green_2bandit_b.png","70","70","test","","","","3","",""
"null","601453","pSARL_v2","pSARL_v23700p3em","5c6709ab926a5b0001eb29c1","fixation","img/fixation.png","null","","test","","","","","",""
"371.09999990463257","601826","pSARL_v2","pSARL_v23700p3em","5c6709ab926a5b0001eb29c1","freq","img/green_2bandit_b2.png","70","70","test","1","68","68","3","",""
"null","602258","pSARL_v2","pSARL_v23700p3em","5c6709ab926a5b0001eb29c1","freq_resp","img/green_2bandit_b.png","70","70","test","","","","3","",""
"null","602411","pSARL_v2","pSARL_v23700p3em","5c6709ab926a5b0001eb29c1","fixation","img/fixation.png","null","","test","","","","","",""
"387.7999999523163","602801","pSARL_v2","pSARL_v23700p3em","5c6709ab926a5b0001eb29c1","freq","img/green_2bandit_b2.png","70","70","test","1","69","69","3","",""
"null","603217","pSARL_v2","pSARL_v23700p3em","5c6709ab926a5b0001eb29c1","freq_resp","img/green_2bandit_b.png","70","70","test","","","","3","",""
"null","603370","pSARL_v2","pSARL_v23700p3em","5c6709ab926a5b0001eb29c1","fixation","img/fixation.png","null","","test","","","","","",""
"324.10000002384186","603697","pSARL_v2","pSARL_v23700p3em","5c6709ab926a5b0001eb29c1","freq","img/green_2bandit_b2.png","70","70","test","1","70","70","3","",""
"null","604175","pSARL_v2","pSARL_v23700p3em","5c6709ab926a5b0001eb29c1","freq_resp","img/green_2bandit_b.png","70","70","test","","","","3","",""
"null","604328","pSARL_v2","pSARL_v23700p3em","5c6709ab926a5b0001eb29c1","fixation","img/fixation.png","null","","test","","","","","",""
"405","604735","pSARL_v2","pSARL_v23700p3em","5c6709ab926a5b0001eb29c1","freq","img/green_2bandit_b2.png","70","70","test","1","71","71","3","",""
"null","605134","pSARL_v2","pSARL_v23700p3em","5c6709ab926a5b0001eb29c1","freq_resp","img/green_2bandit_b.png","70","70","test","","","","3","",""
"null","605288","pSARL_v2","pSARL_v23700p3em","5c6709ab926a5b0001eb29c1","fixation","img/fixation.png","null","","test","","","","","",""
"467.6999999284744","605758","pSARL_v2","pSARL_v23700p3em","5c6709ab926a5b0001eb29c1","reward","img/slot.png","74","","test","","","","","",""
"null","606511","pSARL_v2","pSARL_v23700p3em","5c6709ab926a5b0001eb29c1","points","<div class=""verylowPoints""> -7 </div>","null","na","test","","","","3","-7","2"
"198.89999997615814","606713","pSARL_v2","pSARL_v23700p3em","5c6709ab926a5b0001eb29c1","freq","img/green_2bandit_b2.png","70","70","test","1","72","72","4","",""
"null","607317","pSARL_v2","pSARL_v23700p3em","5c6709ab926a5b0001eb29c1","freq_resp","img/green_2bandit_b.png","70","70","test","","","","4","",""
"null","607471","pSARL_v2","pSARL_v23700p3em","5c6709ab926a5b0001eb29c1","fixation","img/fixation.png","null","","test","","","","","",""
"174.70000004768372","607649","pSARL_v2","pSARL_v23700p3em","5c6709ab926a5b0001eb29c1","freq","img/green_2bandit_b2.png","70","70","test","1","73","73","4","",""
"null","608277","pSARL_v2","pSARL_v23700p3em","5c6709ab926a5b0001eb29c1","freq_resp","img/green_2bandit_b.png","70","70","test","","","","4","",""
"null","608430","pSARL_v2","pSARL_v23700p3em","5c6709ab926a5b0001eb29c1","fixation","img/fixation.png","null","","test","","","","","",""
"136.79999995231628","608569","pSARL_v2","pSARL_v23700p3em","5c6709ab926a5b0001eb29c1","freq","img/green_2bandit_b2.png","70","70","test","1","74","74","4","",""
"null","609235","pSARL_v2","pSARL_v23700p3em","5c6709ab926a5b0001eb29c1","freq_resp","img/green_2bandit_b.png","70","70","test","","","","4","",""
"null","609389","pSARL_v2","pSARL_v23700p3em","5c6709ab926a5b0001eb29c1","fixation","img/fixation.png","null","","test","","","","","",""
"190.20000004768372","609582","pSARL_v2","pSARL_v23700p3em","5c6709ab926a5b0001eb29c1","freq","img/green_2bandit_b2.png","70","70","test","1","75","75","4","",""
"null","610195","pSARL_v2","pSARL_v23700p3em","5c6709ab926a5b0001eb29c1","freq_resp","img/green_2bandit_b.png","70","70","test","","","","4","",""
"null","610348","pSARL_v2","pSARL_v23700p3em","5c6709ab926a5b0001eb29c1","fixation","img/fixation.png","null","","test","","","","","",""
"102.10000002384186","610452","pSARL_v2","pSARL_v23700p3em","5c6709ab926a5b0001eb29c1","freq","img/green_2bandit_b2.png","70","70","test","1","76","76","4","",""
"null","611153","pSARL_v2","pSARL_v23700p3em","5c6709ab926a5b0001eb29c1","freq_resp","img/green_2bandit_b.png","70","70","test","","","","4","",""
"null","611308","pSARL_v2","pSARL_v23700p3em","5c6709ab926a5b0001eb29c1","fixation","img/fixation.png","null","","test","","","","","",""
"102","611412","pSARL_v2","pSARL_v23700p3em","5c6709ab926a5b0001eb29c1","freq","img/green_2bandit_b2.png","70","70","test","1","77","77","4","",""
"null","612114","pSARL_v2","pSARL_v23700p3em","5c6709ab926a5b0001eb29c1","freq_resp","img/green_2bandit_b.png","70","70","test","","","","4","",""
"null","612267","pSARL_v2","pSARL_v23700p3em","5c6709ab926a5b0001eb29c1","fixation","img/fixation.png","null","","test","","","","","",""
"188.10000002384186","612458","pSARL_v2","pSARL_v23700p3em","5c6709ab926a5b0001eb29c1","freq","img/green_2bandit_b2.png","70","70","test","1","78","78","4","",""
"null","613073","pSARL_v2","pSARL_v23700p3em","5c6709ab926a5b0001eb29c1","freq_resp","img/green_2bandit_b.png","70","70","test","","","","4","",""
"null","613226","pSARL_v2","pSARL_v23700p3em","5c6709ab926a5b0001eb29c1","fixation","img/fixation.png","null","","test","","","","","",""
"257.7000000476837","613486","pSARL_v2","pSARL_v23700p3em","5c6709ab926a5b0001eb29c1","freq","img/green_2bandit_b2.png","70","70","test","1","79","79","4","",""
"null","614031","pSARL_v2","pSARL_v23700p3em","5c6709ab926a5b0001eb29c1","freq_resp","img/green_2bandit_b.png","70","70","test","","","","4","",""
"null","614185","pSARL_v2","pSARL_v23700p3em","5c6709ab926a5b0001eb29c1","fixation","img/fixation.png","null","","test","","","","","",""
"342.90000009536743","614531","pSARL_v2","pSARL_v23700p3em","5c6709ab926a5b0001eb29c1","infreq","img/orange_2bandit_b2.png","68","68","test","1","80","80","4","",""
"null","614991","pSARL_v2","pSARL_v23700p3em","5c6709ab926a5b0001eb29c1","infreq_resp","img/orange_2bandit_b.png","68","68","test","","","","4","",""
"null","615144","pSARL_v2","pSARL_v23700p3em","5c6709ab926a5b0001eb29c1","fixation","img/fixation.png","null","","test","","","","","",""
"351.10000002384186","615498","pSARL_v2","pSARL_v23700p3em","5c6709ab926a5b0001eb29c1","freq","img/green_2bandit_b2.png","70","70","test","1","81","81","4","",""
"null","615950","pSARL_v2","pSARL_v23700p3em","5c6709ab926a5b0001eb29c1","freq_resp","img/green_2bandit_b.png","70","70","test","","","","4","",""
"null","616103","pSARL_v2","pSARL_v23700p3em","5c6709ab926a5b0001eb29c1","fixation","img/fixation.png","null","","test","","","","","",""
"341.8000000715256","616447","pSARL_v2","pSARL_v23700p3em","5c6709ab926a5b0001eb29c1","freq","img/green_2bandit_b2.png","70","70","test","1","82","82","4","",""
"null","616909","pSARL_v2","pSARL_v23700p3em","5c6709ab926a5b0001eb29c1","freq_resp","img/green_2bandit_b.png","70","70","test","","","","4","",""
"null","617065","pSARL_v2","pSARL_v23700p3em","5c6709ab926a5b0001eb29c1","fixation","img/fixation.png","null","","test","","","","","",""
"340.7000000476837","617408","pSARL_v2","pSARL_v23700p3em","5c6709ab926a5b0001eb29c1","freq","img/green_2bandit_b2.png","70","70","test","1","83","83","4","",""
"null","617870","pSARL_v2","pSARL_v23700p3em","5c6709ab926a5b0001eb29c1","freq_resp","img/green_2bandit_b.png","70","70","test","","","","4","",""
"null","618024","pSARL_v2","pSARL_v23700p3em","5c6709ab926a5b0001eb29c1","fixation","img/fixation.png","null","","test","","","","","",""
"351.7000000476837","618378","pSARL_v2","pSARL_v23700p3em","5c6709ab926a5b0001eb29c1","freq","img/green_2bandit_b2.png","70","70","test","1","84","84","4","",""
"null","618829","pSARL_v2","pSARL_v23700p3em","5c6709ab926a5b0001eb29c1","freq_resp","img/green_2bandit_b.png","70","70","test","","","","4","",""
"null","618983","pSARL_v2","pSARL_v23700p3em","5c6709ab926a5b0001eb29c1","fixation","img/fixation.png","null","","test","","","","","",""
"326.89999997615814","619312","pSARL_v2","pSARL_v23700p3em","5c6709ab926a5b0001eb29c1","freq","img/green_2bandit_b2.png","70","70","test","1","85","85","4","",""
"null","619789","pSARL_v2","pSARL_v23700p3em","5c6709ab926a5b0001eb29c1","freq_resp","img/green_2bandit_b.png","70","70","test","","","","4","",""
"null","619942","pSARL_v2","pSARL_v23700p3em","5c6709ab926a5b0001eb29c1","fixation","img/fixation.png","null","","test","","","","","",""
"359","620305","pSARL_v2","pSARL_v23700p3em","5c6709ab926a5b0001eb29c1","freq","img/green_2bandit_b2.png","70","70","test","1","86","86","4","",""
"null","620750","pSARL_v2","pSARL_v23700p3em","5c6709ab926a5b0001eb29c1","freq_resp","img/green_2bandit_b.png","70","70","test","","","","4","",""
"null","620902","pSARL_v2","pSARL_v23700p3em","5c6709ab926a5b0001eb29c1","fixation","img/fixation.png","null","","test","","","","","",""
"214.20000004768372","621119","pSARL_v2","pSARL_v23700p3em","5c6709ab926a5b0001eb29c1","infreq","img/orange_2bandit_b2.png","70","68","test","0","87","87","4","",""
"null","621707","pSARL_v2","pSARL_v23700p3em","5c6709ab926a5b0001eb29c1","infreq_resp","img/orange_2bandit_b.png","70","68","test","","","","4","",""
"null","621860","pSARL_v2","pSARL_v23700p3em","5c6709ab926a5b0001eb29c1","fixation","img/fixation.png","null","","test","","","","","",""
"459.2999999523163","622322","pSARL_v2","pSARL_v23700p3em","5c6709ab926a5b0001eb29c1","freq","img/green_2bandit_b2.png","70","70","test","1","88","88","4","",""
"null","622665","pSARL_v2","pSARL_v23700p3em","5c6709ab926a5b0001eb29c1","freq_resp","img/green_2bandit_b.png","70","70","test","","","","4","",""
"null","622819","pSARL_v2","pSARL_v23700p3em","5c6709ab926a5b0001eb29c1","fixation","img/fixation.png","null","","test","","","","","",""
"311.5","623133","pSARL_v2","pSARL_v23700p3em","5c6709ab926a5b0001eb29c1","freq","img/green_2bandit_b2.png","70","70","test","1","89","89","4","",""
"null","623624","pSARL_v2","pSARL_v23700p3em","5c6709ab926a5b0001eb29c1","freq_resp","img/green_2bandit_b.png","70","70","test","","","","4","",""
"null","623777","pSARL_v2","pSARL_v23700p3em","5c6709ab926a5b0001eb29c1","fixation","img/fixation.png","null","","test","","","","","",""
"350.2000000476837","624131","pSARL_v2","pSARL_v23700p3em","5c6709ab926a5b0001eb29c1","freq","img/green_2bandit_b2.png","70","70","test","1","90","90","4","",""
"null","624583","pSARL_v2","pSARL_v23700p3em","5c6709ab926a5b0001eb29c1","freq_resp","img/green_2bandit_b.png","70","70","test","","","","4","",""
"null","624737","pSARL_v2","pSARL_v23700p3em","5c6709ab926a5b0001eb29c1","fixation","img/fixation.png","null","","test","","","","","",""
"316.60000002384186","625056","pSARL_v2","pSARL_v23700p3em","5c6709ab926a5b0001eb29c1","reward","img/slot.png","74","","test","","","","","",""
"null","625809","pSARL_v2","pSARL_v23700p3em","5c6709ab926a5b0001eb29c1","points","<div class=""verylowPoints""> -3 </div>","null","na","test","","","","4","-3","3"
"500.90000009536743","626312","pSARL_v2","pSARL_v23700p3em","5c6709ab926a5b0001eb29c1","freq","img/green_2bandit_b2.png","70","70","test","1","91","91","5","",""
"null","626614","pSARL_v2","pSARL_v23700p3em","5c6709ab926a5b0001eb29c1","freq_resp","img/green_2bandit_b.png","70","70","test","","","","5","",""
"null","626768","pSARL_v2","pSARL_v23700p3em","5c6709ab926a5b0001eb29c1","fixation","img/fixation.png","null","","test","","","","","",""
"384.90000009536743","627156","pSARL_v2","pSARL_v23700p3em","5c6709ab926a5b0001eb29c1","freq","img/green_2bandit_b2.png","70","70","test","1","92","92","5","",""
"null","627576","pSARL_v2","pSARL_v23700p3em","5c6709ab926a5b0001eb29c1","freq_resp","img/green_2bandit_b.png","70","70","test","","","","5","",""
"null","627730","pSARL_v2","pSARL_v23700p3em","5c6709ab926a5b0001eb29c1","fixation","img/fixation.png","null","","test","","","","","",""
"253.5","627986","pSARL_v2","pSARL_v23700p3em","5c6709ab926a5b0001eb29c1","freq","img/green_2bandit_b2.png","70","70","test","1","93","93","5","",""
"null","628535","pSARL_v2","pSARL_v23700p3em","5c6709ab926a5b0001eb29c1","freq_resp","img/green_2bandit_b.png","70","70","test","","","","5","",""
"null","628688","pSARL_v2","pSARL_v23700p3em","5c6709ab926a5b0001eb29c1","fixation","img/fixation.png","null","","test","","","","","",""
"243.89999997615814","628936","pSARL_v2","pSARL_v23700p3em","5c6709ab926a5b0001eb29c1","freq","img/green_2bandit_b2.png","70","70","test","1","94","94","5","",""
"null","629495","pSARL_v2","pSARL_v23700p3em","5c6709ab926a5b0001eb29c1","freq_resp","img/green_2bandit_b.png","70","70","test","","","","5","",""
"null","629649","pSARL_v2","pSARL_v23700p3em","5c6709ab926a5b0001eb29c1","fixation","img/fixation.png","null","","test","","","","","",""
"428.6999999284744","630080","pSARL_v2","pSARL_v23700p3em","5c6709ab926a5b0001eb29c1","freq","img/green_2bandit_b2.png","70","70","test","1","95","95","5","",""
"null","630454","pSARL_v2","pSARL_v23700p3em","5c6709ab926a5b0001eb29c1","freq_resp","img/green_2bandit_b.png","70","70","test","","","","5","",""
"null","630607","pSARL_v2","pSARL_v23700p3em","5c6709ab926a5b0001eb29c1","fixation","img/fixation.png","null","","test","","","","","",""
"null","631411","pSARL_v2","pSARL_v23700p3em","5c6709ab926a5b0001eb29c1","freq","img/green_2bandit_b2.png","null","70","test","0","96","96","5","",""
"null","631564","pSARL_v2","pSARL_v23700p3em","5c6709ab926a5b0001eb29c1","fixation","img/fixation.png","null","","test","","","","","",""
"332.10000002384186","631899","pSARL_v2","pSARL_v23700p3em","5c6709ab926a5b0001eb29c1","freq","img/green_2bandit_b2.png","70","70","test","1","97","97","5","",""
"null","632371","pSARL_v2","pSARL_v23700p3em","5c6709ab926a5b0001eb29c1","freq_resp","img/green_2bandit_b.png","70","70","test","","","","5","",""
"null","632524","pSARL_v2","pSARL_v23700p3em","5c6709ab926a5b0001eb29c1","fixation","img/fixation.png","null","","test","","","","","",""
"399.10000002384186","632927","pSARL_v2","pSARL_v23700p3em","5c6709ab926a5b0001eb29c1","freq","img/green_2bandit_b2.png","70","70","test","1","98","98","5","",""
"null","633330","pSARL_v2","pSARL_v23700p3em","5c6709ab926a5b0001eb29c1","freq_resp","img/green_2bandit_b.png","70","70","test","","","","5","",""
"null","633484","pSARL_v2","pSARL_v23700p3em","5c6709ab926a5b0001eb29c1","fixation","img/fixation.png","null","","test","","","","","",""
"317.2000000476837","633804","pSARL_v2","pSARL_v23700p3em","5c6709ab926a5b0001eb29c1","freq","img/green_2bandit_b2.png","70","70","test","1","99","99","5","",""
"null","634288","pSARL_v2","pSARL_v23700p3em","5c6709ab926a5b0001eb29c1","freq_resp","img/green_2bandit_b.png","70","70","test","","","","5","",""
"null","634442","pSARL_v2","pSARL_v23700p3em","5c6709ab926a5b0001eb29c1","fixation","img/fixation.png","null","","test","","","","","",""
"389.7999999523163","634835","pSARL_v2","pSARL_v23700p3em","5c6709ab926a5b0001eb29c1","freq","img/green_2bandit_b2.png","70","70","test","1","100","100","5","",""
"null","635249","pSARL_v2","pSARL_v23700p3em","5c6709ab926a5b0001eb29c1","freq_resp","img/green_2bandit_b.png","70","70","test","","","","5","",""
"null","635403","pSARL_v2","pSARL_v23700p3em","5c6709ab926a5b0001eb29c1","fixation","img/fixation.png","null","","test","","","","","",""
"360.90000009536743","635766","pSARL_v2","pSARL_v23700p3em","5c6709ab926a5b0001eb29c1","freq","img/green_2bandit_b2.png","70","70","test","1","101","101","5","",""
"null","636209","pSARL_v2","pSARL_v23700p3em","5c6709ab926a5b0001eb29c1","freq_resp","img/green_2bandit_b.png","70","70","test","","","","5","",""
"null","636361","pSARL_v2","pSARL_v23700p3em","5c6709ab926a5b0001eb29c1","fixation","img/fixation.png","null","","test","","","","","",""
"547.5","636911","pSARL_v2","pSARL_v23700p3em","5c6709ab926a5b0001eb29c1","freq","img/green_2bandit_b2.png","70","70","test","1","102","102","5","",""
"null","637167","pSARL_v2","pSARL_v23700p3em","5c6709ab926a5b0001eb29c1","freq_resp","img/green_2bandit_b.png","70","70","test","","","","5","",""
"null","637321","pSARL_v2","pSARL_v23700p3em","5c6709ab926a5b0001eb29c1","fixation","img/fixation.png","null","","test","","","","","",""
"356.39999997615814","637680","pSARL_v2","pSARL_v23700p3em","5c6709ab926a5b0001eb29c1","infreq","img/orange_2bandit_b2.png","68","68","test","1","103","103","5","",""
"null","638127","pSARL_v2","pSARL_v23700p3em","5c6709ab926a5b0001eb29c1","infreq_resp","img/orange_2bandit_b.png","68","68","test","","","","5","",""
"null","638281","pSARL_v2","pSARL_v23700p3em","5c6709ab926a5b0001eb29c1","fixation","img/fixation.png","null","","test","","","","","",""
"237.5","638521","pSARL_v2","pSARL_v23700p3em","5c6709ab926a5b0001eb29c1","freq","img/green_2bandit_b2.png","70","70","test","1","104","104","5","",""
"null","639085","pSARL_v2","pSARL_v23700p3em","5c6709ab926a5b0001eb29c1","freq_resp","img/green_2bandit_b.png","70","70","test","","","","5","",""
"null","639239","pSARL_v2","pSARL_v23700p3em","5c6709ab926a5b0001eb29c1","fixation","img/fixation.png","null","","test","","","","","",""
"377.5","639619","pSARL_v2","pSARL_v23700p3em","5c6709ab926a5b0001eb29c1","freq","img/green_2bandit_b2.png","70","70","test","1","105","105","5","",""
"null","640043","pSARL_v2","pSARL_v23700p3em","5c6709ab926a5b0001eb29c1","freq_resp","img/green_2bandit_b.png","70","70","test","","","","5","",""
"null","640196","pSARL_v2","pSARL_v23700p3em","5c6709ab926a5b0001eb29c1","fixation","img/fixation.png","null","","test","","","","","",""
"370.39999997615814","640569","pSARL_v2","pSARL_v23700p3em","5c6709ab926a5b0001eb29c1","freq","img/green_2bandit_b2.png","70","70","test","1","106","106","5","",""
"null","641001","pSARL_v2","pSARL_v23700p3em","5c6709ab926a5b0001eb29c1","freq_resp","img/green_2bandit_b.png","70","70","test","","","","5","",""
"null","641153","pSARL_v2","pSARL_v23700p3em","5c6709ab926a5b0001eb29c1","fixation","img/fixation.png","null","","test","","","","","",""
"340.7000000476837","641496","pSARL_v2","pSARL_v23700p3em","5c6709ab926a5b0001eb29c1","freq","img/green_2bandit_b2.png","70","70","test","1","107","107","5","",""
"null","641961","pSARL_v2","pSARL_v23700p3em","5c6709ab926a5b0001eb29c1","freq_resp","img/green_2bandit_b.png","70","70","test","","","","5","",""
"null","642114","pSARL_v2","pSARL_v23700p3em","5c6709ab926a5b0001eb29c1","fixation","img/fixation.png","null","","test","","","","","",""
"388.8000000715256","642505","pSARL_v2","pSARL_v23700p3em","5c6709ab926a5b0001eb29c1","freq","img/green_2bandit_b2.png","70","70","test","1","108","108","5","",""
"null","642921","pSARL_v2","pSARL_v23700p3em","5c6709ab926a5b0001eb29c1","freq_resp","img/green_2bandit_b.png","70","70","test","","","","5","",""
"null","643074","pSARL_v2","pSARL_v23700p3em","5c6709ab926a5b0001eb29c1","fixation","img/fixation.png","null","","test","","","","","",""
"311.2999999523163","643388","pSARL_v2","pSARL_v23700p3em","5c6709ab926a5b0001eb29c1","freq","img/green_2bandit_b2.png","70","70","test","1","109","109","5","",""
"null","643879","pSARL_v2","pSARL_v23700p3em","5c6709ab926a5b0001eb29c1","freq_resp","img/green_2bandit_b.png","70","70","test","","","","5","",""
"null","644033","pSARL_v2","pSARL_v23700p3em","5c6709ab926a5b0001eb29c1","fixation","img/fixation.png","null","","test","","","","","",""
"342.60000002384186","644378","pSARL_v2","pSARL_v23700p3em","5c6709ab926a5b0001eb29c1","freq","img/green_2bandit_b2.png","70","70","test","1","110","110","5","",""
"null","644838","pSARL_v2","pSARL_v23700p3em","5c6709ab926a5b0001eb29c1","freq_resp","img/green_2bandit_b.png","70","70","test","","","","5","",""
"null","644991","pSARL_v2","pSARL_v23700p3em","5c6709ab926a5b0001eb29c1","fixation","img/fixation.png","null","","test","","","","","",""
"407.09999990463257","645401","pSARL_v2","pSARL_v23700p3em","5c6709ab926a5b0001eb29c1","infreq","img/orange_2bandit_b2.png","68","68","test","1","111","111","5","",""
"null","645796","pSARL_v2","pSARL_v23700p3em","5c6709ab926a5b0001eb29c1","infreq_resp","img/orange_2bandit_b.png","68","68","test","","","","5","",""
"null","645951","pSARL_v2","pSARL_v23700p3em","5c6709ab926a5b0001eb29c1","fixation","img/fixation.png","null","","test","","","","","",""
"323.8000000715256","646277","pSARL_v2","pSARL_v23700p3em","5c6709ab926a5b0001eb29c1","freq","img/green_2bandit_b2.png","70","70","test","1","112","112","5","",""
"null","646757","pSARL_v2","pSARL_v23700p3em","5c6709ab926a5b0001eb29c1","freq_resp","img/green_2bandit_b.png","70","70","test","","","","5","",""
"null","646909","pSARL_v2","pSARL_v23700p3em","5c6709ab926a5b0001eb29c1","fixation","img/fixation.png","null","","test","","","","","",""
"325.60000002384186","647237","pSARL_v2","pSARL_v23700p3em","5c6709ab926a5b0001eb29c1","freq","img/green_2bandit_b2.png","70","70","test","1","113","113","5","",""
"null","647714","pSARL_v2","pSARL_v23700p3em","5c6709ab926a5b0001eb29c1","freq_resp","img/green_2bandit_b.png","70","70","test","","","","5","",""
"null","647867","pSARL_v2","pSARL_v23700p3em","5c6709ab926a5b0001eb29c1","fixation","img/fixation.png","null","","test","","","","","",""
"331.40000009536743","648202","pSARL_v2","pSARL_v23700p3em","5c6709ab926a5b0001eb29c1","freq","img/green_2bandit_b2.png","70","70","test","1","114","114","5","",""
"null","648673","pSARL_v2","pSARL_v23700p3em","5c6709ab926a5b0001eb29c1","freq_resp","img/green_2bandit_b.png","70","70","test","","","","5","",""
"null","648826","pSARL_v2","pSARL_v23700p3em","5c6709ab926a5b0001eb29c1","fixation","img/fixation.png","null","","test","","","","","",""
"290.2999999523163","649119","pSARL_v2","pSARL_v23700p3em","5c6709ab926a5b0001eb29c1","freq","img/green_2bandit_b2.png","70","70","test","1","115","115","5","",""
"null","649631","pSARL_v2","pSARL_v23700p3em","5c6709ab926a5b0001eb29c1","freq_resp","img/green_2bandit_b.png","70","70","test","","","","5","",""
"null","649784","pSARL_v2","pSARL_v23700p3em","5c6709ab926a5b0001eb29c1","fixation","img/fixation.png","null","","test","","","","","",""
"474.7999999523163","650262","pSARL_v2","pSARL_v23700p3em","5c6709ab926a5b0001eb29c1","reward","img/slot.png","74","","test","","","","","",""
"null","651015","pSARL_v2","pSARL_v23700p3em","5c6709ab926a5b0001eb29c1","points","<div class=""veryhighPoints""> +1 </div>","null","na","test","","","","5","1","4"
"215.39999997615814","651233","pSARL_v2","pSARL_v23700p3em","5c6709ab926a5b0001eb29c1","freq","img/green_2bandit_b2.png","70","70","test","1","116","116","6","",""
"null","651821","pSARL_v2","pSARL_v23700p3em","5c6709ab926a5b0001eb29c1","freq_resp","img/green_2bandit_b.png","70","70","test","","","","6","",""
"null","651974","pSARL_v2","pSARL_v23700p3em","5c6709ab926a5b0001eb29c1","fixation","img/fixation.png","null","","test","","","","","",""
"223.10000002384186","652200","pSARL_v2","pSARL_v23700p3em","5c6709ab926a5b0001eb29c1","freq","img/green_2bandit_b2.png","70","70","test","1","117","117","6","",""
"null","652779","pSARL_v2","pSARL_v23700p3em","5c6709ab926a5b0001eb29c1","freq_resp","img/green_2bandit_b.png","70","70","test","","","","6","",""
"null","652932","pSARL_v2","pSARL_v23700p3em","5c6709ab926a5b0001eb29c1","fixation","img/fixation.png","null","","test","","","","","",""
"186.5","653121","pSARL_v2","pSARL_v23700p3em","5c6709ab926a5b0001eb29c1","freq","img/green_2bandit_b2.png","70","70","test","1","118","118","6","",""
"null","653738","pSARL_v2","pSARL_v23700p3em","5c6709ab926a5b0001eb29c1","freq_resp","img/green_2bandit_b.png","70","70","test","","","","6","",""
"null","653892","pSARL_v2","pSARL_v23700p3em","5c6709ab926a5b0001eb29c1","fixation","img/fixation.png","null","","test","","","","","",""
"183.60000002384186","654078","pSARL_v2","pSARL_v23700p3em","5c6709ab926a5b0001eb29c1","freq","img/green_2bandit_b2.png","70","70","test","1","119","119","6","",""
"null","654698","pSARL_v2","pSARL_v23700p3em","5c6709ab926a5b0001eb29c1","freq_resp","img/green_2bandit_b.png","70","70","test","","","","6","",""
"null","654851","pSARL_v2","pSARL_v23700p3em","5c6709ab926a5b0001eb29c1","fixation","img/fixation.png","null","","test","","","","","",""
"132.10000002384186","654985","pSARL_v2","pSARL_v23700p3em","5c6709ab926a5b0001eb29c1","freq","img/green_2bandit_b2.png","70","70","test","1","120","120","6","",""
"null","655655","pSARL_v2","pSARL_v23700p3em","5c6709ab926a5b0001eb29c1","freq_resp","img/green_2bandit_b.png","70","70","test","","","","6","",""
"null","655809","pSARL_v2","pSARL_v23700p3em","5c6709ab926a5b0001eb29c1","fixation","img/fixation.png","null","","test","","","","","",""
"248.5","656060","pSARL_v2","pSARL_v23700p3em","5c6709ab926a5b0001eb29c1","freq","img/green_2bandit_b2.png","70","70","test","1","121","121","6","",""
"null","656614","pSARL_v2","pSARL_v23700p3em","5c6709ab926a5b0001eb29c1","freq_resp","img/green_2bandit_b.png","70","70","test","","","","6","",""
"null","656767","pSARL_v2","pSARL_v23700p3em","5c6709ab926a5b0001eb29c1","fixation","img/fixation.png","null","","test","","","","","",""
"140.79999995231628","656910","pSARL_v2","pSARL_v23700p3em","5c6709ab926a5b0001eb29c1","freq","img/green_2bandit_b2.png","70","70","test","1","122","122","6","",""
"null","657573","pSARL_v2","pSARL_v23700p3em","5c6709ab926a5b0001eb29c1","freq_resp","img/green_2bandit_b.png","70","70","test","","","","6","",""
"null","657726","pSARL_v2","pSARL_v23700p3em","5c6709ab926a5b0001eb29c1","fixation","img/fixation.png","null","","test","","","","","",""
"154.89999997615814","657884","pSARL_v2","pSARL_v23700p3em","5c6709ab926a5b0001eb29c1","freq","img/green_2bandit_b2.png","70","70","test","1","123","123","6","",""
"null","658532","pSARL_v2","pSARL_v23700p3em","5c6709ab926a5b0001eb29c1","freq_resp","img/green_2bandit_b.png","70","70","test","","","","6","",""
"null","658686","pSARL_v2","pSARL_v23700p3em","5c6709ab926a5b0001eb29c1","fixation","img/fixation.png","null","","test","","","","","",""
"198.89999997615814","658888","pSARL_v2","pSARL_v23700p3em","5c6709ab926a5b0001eb29c1","freq","img/green_2bandit_b2.png","70","70","test","1","124","124","6","",""
"null","659492","pSARL_v2","pSARL_v23700p3em","5c6709ab926a5b0001eb29c1","freq_resp","img/green_2bandit_b.png","70","70","test","","","","6","",""
"null","659645","pSARL_v2","pSARL_v23700p3em","5c6709ab926a5b0001eb29c1","fixation","img/fixation.png","null","","test","","","","","",""
"291.09999990463257","659939","pSARL_v2","pSARL_v23700p3em","5c6709ab926a5b0001eb29c1","freq","img/green_2bandit_b2.png","70","70","test","1","125","125","6","",""
"null","660451","pSARL_v2","pSARL_v23700p3em","5c6709ab926a5b0001eb29c1","freq_resp","img/green_2bandit_b.png","70","70","test","","","","6","",""
"null","660605","pSARL_v2","pSARL_v23700p3em","5c6709ab926a5b0001eb29c1","fixation","img/fixation.png","null","","test","","","","","",""
"284.10000002384186","660892","pSARL_v2","pSARL_v23700p3em","5c6709ab926a5b0001eb29c1","freq","img/green_2bandit_b2.png","70","70","test","1","126","126","6","",""
"null","661411","pSARL_v2","pSARL_v23700p3em","5c6709ab926a5b0001eb29c1","freq_resp","img/green_2bandit_b.png","70","70","test","","","","6","",""
"null","661564","pSARL_v2","pSARL_v23700p3em","5c6709ab926a5b0001eb29c1","fixation","img/fixation.png","null","","test","","","","","",""
"273.5","661840","pSARL_v2","pSARL_v23700p3em","5c6709ab926a5b0001eb29c1","freq","img/green_2bandit_b2.png","70","70","test","1","127","127","6","",""
"null","662370","pSARL_v2","pSARL_v23700p3em","5c6709ab926a5b0001eb29c1","freq_resp","img/green_2bandit_b.png","70","70","test","","","","6","",""
"null","662524","pSARL_v2","pSARL_v23700p3em","5c6709ab926a5b0001eb29c1","fixation","img/fixation.png","null","","test","","","","","",""
"298.3000000715256","662825","pSARL_v2","pSARL_v23700p3em","5c6709ab926a5b0001eb29c1","freq","img/green_2bandit_b2.png","70","70","test","1","128","128","6","",""
"null","663329","pSARL_v2","pSARL_v23700p3em","5c6709ab926a5b0001eb29c1","freq_resp","img/green_2bandit_b.png","70","70","test","","","","6","",""
"null","663483","pSARL_v2","pSARL_v23700p3em","5c6709ab926a5b0001eb29c1","fixation","img/fixation.png","null","","test","","","","","",""
"316.3000000715256","663801","pSARL_v2","pSARL_v23700p3em","5c6709ab926a5b0001eb29c1","freq","img/green_2bandit_b2.png","70","70","test","1","129","129","6","",""
"null","664288","pSARL_v2","pSARL_v23700p3em","5c6709ab926a5b0001eb29c1","freq_resp","img/green_2bandit_b.png","70","70","test","","","","6","",""
"null","664442","pSARL_v2","pSARL_v23700p3em","5c6709ab926a5b0001eb29c1","fixation","img/fixation.png","null","","test","","","","","",""
"368.3000000715256","664813","pSARL_v2","pSARL_v23700p3em","5c6709ab926a5b0001eb29c1","infreq","img/orange_2bandit_b2.png","68","68","test","1","130","130","6","",""
"null","665248","pSARL_v2","pSARL_v23700p3em","5c6709ab926a5b0001eb29c1","infreq_resp","img/orange_2bandit_b.png","68","68","test","","","","6","",""
"null","665402","pSARL_v2","pSARL_v23700p3em","5c6709ab926a5b0001eb29c1","fixation","img/fixation.png","null","","test","","","","","",""
"234.5","665639","pSARL_v2","pSARL_v23700p3em","5c6709ab926a5b0001eb29c1","freq","img/green_2bandit_b2.png","70","70","test","1","131","131","6","",""
"null","666206","pSARL_v2","pSARL_v23700p3em","5c6709ab926a5b0001eb29c1","freq_resp","img/green_2bandit_b.png","70","70","test","","","","6","",""
"null","666360","pSARL_v2","pSARL_v23700p3em","5c6709ab926a5b0001eb29c1","fixation","img/fixation.png","null","","test","","","","","",""
"274.39999997615814","666637","pSARL_v2","pSARL_v23700p3em","5c6709ab926a5b0001eb29c1","freq","img/green_2bandit_b2.png","70","70","test","1","132","132","6","",""
"null","667165","pSARL_v2","pSARL_v23700p3em","5c6709ab926a5b0001eb29c1","freq_resp","img/green_2bandit_b.png","70","70","test","","","","6","",""
"null","667318","pSARL_v2","pSARL_v23700p3em","5c6709ab926a5b0001eb29c1","fixation","img/fixation.png","null","","test","","","","","",""
"388","667709","pSARL_v2","pSARL_v23700p3em","5c6709ab926a5b0001eb29c1","infreq","img/orange_2bandit_b2.png","68","68","test","1","133","133","6","",""
"null","668125","pSARL_v2","pSARL_v23700p3em","5c6709ab926a5b0001eb29c1","infreq_resp","img/orange_2bandit_b.png","68","68","test","","","","6","",""
"null","668278","pSARL_v2","pSARL_v23700p3em","5c6709ab926a5b0001eb29c1","fixation","img/fixation.png","null","","test","","","","","",""
"301.59999990463257","668582","pSARL_v2","pSARL_v23700p3em","5c6709ab926a5b0001eb29c1","freq","img/green_2bandit_b2.png","70","70","test","1","134","134","6","",""
"null","669085","pSARL_v2","pSARL_v23700p3em","5c6709ab926a5b0001eb29c1","freq_resp","img/green_2bandit_b.png","70","70","test","","","","6","",""
"null","669238","pSARL_v2","pSARL_v23700p3em","5c6709ab926a5b0001eb29c1","fixation","img/fixation.png","null","","test","","","","","",""
"336.10000002384186","669577","pSARL_v2","pSARL_v23700p3em","5c6709ab926a5b0001eb29c1","freq","img/green_2bandit_b2.png","70","70","test","1","135","135","6","",""
"null","670043","pSARL_v2","pSARL_v23700p3em","5c6709ab926a5b0001eb29c1","freq_resp","img/green_2bandit_b.png","70","70","test","","","","6","",""
"null","670196","pSARL_v2","pSARL_v23700p3em","5c6709ab926a5b0001eb29c1","fixation","img/fixation.png","null","","test","","","","","",""
"483.2999999523163","670682","pSARL_v2","pSARL_v23700p3em","5c6709ab926a5b0001eb29c1","reward","img/slot.png","74","","test","","","","","",""
"null","671434","pSARL_v2","pSARL_v23700p3em","5c6709ab926a5b0001eb29c1","points","<div class=""verylowPoints""> -7 </div>","null","na","test","","","","6","-7","5"
"184.60000002384186","671621","pSARL_v2","pSARL_v23700p3em","5c6709ab926a5b0001eb29c1","freq","img/green_2bandit_b2.png","70","70","test","1","136","136","7","",""
"null","672241","pSARL_v2","pSARL_v23700p3em","5c6709ab926a5b0001eb29c1","freq_resp","img/green_2bandit_b.png","70","70","test","","","","7","",""
"null","672394","pSARL_v2","pSARL_v23700p3em","5c6709ab926a5b0001eb29c1","fixation","img/fixation.png","null","","test","","","","","",""
"234.69999992847443","672632","pSARL_v2","pSARL_v23700p3em","5c6709ab926a5b0001eb29c1","infreq","img/orange_2bandit_b2.png","70","68","test","0","137","137","7","",""
"null","673200","pSARL_v2","pSARL_v23700p3em","5c6709ab926a5b0001eb29c1","infreq_resp","img/orange_2bandit_b.png","70","68","test","","","","7","",""
"null","673353","pSARL_v2","pSARL_v23700p3em","5c6709ab926a5b0001eb29c1","fixation","img/fixation.png","null","","test","","","","","",""
"216.10000002384186","673571","pSARL_v2","pSARL_v23700p3em","5c6709ab926a5b0001eb29c1","freq","img/green_2bandit_b2.png","70","70","test","1","138","138","7","",""
"null","674158","pSARL_v2","pSARL_v23700p3em","5c6709ab926a5b0001eb29c1","freq_resp","img/green_2bandit_b.png","70","70","test","","","","7","",""
"null","674312","pSARL_v2","pSARL_v23700p3em","5c6709ab926a5b0001eb29c1","fixation","img/fixation.png","null","","test","","","","","",""
"117.79999995231628","674433","pSARL_v2","pSARL_v23700p3em","5c6709ab926a5b0001eb29c1","infreq","img/orange_2bandit_b2.png","70","68","test","0","139","139","7","",""
"null","675118","pSARL_v2","pSARL_v23700p3em","5c6709ab926a5b0001eb29c1","infreq_resp","img/orange_2bandit_b.png","70","68","test","","","","7","",""
"null","675271","pSARL_v2","pSARL_v23700p3em","5c6709ab926a5b0001eb29c1","fixation","img/fixation.png","null","","test","","","","","",""
"432.60000002384186","675706","pSARL_v2","pSARL_v23700p3em","5c6709ab926a5b0001eb29c1","freq","img/green_2bandit_b2.png","70","70","test","1","140","140","7","",""
"null","676076","pSARL_v2","pSARL_v23700p3em","5c6709ab926a5b0001eb29c1","freq_resp","img/green_2bandit_b.png","70","70","test","","","","7","",""
"null","676229","pSARL_v2","pSARL_v23700p3em","5c6709ab926a5b0001eb29c1","fixation","img/fixation.png","null","","test","","","","","",""
"374.39999997615814","676606","pSARL_v2","pSARL_v23700p3em","5c6709ab926a5b0001eb29c1","freq","img/green_2bandit_b2.png","70","70","test","1","141","141","7","",""
"null","677036","pSARL_v2","pSARL_v23700p3em","5c6709ab926a5b0001eb29c1","freq_resp","img/green_2bandit_b.png","70","70","test","","","","7","",""
"null","677189","pSARL_v2","pSARL_v23700p3em","5c6709ab926a5b0001eb29c1","fixation","img/fixation.png","null","","test","","","","","",""
"337.60000002384186","677529","pSARL_v2","pSARL_v23700p3em","5c6709ab926a5b0001eb29c1","freq","img/green_2bandit_b2.png","70","70","test","1","142","142","7","",""
"null","677996","pSARL_v2","pSARL_v23700p3em","5c6709ab926a5b0001eb29c1","freq_resp","img/green_2bandit_b.png","70","70","test","","","","7","",""
"null","678150","pSARL_v2","pSARL_v23700p3em","5c6709ab926a5b0001eb29c1","fixation","img/fixation.png","null","","test","","","","","",""
"372.2000000476837","678525","pSARL_v2","pSARL_v23700p3em","5c6709ab926a5b0001eb29c1","freq","img/green_2bandit_b2.png","70","70","test","1","143","143","7","",""
"null","678956","pSARL_v2","pSARL_v23700p3em","5c6709ab926a5b0001eb29c1","freq_resp","img/green_2bandit_b.png","70","70","test","","","","7","",""
"null","679111","pSARL_v2","pSARL_v23700p3em","5c6709ab926a5b0001eb29c1","fixation","img/fixation.png","null","","test","","","","","",""
"313.40000009536743","679427","pSARL_v2","pSARL_v23700p3em","5c6709ab926a5b0001eb29c1","freq","img/green_2bandit_b2.png","70","70","test","1","144","144","7","",""
"null","679917","pSARL_v2","pSARL_v23700p3em","5c6709ab926a5b0001eb29c1","freq_resp","img/green_2bandit_b.png","70","70","test","","","","7","",""
"null","680070","pSARL_v2","pSARL_v23700p3em","5c6709ab926a5b0001eb29c1","fixation","img/fixation.png","null","","test","","","","","",""
"283.10000002384186","680355","pSARL_v2","pSARL_v23700p3em","5c6709ab926a5b0001eb29c1","freq","img/green_2bandit_b2.png","70","70","test","1","145","145","7","",""
"null","680875","pSARL_v2","pSARL_v23700p3em","5c6709ab926a5b0001eb29c1","freq_resp","img/green_2bandit_b.png","70","70","test","","","","7","",""
"null","681028","pSARL_v2","pSARL_v23700p3em","5c6709ab926a5b0001eb29c1","fixation","img/fixation.png","null","","test","","","","","",""
"335.60000002384186","681366","pSARL_v2","pSARL_v23700p3em","5c6709ab926a5b0001eb29c1","freq","img/green_2bandit_b2.png","70","70","test","1","146","146","7","",""
"null","681833","pSARL_v2","pSARL_v23700p3em","5c6709ab926a5b0001eb29c1","freq_resp","img/green_2bandit_b.png","70","70","test","","","","7","",""
"null","681988","pSARL_v2","pSARL_v23700p3em","5c6709ab926a5b0001eb29c1","fixation","img/fixation.png","null","","test","","","","","",""
"313","682303","pSARL_v2","pSARL_v23700p3em","5c6709ab926a5b0001eb29c1","freq","img/green_2bandit_b2.png","70","70","test","1","147","147","7","",""
"null","682794","pSARL_v2","pSARL_v23700p3em","5c6709ab926a5b0001eb29c1","freq_resp","img/green_2bandit_b.png","70","70","test","","","","7","",""
"null","682953","pSARL_v2","pSARL_v23700p3em","5c6709ab926a5b0001eb29c1","fixation","img/fixation.png","null","","test","","","","","",""
"271.10000002384186","683228","pSARL_v2","pSARL_v23700p3em","5c6709ab926a5b0001eb29c1","freq","img/green_2bandit_b2.png","70","70","test","1","148","148","7","",""
"null","683760","pSARL_v2","pSARL_v23700p3em","5c6709ab926a5b0001eb29c1","freq_resp","img/green_2bandit_b.png","70","70","test","","","","7","",""
"null","683914","pSARL_v2","pSARL_v23700p3em","5c6709ab926a5b0001eb29c1","fixation","img/fixation.png","null","","test","","","","","",""
"296.10000002384186","684212","pSARL_v2","pSARL_v23700p3em","5c6709ab926a5b0001eb29c1","freq","img/green_2bandit_b2.png","70","70","test","1","149","149","7","",""
"null","684718","pSARL_v2","pSARL_v23700p3em","5c6709ab926a5b0001eb29c1","freq_resp","img/green_2bandit_b.png","70","70","test","","","","7","",""
"null","684872","pSARL_v2","pSARL_v23700p3em","5c6709ab926a5b0001eb29c1","fixation","img/fixation.png","null","","test","","","","","",""
"303.09999990463257","685178","pSARL_v2","pSARL_v23700p3em","5c6709ab926a5b0001eb29c1","freq","img/green_2bandit_b2.png","70","70","test","1","150","150","7","",""
"null","685677","pSARL_v2","pSARL_v23700p3em","5c6709ab926a5b0001eb29c1","freq_resp","img/green_2bandit_b.png","70","70","test","","","","7","",""
"null","685831","pSARL_v2","pSARL_v23700p3em","5c6709ab926a5b0001eb29c1","fixation","img/fixation.png","null","","test","","","","","",""
"267","686100","pSARL_v2","pSARL_v23700p3em","5c6709ab926a5b0001eb29c1","freq","img/green_2bandit_b2.png","70","70","test","1","151","151","7","",""
"null","686637","pSARL_v2","pSARL_v23700p3em","5c6709ab926a5b0001eb29c1","freq_resp","img/green_2bandit_b.png","70","70","test","","","","7","",""
"null","686791","pSARL_v2","pSARL_v23700p3em","5c6709ab926a5b0001eb29c1","fixation","img/fixation.png","null","","test","","","","","",""
"241.59999990463257","687035","pSARL_v2","pSARL_v23700p3em","5c6709ab926a5b0001eb29c1","freq","img/green_2bandit_b2.png","70","70","test","1","152","152","7","",""
"null","687597","pSARL_v2","pSARL_v23700p3em","5c6709ab926a5b0001eb29c1","freq_resp","img/green_2bandit_b.png","70","70","test","","","","7","",""
"null","687750","pSARL_v2","pSARL_v23700p3em","5c6709ab926a5b0001eb29c1","fixation","img/fixation.png","null","","test","","","","","",""
"337.89999997615814","688091","pSARL_v2","pSARL_v23700p3em","5c6709ab926a5b0001eb29c1","freq","img/green_2bandit_b2.png","70","70","test","1","153","153","7","",""
"null","688556","pSARL_v2","pSARL_v23700p3em","5c6709ab926a5b0001eb29c1","freq_resp","img/green_2bandit_b.png","70","70","test","","","","7","",""
"null","688711","pSARL_v2","pSARL_v23700p3em","5c6709ab926a5b0001eb29c1","fixation","img/fixation.png","null","","test","","","","","",""
"294.10000002384186","689008","pSARL_v2","pSARL_v23700p3em","5c6709ab926a5b0001eb29c1","freq","img/green_2bandit_b2.png","70","70","test","1","154","154","7","",""
"null","689516","pSARL_v2","pSARL_v23700p3em","5c6709ab926a5b0001eb29c1","freq_resp","img/green_2bandit_b.png","70","70","test","","","","7","",""
"null","689669","pSARL_v2","pSARL_v23700p3em","5c6709ab926a5b0001eb29c1","fixation","img/fixation.png","null","","test","","","","","",""
"233","689905","pSARL_v2","pSARL_v23700p3em","5c6709ab926a5b0001eb29c1","freq","img/green_2bandit_b2.png","70","70","test","1","155","155","7","",""
"null","690475","pSARL_v2","pSARL_v23700p3em","5c6709ab926a5b0001eb29c1","freq_resp","img/green_2bandit_b.png","70","70","test","","","","7","",""
"null","690630","pSARL_v2","pSARL_v23700p3em","5c6709ab926a5b0001eb29c1","fixation","img/fixation.png","null","","test","","","","","",""
"540.8000000715256","691173","pSARL_v2","pSARL_v23700p3em","5c6709ab926a5b0001eb29c1","reward","img/slot.png","74","","test","","","","","",""
"null","691926","pSARL_v2","pSARL_v23700p3em","5c6709ab926a5b0001eb29c1","points","<div class=""verylowPoints""> -6 </div>","null","na","test","","","","7","-6","6"
"228.60000002384186","692157","pSARL_v2","pSARL_v23700p3em","5c6709ab926a5b0001eb29c1","freq","img/green_2bandit_b2.png","70","70","test","1","156","156","8","",""
"null","692731","pSARL_v2","pSARL_v23700p3em","5c6709ab926a5b0001eb29c1","freq_resp","img/green_2bandit_b.png","70","70","test","","","","8","",""
"null","692885","pSARL_v2","pSARL_v23700p3em","5c6709ab926a5b0001eb29c1","fixation","img/fixation.png","null","","test","","","","","",""
"290.8000000715256","693178","pSARL_v2","pSARL_v23700p3em","5c6709ab926a5b0001eb29c1","freq","img/green_2bandit_b2.png","70","70","test","1","157","157","8","",""
"null","693691","pSARL_v2","pSARL_v23700p3em","5c6709ab926a5b0001eb29c1","freq_resp","img/green_2bandit_b.png","70","70","test","","","","8","",""
"null","693844","pSARL_v2","pSARL_v23700p3em","5c6709ab926a5b0001eb29c1","fixation","img/fixation.png","null","","test","","","","","",""
"246.19999992847443","694093","pSARL_v2","pSARL_v23700p3em","5c6709ab926a5b0001eb29c1","freq","img/green_2bandit_b2.png","70","70","test","1","158","158","8","",""
"null","694651","pSARL_v2","pSARL_v23700p3em","5c6709ab926a5b0001eb29c1","freq_resp","img/green_2bandit_b.png","70","70","test","","","","8","",""
"null","694804","pSARL_v2","pSARL_v23700p3em","5c6709ab926a5b0001eb29c1","fixation","img/fixation.png","null","","test","","","","","",""
"746","695553","pSARL_v2","pSARL_v23700p3em","5c6709ab926a5b0001eb29c1","freq","img/green_2bandit_b2.png","70","70","test","1","159","159","8","",""
"null","695610","pSARL_v2","pSARL_v23700p3em","5c6709ab926a5b0001eb29c1","freq_resp","img/green_2bandit_b.png","70","70","test","","","","8","",""
"null","695764","pSARL_v2","pSARL_v23700p3em","5c6709ab926a5b0001eb29c1","fixation","img/fixation.png","null","","test","","","","","",""
"504.40000009536743","696271","pSARL_v2","pSARL_v23700p3em","5c6709ab926a5b0001eb29c1","freq","img/green_2bandit_b2.png","70","70","test","1","160","160","8","",""
"null","696570","pSARL_v2","pSARL_v23700p3em","5c6709ab926a5b0001eb29c1","freq_resp","img/green_2bandit_b.png","70","70","test","","","","8","",""
"null","696724","pSARL_v2","pSARL_v23700p3em","5c6709ab926a5b0001eb29c1","fixation","img/fixation.png","null","","test","","","","","",""
"437.60000002384186","697164","pSARL_v2","pSARL_v23700p3em","5c6709ab926a5b0001eb29c1","freq","img/green_2bandit_b2.png","70","70","test","1","161","161","8","",""
"null","697531","pSARL_v2","pSARL_v23700p3em","5c6709ab926a5b0001eb29c1","freq_resp","img/green_2bandit_b.png","70","70","test","","","","8","",""
"null","697685","pSARL_v2","pSARL_v23700p3em","5c6709ab926a5b0001eb29c1","fixation","img/fixation.png","null","","test","","","","","",""
"354","698041","pSARL_v2","pSARL_v23700p3em","5c6709ab926a5b0001eb29c1","infreq","img/orange_2bandit_b2.png","68","68","test","1","162","162","8","",""
"null","698491","pSARL_v2","pSARL_v23700p3em","5c6709ab926a5b0001eb29c1","infreq_resp","img/orange_2bandit_b.png","68","68","test","","","","8","",""
"null","698644","pSARL_v2","pSARL_v23700p3em","5c6709ab926a5b0001eb29c1","fixation","img/fixation.png","null","","test","","","","","",""
"440.40000009536743","699087","pSARL_v2","pSARL_v23700p3em","5c6709ab926a5b0001eb29c1","freq","img/green_2bandit_b2.png","70","70","test","1","163","163","8","",""
"null","699449","pSARL_v2","pSARL_v23700p3em","5c6709ab926a5b0001eb29c1","freq_resp","img/green_2bandit_b.png","70","70","test","","","","8","",""
"null","699602","pSARL_v2","pSARL_v23700p3em","5c6709ab926a5b0001eb29c1","fixation","img/fixation.png","null","","test","","","","","",""
"483.10000002384186","700088","pSARL_v2","pSARL_v23700p3em","5c6709ab926a5b0001eb29c1","freq","img/green_2bandit_b2.png","70","70","test","1","164","164","8","",""
"null","700407","pSARL_v2","pSARL_v23700p3em","5c6709ab926a5b0001eb29c1","freq_resp","img/green_2bandit_b.png","70","70","test","","","","8","",""
"null","700561","pSARL_v2","pSARL_v23700p3em","5c6709ab926a5b0001eb29c1","fixation","img/fixation.png","null","","test","","","","","",""
"494.5","701059","pSARL_v2","pSARL_v23700p3em","5c6709ab926a5b0001eb29c1","freq","img/green_2bandit_b2.png","70","70","test","1","165","165","8","",""
"null","701366","pSARL_v2","pSARL_v23700p3em","5c6709ab926a5b0001eb29c1","freq_resp","img/green_2bandit_b.png","70","70","test","","","","8","",""
"null","701519","pSARL_v2","pSARL_v23700p3em","5c6709ab926a5b0001eb29c1","fixation","img/fixation.png","null","","test","","","","","",""
"349.2999999523163","701871","pSARL_v2","pSARL_v23700p3em","5c6709ab926a5b0001eb29c1","infreq","img/orange_2bandit_b2.png","68","68","test","1","166","166","8","",""
"null","702324","pSARL_v2","pSARL_v23700p3em","5c6709ab926a5b0001eb29c1","infreq_resp","img/orange_2bandit_b.png","68","68","test","","","","8","",""
"null","702478","pSARL_v2","pSARL_v23700p3em","5c6709ab926a5b0001eb29c1","fixation","img/fixation.png","null","","test","","","","","",""
"335.60000002384186","702816","pSARL_v2","pSARL_v23700p3em","5c6709ab926a5b0001eb29c1","freq","img/green_2bandit_b2.png","70","70","test","1","167","167","8","",""
"null","703283","pSARL_v2","pSARL_v23700p3em","5c6709ab926a5b0001eb29c1","freq_resp","img/green_2bandit_b.png","70","70","test","","","","8","",""
"null","703437","pSARL_v2","pSARL_v23700p3em","5c6709ab926a5b0001eb29c1","fixation","img/fixation.png","null","","test","","","","","",""
"350.8000000715256","703790","pSARL_v2","pSARL_v23700p3em","5c6709ab926a5b0001eb29c1","freq","img/green_2bandit_b2.png","70","70","test","1","168","168","8","",""
"null","704242","pSARL_v2","pSARL_v23700p3em","5c6709ab926a5b0001eb29c1","freq_resp","img/green_2bandit_b.png","70","70","test","","","","8","",""
"null","704395","pSARL_v2","pSARL_v23700p3em","5c6709ab926a5b0001eb29c1","fixation","img/fixation.png","null","","test","","","","","",""
"405.39999997615814","704804","pSARL_v2","pSARL_v23700p3em","5c6709ab926a5b0001eb29c1","freq","img/green_2bandit_b2.png","70","70","test","1","169","169","8","",""
"null","705202","pSARL_v2","pSARL_v23700p3em","5c6709ab926a5b0001eb29c1","freq_resp","img/green_2bandit_b.png","70","70","test","","","","8","",""
"null","705356","pSARL_v2","pSARL_v23700p3em","5c6709ab926a5b0001eb29c1","fixation","img/fixation.png","null","","test","","","","","",""
"405.5","705764","pSARL_v2","pSARL_v23700p3em","5c6709ab926a5b0001eb29c1","freq","img/green_2bandit_b2.png","70","70","test","1","170","170","8","",""
"null","706161","pSARL_v2","pSARL_v23700p3em","5c6709ab926a5b0001eb29c1","freq_resp","img/green_2bandit_b.png","70","70","test","","","","8","",""
"null","706316","pSARL_v2","pSARL_v23700p3em","5c6709ab926a5b0001eb29c1","fixation","img/fixation.png","null","","test","","","","","",""
"389.59999990463257","706709","pSARL_v2","pSARL_v23700p3em","5c6709ab926a5b0001eb29c1","freq","img/green_2bandit_b2.png","70","70","test","1","171","171","8","",""
"null","707123","pSARL_v2","pSARL_v23700p3em","5c6709ab926a5b0001eb29c1","freq_resp","img/green_2bandit_b.png","70","70","test","","","","8","",""
"null","707276","pSARL_v2","pSARL_v23700p3em","5c6709ab926a5b0001eb29c1","fixation","img/fixation.png","null","","test","","","","","",""
"491.2999999523163","707770","pSARL_v2","pSARL_v23700p3em","5c6709ab926a5b0001eb29c1","freq","img/green_2bandit_b2.png","70","70","test","1","172","172","8","",""
"null","708082","pSARL_v2","pSARL_v23700p3em","5c6709ab926a5b0001eb29c1","freq_resp","img/green_2bandit_b.png","70","70","test","","","","8","",""
"null","708236","pSARL_v2","pSARL_v23700p3em","5c6709ab926a5b0001eb29c1","fixation","img/fixation.png","null","","test","","","","","",""
"459.10000002384186","708698","pSARL_v2","pSARL_v23700p3em","5c6709ab926a5b0001eb29c1","freq","img/green_2bandit_b2.png","70","70","test","1","173","173","8","",""
"null","709040","pSARL_v2","pSARL_v23700p3em","5c6709ab926a5b0001eb29c1","freq_resp","img/green_2bandit_b.png","70","70","test","","","","8","",""
"null","709195","pSARL_v2","pSARL_v23700p3em","5c6709ab926a5b0001eb29c1","fixation","img/fixation.png","null","","test","","","","","",""
"396.1999999284744","709594","pSARL_v2","pSARL_v23700p3em","5c6709ab926a5b0001eb29c1","freq","img/green_2bandit_b2.png","70","70","test","1","174","174","8","",""
"null","710000","pSARL_v2","pSARL_v23700p3em","5c6709ab926a5b0001eb29c1","freq_resp","img/green_2bandit_b.png","70","70","test","","","","8","",""
"null","710153","pSARL_v2","pSARL_v23700p3em","5c6709ab926a5b0001eb29c1","fixation","img/fixation.png","null","","test","","","","","",""
"396.8000000715256","710553","pSARL_v2","pSARL_v23700p3em","5c6709ab926a5b0001eb29c1","reward","img/slot.png","74","","test","","","","","",""
"null","711306","pSARL_v2","pSARL_v23700p3em","5c6709ab926a5b0001eb29c1","points","<div class=""verylowPoints""> -4 </div>","null","na","test","","","","8","-4","7"
"247.80000007152557","711557","pSARL_v2","pSARL_v23700p3em","5c6709ab926a5b0001eb29c1","freq","img/green_2bandit_b2.png","70","70","test","1","175","175","9","",""
"null","712112","pSARL_v2","pSARL_v23700p3em","5c6709ab926a5b0001eb29c1","freq_resp","img/green_2bandit_b.png","70","70","test","","","","9","",""
"null","712266","pSARL_v2","pSARL_v23700p3em","5c6709ab926a5b0001eb29c1","fixation","img/fixation.png","null","","test","","","","","",""
"294.3000000715256","712563","pSARL_v2","pSARL_v23700p3em","5c6709ab926a5b0001eb29c1","infreq","img/orange_2bandit_b2.png","70","68","test","0","176","176","9","",""
"null","713072","pSARL_v2","pSARL_v23700p3em","5c6709ab926a5b0001eb29c1","infreq_resp","img/orange_2bandit_b.png","70","68","test","","","","9","",""
"null","713225","pSARL_v2","pSARL_v23700p3em","5c6709ab926a5b0001eb29c1","fixation","img/fixation.png","null","","test","","","","","",""
"597.9000000953674","713826","pSARL_v2","pSARL_v23700p3em","5c6709ab926a5b0001eb29c1","freq","img/green_2bandit_b2.png","70","70","test","1","177","177","9","",""
"null","714031","pSARL_v2","pSARL_v23700p3em","5c6709ab926a5b0001eb29c1","freq_resp","img/green_2bandit_b.png","70","70","test","","","","9","",""
"null","714184","pSARL_v2","pSARL_v23700p3em","5c6709ab926a5b0001eb29c1","fixation","img/fixation.png","null","","test","","","","","",""
"437","714624","pSARL_v2","pSARL_v23700p3em","5c6709ab926a5b0001eb29c1","freq","img/green_2bandit_b2.png","70","70","test","1","178","178","9","",""
"null","714990","pSARL_v2","pSARL_v23700p3em","5c6709ab926a5b0001eb29c1","freq_resp","img/green_2bandit_b.png","70","70","test","","","","9","",""
"null","715144","pSARL_v2","pSARL_v23700p3em","5c6709ab926a5b0001eb29c1","fixation","img/fixation.png","null","","test","","","","","",""
"329.39999997615814","715475","pSARL_v2","pSARL_v23700p3em","5c6709ab926a5b0001eb29c1","freq","img/green_2bandit_b2.png","70","70","test","1","179","179","9","",""
"null","715948","pSARL_v2","pSARL_v23700p3em","5c6709ab926a5b0001eb29c1","freq_resp","img/green_2bandit_b.png","70","70","test","","","","9","",""
"null","716101","pSARL_v2","pSARL_v23700p3em","5c6709ab926a5b0001eb29c1","fixation","img/fixation.png","null","","test","","","","","",""
"298.5","716402","pSARL_v2","pSARL_v23700p3em","5c6709ab926a5b0001eb29c1","freq","img/green_2bandit_b2.png","70","70","test","1","180","180","9","",""
"null","716906","pSARL_v2","pSARL_v23700p3em","5c6709ab926a5b0001eb29c1","freq_resp","img/green_2bandit_b.png","70","70","test","","","","9","",""
"null","717060","pSARL_v2","pSARL_v23700p3em","5c6709ab926a5b0001eb29c1","fixation","img/fixation.png","null","","test","","","","","",""
"311.2000000476837","717374","pSARL_v2","pSARL_v23700p3em","5c6709ab926a5b0001eb29c1","freq","img/green_2bandit_b2.png","70","70","test","1","181","181","9","",""
"null","717865","pSARL_v2","pSARL_v23700p3em","5c6709ab926a5b0001eb29c1","freq_resp","img/green_2bandit_b.png","70","70","test","","","","9","",""
"null","718019","pSARL_v2","pSARL_v23700p3em","5c6709ab926a5b0001eb29c1","fixation","img/fixation.png","null","","test","","","","","",""
"378.1999999284744","718400","pSARL_v2","pSARL_v23700p3em","5c6709ab926a5b0001eb29c1","freq","img/green_2bandit_b2.png","70","70","test","1","182","182","9","",""
"null","718824","pSARL_v2","pSARL_v23700p3em","5c6709ab926a5b0001eb29c1","freq_resp","img/green_2bandit_b.png","70","70","test","","","","9","",""
"null","718978","pSARL_v2","pSARL_v23700p3em","5c6709ab926a5b0001eb29c1","fixation","img/fixation.png","null","","test","","","","","",""
"452","719432","pSARL_v2","pSARL_v23700p3em","5c6709ab926a5b0001eb29c1","freq","img/green_2bandit_b2.png","70","70","test","1","183","183","9","",""
"null","719784","pSARL_v2","pSARL_v23700p3em","5c6709ab926a5b0001eb29c1","freq_resp","img/green_2bandit_b.png","70","70","test","","","","9","",""
"null","719937","pSARL_v2","pSARL_v23700p3em","5c6709ab926a5b0001eb29c1","fixation","img/fixation.png","null","","test","","","","","",""
"407.39999997615814","720347","pSARL_v2","pSARL_v23700p3em","5c6709ab926a5b0001eb29c1","freq","img/green_2bandit_b2.png","70","70","test","1","184","184","9","",""
"null","720742","pSARL_v2","pSARL_v23700p3em","5c6709ab926a5b0001eb29c1","freq_resp","img/green_2bandit_b.png","70","70","test","","","","9","",""
"null","720896","pSARL_v2","pSARL_v23700p3em","5c6709ab926a5b0001eb29c1","fixation","img/fixation.png","null","","test","","","","","",""
"509.3000000715256","721408","pSARL_v2","pSARL_v23700p3em","5c6709ab926a5b0001eb29c1","freq","img/green_2bandit_b2.png","70","70","test","1","185","185","9","",""
"null","721702","pSARL_v2","pSARL_v23700p3em","5c6709ab926a5b0001eb29c1","freq_resp","img/green_2bandit_b.png","70","70","test","","","","9","",""
"null","721855","pSARL_v2","pSARL_v23700p3em","5c6709ab926a5b0001eb29c1","fixation","img/fixation.png","null","","test","","","","","",""
"400.1999999284744","722258","pSARL_v2","pSARL_v23700p3em","5c6709ab926a5b0001eb29c1","freq","img/green_2bandit_b2.png","70","70","test","1","186","186","9","",""
"null","722660","pSARL_v2","pSARL_v23700p3em","5c6709ab926a5b0001eb29c1","freq_resp","img/green_2bandit_b.png","70","70","test","","","","9","",""
"null","722814","pSARL_v2","pSARL_v23700p3em","5c6709ab926a5b0001eb29c1","fixation","img/fixation.png","null","","test","","","","","",""
"535.3999999761581","723352","pSARL_v2","pSARL_v23700p3em","5c6709ab926a5b0001eb29c1","freq","img/green_2bandit_b2.png","70","70","test","1","187","187","9","",""
"null","723619","pSARL_v2","pSARL_v23700p3em","5c6709ab926a5b0001eb29c1","freq_resp","img/green_2bandit_b.png","70","70","test","","","","9","",""
"null","723773","pSARL_v2","pSARL_v23700p3em","5c6709ab926a5b0001eb29c1","fixation","img/fixation.png","null","","test","","","","","",""
"451.10000002384186","724226","pSARL_v2","pSARL_v23700p3em","5c6709ab926a5b0001eb29c1","freq","img/green_2bandit_b2.png","70","70","test","1","188","188","9","",""
"null","724579","pSARL_v2","pSARL_v23700p3em","5c6709ab926a5b0001eb29c1","freq_resp","img/green_2bandit_b.png","70","70","test","","","","9","",""
"null","724732","pSARL_v2","pSARL_v23700p3em","5c6709ab926a5b0001eb29c1","fixation","img/fixation.png","null","","test","","","","","",""
"377.10000002384186","725112","pSARL_v2","pSARL_v23700p3em","5c6709ab926a5b0001eb29c1","infreq","img/orange_2bandit_b2.png","68","68","test","1","189","189","9","",""
"null","725538","pSARL_v2","pSARL_v23700p3em","5c6709ab926a5b0001eb29c1","infreq_resp","img/orange_2bandit_b.png","68","68","test","","","","9","",""
"null","725692","pSARL_v2","pSARL_v23700p3em","5c6709ab926a5b0001eb29c1","fixation","img/fixation.png","null","","test","","","","","",""
"423.1999999284744","726118","pSARL_v2","pSARL_v23700p3em","5c6709ab926a5b0001eb29c1","freq","img/green_2bandit_b2.png","70","70","test","1","190","190","9","",""
"null","726497","pSARL_v2","pSARL_v23700p3em","5c6709ab926a5b0001eb29c1","freq_resp","img/green_2bandit_b.png","70","70","test","","","","9","",""
"null","726650","pSARL_v2","pSARL_v23700p3em","5c6709ab926a5b0001eb29c1","fixation","img/fixation.png","null","","test","","","","","",""
"356.5","727009","pSARL_v2","pSARL_v23700p3em","5c6709ab926a5b0001eb29c1","freq","img/green_2bandit_b2.png","70","70","test","1","191","191","9","",""
"null","727456","pSARL_v2","pSARL_v23700p3em","5c6709ab926a5b0001eb29c1","freq_resp","img/green_2bandit_b.png","70","70","test","","","","9","",""
"null","727609","pSARL_v2","pSARL_v23700p3em","5c6709ab926a5b0001eb29c1","fixation","img/fixation.png","null","","test","","","","","",""
"440.8000000715256","728052","pSARL_v2","pSARL_v23700p3em","5c6709ab926a5b0001eb29c1","freq","img/green_2bandit_b2.png","70","70","test","1","192","192","9","",""
"null","728416","pSARL_v2","pSARL_v23700p3em","5c6709ab926a5b0001eb29c1","freq_resp","img/green_2bandit_b.png","70","70","test","","","","9","",""
"null","728569","pSARL_v2","pSARL_v23700p3em","5c6709ab926a5b0001eb29c1","fixation","img/fixation.png","null","","test","","","","","",""
"562.1000000238419","729133","pSARL_v2","pSARL_v23700p3em","5c6709ab926a5b0001eb29c1","freq","img/green_2bandit_b2.png","70","70","test","1","193","193","9","",""
"null","729373","pSARL_v2","pSARL_v23700p3em","5c6709ab926a5b0001eb29c1","freq_resp","img/green_2bandit_b.png","70","70","test","","","","9","",""
"null","729527","pSARL_v2","pSARL_v23700p3em","5c6709ab926a5b0001eb29c1","fixation","img/fixation.png","null","","test","","","","","",""
"439.09999990463257","729969","pSARL_v2","pSARL_v23700p3em","5c6709ab926a5b0001eb29c1","freq","img/green_2bandit_b2.png","70","70","test","1","194","194","9","",""
"null","730331","pSARL_v2","pSARL_v23700p3em","5c6709ab926a5b0001eb29c1","freq_resp","img/green_2bandit_b.png","70","70","test","","","","9","",""
"null","730485","pSARL_v2","pSARL_v23700p3em","5c6709ab926a5b0001eb29c1","fixation","img/fixation.png","null","","test","","","","","",""
"485.10000002384186","730972","pSARL_v2","pSARL_v23700p3em","5c6709ab926a5b0001eb29c1","freq","img/green_2bandit_b2.png","70","70","test","1","195","195","9","",""
"null","731290","pSARL_v2","pSARL_v23700p3em","5c6709ab926a5b0001eb29c1","freq_resp","img/green_2bandit_b.png","70","70","test","","","","9","",""
"null","731443","pSARL_v2","pSARL_v23700p3em","5c6709ab926a5b0001eb29c1","fixation","img/fixation.png","null","","test","","","","","",""
"600.6000000238419","732046","pSARL_v2","pSARL_v23700p3em","5c6709ab926a5b0001eb29c1","freq","img/green_2bandit_b2.png","70","70","test","1","196","196","9","",""
"null","732249","pSARL_v2","pSARL_v23700p3em","5c6709ab926a5b0001eb29c1","freq_resp","img/green_2bandit_b.png","70","70","test","","","","9","",""
"null","732402","pSARL_v2","pSARL_v23700p3em","5c6709ab926a5b0001eb29c1","fixation","img/fixation.png","null","","test","","","","","",""
"539.5","732944","pSARL_v2","pSARL_v23700p3em","5c6709ab926a5b0001eb29c1","freq","img/green_2bandit_b2.png","70","70","test","1","197","197","9","",""
"null","733207","pSARL_v2","pSARL_v23700p3em","5c6709ab926a5b0001eb29c1","freq_resp","img/green_2bandit_b.png","70","70","test","","","","9","",""
"null","733361","pSARL_v2","pSARL_v23700p3em","5c6709ab926a5b0001eb29c1","fixation","img/fixation.png","null","","test","","","","","",""
"414.10000002384186","733777","pSARL_v2","pSARL_v23700p3em","5c6709ab926a5b0001eb29c1","freq","img/green_2bandit_b2.png","70","70","test","1","198","198","9","",""
"null","734166","pSARL_v2","pSARL_v23700p3em","5c6709ab926a5b0001eb29c1","freq_resp","img/green_2bandit_b.png","70","70","test","","","","9","",""
"null","734320","pSARL_v2","pSARL_v23700p3em","5c6709ab926a5b0001eb29c1","fixation","img/fixation.png","null","","test","","","","","",""
"555.9000000953674","734878","pSARL_v2","pSARL_v23700p3em","5c6709ab926a5b0001eb29c1","freq","img/green_2bandit_b2.png","70","70","test","1","199","199","9","",""
"null","735126","pSARL_v2","pSARL_v23700p3em","5c6709ab926a5b0001eb29c1","freq_resp","img/green_2bandit_b.png","70","70","test","","","","9","",""
"null","735279","pSARL_v2","pSARL_v23700p3em","5c6709ab926a5b0001eb29c1","fixation","img/fixation.png","null","","test","","","","","",""
"484.2999999523163","735766","pSARL_v2","pSARL_v23700p3em","5c6709ab926a5b0001eb29c1","reward","img/slot.png","74","","test","","","","","",""
"null","736520","pSARL_v2","pSARL_v23700p3em","5c6709ab926a5b0001eb29c1","points","<div class=""verylowPoints""> -3 </div>","null","na","test","","","","9","-3","8"
"246.89999997615814","736770","pSARL_v2","pSARL_v23700p3em","5c6709ab926a5b0001eb29c1","freq","img/green_2bandit_b2.png","70","70","test","1","200","200","10","",""
"null","737326","pSARL_v2","pSARL_v23700p3em","5c6709ab926a5b0001eb29c1","freq_resp","img/green_2bandit_b.png","70","70","test","","","","10","",""
"null","737480","pSARL_v2","pSARL_v23700p3em","5c6709ab926a5b0001eb29c1","fixation","img/fixation.png","null","","test","","","","","",""
"225.60000002384186","737708","pSARL_v2","pSARL_v23700p3em","5c6709ab926a5b0001eb29c1","infreq","img/orange_2bandit_b2.png","70","68","test","0","201","201","10","",""
"null","738286","pSARL_v2","pSARL_v23700p3em","5c6709ab926a5b0001eb29c1","infreq_resp","img/orange_2bandit_b.png","70","68","test","","","","10","",""
"null","738439","pSARL_v2","pSARL_v23700p3em","5c6709ab926a5b0001eb29c1","fixation","img/fixation.png","null","","test","","","","","",""
"545.1999999284744","738988","pSARL_v2","pSARL_v23700p3em","5c6709ab926a5b0001eb29c1","infreq","img/orange_2bandit_b2.png","68","68","test","1","202","202","10","",""
"null","739245","pSARL_v2","pSARL_v23700p3em","5c6709ab926a5b0001eb29c1","infreq_resp","img/orange_2bandit_b.png","68","68","test","","","","10","",""
"null","739400","pSARL_v2","pSARL_v23700p3em","5c6709ab926a5b0001eb29c1","fixation","img/fixation.png","null","","test","","","","","",""
"459.10000002384186","739862","pSARL_v2","pSARL_v23700p3em","5c6709ab926a5b0001eb29c1","freq","img/green_2bandit_b2.png","70","70","test","1","203","203","10","",""
"null","740205","pSARL_v2","pSARL_v23700p3em","5c6709ab926a5b0001eb29c1","freq_resp","img/green_2bandit_b.png","70","70","test","","","","10","",""
"null","740358","pSARL_v2","pSARL_v23700p3em","5c6709ab926a5b0001eb29c1","fixation","img/fixation.png","null","","test","","","","","",""
"378","740739","pSARL_v2","pSARL_v23700p3em","5c6709ab926a5b0001eb29c1","freq","img/green_2bandit_b2.png","70","70","test","1","204","204","10","",""
"null","741165","pSARL_v2","pSARL_v23700p3em","5c6709ab926a5b0001eb29c1","freq_resp","img/green_2bandit_b.png","70","70","test","","","","10","",""
"null","741318","pSARL_v2","pSARL_v23700p3em","5c6709ab926a5b0001eb29c1","fixation","img/fixation.png","null","","test","","","","","",""
"425.3000000715256","741746","pSARL_v2","pSARL_v23700p3em","5c6709ab926a5b0001eb29c1","freq","img/green_2bandit_b2.png","70","70","test","1","205","205","10","",""
"null","742123","pSARL_v2","pSARL_v23700p3em","5c6709ab926a5b0001eb29c1","freq_resp","img/green_2bandit_b.png","70","70","test","","","","10","",""
"null","742276","pSARL_v2","pSARL_v23700p3em","5c6709ab926a5b0001eb29c1","fixation","img/fixation.png","null","","test","","","","","",""
"416.10000002384186","742696","pSARL_v2","pSARL_v23700p3em","5c6709ab926a5b0001eb29c1","freq","img/green_2bandit_b2.png","70","70","test","1","206","206","10","",""
"null","743083","pSARL_v2","pSARL_v23700p3em","5c6709ab926a5b0001eb29c1","freq_resp","img/green_2bandit_b.png","70","70","test","","","","10","",""
"null","743237","pSARL_v2","pSARL_v23700p3em","5c6709ab926a5b0001eb29c1","fixation","img/fixation.png","null","","test","","","","","",""
