"rt","time_elapsed","expId","subject","prolificID","trialType","stimulus","key_press","corrresp","phase","corr","trialNum","attentionRunNum","blockNum","points","rlNum"
"11580.699999988079","11587","pSARL_v2","pSARL_v2vaadtwz7","5f276d8f38b9f857f5cebf21","","","","","","","","","","",""
"","17565","pSARL_v2","pSARL_v2vaadtwz7","5f276d8f38b9f857f5cebf21","fullscreen","","","","","","","","","",""
"35006.5","52583","pSARL_v2","pSARL_v2vaadtwz7","5f276d8f38b9f857f5cebf21","","","","","","","","","","",""
"null","53401","pSARL_v2","pSARL_v2vaadtwz7","5f276d8f38b9f857f5cebf21","freqPrac","img/green_2bandit_b2.png","null","70","prac","0","","","","",""
"null","54418","pSARL_v2","pSARL_v2vaadtwz7","5f276d8f38b9f857f5cebf21","feedback","img/tooSlow.png","null","na","prac","","","","","",""
"null","54581","pSARL_v2","pSARL_v2vaadtwz7","5f276d8f38b9f857f5cebf21","fixation","img/fixation.png","null","","prac","","","","","",""
"488.09999999403954","55075","pSARL_v2","pSARL_v2vaadtwz7","5f276d8f38b9f857f5cebf21","infreqPrac","img/orange_2bandit_b2.png","70","68","prac","0","","","","",""
"488.09999999403954","55398","pSARL_v2","pSARL_v2vaadtwz7","5f276d8f38b9f857f5cebf21","infreqPrac_resp","img/orange_2bandit_b.png","70","68","prac","","","","","",""
"null","56405","pSARL_v2","pSARL_v2vaadtwz7","5f276d8f38b9f857f5cebf21","feedback","img/wrongKey.png","null","na","prac","","","","","",""
"null","56569","pSARL_v2","pSARL_v2vaadtwz7","5f276d8f38b9f857f5cebf21","fixation","img/fixation.png","null","","prac","","","","","",""
"742.3000000119209","57314","pSARL_v2","pSARL_v2vaadtwz7","5f276d8f38b9f857f5cebf21","freqPrac","img/green_2bandit_b2.png","70","70","prac","1","","","","",""
"742.3000000119209","57381","pSARL_v2","pSARL_v2vaadtwz7","5f276d8f38b9f857f5cebf21","freqPrac_resp","img/green_2bandit_b.png","70","70","prac","","","","","",""
"null","57547","pSARL_v2","pSARL_v2vaadtwz7","5f276d8f38b9f857f5cebf21","fixation","img/fixation.png","null","","prac","","","","","",""
"534.0999999940395","58085","pSARL_v2","pSARL_v2vaadtwz7","5f276d8f38b9f857f5cebf21","infreqPrac","img/orange_2bandit_b2.png","68","68","prac","1","","","","",""
"534.0999999940395","58364","pSARL_v2","pSARL_v2vaadtwz7","5f276d8f38b9f857f5cebf21","infreqPrac_resp","img/orange_2bandit_b.png","68","68","prac","","","","","",""
"null","58528","pSARL_v2","pSARL_v2vaadtwz7","5f276d8f38b9f857f5cebf21","fixation","img/fixation.png","null","","prac","","","","","",""
"402","58936","pSARL_v2","pSARL_v2vaadtwz7","5f276d8f38b9f857f5cebf21","infreqPrac","img/orange_2bandit_b2.png","68","68","prac","1","","","","",""
"402","59350","pSARL_v2","pSARL_v2vaadtwz7","5f276d8f38b9f857f5cebf21","infreqPrac_resp","img/orange_2bandit_b.png","68","68","prac","","","","","",""
"null","59519","pSARL_v2","pSARL_v2vaadtwz7","5f276d8f38b9f857f5cebf21","fixation","img/fixation.png","null","","prac","","","","","",""
"377.5","59902","pSARL_v2","pSARL_v2vaadtwz7","5f276d8f38b9f857f5cebf21","infreqPrac","img/orange_2bandit_b2.png","68","68","prac","1","","","","",""
"377.5","60334","pSARL_v2","pSARL_v2vaadtwz7","5f276d8f38b9f857f5cebf21","infreqPrac_resp","img/orange_2bandit_b.png","68","68","prac","","","","","",""
"null","60500","pSARL_v2","pSARL_v2vaadtwz7","5f276d8f38b9f857f5cebf21","fixation","img/fixation.png","null","","prac","","","","","",""
"509","61014","pSARL_v2","pSARL_v2vaadtwz7","5f276d8f38b9f857f5cebf21","freqPrac","img/green_2bandit_b2.png","70","70","prac","1","","","","",""
"509","61318","pSARL_v2","pSARL_v2vaadtwz7","5f276d8f38b9f857f5cebf21","freqPrac_resp","img/green_2bandit_b.png","70","70","prac","","","","","",""
"null","61485","pSARL_v2","pSARL_v2vaadtwz7","5f276d8f38b9f857f5cebf21","fixation","img/fixation.png","null","","prac","","","","","",""
"464.5","61953","pSARL_v2","pSARL_v2vaadtwz7","5f276d8f38b9f857f5cebf21","infreqPrac","img/orange_2bandit_b2.png","68","68","prac","1","","","","",""
"464.5","62300","pSARL_v2","pSARL_v2vaadtwz7","5f276d8f38b9f857f5cebf21","infreqPrac_resp","img/orange_2bandit_b.png","68","68","prac","","","","","",""
"null","62463","pSARL_v2","pSARL_v2vaadtwz7","5f276d8f38b9f857f5cebf21","fixation","img/fixation.png","null","","prac","","","","","",""
"478.5","62947","pSARL_v2","pSARL_v2vaadtwz7","5f276d8f38b9f857f5cebf21","freqPrac","img/green_2bandit_b2.png","70","70","prac","1","","","","",""
"478.5","63285","pSARL_v2","pSARL_v2vaadtwz7","5f276d8f38b9f857f5cebf21","freqPrac_resp","img/green_2bandit_b.png","70","70","prac","","","","","",""
"null","63450","pSARL_v2","pSARL_v2vaadtwz7","5f276d8f38b9f857f5cebf21","fixation","img/fixation.png","null","","prac","","","","","",""
"403","63859","pSARL_v2","pSARL_v2vaadtwz7","5f276d8f38b9f857f5cebf21","freqPrac","img/green_2bandit_b2.png","70","70","prac","1","","","","",""
"403","64262","pSARL_v2","pSARL_v2vaadtwz7","5f276d8f38b9f857f5cebf21","freqPrac_resp","img/green_2bandit_b.png","70","70","prac","","","","","",""
"null","64421","pSARL_v2","pSARL_v2vaadtwz7","5f276d8f38b9f857f5cebf21","fixation","img/fixation.png","null","","prac","","","","","",""
"6207.5","70634","pSARL_v2","pSARL_v2vaadtwz7","5f276d8f38b9f857f5cebf21","","","","","prac","","","","","",""
"33978.30000001192","104621","pSARL_v2","pSARL_v2vaadtwz7","5f276d8f38b9f857f5cebf21","rewardPractice","img/slot.png","74","","prac","","","","","",""
"null","105378","pSARL_v2","pSARL_v2vaadtwz7","5f276d8f38b9f857f5cebf21","feedback","<div class=""veryhighPoints""> +15 </div>","null","na","prac","","","","","",""
"null","105539","pSARL_v2","pSARL_v2vaadtwz7","5f276d8f38b9f857f5cebf21","fixation","img/fixation.png","null","","prac","","","","","",""
"8258.600000023842","113800","pSARL_v2","pSARL_v2vaadtwz7","5f276d8f38b9f857f5cebf21","","","","","prac","","","","","",""
"668.2999999821186","114474","pSARL_v2","pSARL_v2vaadtwz7","5f276d8f38b9f857f5cebf21","freq","img/green_2bandit_b2.png","70","70","test","1","1","1","1","",""
"null","114612","pSARL_v2","pSARL_v2vaadtwz7","5f276d8f38b9f857f5cebf21","freq_resp","img/green_2bandit_b.png","70","70","test","","","","1","",""
"null","114779","pSARL_v2","pSARL_v2vaadtwz7","5f276d8f38b9f857f5cebf21","fixation","img/fixation.png","null","","test","","","","","",""
"617.4000000059605","115402","pSARL_v2","pSARL_v2vaadtwz7","5f276d8f38b9f857f5cebf21","freq","img/green_2bandit_b2.png","70","70","test","1","2","2","1","",""
"null","115598","pSARL_v2","pSARL_v2vaadtwz7","5f276d8f38b9f857f5cebf21","freq_resp","img/green_2bandit_b.png","70","70","test","","","","1","",""
"null","115768","pSARL_v2","pSARL_v2vaadtwz7","5f276d8f38b9f857f5cebf21","fixation","img/fixation.png","null","","test","","","","","",""
"413.40000000596046","116187","pSARL_v2","pSARL_v2vaadtwz7","5f276d8f38b9f857f5cebf21","freq","img/green_2bandit_b2.png","70","70","test","1","3","3","1","",""
"null","116590","pSARL_v2","pSARL_v2vaadtwz7","5f276d8f38b9f857f5cebf21","freq_resp","img/green_2bandit_b.png","70","70","test","","","","1","",""
"null","116745","pSARL_v2","pSARL_v2vaadtwz7","5f276d8f38b9f857f5cebf21","fixation","img/fixation.png","null","","test","","","","","",""
"440.19999998807907","117192","pSARL_v2","pSARL_v2vaadtwz7","5f276d8f38b9f857f5cebf21","freq","img/green_2bandit_b2.png","70","70","test","1","4","4","1","",""
"null","117566","pSARL_v2","pSARL_v2vaadtwz7","5f276d8f38b9f857f5cebf21","freq_resp","img/green_2bandit_b.png","70","70","test","","","","1","",""
"null","117731","pSARL_v2","pSARL_v2vaadtwz7","5f276d8f38b9f857f5cebf21","fixation","img/fixation.png","null","","test","","","","","",""
"382.30000001192093","118116","pSARL_v2","pSARL_v2vaadtwz7","5f276d8f38b9f857f5cebf21","freq","img/green_2bandit_b2.png","70","70","test","1","5","5","1","",""
"null","118546","pSARL_v2","pSARL_v2vaadtwz7","5f276d8f38b9f857f5cebf21","freq_resp","img/green_2bandit_b.png","70","70","test","","","","1","",""
"null","118704","pSARL_v2","pSARL_v2vaadtwz7","5f276d8f38b9f857f5cebf21","fixation","img/fixation.png","null","","test","","","","","",""
"449.39999997615814","119160","pSARL_v2","pSARL_v2vaadtwz7","5f276d8f38b9f857f5cebf21","freq","img/green_2bandit_b2.png","70","70","test","1","6","6","1","",""
"null","119517","pSARL_v2","pSARL_v2vaadtwz7","5f276d8f38b9f857f5cebf21","freq_resp","img/green_2bandit_b.png","70","70","test","","","","1","",""
"null","119686","pSARL_v2","pSARL_v2vaadtwz7","5f276d8f38b9f857f5cebf21","fixation","img/fixation.png","null","","test","","","","","",""
"428.5","120120","pSARL_v2","pSARL_v2vaadtwz7","5f276d8f38b9f857f5cebf21","freq","img/green_2bandit_b2.png","70","70","test","1","7","7","1","",""
"null","120501","pSARL_v2","pSARL_v2vaadtwz7","5f276d8f38b9f857f5cebf21","freq_resp","img/green_2bandit_b.png","70","70","test","","","","1","",""
"null","120670","pSARL_v2","pSARL_v2vaadtwz7","5f276d8f38b9f857f5cebf21","fixation","img/fixation.png","null","","test","","","","","",""
"374.7999999821186","121050","pSARL_v2","pSARL_v2vaadtwz7","5f276d8f38b9f857f5cebf21","freq","img/green_2bandit_b2.png","70","70","test","1","8","8","1","",""
"null","121481","pSARL_v2","pSARL_v2vaadtwz7","5f276d8f38b9f857f5cebf21","freq_resp","img/green_2bandit_b.png","70","70","test","","","","1","",""
"null","121645","pSARL_v2","pSARL_v2vaadtwz7","5f276d8f38b9f857f5cebf21","fixation","img/fixation.png","null","","test","","","","","",""
"482.30000001192093","122132","pSARL_v2","pSARL_v2vaadtwz7","5f276d8f38b9f857f5cebf21","infreq","img/orange_2bandit_b2.png","68","68","test","1","9","9","1","",""
"null","122469","pSARL_v2","pSARL_v2vaadtwz7","5f276d8f38b9f857f5cebf21","infreq_resp","img/orange_2bandit_b.png","68","68","test","","","","1","",""
"null","122629","pSARL_v2","pSARL_v2vaadtwz7","5f276d8f38b9f857f5cebf21","fixation","img/fixation.png","null","","test","","","","","",""
"548.5","123185","pSARL_v2","pSARL_v2vaadtwz7","5f276d8f38b9f857f5cebf21","freq","img/green_2bandit_b2.png","70","70","test","1","10","10","1","",""
"null","123449","pSARL_v2","pSARL_v2vaadtwz7","5f276d8f38b9f857f5cebf21","freq_resp","img/green_2bandit_b.png","70","70","test","","","","1","",""
"null","123612","pSARL_v2","pSARL_v2vaadtwz7","5f276d8f38b9f857f5cebf21","fixation","img/fixation.png","null","","test","","","","","",""
"538.9000000059605","124157","pSARL_v2","pSARL_v2vaadtwz7","5f276d8f38b9f857f5cebf21","freq","img/green_2bandit_b2.png","70","70","test","1","11","11","1","",""
"null","124438","pSARL_v2","pSARL_v2vaadtwz7","5f276d8f38b9f857f5cebf21","freq_resp","img/green_2bandit_b.png","70","70","test","","","","1","",""
"null","124602","pSARL_v2","pSARL_v2vaadtwz7","5f276d8f38b9f857f5cebf21","fixation","img/fixation.png","null","","test","","","","","",""
"424.40000000596046","125032","pSARL_v2","pSARL_v2vaadtwz7","5f276d8f38b9f857f5cebf21","freq","img/green_2bandit_b2.png","70","70","test","1","12","12","1","",""
"null","125425","pSARL_v2","pSARL_v2vaadtwz7","5f276d8f38b9f857f5cebf21","freq_resp","img/green_2bandit_b.png","70","70","test","","","","1","",""
"null","125589","pSARL_v2","pSARL_v2vaadtwz7","5f276d8f38b9f857f5cebf21","fixation","img/fixation.png","null","","test","","","","","",""
"379.59999999403954","125975","pSARL_v2","pSARL_v2vaadtwz7","5f276d8f38b9f857f5cebf21","freq","img/green_2bandit_b2.png","70","70","test","1","13","13","1","",""
"null","126401","pSARL_v2","pSARL_v2vaadtwz7","5f276d8f38b9f857f5cebf21","freq_resp","img/green_2bandit_b.png","70","70","test","","","","1","",""
"null","126572","pSARL_v2","pSARL_v2vaadtwz7","5f276d8f38b9f857f5cebf21","fixation","img/fixation.png","null","","test","","","","","",""
"393.09999999403954","126968","pSARL_v2","pSARL_v2vaadtwz7","5f276d8f38b9f857f5cebf21","freq","img/green_2bandit_b2.png","70","70","test","1","14","14","1","",""
"null","127388","pSARL_v2","pSARL_v2vaadtwz7","5f276d8f38b9f857f5cebf21","freq_resp","img/green_2bandit_b.png","70","70","test","","","","1","",""
"null","127552","pSARL_v2","pSARL_v2vaadtwz7","5f276d8f38b9f857f5cebf21","fixation","img/fixation.png","null","","test","","","","","",""
"422.30000001192093","127980","pSARL_v2","pSARL_v2vaadtwz7","5f276d8f38b9f857f5cebf21","freq","img/green_2bandit_b2.png","70","70","test","1","15","15","1","",""
"null","128378","pSARL_v2","pSARL_v2vaadtwz7","5f276d8f38b9f857f5cebf21","freq_resp","img/green_2bandit_b.png","70","70","test","","","","1","",""
"null","128545","pSARL_v2","pSARL_v2vaadtwz7","5f276d8f38b9f857f5cebf21","fixation","img/fixation.png","null","","test","","","","","",""
"458.30000001192093","129007","pSARL_v2","pSARL_v2vaadtwz7","5f276d8f38b9f857f5cebf21","freq","img/green_2bandit_b2.png","70","70","test","1","16","16","1","",""
"null","129366","pSARL_v2","pSARL_v2vaadtwz7","5f276d8f38b9f857f5cebf21","freq_resp","img/green_2bandit_b.png","70","70","test","","","","1","",""
"null","129521","pSARL_v2","pSARL_v2vaadtwz7","5f276d8f38b9f857f5cebf21","fixation","img/fixation.png","null","","test","","","","","",""
"484.90000000596046","130011","pSARL_v2","pSARL_v2vaadtwz7","5f276d8f38b9f857f5cebf21","infreq","img/orange_2bandit_b2.png","68","68","test","1","17","17","1","",""
"null","130336","pSARL_v2","pSARL_v2vaadtwz7","5f276d8f38b9f857f5cebf21","infreq_resp","img/orange_2bandit_b.png","68","68","test","","","","1","",""
"null","130497","pSARL_v2","pSARL_v2vaadtwz7","5f276d8f38b9f857f5cebf21","fixation","img/fixation.png","null","","test","","","","","",""
"533.0999999940395","131036","pSARL_v2","pSARL_v2vaadtwz7","5f276d8f38b9f857f5cebf21","freq","img/green_2bandit_b2.png","70","70","test","1","18","18","1","",""
"null","131313","pSARL_v2","pSARL_v2vaadtwz7","5f276d8f38b9f857f5cebf21","freq_resp","img/green_2bandit_b.png","70","70","test","","","","1","",""
"null","131473","pSARL_v2","pSARL_v2vaadtwz7","5f276d8f38b9f857f5cebf21","fixation","img/fixation.png","null","","test","","","","","",""
"558.2000000178814","132037","pSARL_v2","pSARL_v2vaadtwz7","5f276d8f38b9f857f5cebf21","freq","img/green_2bandit_b2.png","70","70","test","1","19","19","1","",""
"null","132296","pSARL_v2","pSARL_v2vaadtwz7","5f276d8f38b9f857f5cebf21","freq_resp","img/green_2bandit_b.png","70","70","test","","","","1","",""
"null","132466","pSARL_v2","pSARL_v2vaadtwz7","5f276d8f38b9f857f5cebf21","fixation","img/fixation.png","null","","test","","","","","",""
"18175.5","150647","pSARL_v2","pSARL_v2vaadtwz7","5f276d8f38b9f857f5cebf21","reward","img/slot.png","74","","test","","","","","",""
"null","151405","pSARL_v2","pSARL_v2vaadtwz7","5f276d8f38b9f857f5cebf21","points","<div class=""verylowPoints""> -6 </div>","null","na","test","","","","1","-6","0"
"null","152217","pSARL_v2","pSARL_v2vaadtwz7","5f276d8f38b9f857f5cebf21","freq","img/green_2bandit_b2.png","null","70","test","0","20","20","2","",""
"null","152383","pSARL_v2","pSARL_v2vaadtwz7","5f276d8f38b9f857f5cebf21","fixation","img/fixation.png","null","","test","","","","","",""
"235.60000002384186","152624","pSARL_v2","pSARL_v2vaadtwz7","5f276d8f38b9f857f5cebf21","freq","img/green_2bandit_b2.png","70","70","test","1","21","21","2","",""
"null","153197","pSARL_v2","pSARL_v2vaadtwz7","5f276d8f38b9f857f5cebf21","freq_resp","img/green_2bandit_b.png","70","70","test","","","","2","",""
"null","153368","pSARL_v2","pSARL_v2vaadtwz7","5f276d8f38b9f857f5cebf21","fixation","img/fixation.png","null","","test","","","","","",""
"362.2000000178814","153736","pSARL_v2","pSARL_v2vaadtwz7","5f276d8f38b9f857f5cebf21","freq","img/green_2bandit_b2.png","70","70","test","1","22","22","2","",""
"null","154191","pSARL_v2","pSARL_v2vaadtwz7","5f276d8f38b9f857f5cebf21","freq_resp","img/green_2bandit_b.png","70","70","test","","","","2","",""
"null","154354","pSARL_v2","pSARL_v2vaadtwz7","5f276d8f38b9f857f5cebf21","fixation","img/fixation.png","null","","test","","","","","",""
"289.09999999403954","154647","pSARL_v2","pSARL_v2vaadtwz7","5f276d8f38b9f857f5cebf21","freq","img/green_2bandit_b2.png","70","70","test","1","23","23","2","",""
"null","155178","pSARL_v2","pSARL_v2vaadtwz7","5f276d8f38b9f857f5cebf21","freq_resp","img/green_2bandit_b.png","70","70","test","","","","2","",""
"null","155335","pSARL_v2","pSARL_v2vaadtwz7","5f276d8f38b9f857f5cebf21","fixation","img/fixation.png","null","","test","","","","","",""
"441.5","155781","pSARL_v2","pSARL_v2vaadtwz7","5f276d8f38b9f857f5cebf21","freq","img/green_2bandit_b2.png","70","70","test","1","24","24","2","",""
"null","156156","pSARL_v2","pSARL_v2vaadtwz7","5f276d8f38b9f857f5cebf21","freq_resp","img/green_2bandit_b.png","70","70","test","","","","2","",""
"null","156327","pSARL_v2","pSARL_v2vaadtwz7","5f276d8f38b9f857f5cebf21","fixation","img/fixation.png","null","","test","","","","","",""
"497.30000001192093","156827","pSARL_v2","pSARL_v2vaadtwz7","5f276d8f38b9f857f5cebf21","infreq","img/orange_2bandit_b2.png","68","68","test","1","25","25","2","",""
"null","157139","pSARL_v2","pSARL_v2vaadtwz7","5f276d8f38b9f857f5cebf21","infreq_resp","img/orange_2bandit_b.png","68","68","test","","","","2","",""
"null","157310","pSARL_v2","pSARL_v2vaadtwz7","5f276d8f38b9f857f5cebf21","fixation","img/fixation.png","null","","test","","","","","",""
"495.2999999821186","157811","pSARL_v2","pSARL_v2vaadtwz7","5f276d8f38b9f857f5cebf21","freq","img/green_2bandit_b2.png","70","70","test","1","26","26","2","",""
"null","158123","pSARL_v2","pSARL_v2vaadtwz7","5f276d8f38b9f857f5cebf21","freq_resp","img/green_2bandit_b.png","70","70","test","","","","2","",""
"null","158293","pSARL_v2","pSARL_v2vaadtwz7","5f276d8f38b9f857f5cebf21","fixation","img/fixation.png","null","","test","","","","","",""
"426.80000001192093","158726","pSARL_v2","pSARL_v2vaadtwz7","5f276d8f38b9f857f5cebf21","freq","img/green_2bandit_b2.png","70","70","test","1","27","27","2","",""
"null","159113","pSARL_v2","pSARL_v2vaadtwz7","5f276d8f38b9f857f5cebf21","freq_resp","img/green_2bandit_b.png","70","70","test","","","","2","",""
"null","159268","pSARL_v2","pSARL_v2vaadtwz7","5f276d8f38b9f857f5cebf21","fixation","img/fixation.png","null","","test","","","","","",""
"454.2999999821186","159729","pSARL_v2","pSARL_v2vaadtwz7","5f276d8f38b9f857f5cebf21","freq","img/green_2bandit_b2.png","70","70","test","1","28","28","2","",""
"null","160087","pSARL_v2","pSARL_v2vaadtwz7","5f276d8f38b9f857f5cebf21","freq_resp","img/green_2bandit_b.png","70","70","test","","","","2","",""
"null","160245","pSARL_v2","pSARL_v2vaadtwz7","5f276d8f38b9f857f5cebf21","fixation","img/fixation.png","null","","test","","","","","",""
"410.90000000596046","160659","pSARL_v2","pSARL_v2vaadtwz7","5f276d8f38b9f857f5cebf21","freq","img/green_2bandit_b2.png","70","70","test","1","29","29","2","",""
"null","161062","pSARL_v2","pSARL_v2vaadtwz7","5f276d8f38b9f857f5cebf21","freq_resp","img/green_2bandit_b.png","70","70","test","","","","2","",""
"null","161227","pSARL_v2","pSARL_v2vaadtwz7","5f276d8f38b9f857f5cebf21","fixation","img/fixation.png","null","","test","","","","","",""
"389.09999999403954","161622","pSARL_v2","pSARL_v2vaadtwz7","5f276d8f38b9f857f5cebf21","freq","img/green_2bandit_b2.png","70","70","test","1","30","30","2","",""
"null","162043","pSARL_v2","pSARL_v2vaadtwz7","5f276d8f38b9f857f5cebf21","freq_resp","img/green_2bandit_b.png","70","70","test","","","","2","",""
"null","162204","pSARL_v2","pSARL_v2vaadtwz7","5f276d8f38b9f857f5cebf21","fixation","img/fixation.png","null","","test","","","","","",""
"379.39999997615814","162590","pSARL_v2","pSARL_v2vaadtwz7","5f276d8f38b9f857f5cebf21","freq","img/green_2bandit_b2.png","70","70","test","1","31","31","2","",""
"null","163017","pSARL_v2","pSARL_v2vaadtwz7","5f276d8f38b9f857f5cebf21","freq_resp","img/green_2bandit_b.png","70","70","test","","","","2","",""
"null","163183","pSARL_v2","pSARL_v2vaadtwz7","5f276d8f38b9f857f5cebf21","fixation","img/fixation.png","null","","test","","","","","",""
"434.40000000596046","163622","pSARL_v2","pSARL_v2vaadtwz7","5f276d8f38b9f857f5cebf21","freq","img/green_2bandit_b2.png","70","70","test","1","32","32","2","",""
"null","163993","pSARL_v2","pSARL_v2vaadtwz7","5f276d8f38b9f857f5cebf21","freq_resp","img/green_2bandit_b.png","70","70","test","","","","2","",""
"null","164159","pSARL_v2","pSARL_v2vaadtwz7","5f276d8f38b9f857f5cebf21","fixation","img/fixation.png","null","","test","","","","","",""
"380.19999998807907","164545","pSARL_v2","pSARL_v2vaadtwz7","5f276d8f38b9f857f5cebf21","freq","img/green_2bandit_b2.png","70","70","test","1","33","33","2","",""
"null","164984","pSARL_v2","pSARL_v2vaadtwz7","5f276d8f38b9f857f5cebf21","freq_resp","img/green_2bandit_b.png","70","70","test","","","","2","",""
"null","165152","pSARL_v2","pSARL_v2vaadtwz7","5f276d8f38b9f857f5cebf21","fixation","img/fixation.png","null","","test","","","","","",""
"325.30000001192093","165480","pSARL_v2","pSARL_v2vaadtwz7","5f276d8f38b9f857f5cebf21","freq","img/green_2bandit_b2.png","70","70","test","1","34","34","2","",""
"null","165964","pSARL_v2","pSARL_v2vaadtwz7","5f276d8f38b9f857f5cebf21","freq_resp","img/green_2bandit_b.png","70","70","test","","","","2","",""
"null","166127","pSARL_v2","pSARL_v2vaadtwz7","5f276d8f38b9f857f5cebf21","fixation","img/fixation.png","null","","test","","","","","",""
"400.80000001192093","166534","pSARL_v2","pSARL_v2vaadtwz7","5f276d8f38b9f857f5cebf21","freq","img/green_2bandit_b2.png","70","70","test","1","35","35","2","",""
"null","166951","pSARL_v2","pSARL_v2vaadtwz7","5f276d8f38b9f857f5cebf21","freq_resp","img/green_2bandit_b.png","70","70","test","","","","2","",""
"null","167114","pSARL_v2","pSARL_v2vaadtwz7","5f276d8f38b9f857f5cebf21","fixation","img/fixation.png","null","","test","","","","","",""
"439.5","167559","pSARL_v2","pSARL_v2vaadtwz7","5f276d8f38b9f857f5cebf21","freq","img/green_2bandit_b2.png","70","70","test","1","36","36","2","",""
"null","167939","pSARL_v2","pSARL_v2vaadtwz7","5f276d8f38b9f857f5cebf21","freq_resp","img/green_2bandit_b.png","70","70","test","","","","2","",""
"null","168100","pSARL_v2","pSARL_v2vaadtwz7","5f276d8f38b9f857f5cebf21","fixation","img/fixation.png","null","","test","","","","","",""
"387.59999999403954","168494","pSARL_v2","pSARL_v2vaadtwz7","5f276d8f38b9f857f5cebf21","freq","img/green_2bandit_b2.png","70","70","test","1","37","37","2","",""
"null","168926","pSARL_v2","pSARL_v2vaadtwz7","5f276d8f38b9f857f5cebf21","freq_resp","img/green_2bandit_b.png","70","70","test","","","","2","",""
"null","169092","pSARL_v2","pSARL_v2vaadtwz7","5f276d8f38b9f857f5cebf21","fixation","img/fixation.png","null","","test","","","","","",""
"471.80000001192093","169570","pSARL_v2","pSARL_v2vaadtwz7","5f276d8f38b9f857f5cebf21","infreq","img/orange_2bandit_b2.png","68","68","test","1","38","38","2","",""
"null","169907","pSARL_v2","pSARL_v2vaadtwz7","5f276d8f38b9f857f5cebf21","infreq_resp","img/orange_2bandit_b.png","68","68","test","","","","2","",""
"null","170076","pSARL_v2","pSARL_v2vaadtwz7","5f276d8f38b9f857f5cebf21","fixation","img/fixation.png","null","","test","","","","","",""
"428.69999998807907","170510","pSARL_v2","pSARL_v2vaadtwz7","5f276d8f38b9f857f5cebf21","freq","img/green_2bandit_b2.png","70","70","test","1","39","39","2","",""
"null","170896","pSARL_v2","pSARL_v2vaadtwz7","5f276d8f38b9f857f5cebf21","freq_resp","img/green_2bandit_b.png","70","70","test","","","","2","",""
"null","171066","pSARL_v2","pSARL_v2vaadtwz7","5f276d8f38b9f857f5cebf21","fixation","img/fixation.png","null","","test","","","","","",""
"442.40000000596046","171514","pSARL_v2","pSARL_v2vaadtwz7","5f276d8f38b9f857f5cebf21","freq","img/green_2bandit_b2.png","70","70","test","1","40","40","2","",""
"null","171888","pSARL_v2","pSARL_v2vaadtwz7","5f276d8f38b9f857f5cebf21","freq_resp","img/green_2bandit_b.png","70","70","test","","","","2","",""
"null","172050","pSARL_v2","pSARL_v2vaadtwz7","5f276d8f38b9f857f5cebf21","fixation","img/fixation.png","null","","test","","","","","",""
"1415.5999999940395","173471","pSARL_v2","pSARL_v2vaadtwz7","5f276d8f38b9f857f5cebf21","reward","img/slot.png","74","","test","","","","","",""
"null","174232","pSARL_v2","pSARL_v2vaadtwz7","5f276d8f38b9f857f5cebf21","points","<div class=""verylowPoints""> -11 </div>","null","na","test","","","","2","-11","1"
"null","175054","pSARL_v2","pSARL_v2vaadtwz7","5f276d8f38b9f857f5cebf21","freq","img/green_2bandit_b2.png","null","70","test","0","41","41","3","",""
"null","175217","pSARL_v2","pSARL_v2vaadtwz7","5f276d8f38b9f857f5cebf21","fixation","img/fixation.png","null","","test","","","","","",""
"76.09999999403954","175296","pSARL_v2","pSARL_v2vaadtwz7","5f276d8f38b9f857f5cebf21","freq","img/green_2bandit_b2.png","70","70","test","1","42","42","3","",""
"null","176036","pSARL_v2","pSARL_v2vaadtwz7","5f276d8f38b9f857f5cebf21","freq_resp","img/green_2bandit_b.png","70","70","test","","","","3","",""
"null","176201","pSARL_v2","pSARL_v2vaadtwz7","5f276d8f38b9f857f5cebf21","fixation","img/fixation.png","null","","test","","","","","",""
"478.59999999403954","176685","pSARL_v2","pSARL_v2vaadtwz7","5f276d8f38b9f857f5cebf21","freq","img/green_2bandit_b2.png","70","70","test","1","43","43","3","",""
"null","177015","pSARL_v2","pSARL_v2vaadtwz7","5f276d8f38b9f857f5cebf21","freq_resp","img/green_2bandit_b.png","70","70","test","","","","3","",""
"null","177176","pSARL_v2","pSARL_v2vaadtwz7","5f276d8f38b9f857f5cebf21","fixation","img/fixation.png","null","","test","","","","","",""
"304.19999998807907","177484","pSARL_v2","pSARL_v2vaadtwz7","5f276d8f38b9f857f5cebf21","freq","img/green_2bandit_b2.png","70","70","test","1","44","44","3","",""
"null","177992","pSARL_v2","pSARL_v2vaadtwz7","5f276d8f38b9f857f5cebf21","freq_resp","img/green_2bandit_b.png","70","70","test","","","","3","",""
"null","178149","pSARL_v2","pSARL_v2vaadtwz7","5f276d8f38b9f857f5cebf21","fixation","img/fixation.png","null","","test","","","","","",""
"451.39999997615814","178607","pSARL_v2","pSARL_v2vaadtwz7","5f276d8f38b9f857f5cebf21","infreq","img/orange_2bandit_b2.png","68","68","test","1","45","45","3","",""
"null","178966","pSARL_v2","pSARL_v2vaadtwz7","5f276d8f38b9f857f5cebf21","infreq_resp","img/orange_2bandit_b.png","68","68","test","","","","3","",""
"null","179134","pSARL_v2","pSARL_v2vaadtwz7","5f276d8f38b9f857f5cebf21","fixation","img/fixation.png","null","","test","","","","","",""
"587.4000000059605","179725","pSARL_v2","pSARL_v2vaadtwz7","5f276d8f38b9f857f5cebf21","freq","img/green_2bandit_b2.png","70","70","test","1","46","46","3","",""
"null","179957","pSARL_v2","pSARL_v2vaadtwz7","5f276d8f38b9f857f5cebf21","freq_resp","img/green_2bandit_b.png","70","70","test","","","","3","",""
"null","180123","pSARL_v2","pSARL_v2vaadtwz7","5f276d8f38b9f857f5cebf21","fixation","img/fixation.png","null","","test","","","","","",""
"457.2000000178814","180587","pSARL_v2","pSARL_v2vaadtwz7","5f276d8f38b9f857f5cebf21","freq","img/green_2bandit_b2.png","70","70","test","1","47","47","3","",""
"null","180938","pSARL_v2","pSARL_v2vaadtwz7","5f276d8f38b9f857f5cebf21","freq_resp","img/green_2bandit_b.png","70","70","test","","","","3","",""
"null","181108","pSARL_v2","pSARL_v2vaadtwz7","5f276d8f38b9f857f5cebf21","fixation","img/fixation.png","null","","test","","","","","",""
"396.90000000596046","181511","pSARL_v2","pSARL_v2vaadtwz7","5f276d8f38b9f857f5cebf21","freq","img/green_2bandit_b2.png","70","70","test","1","48","48","3","",""
"null","181922","pSARL_v2","pSARL_v2vaadtwz7","5f276d8f38b9f857f5cebf21","freq_resp","img/green_2bandit_b.png","70","70","test","","","","3","",""
"null","182083","pSARL_v2","pSARL_v2vaadtwz7","5f276d8f38b9f857f5cebf21","fixation","img/fixation.png","null","","test","","","","","",""
"433.5","182522","pSARL_v2","pSARL_v2vaadtwz7","5f276d8f38b9f857f5cebf21","freq","img/green_2bandit_b2.png","70","70","test","1","49","49","3","",""
"null","182896","pSARL_v2","pSARL_v2vaadtwz7","5f276d8f38b9f857f5cebf21","freq_resp","img/green_2bandit_b.png","70","70","test","","","","3","",""
"null","183064","pSARL_v2","pSARL_v2vaadtwz7","5f276d8f38b9f857f5cebf21","fixation","img/fixation.png","null","","test","","","","","",""
"420.5","183490","pSARL_v2","pSARL_v2vaadtwz7","5f276d8f38b9f857f5cebf21","infreq","img/orange_2bandit_b2.png","68","68","test","1","50","50","3","",""
"null","183880","pSARL_v2","pSARL_v2vaadtwz7","5f276d8f38b9f857f5cebf21","infreq_resp","img/orange_2bandit_b.png","68","68","test","","","","3","",""
"null","184051","pSARL_v2","pSARL_v2vaadtwz7","5f276d8f38b9f857f5cebf21","fixation","img/fixation.png","null","","test","","","","","",""
"430.59999999403954","184484","pSARL_v2","pSARL_v2vaadtwz7","5f276d8f38b9f857f5cebf21","freq","img/green_2bandit_b2.png","70","70","test","1","51","51","3","",""
"null","184870","pSARL_v2","pSARL_v2vaadtwz7","5f276d8f38b9f857f5cebf21","freq_resp","img/green_2bandit_b.png","70","70","test","","","","3","",""
"null","185033","pSARL_v2","pSARL_v2vaadtwz7","5f276d8f38b9f857f5cebf21","fixation","img/fixation.png","null","","test","","","","","",""
"490.39999997615814","185530","pSARL_v2","pSARL_v2vaadtwz7","5f276d8f38b9f857f5cebf21","freq","img/green_2bandit_b2.png","70","70","test","1","52","52","3","",""
"null","185849","pSARL_v2","pSARL_v2vaadtwz7","5f276d8f38b9f857f5cebf21","freq_resp","img/green_2bandit_b.png","70","70","test","","","","3","",""
"null","186016","pSARL_v2","pSARL_v2vaadtwz7","5f276d8f38b9f857f5cebf21","fixation","img/fixation.png","null","","test","","","","","",""
"547.4000000059605","186569","pSARL_v2","pSARL_v2vaadtwz7","5f276d8f38b9f857f5cebf21","freq","img/green_2bandit_b2.png","70","70","test","1","53","53","3","",""
"null","186834","pSARL_v2","pSARL_v2vaadtwz7","5f276d8f38b9f857f5cebf21","freq_resp","img/green_2bandit_b.png","70","70","test","","","","3","",""
"null","187003","pSARL_v2","pSARL_v2vaadtwz7","5f276d8f38b9f857f5cebf21","fixation","img/fixation.png","null","","test","","","","","",""
"470.40000000596046","187479","pSARL_v2","pSARL_v2vaadtwz7","5f276d8f38b9f857f5cebf21","freq","img/green_2bandit_b2.png","70","70","test","1","54","54","3","",""
"null","187825","pSARL_v2","pSARL_v2vaadtwz7","5f276d8f38b9f857f5cebf21","freq_resp","img/green_2bandit_b.png","70","70","test","","","","3","",""
"null","187997","pSARL_v2","pSARL_v2vaadtwz7","5f276d8f38b9f857f5cebf21","fixation","img/fixation.png","null","","test","","","","","",""
"454.30000001192093","188457","pSARL_v2","pSARL_v2vaadtwz7","5f276d8f38b9f857f5cebf21","freq","img/green_2bandit_b2.png","70","70","test","1","55","55","3","",""
"null","188818","pSARL_v2","pSARL_v2vaadtwz7","5f276d8f38b9f857f5cebf21","freq_resp","img/green_2bandit_b.png","70","70","test","","","","3","",""
"null","188995","pSARL_v2","pSARL_v2vaadtwz7","5f276d8f38b9f857f5cebf21","fixation","img/fixation.png","null","","test","","","","","",""
"439.19999998807907","189437","pSARL_v2","pSARL_v2vaadtwz7","5f276d8f38b9f857f5cebf21","freq","img/green_2bandit_b2.png","70","70","test","1","56","56","3","",""
"null","189811","pSARL_v2","pSARL_v2vaadtwz7","5f276d8f38b9f857f5cebf21","freq_resp","img/green_2bandit_b.png","70","70","test","","","","3","",""
"null","189968","pSARL_v2","pSARL_v2vaadtwz7","5f276d8f38b9f857f5cebf21","fixation","img/fixation.png","null","","test","","","","","",""
"473","190447","pSARL_v2","pSARL_v2vaadtwz7","5f276d8f38b9f857f5cebf21","freq","img/green_2bandit_b2.png","70","70","test","1","57","57","3","",""
"null","190790","pSARL_v2","pSARL_v2vaadtwz7","5f276d8f38b9f857f5cebf21","freq_resp","img/green_2bandit_b.png","70","70","test","","","","3","",""
"null","190958","pSARL_v2","pSARL_v2vaadtwz7","5f276d8f38b9f857f5cebf21","fixation","img/fixation.png","null","","test","","","","","",""
"401.5","191365","pSARL_v2","pSARL_v2vaadtwz7","5f276d8f38b9f857f5cebf21","infreq","img/orange_2bandit_b2.png","68","68","test","1","58","58","3","",""
"null","191783","pSARL_v2","pSARL_v2vaadtwz7","5f276d8f38b9f857f5cebf21","infreq_resp","img/orange_2bandit_b.png","68","68","test","","","","3","",""
"null","191949","pSARL_v2","pSARL_v2vaadtwz7","5f276d8f38b9f857f5cebf21","fixation","img/fixation.png","null","","test","","","","","",""
"466.80000001192093","192421","pSARL_v2","pSARL_v2vaadtwz7","5f276d8f38b9f857f5cebf21","freq","img/green_2bandit_b2.png","70","70","test","1","59","59","3","",""
"null","192773","pSARL_v2","pSARL_v2vaadtwz7","5f276d8f38b9f857f5cebf21","freq_resp","img/green_2bandit_b.png","70","70","test","","","","3","",""
"null","192942","pSARL_v2","pSARL_v2vaadtwz7","5f276d8f38b9f857f5cebf21","fixation","img/fixation.png","null","","test","","","","","",""
"525.5999999940395","193473","pSARL_v2","pSARL_v2vaadtwz7","5f276d8f38b9f857f5cebf21","freq","img/green_2bandit_b2.png","70","70","test","1","60","60","3","",""
"null","193759","pSARL_v2","pSARL_v2vaadtwz7","5f276d8f38b9f857f5cebf21","freq_resp","img/green_2bandit_b.png","70","70","test","","","","3","",""
"null","193927","pSARL_v2","pSARL_v2vaadtwz7","5f276d8f38b9f857f5cebf21","fixation","img/fixation.png","null","","test","","","","","",""
"566.6000000238419","194499","pSARL_v2","pSARL_v2vaadtwz7","5f276d8f38b9f857f5cebf21","freq","img/green_2bandit_b2.png","70","70","test","1","61","61","3","",""
"null","194745","pSARL_v2","pSARL_v2vaadtwz7","5f276d8f38b9f857f5cebf21","freq_resp","img/green_2bandit_b.png","70","70","test","","","","3","",""
"null","194915","pSARL_v2","pSARL_v2vaadtwz7","5f276d8f38b9f857f5cebf21","fixation","img/fixation.png","null","","test","","","","","",""
"589","195510","pSARL_v2","pSARL_v2vaadtwz7","5f276d8f38b9f857f5cebf21","freq","img/green_2bandit_b2.png","70","70","test","1","62","62","3","",""
"null","195731","pSARL_v2","pSARL_v2vaadtwz7","5f276d8f38b9f857f5cebf21","freq_resp","img/green_2bandit_b.png","70","70","test","","","","3","",""
"null","195898","pSARL_v2","pSARL_v2vaadtwz7","5f276d8f38b9f857f5cebf21","fixation","img/fixation.png","null","","test","","","","","",""
"600.2000000178814","196503","pSARL_v2","pSARL_v2vaadtwz7","5f276d8f38b9f857f5cebf21","freq","img/green_2bandit_b2.png","70","70","test","1","63","63","3","",""
"null","196721","pSARL_v2","pSARL_v2vaadtwz7","5f276d8f38b9f857f5cebf21","freq_resp","img/green_2bandit_b.png","70","70","test","","","","3","",""
"null","196879","pSARL_v2","pSARL_v2vaadtwz7","5f276d8f38b9f857f5cebf21","fixation","img/fixation.png","null","","test","","","","","",""
"563.3999999761581","197448","pSARL_v2","pSARL_v2vaadtwz7","5f276d8f38b9f857f5cebf21","freq","img/green_2bandit_b2.png","70","70","test","1","64","64","3","",""
"null","197695","pSARL_v2","pSARL_v2vaadtwz7","5f276d8f38b9f857f5cebf21","freq_resp","img/green_2bandit_b.png","70","70","test","","","","3","",""
"null","197866","pSARL_v2","pSARL_v2vaadtwz7","5f276d8f38b9f857f5cebf21","fixation","img/fixation.png","null","","test","","","","","",""
"564.7000000178814","198437","pSARL_v2","pSARL_v2vaadtwz7","5f276d8f38b9f857f5cebf21","freq","img/green_2bandit_b2.png","70","70","test","1","65","65","3","",""
"null","198685","pSARL_v2","pSARL_v2vaadtwz7","5f276d8f38b9f857f5cebf21","freq_resp","img/green_2bandit_b.png","70","70","test","","","","3","",""
"null","198844","pSARL_v2","pSARL_v2vaadtwz7","5f276d8f38b9f857f5cebf21","fixation","img/fixation.png","null","","test","","","","","",""
"528","199375","pSARL_v2","pSARL_v2vaadtwz7","5f276d8f38b9f857f5cebf21","freq","img/green_2bandit_b2.png","70","70","test","1","66","66","3","",""
"null","199657","pSARL_v2","pSARL_v2vaadtwz7","5f276d8f38b9f857f5cebf21","freq_resp","img/green_2bandit_b.png","70","70","test","","","","3","",""
"null","199823","pSARL_v2","pSARL_v2vaadtwz7","5f276d8f38b9f857f5cebf21","fixation","img/fixation.png","null","","test","","","","","",""
"2115.699999988079","201944","pSARL_v2","pSARL_v2vaadtwz7","5f276d8f38b9f857f5cebf21","reward","img/slot.png","74","","test","","","","","",""
"null","202706","pSARL_v2","pSARL_v2vaadtwz7","5f276d8f38b9f857f5cebf21","points","<div class=""verylowPoints""> -7 </div>","null","na","test","","","","3","-7","2"
"502.19999998807907","203211","pSARL_v2","pSARL_v2vaadtwz7","5f276d8f38b9f857f5cebf21","freq","img/green_2bandit_b2.png","70","70","test","1","67","67","4","",""
"null","203523","pSARL_v2","pSARL_v2vaadtwz7","5f276d8f38b9f857f5cebf21","freq_resp","img/green_2bandit_b.png","70","70","test","","","","4","",""
"null","203690","pSARL_v2","pSARL_v2vaadtwz7","5f276d8f38b9f857f5cebf21","fixation","img/fixation.png","null","","test","","","","","",""
"559.4000000059605","204254","pSARL_v2","pSARL_v2vaadtwz7","5f276d8f38b9f857f5cebf21","freq","img/green_2bandit_b2.png","70","70","test","1","68","68","4","",""
"null","204511","pSARL_v2","pSARL_v2vaadtwz7","5f276d8f38b9f857f5cebf21","freq_resp","img/green_2bandit_b.png","70","70","test","","","","4","",""
"null","204679","pSARL_v2","pSARL_v2vaadtwz7","5f276d8f38b9f857f5cebf21","fixation","img/fixation.png","null","","test","","","","","",""
"575","205260","pSARL_v2","pSARL_v2vaadtwz7","5f276d8f38b9f857f5cebf21","freq","img/green_2bandit_b2.png","70","70","test","1","69","69","4","",""
"null","205492","pSARL_v2","pSARL_v2vaadtwz7","5f276d8f38b9f857f5cebf21","freq_resp","img/green_2bandit_b.png","70","70","test","","","","4","",""
"null","205649","pSARL_v2","pSARL_v2vaadtwz7","5f276d8f38b9f857f5cebf21","fixation","img/fixation.png","null","","test","","","","","",""
"527.6000000238419","206181","pSARL_v2","pSARL_v2vaadtwz7","5f276d8f38b9f857f5cebf21","freq","img/green_2bandit_b2.png","70","70","test","1","70","70","4","",""
"null","206476","pSARL_v2","pSARL_v2vaadtwz7","5f276d8f38b9f857f5cebf21","freq_resp","img/green_2bandit_b.png","70","70","test","","","","4","",""
"null","206643","pSARL_v2","pSARL_v2vaadtwz7","5f276d8f38b9f857f5cebf21","fixation","img/fixation.png","null","","test","","","","","",""
"504.80000001192093","207150","pSARL_v2","pSARL_v2vaadtwz7","5f276d8f38b9f857f5cebf21","freq","img/green_2bandit_b2.png","70","70","test","1","71","71","4","",""
"null","207465","pSARL_v2","pSARL_v2vaadtwz7","5f276d8f38b9f857f5cebf21","freq_resp","img/green_2bandit_b.png","70","70","test","","","","4","",""
"null","207629","pSARL_v2","pSARL_v2vaadtwz7","5f276d8f38b9f857f5cebf21","fixation","img/fixation.png","null","","test","","","","","",""
"568.0999999940395","208200","pSARL_v2","pSARL_v2vaadtwz7","5f276d8f38b9f857f5cebf21","freq","img/green_2bandit_b2.png","70","70","test","1","72","72","4","",""
"null","208444","pSARL_v2","pSARL_v2vaadtwz7","5f276d8f38b9f857f5cebf21","freq_resp","img/green_2bandit_b.png","70","70","test","","","","4","",""
"null","208612","pSARL_v2","pSARL_v2vaadtwz7","5f276d8f38b9f857f5cebf21","fixation","img/fixation.png","null","","test","","","","","",""
"542.9000000059605","209161","pSARL_v2","pSARL_v2vaadtwz7","5f276d8f38b9f857f5cebf21","freq","img/green_2bandit_b2.png","70","70","test","1","73","73","4","",""
"null","209425","pSARL_v2","pSARL_v2vaadtwz7","5f276d8f38b9f857f5cebf21","freq_resp","img/green_2bandit_b.png","70","70","test","","","","4","",""
"null","209591","pSARL_v2","pSARL_v2vaadtwz7","5f276d8f38b9f857f5cebf21","fixation","img/fixation.png","null","","test","","","","","",""
"511.30000001192093","210108","pSARL_v2","pSARL_v2vaadtwz7","5f276d8f38b9f857f5cebf21","freq","img/green_2bandit_b2.png","70","70","test","1","74","74","4","",""
"null","210415","pSARL_v2","pSARL_v2vaadtwz7","5f276d8f38b9f857f5cebf21","freq_resp","img/green_2bandit_b.png","70","70","test","","","","4","",""
"null","210580","pSARL_v2","pSARL_v2vaadtwz7","5f276d8f38b9f857f5cebf21","fixation","img/fixation.png","null","","test","","","","","",""
"611.5","211197","pSARL_v2","pSARL_v2vaadtwz7","5f276d8f38b9f857f5cebf21","freq","img/green_2bandit_b2.png","70","70","test","1","75","75","4","",""
"null","211398","pSARL_v2","pSARL_v2vaadtwz7","5f276d8f38b9f857f5cebf21","freq_resp","img/green_2bandit_b.png","70","70","test","","","","4","",""
"null","211565","pSARL_v2","pSARL_v2vaadtwz7","5f276d8f38b9f857f5cebf21","fixation","img/fixation.png","null","","test","","","","","",""
"526","212097","pSARL_v2","pSARL_v2vaadtwz7","5f276d8f38b9f857f5cebf21","infreq","img/orange_2bandit_b2.png","68","68","test","1","76","76","4","",""
"null","212392","pSARL_v2","pSARL_v2vaadtwz7","5f276d8f38b9f857f5cebf21","infreq_resp","img/orange_2bandit_b.png","68","68","test","","","","4","",""
"null","212548","pSARL_v2","pSARL_v2vaadtwz7","5f276d8f38b9f857f5cebf21","fixation","img/fixation.png","null","","test","","","","","",""
"544.6999999880791","213098","pSARL_v2","pSARL_v2vaadtwz7","5f276d8f38b9f857f5cebf21","freq","img/green_2bandit_b2.png","70","70","test","1","77","77","4","",""
"null","213366","pSARL_v2","pSARL_v2vaadtwz7","5f276d8f38b9f857f5cebf21","freq_resp","img/green_2bandit_b.png","70","70","test","","","","4","",""
"null","213531","pSARL_v2","pSARL_v2vaadtwz7","5f276d8f38b9f857f5cebf21","fixation","img/fixation.png","null","","test","","","","","",""
"564.1999999880791","214101","pSARL_v2","pSARL_v2vaadtwz7","5f276d8f38b9f857f5cebf21","freq","img/green_2bandit_b2.png","70","70","test","1","78","78","4","",""
"null","214344","pSARL_v2","pSARL_v2vaadtwz7","5f276d8f38b9f857f5cebf21","freq_resp","img/green_2bandit_b.png","70","70","test","","","","4","",""
"null","214509","pSARL_v2","pSARL_v2vaadtwz7","5f276d8f38b9f857f5cebf21","fixation","img/fixation.png","null","","test","","","","","",""
"622.9000000059605","215137","pSARL_v2","pSARL_v2vaadtwz7","5f276d8f38b9f857f5cebf21","freq","img/green_2bandit_b2.png","70","70","test","1","79","79","4","",""
"null","215329","pSARL_v2","pSARL_v2vaadtwz7","5f276d8f38b9f857f5cebf21","freq_resp","img/green_2bandit_b.png","70","70","test","","","","4","",""
"null","215498","pSARL_v2","pSARL_v2vaadtwz7","5f276d8f38b9f857f5cebf21","fixation","img/fixation.png","null","","test","","","","","",""
"631.5999999940395","216135","pSARL_v2","pSARL_v2vaadtwz7","5f276d8f38b9f857f5cebf21","freq","img/green_2bandit_b2.png","70","70","test","1","80","80","4","",""
"null","216314","pSARL_v2","pSARL_v2vaadtwz7","5f276d8f38b9f857f5cebf21","freq_resp","img/green_2bandit_b.png","70","70","test","","","","4","",""
"null","216483","pSARL_v2","pSARL_v2vaadtwz7","5f276d8f38b9f857f5cebf21","fixation","img/fixation.png","null","","test","","","","","",""
"575.1999999880791","217063","pSARL_v2","pSARL_v2vaadtwz7","5f276d8f38b9f857f5cebf21","freq","img/green_2bandit_b2.png","70","70","test","1","81","81","4","",""
"null","217304","pSARL_v2","pSARL_v2vaadtwz7","5f276d8f38b9f857f5cebf21","freq_resp","img/green_2bandit_b.png","70","70","test","","","","4","",""
"null","217464","pSARL_v2","pSARL_v2vaadtwz7","5f276d8f38b9f857f5cebf21","fixation","img/fixation.png","null","","test","","","","","",""
"556.5999999940395","218025","pSARL_v2","pSARL_v2vaadtwz7","5f276d8f38b9f857f5cebf21","freq","img/green_2bandit_b2.png","70","70","test","1","82","82","4","",""
"null","218277","pSARL_v2","pSARL_v2vaadtwz7","5f276d8f38b9f857f5cebf21","freq_resp","img/green_2bandit_b.png","70","70","test","","","","4","",""
"null","218440","pSARL_v2","pSARL_v2vaadtwz7","5f276d8f38b9f857f5cebf21","fixation","img/fixation.png","null","","test","","","","","",""
"585.8000000119209","219032","pSARL_v2","pSARL_v2vaadtwz7","5f276d8f38b9f857f5cebf21","freq","img/green_2bandit_b2.png","70","70","test","1","83","83","4","",""
"null","219253","pSARL_v2","pSARL_v2vaadtwz7","5f276d8f38b9f857f5cebf21","freq_resp","img/green_2bandit_b.png","70","70","test","","","","4","",""
"null","219415","pSARL_v2","pSARL_v2vaadtwz7","5f276d8f38b9f857f5cebf21","fixation","img/fixation.png","null","","test","","","","","",""
"592.0999999940395","220011","pSARL_v2","pSARL_v2vaadtwz7","5f276d8f38b9f857f5cebf21","freq","img/green_2bandit_b2.png","70","70","test","1","84","84","4","",""
"null","220239","pSARL_v2","pSARL_v2vaadtwz7","5f276d8f38b9f857f5cebf21","freq_resp","img/green_2bandit_b.png","70","70","test","","","","4","",""
"null","220402","pSARL_v2","pSARL_v2vaadtwz7","5f276d8f38b9f857f5cebf21","fixation","img/fixation.png","null","","test","","","","","",""
"575.1000000238419","220980","pSARL_v2","pSARL_v2vaadtwz7","5f276d8f38b9f857f5cebf21","freq","img/green_2bandit_b2.png","70","70","test","1","85","85","4","",""
"null","221214","pSARL_v2","pSARL_v2vaadtwz7","5f276d8f38b9f857f5cebf21","freq_resp","img/green_2bandit_b.png","70","70","test","","","","4","",""
"null","221386","pSARL_v2","pSARL_v2vaadtwz7","5f276d8f38b9f857f5cebf21","fixation","img/fixation.png","null","","test","","","","","",""
"597.3000000119209","221989","pSARL_v2","pSARL_v2vaadtwz7","5f276d8f38b9f857f5cebf21","infreq","img/orange_2bandit_b2.png","68","68","test","1","86","86","4","",""
"null","222196","pSARL_v2","pSARL_v2vaadtwz7","5f276d8f38b9f857f5cebf21","infreq_resp","img/orange_2bandit_b.png","68","68","test","","","","4","",""
"null","222361","pSARL_v2","pSARL_v2vaadtwz7","5f276d8f38b9f857f5cebf21","fixation","img/fixation.png","null","","test","","","","","",""
"615","222979","pSARL_v2","pSARL_v2vaadtwz7","5f276d8f38b9f857f5cebf21","freq","img/green_2bandit_b2.png","70","70","test","1","87","87","4","",""
"null","223175","pSARL_v2","pSARL_v2vaadtwz7","5f276d8f38b9f857f5cebf21","freq_resp","img/green_2bandit_b.png","70","70","test","","","","4","",""
"null","223344","pSARL_v2","pSARL_v2vaadtwz7","5f276d8f38b9f857f5cebf21","fixation","img/fixation.png","null","","test","","","","","",""
"666.6999999880791","224014","pSARL_v2","pSARL_v2vaadtwz7","5f276d8f38b9f857f5cebf21","freq","img/green_2bandit_b2.png","70","70","test","1","88","88","4","",""
"null","224162","pSARL_v2","pSARL_v2vaadtwz7","5f276d8f38b9f857f5cebf21","freq_resp","img/green_2bandit_b.png","70","70","test","","","","4","",""
"null","224330","pSARL_v2","pSARL_v2vaadtwz7","5f276d8f38b9f857f5cebf21","fixation","img/fixation.png","null","","test","","","","","",""
"4007.5","228343","pSARL_v2","pSARL_v2vaadtwz7","5f276d8f38b9f857f5cebf21","reward","img/slot.png","74","","test","","","","","",""
"null","229097","pSARL_v2","pSARL_v2vaadtwz7","5f276d8f38b9f857f5cebf21","points","<div class=""verylowPoints""> -3 </div>","null","na","test","","","","4","-3","3"
"608.4000000059605","229711","pSARL_v2","pSARL_v2vaadtwz7","5f276d8f38b9f857f5cebf21","freq","img/green_2bandit_b2.png","70","70","test","1","89","89","5","",""
"null","229923","pSARL_v2","pSARL_v2vaadtwz7","5f276d8f38b9f857f5cebf21","freq_resp","img/green_2bandit_b.png","70","70","test","","","","5","",""
"null","230085","pSARL_v2","pSARL_v2vaadtwz7","5f276d8f38b9f857f5cebf21","fixation","img/fixation.png","null","","test","","","","","",""
"500.30000001192093","230590","pSARL_v2","pSARL_v2vaadtwz7","5f276d8f38b9f857f5cebf21","freq","img/green_2bandit_b2.png","70","70","test","1","90","90","5","",""
"null","230900","pSARL_v2","pSARL_v2vaadtwz7","5f276d8f38b9f857f5cebf21","freq_resp","img/green_2bandit_b.png","70","70","test","","","","5","",""
"null","231068","pSARL_v2","pSARL_v2vaadtwz7","5f276d8f38b9f857f5cebf21","fixation","img/fixation.png","null","","test","","","","","",""
"561.3000000119209","231633","pSARL_v2","pSARL_v2vaadtwz7","5f276d8f38b9f857f5cebf21","freq","img/green_2bandit_b2.png","70","70","test","1","91","91","5","",""
"null","231879","pSARL_v2","pSARL_v2vaadtwz7","5f276d8f38b9f857f5cebf21","freq_resp","img/green_2bandit_b.png","70","70","test","","","","5","",""
"null","232043","pSARL_v2","pSARL_v2vaadtwz7","5f276d8f38b9f857f5cebf21","fixation","img/fixation.png","null","","test","","","","","",""
"623.6999999880791","232672","pSARL_v2","pSARL_v2vaadtwz7","5f276d8f38b9f857f5cebf21","freq","img/green_2bandit_b2.png","70","70","test","1","92","92","5","",""
"null","232859","pSARL_v2","pSARL_v2vaadtwz7","5f276d8f38b9f857f5cebf21","freq_resp","img/green_2bandit_b.png","70","70","test","","","","5","",""
"null","233026","pSARL_v2","pSARL_v2vaadtwz7","5f276d8f38b9f857f5cebf21","fixation","img/fixation.png","null","","test","","","","","",""
"650.5","233682","pSARL_v2","pSARL_v2vaadtwz7","5f276d8f38b9f857f5cebf21","freq","img/green_2bandit_b2.png","70","70","test","1","93","93","5","",""
"null","233843","pSARL_v2","pSARL_v2vaadtwz7","5f276d8f38b9f857f5cebf21","freq_resp","img/green_2bandit_b.png","70","70","test","","","","5","",""
"null","234000","pSARL_v2","pSARL_v2vaadtwz7","5f276d8f38b9f857f5cebf21","fixation","img/fixation.png","null","","test","","","","","",""
"706.7999999821186","234713","pSARL_v2","pSARL_v2vaadtwz7","5f276d8f38b9f857f5cebf21","freq","img/green_2bandit_b2.png","70","70","test","1","94","94","5","",""
"null","234812","pSARL_v2","pSARL_v2vaadtwz7","5f276d8f38b9f857f5cebf21","freq_resp","img/green_2bandit_b.png","70","70","test","","","","5","",""
"null","234981","pSARL_v2","pSARL_v2vaadtwz7","5f276d8f38b9f857f5cebf21","fixation","img/fixation.png","null","","test","","","","","",""
"720.0999999940395","235706","pSARL_v2","pSARL_v2vaadtwz7","5f276d8f38b9f857f5cebf21","freq","img/green_2bandit_b2.png","70","70","test","1","95","95","5","",""
"null","235803","pSARL_v2","pSARL_v2vaadtwz7","5f276d8f38b9f857f5cebf21","freq_resp","img/green_2bandit_b.png","70","70","test","","","","5","",""
"null","235969","pSARL_v2","pSARL_v2vaadtwz7","5f276d8f38b9f857f5cebf21","fixation","img/fixation.png","null","","test","","","","","",""
"760","236734","pSARL_v2","pSARL_v2vaadtwz7","5f276d8f38b9f857f5cebf21","freq","img/green_2bandit_b2.png","70","70","test","1","96","96","5","",""
"null","236779","pSARL_v2","pSARL_v2vaadtwz7","5f276d8f38b9f857f5cebf21","freq_resp","img/green_2bandit_b.png","70","70","test","","","","5","",""
"null","236950","pSARL_v2","pSARL_v2vaadtwz7","5f276d8f38b9f857f5cebf21","fixation","img/fixation.png","null","","test","","","","","",""
"762.2000000178814","237718","pSARL_v2","pSARL_v2vaadtwz7","5f276d8f38b9f857f5cebf21","freq","img/green_2bandit_b2.png","70","70","test","1","97","97","5","",""
"null","237763","pSARL_v2","pSARL_v2vaadtwz7","5f276d8f38b9f857f5cebf21","freq_resp","img/green_2bandit_b.png","70","70","test","","","","5","",""
"null","237934","pSARL_v2","pSARL_v2vaadtwz7","5f276d8f38b9f857f5cebf21","fixation","img/fixation.png","null","","test","","","","","",""
"772.4000000059605","238712","pSARL_v2","pSARL_v2vaadtwz7","5f276d8f38b9f857f5cebf21","freq","img/green_2bandit_b2.png","70","70","test","1","98","98","5","",""
"null","238746","pSARL_v2","pSARL_v2vaadtwz7","5f276d8f38b9f857f5cebf21","freq_resp","img/green_2bandit_b.png","70","70","test","","","","5","",""
"null","238918","pSARL_v2","pSARL_v2vaadtwz7","5f276d8f38b9f857f5cebf21","fixation","img/fixation.png","null","","test","","","","","",""
"782.5","239706","pSARL_v2","pSARL_v2vaadtwz7","5f276d8f38b9f857f5cebf21","freq","img/green_2bandit_b2.png","70","70","test","1","99","99","5","",""
"null","239729","pSARL_v2","pSARL_v2vaadtwz7","5f276d8f38b9f857f5cebf21","freq_resp","img/green_2bandit_b.png","70","70","test","","","","5","",""
"null","239901","pSARL_v2","pSARL_v2vaadtwz7","5f276d8f38b9f857f5cebf21","fixation","img/fixation.png","null","","test","","","","","",""
"null","240721","pSARL_v2","pSARL_v2vaadtwz7","5f276d8f38b9f857f5cebf21","freq","img/green_2bandit_b2.png","null","70","test","0","100","100","5","",""
"null","240884","pSARL_v2","pSARL_v2vaadtwz7","5f276d8f38b9f857f5cebf21","fixation","img/fixation.png","null","","test","","","","","",""
"795.2999999821186","241686","pSARL_v2","pSARL_v2vaadtwz7","5f276d8f38b9f857f5cebf21","freq","img/green_2bandit_b2.png","70","70","test","1","101","101","5","",""
"null","241698","pSARL_v2","pSARL_v2vaadtwz7","5f276d8f38b9f857f5cebf21","freq_resp","img/green_2bandit_b.png","70","70","test","","","","5","",""
"null","241862","pSARL_v2","pSARL_v2vaadtwz7","5f276d8f38b9f857f5cebf21","fixation","img/fixation.png","null","","test","","","","","",""
"782.0999999940395","242652","pSARL_v2","pSARL_v2vaadtwz7","5f276d8f38b9f857f5cebf21","freq","img/green_2bandit_b2.png","70","70","test","1","102","102","5","",""
"null","242682","pSARL_v2","pSARL_v2vaadtwz7","5f276d8f38b9f857f5cebf21","freq_resp","img/green_2bandit_b.png","70","70","test","","","","5","",""
"null","242843","pSARL_v2","pSARL_v2vaadtwz7","5f276d8f38b9f857f5cebf21","fixation","img/fixation.png","null","","test","","","","","",""
"767.6000000238419","243614","pSARL_v2","pSARL_v2vaadtwz7","5f276d8f38b9f857f5cebf21","freq","img/green_2bandit_b2.png","70","70","test","1","103","103","5","",""
"null","243661","pSARL_v2","pSARL_v2vaadtwz7","5f276d8f38b9f857f5cebf21","freq_resp","img/green_2bandit_b.png","70","70","test","","","","5","",""
"null","243826","pSARL_v2","pSARL_v2vaadtwz7","5f276d8f38b9f857f5cebf21","fixation","img/fixation.png","null","","test","","","","","",""
"685.3000000119209","244518","pSARL_v2","pSARL_v2vaadtwz7","5f276d8f38b9f857f5cebf21","infreq","img/orange_2bandit_b2.png","68","68","test","1","104","104","5","",""
"null","244649","pSARL_v2","pSARL_v2vaadtwz7","5f276d8f38b9f857f5cebf21","infreq_resp","img/orange_2bandit_b.png","68","68","test","","","","5","",""
"null","244816","pSARL_v2","pSARL_v2vaadtwz7","5f276d8f38b9f857f5cebf21","fixation","img/fixation.png","null","","test","","","","","",""
"649.0999999940395","245469","pSARL_v2","pSARL_v2vaadtwz7","5f276d8f38b9f857f5cebf21","infreq","img/orange_2bandit_b2.png","68","68","test","1","105","105","5","",""
"null","245632","pSARL_v2","pSARL_v2vaadtwz7","5f276d8f38b9f857f5cebf21","infreq_resp","img/orange_2bandit_b.png","68","68","test","","","","5","",""
"null","245790","pSARL_v2","pSARL_v2vaadtwz7","5f276d8f38b9f857f5cebf21","fixation","img/fixation.png","null","","test","","","","","",""
"596.6999999880791","246393","pSARL_v2","pSARL_v2vaadtwz7","5f276d8f38b9f857f5cebf21","freq","img/green_2bandit_b2.png","70","70","test","1","106","106","5","",""
"null","246614","pSARL_v2","pSARL_v2vaadtwz7","5f276d8f38b9f857f5cebf21","freq_resp","img/green_2bandit_b.png","70","70","test","","","","5","",""
"null","246778","pSARL_v2","pSARL_v2vaadtwz7","5f276d8f38b9f857f5cebf21","fixation","img/fixation.png","null","","test","","","","","",""
"730","247511","pSARL_v2","pSARL_v2vaadtwz7","5f276d8f38b9f857f5cebf21","freq","img/green_2bandit_b2.png","70","70","test","1","107","107","5","",""
"null","247589","pSARL_v2","pSARL_v2vaadtwz7","5f276d8f38b9f857f5cebf21","freq_resp","img/green_2bandit_b.png","70","70","test","","","","5","",""
"null","247747","pSARL_v2","pSARL_v2vaadtwz7","5f276d8f38b9f857f5cebf21","fixation","img/fixation.png","null","","test","","","","","",""
"7645.4000000059605","255398","pSARL_v2","pSARL_v2vaadtwz7","5f276d8f38b9f857f5cebf21","reward","img/slot.png","74","","test","","","","","",""
"null","256164","pSARL_v2","pSARL_v2vaadtwz7","5f276d8f38b9f857f5cebf21","points","<div class=""veryhighPoints""> +1 </div>","null","na","test","","","","5","1","4"
"null","256973","pSARL_v2","pSARL_v2vaadtwz7","5f276d8f38b9f857f5cebf21","freq","img/green_2bandit_b2.png","null","70","test","0","108","108","6","",""
"null","257140","pSARL_v2","pSARL_v2vaadtwz7","5f276d8f38b9f857f5cebf21","fixation","img/fixation.png","null","","test","","","","","",""
"97.5","257243","pSARL_v2","pSARL_v2vaadtwz7","5f276d8f38b9f857f5cebf21","infreq","img/orange_2bandit_b2.png","70","68","test","0","109","109","6","",""
"null","257952","pSARL_v2","pSARL_v2vaadtwz7","5f276d8f38b9f857f5cebf21","infreq_resp","img/orange_2bandit_b.png","70","68","test","","","","6","",""
"null","258117","pSARL_v2","pSARL_v2vaadtwz7","5f276d8f38b9f857f5cebf21","fixation","img/fixation.png","null","","test","","","","","",""
"497.30000001192093","258618","pSARL_v2","pSARL_v2vaadtwz7","5f276d8f38b9f857f5cebf21","freq","img/green_2bandit_b2.png","70","70","test","1","110","110","6","",""
"null","258941","pSARL_v2","pSARL_v2vaadtwz7","5f276d8f38b9f857f5cebf21","freq_resp","img/green_2bandit_b.png","70","70","test","","","","6","",""
"null","259112","pSARL_v2","pSARL_v2vaadtwz7","5f276d8f38b9f857f5cebf21","fixation","img/fixation.png","null","","test","","","","","",""
"557.4000000059605","259675","pSARL_v2","pSARL_v2vaadtwz7","5f276d8f38b9f857f5cebf21","freq","img/green_2bandit_b2.png","70","70","test","1","111","111","6","",""
"null","259938","pSARL_v2","pSARL_v2vaadtwz7","5f276d8f38b9f857f5cebf21","freq_resp","img/green_2bandit_b.png","70","70","test","","","","6","",""
"null","260097","pSARL_v2","pSARL_v2vaadtwz7","5f276d8f38b9f857f5cebf21","fixation","img/fixation.png","null","","test","","","","","",""
"572.6999999880791","260677","pSARL_v2","pSARL_v2vaadtwz7","5f276d8f38b9f857f5cebf21","freq","img/green_2bandit_b2.png","70","70","test","1","112","112","6","",""
"null","260925","pSARL_v2","pSARL_v2vaadtwz7","5f276d8f38b9f857f5cebf21","freq_resp","img/green_2bandit_b.png","70","70","test","","","","6","",""
"null","261092","pSARL_v2","pSARL_v2vaadtwz7","5f276d8f38b9f857f5cebf21","fixation","img/fixation.png","null","","test","","","","","",""
"548","261645","pSARL_v2","pSARL_v2vaadtwz7","5f276d8f38b9f857f5cebf21","freq","img/green_2bandit_b2.png","70","70","test","1","113","113","6","",""
"null","261911","pSARL_v2","pSARL_v2vaadtwz7","5f276d8f38b9f857f5cebf21","freq_resp","img/green_2bandit_b.png","70","70","test","","","","6","",""
"null","262075","pSARL_v2","pSARL_v2vaadtwz7","5f276d8f38b9f857f5cebf21","fixation","img/fixation.png","null","","test","","","","","",""
"528.6999999880791","262611","pSARL_v2","pSARL_v2vaadtwz7","5f276d8f38b9f857f5cebf21","freq","img/green_2bandit_b2.png","70","70","test","1","114","114","6","",""
"null","262893","pSARL_v2","pSARL_v2vaadtwz7","5f276d8f38b9f857f5cebf21","freq_resp","img/green_2bandit_b.png","70","70","test","","","","6","",""
"null","263050","pSARL_v2","pSARL_v2vaadtwz7","5f276d8f38b9f857f5cebf21","fixation","img/fixation.png","null","","test","","","","","",""
"512.0999999940395","263565","pSARL_v2","pSARL_v2vaadtwz7","5f276d8f38b9f857f5cebf21","freq","img/green_2bandit_b2.png","70","70","test","1","115","115","6","",""
"null","263859","pSARL_v2","pSARL_v2vaadtwz7","5f276d8f38b9f857f5cebf21","freq_resp","img/green_2bandit_b.png","70","70","test","","","","6","",""
"null","264017","pSARL_v2","pSARL_v2vaadtwz7","5f276d8f38b9f857f5cebf21","fixation","img/fixation.png","null","","test","","","","","",""
"518.1999999880791","264540","pSARL_v2","pSARL_v2vaadtwz7","5f276d8f38b9f857f5cebf21","freq","img/green_2bandit_b2.png","70","70","test","1","116","116","6","",""
"null","264841","pSARL_v2","pSARL_v2vaadtwz7","5f276d8f38b9f857f5cebf21","freq_resp","img/green_2bandit_b.png","70","70","test","","","","6","",""
"null","265001","pSARL_v2","pSARL_v2vaadtwz7","5f276d8f38b9f857f5cebf21","fixation","img/fixation.png","null","","test","","","","","",""
"503.7999999821186","265510","pSARL_v2","pSARL_v2vaadtwz7","5f276d8f38b9f857f5cebf21","freq","img/green_2bandit_b2.png","70","70","test","1","117","117","6","",""
"null","265813","pSARL_v2","pSARL_v2vaadtwz7","5f276d8f38b9f857f5cebf21","freq_resp","img/green_2bandit_b.png","70","70","test","","","","6","",""
"null","265975","pSARL_v2","pSARL_v2vaadtwz7","5f276d8f38b9f857f5cebf21","fixation","img/fixation.png","null","","test","","","","","",""
"534.9000000059605","266515","pSARL_v2","pSARL_v2vaadtwz7","5f276d8f38b9f857f5cebf21","freq","img/green_2bandit_b2.png","70","70","test","1","118","118","6","",""
"null","266793","pSARL_v2","pSARL_v2vaadtwz7","5f276d8f38b9f857f5cebf21","freq_resp","img/green_2bandit_b.png","70","70","test","","","","6","",""
"null","266947","pSARL_v2","pSARL_v2vaadtwz7","5f276d8f38b9f857f5cebf21","fixation","img/fixation.png","null","","test","","","","","",""
"583.2000000178814","267536","pSARL_v2","pSARL_v2vaadtwz7","5f276d8f38b9f857f5cebf21","freq","img/green_2bandit_b2.png","70","70","test","1","119","119","6","",""
"null","267763","pSARL_v2","pSARL_v2vaadtwz7","5f276d8f38b9f857f5cebf21","freq_resp","img/green_2bandit_b.png","70","70","test","","","","6","",""
"null","267932","pSARL_v2","pSARL_v2vaadtwz7","5f276d8f38b9f857f5cebf21","fixation","img/fixation.png","null","","test","","","","","",""
"599.1000000238419","268534","pSARL_v2","pSARL_v2vaadtwz7","5f276d8f38b9f857f5cebf21","freq","img/green_2bandit_b2.png","70","70","test","1","120","120","6","",""
"null","268746","pSARL_v2","pSARL_v2vaadtwz7","5f276d8f38b9f857f5cebf21","freq_resp","img/green_2bandit_b.png","70","70","test","","","","6","",""
"null","268902","pSARL_v2","pSARL_v2vaadtwz7","5f276d8f38b9f857f5cebf21","fixation","img/fixation.png","null","","test","","","","","",""
"591.0999999940395","269499","pSARL_v2","pSARL_v2vaadtwz7","5f276d8f38b9f857f5cebf21","infreq","img/orange_2bandit_b2.png","68","68","test","1","121","121","6","",""
"null","269711","pSARL_v2","pSARL_v2vaadtwz7","5f276d8f38b9f857f5cebf21","infreq_resp","img/orange_2bandit_b.png","68","68","test","","","","6","",""
"null","269868","pSARL_v2","pSARL_v2vaadtwz7","5f276d8f38b9f857f5cebf21","fixation","img/fixation.png","null","","test","","","","","",""
"587.5999999940395","270462","pSARL_v2","pSARL_v2vaadtwz7","5f276d8f38b9f857f5cebf21","infreq","img/orange_2bandit_b2.png","68","68","test","1","122","122","6","",""
"null","270689","pSARL_v2","pSARL_v2vaadtwz7","5f276d8f38b9f857f5cebf21","infreq_resp","img/orange_2bandit_b.png","68","68","test","","","","6","",""
"null","270858","pSARL_v2","pSARL_v2vaadtwz7","5f276d8f38b9f857f5cebf21","fixation","img/fixation.png","null","","test","","","","","",""
"617.2999999821186","271478","pSARL_v2","pSARL_v2vaadtwz7","5f276d8f38b9f857f5cebf21","freq","img/green_2bandit_b2.png","70","70","test","1","123","123","6","",""
"null","271682","pSARL_v2","pSARL_v2vaadtwz7","5f276d8f38b9f857f5cebf21","freq_resp","img/green_2bandit_b.png","70","70","test","","","","6","",""
"null","271844","pSARL_v2","pSARL_v2vaadtwz7","5f276d8f38b9f857f5cebf21","fixation","img/fixation.png","null","","test","","","","","",""
"737.8999999761581","272586","pSARL_v2","pSARL_v2vaadtwz7","5f276d8f38b9f857f5cebf21","freq","img/green_2bandit_b2.png","70","70","test","1","124","124","6","",""
"null","272664","pSARL_v2","pSARL_v2vaadtwz7","5f276d8f38b9f857f5cebf21","freq_resp","img/green_2bandit_b.png","70","70","test","","","","6","",""
"null","272826","pSARL_v2","pSARL_v2vaadtwz7","5f276d8f38b9f857f5cebf21","fixation","img/fixation.png","null","","test","","","","","",""
"685.5999999940395","273518","pSARL_v2","pSARL_v2vaadtwz7","5f276d8f38b9f857f5cebf21","freq","img/green_2bandit_b2.png","70","70","test","1","125","125","6","",""
"null","273644","pSARL_v2","pSARL_v2vaadtwz7","5f276d8f38b9f857f5cebf21","freq_resp","img/green_2bandit_b.png","70","70","test","","","","6","",""
"null","273808","pSARL_v2","pSARL_v2vaadtwz7","5f276d8f38b9f857f5cebf21","fixation","img/fixation.png","null","","test","","","","","",""
"655.7999999821186","274470","pSARL_v2","pSARL_v2vaadtwz7","5f276d8f38b9f857f5cebf21","freq","img/green_2bandit_b2.png","70","70","test","1","126","126","6","",""
"null","274632","pSARL_v2","pSARL_v2vaadtwz7","5f276d8f38b9f857f5cebf21","freq_resp","img/green_2bandit_b.png","70","70","test","","","","6","",""
"null","274792","pSARL_v2","pSARL_v2vaadtwz7","5f276d8f38b9f857f5cebf21","fixation","img/fixation.png","null","","test","","","","","",""
"703.0999999940395","275501","pSARL_v2","pSARL_v2vaadtwz7","5f276d8f38b9f857f5cebf21","freq","img/green_2bandit_b2.png","70","70","test","1","127","127","6","",""
"null","275619","pSARL_v2","pSARL_v2vaadtwz7","5f276d8f38b9f857f5cebf21","freq_resp","img/green_2bandit_b.png","70","70","test","","","","6","",""
"null","275782","pSARL_v2","pSARL_v2vaadtwz7","5f276d8f38b9f857f5cebf21","fixation","img/fixation.png","null","","test","","","","","",""
"884.1999999880791","276670","pSARL_v2","pSARL_v2vaadtwz7","5f276d8f38b9f857f5cebf21","reward","img/slot.png","74","","test","","","","","",""
"null","277429","pSARL_v2","pSARL_v2vaadtwz7","5f276d8f38b9f857f5cebf21","points","<div class=""verylowPoints""> -7 </div>","null","na","test","","","","6","-7","5"
"585.5","278022","pSARL_v2","pSARL_v2vaadtwz7","5f276d8f38b9f857f5cebf21","freq","img/green_2bandit_b2.png","70","70","test","1","128","128","7","",""
"null","278250","pSARL_v2","pSARL_v2vaadtwz7","5f276d8f38b9f857f5cebf21","freq_resp","img/green_2bandit_b.png","70","70","test","","","","7","",""
"null","278416","pSARL_v2","pSARL_v2vaadtwz7","5f276d8f38b9f857f5cebf21","fixation","img/fixation.png","null","","test","","","","","",""
"564.7999999821186","278987","pSARL_v2","pSARL_v2vaadtwz7","5f276d8f38b9f857f5cebf21","freq","img/green_2bandit_b2.png","70","70","test","1","129","129","7","",""
"null","279233","pSARL_v2","pSARL_v2vaadtwz7","5f276d8f38b9f857f5cebf21","freq_resp","img/green_2bandit_b.png","70","70","test","","","","7","",""
"null","279395","pSARL_v2","pSARL_v2vaadtwz7","5f276d8f38b9f857f5cebf21","fixation","img/fixation.png","null","","test","","","","","",""
"642","280050","pSARL_v2","pSARL_v2vaadtwz7","5f276d8f38b9f857f5cebf21","freq","img/green_2bandit_b2.png","70","70","test","1","130","130","7","",""
"null","280222","pSARL_v2","pSARL_v2vaadtwz7","5f276d8f38b9f857f5cebf21","freq_resp","img/green_2bandit_b.png","70","70","test","","","","7","",""
"null","280390","pSARL_v2","pSARL_v2vaadtwz7","5f276d8f38b9f857f5cebf21","fixation","img/fixation.png","null","","test","","","","","",""
"680.6999999880791","281074","pSARL_v2","pSARL_v2vaadtwz7","5f276d8f38b9f857f5cebf21","freq","img/green_2bandit_b2.png","70","70","test","1","131","131","7","",""
"null","281198","pSARL_v2","pSARL_v2vaadtwz7","5f276d8f38b9f857f5cebf21","freq_resp","img/green_2bandit_b.png","70","70","test","","","","7","",""
"null","281364","pSARL_v2","pSARL_v2vaadtwz7","5f276d8f38b9f857f5cebf21","fixation","img/fixation.png","null","","test","","","","","",""
"704.5999999940395","282074","pSARL_v2","pSARL_v2vaadtwz7","5f276d8f38b9f857f5cebf21","infreq","img/orange_2bandit_b2.png","68","68","test","1","132","132","7","",""
"null","282176","pSARL_v2","pSARL_v2vaadtwz7","5f276d8f38b9f857f5cebf21","infreq_resp","img/orange_2bandit_b.png","68","68","test","","","","7","",""
"null","282347","pSARL_v2","pSARL_v2vaadtwz7","5f276d8f38b9f857f5cebf21","fixation","img/fixation.png","null","","test","","","","","",""
"686.4000000059605","283038","pSARL_v2","pSARL_v2vaadtwz7","5f276d8f38b9f857f5cebf21","freq","img/green_2bandit_b2.png","70","70","test","1","133","133","7","",""
"null","283159","pSARL_v2","pSARL_v2vaadtwz7","5f276d8f38b9f857f5cebf21","freq_resp","img/green_2bandit_b.png","70","70","test","","","","7","",""
"null","283320","pSARL_v2","pSARL_v2vaadtwz7","5f276d8f38b9f857f5cebf21","fixation","img/fixation.png","null","","test","","","","","",""
"713.9000000059605","284041","pSARL_v2","pSARL_v2vaadtwz7","5f276d8f38b9f857f5cebf21","freq","img/green_2bandit_b2.png","70","70","test","1","134","134","7","",""
"null","284145","pSARL_v2","pSARL_v2vaadtwz7","5f276d8f38b9f857f5cebf21","freq_resp","img/green_2bandit_b.png","70","70","test","","","","7","",""
"null","284305","pSARL_v2","pSARL_v2vaadtwz7","5f276d8f38b9f857f5cebf21","fixation","img/fixation.png","null","","test","","","","","",""
"null","285118","pSARL_v2","pSARL_v2vaadtwz7","5f276d8f38b9f857f5cebf21","freq","img/green_2bandit_b2.png","null","70","test","0","135","135","7","",""
"null","285279","pSARL_v2","pSARL_v2vaadtwz7","5f276d8f38b9f857f5cebf21","fixation","img/fixation.png","null","","test","","","","","",""
"666.3000000119209","285951","pSARL_v2","pSARL_v2vaadtwz7","5f276d8f38b9f857f5cebf21","infreq","img/orange_2bandit_b2.png","68","68","test","1","136","136","7","",""
"null","286100","pSARL_v2","pSARL_v2vaadtwz7","5f276d8f38b9f857f5cebf21","infreq_resp","img/orange_2bandit_b.png","68","68","test","","","","7","",""
"null","286257","pSARL_v2","pSARL_v2vaadtwz7","5f276d8f38b9f857f5cebf21","fixation","img/fixation.png","null","","test","","","","","",""
"542.3000000119209","286805","pSARL_v2","pSARL_v2vaadtwz7","5f276d8f38b9f857f5cebf21","freq","img/green_2bandit_b2.png","70","70","test","1","137","137","7","",""
"null","287082","pSARL_v2","pSARL_v2vaadtwz7","5f276d8f38b9f857f5cebf21","freq_resp","img/green_2bandit_b.png","70","70","test","","","","7","",""
"null","287240","pSARL_v2","pSARL_v2vaadtwz7","5f276d8f38b9f857f5cebf21","fixation","img/fixation.png","null","","test","","","","","",""
"609.0999999940395","287856","pSARL_v2","pSARL_v2vaadtwz7","5f276d8f38b9f857f5cebf21","freq","img/green_2bandit_b2.png","70","70","test","1","138","138","7","",""
"null","288053","pSARL_v2","pSARL_v2vaadtwz7","5f276d8f38b9f857f5cebf21","freq_resp","img/green_2bandit_b.png","70","70","test","","","","7","",""
"null","288223","pSARL_v2","pSARL_v2vaadtwz7","5f276d8f38b9f857f5cebf21","fixation","img/fixation.png","null","","test","","","","","",""
"668.4000000059605","288895","pSARL_v2","pSARL_v2vaadtwz7","5f276d8f38b9f857f5cebf21","freq","img/green_2bandit_b2.png","70","70","test","1","139","139","7","",""
"null","289048","pSARL_v2","pSARL_v2vaadtwz7","5f276d8f38b9f857f5cebf21","freq_resp","img/green_2bandit_b.png","70","70","test","","","","7","",""
"null","289215","pSARL_v2","pSARL_v2vaadtwz7","5f276d8f38b9f857f5cebf21","fixation","img/fixation.png","null","","test","","","","","",""
"672.4000000059605","289893","pSARL_v2","pSARL_v2vaadtwz7","5f276d8f38b9f857f5cebf21","freq","img/green_2bandit_b2.png","70","70","test","1","140","140","7","",""
"null","290036","pSARL_v2","pSARL_v2vaadtwz7","5f276d8f38b9f857f5cebf21","freq_resp","img/green_2bandit_b.png","70","70","test","","","","7","",""
"null","290205","pSARL_v2","pSARL_v2vaadtwz7","5f276d8f38b9f857f5cebf21","fixation","img/fixation.png","null","","test","","","","","",""
"714.9000000059605","290927","pSARL_v2","pSARL_v2vaadtwz7","5f276d8f38b9f857f5cebf21","freq","img/green_2bandit_b2.png","70","70","test","1","141","141","7","",""
"null","291020","pSARL_v2","pSARL_v2vaadtwz7","5f276d8f38b9f857f5cebf21","freq_resp","img/green_2bandit_b.png","70","70","test","","","","7","",""
"null","291180","pSARL_v2","pSARL_v2vaadtwz7","5f276d8f38b9f857f5cebf21","fixation","img/fixation.png","null","","test","","","","","",""
"746.4000000059605","291932","pSARL_v2","pSARL_v2vaadtwz7","5f276d8f38b9f857f5cebf21","freq","img/green_2bandit_b2.png","70","70","test","1","142","142","7","",""
"null","291993","pSARL_v2","pSARL_v2vaadtwz7","5f276d8f38b9f857f5cebf21","freq_resp","img/green_2bandit_b.png","70","70","test","","","","7","",""
"null","292153","pSARL_v2","pSARL_v2vaadtwz7","5f276d8f38b9f857f5cebf21","fixation","img/fixation.png","null","","test","","","","","",""
"757.0999999940395","292913","pSARL_v2","pSARL_v2vaadtwz7","5f276d8f38b9f857f5cebf21","freq","img/green_2bandit_b2.png","70","70","test","1","143","143","7","",""
"null","292960","pSARL_v2","pSARL_v2vaadtwz7","5f276d8f38b9f857f5cebf21","freq_resp","img/green_2bandit_b.png","70","70","test","","","","7","",""
"null","293121","pSARL_v2","pSARL_v2vaadtwz7","5f276d8f38b9f857f5cebf21","fixation","img/fixation.png","null","","test","","","","","",""
"787.9000000059605","293915","pSARL_v2","pSARL_v2vaadtwz7","5f276d8f38b9f857f5cebf21","freq","img/green_2bandit_b2.png","70","70","test","1","144","144","7","",""
"null","293939","pSARL_v2","pSARL_v2vaadtwz7","5f276d8f38b9f857f5cebf21","freq_resp","img/green_2bandit_b.png","70","70","test","","","","7","",""
"null","294102","pSARL_v2","pSARL_v2vaadtwz7","5f276d8f38b9f857f5cebf21","fixation","img/fixation.png","null","","test","","","","","",""
"null","294909","pSARL_v2","pSARL_v2vaadtwz7","5f276d8f38b9f857f5cebf21","freq","img/green_2bandit_b2.png","null","70","test","0","145","145","7","",""
"null","295076","pSARL_v2","pSARL_v2vaadtwz7","5f276d8f38b9f857f5cebf21","fixation","img/fixation.png","null","","test","","","","","",""
"null","295884","pSARL_v2","pSARL_v2vaadtwz7","5f276d8f38b9f857f5cebf21","freq","img/green_2bandit_b2.png","null","70","test","0","146","146","7","",""
"null","296046","pSARL_v2","pSARL_v2vaadtwz7","5f276d8f38b9f857f5cebf21","fixation","img/fixation.png","null","","test","","","","","",""
"null","296864","pSARL_v2","pSARL_v2vaadtwz7","5f276d8f38b9f857f5cebf21","freq","img/green_2bandit_b2.png","null","70","test","0","147","147","7","",""
"null","297021","pSARL_v2","pSARL_v2vaadtwz7","5f276d8f38b9f857f5cebf21","fixation","img/fixation.png","null","","test","","","","","",""
"673.3000000119209","297700","pSARL_v2","pSARL_v2vaadtwz7","5f276d8f38b9f857f5cebf21","freq","img/green_2bandit_b2.png","70","70","test","1","148","148","7","",""
"null","297832","pSARL_v2","pSARL_v2vaadtwz7","5f276d8f38b9f857f5cebf21","freq_resp","img/green_2bandit_b.png","70","70","test","","","","7","",""
"null","297990","pSARL_v2","pSARL_v2vaadtwz7","5f276d8f38b9f857f5cebf21","fixation","img/fixation.png","null","","test","","","","","",""
"886.9000000059605","298880","pSARL_v2","pSARL_v2vaadtwz7","5f276d8f38b9f857f5cebf21","reward","img/slot.png","74","","test","","","","","",""
"null","299638","pSARL_v2","pSARL_v2vaadtwz7","5f276d8f38b9f857f5cebf21","points","<div class=""verylowPoints""> -6 </div>","null","na","test","","","","7","-6","6"
"643.9000000059605","300288","pSARL_v2","pSARL_v2vaadtwz7","5f276d8f38b9f857f5cebf21","freq","img/green_2bandit_b2.png","70","70","test","1","149","149","8","",""
"null","300449","pSARL_v2","pSARL_v2vaadtwz7","5f276d8f38b9f857f5cebf21","freq_resp","img/green_2bandit_b.png","70","70","test","","","","8","",""
"null","300615","pSARL_v2","pSARL_v2vaadtwz7","5f276d8f38b9f857f5cebf21","fixation","img/fixation.png","null","","test","","","","","",""
"574.8999999761581","301195","pSARL_v2","pSARL_v2vaadtwz7","5f276d8f38b9f857f5cebf21","freq","img/green_2bandit_b2.png","70","70","test","1","150","150","8","",""
"null","301435","pSARL_v2","pSARL_v2vaadtwz7","5f276d8f38b9f857f5cebf21","freq_resp","img/green_2bandit_b.png","70","70","test","","","","8","",""
"null","301599","pSARL_v2","pSARL_v2vaadtwz7","5f276d8f38b9f857f5cebf21","fixation","img/fixation.png","null","","test","","","","","",""
"593.7999999821186","302198","pSARL_v2","pSARL_v2vaadtwz7","5f276d8f38b9f857f5cebf21","freq","img/green_2bandit_b2.png","70","70","test","1","151","151","8","",""
"null","302413","pSARL_v2","pSARL_v2vaadtwz7","5f276d8f38b9f857f5cebf21","freq_resp","img/green_2bandit_b.png","70","70","test","","","","8","",""
"null","302567","pSARL_v2","pSARL_v2vaadtwz7","5f276d8f38b9f857f5cebf21","fixation","img/fixation.png","null","","test","","","","","",""
"626.2000000178814","303197","pSARL_v2","pSARL_v2vaadtwz7","5f276d8f38b9f857f5cebf21","freq","img/green_2bandit_b2.png","70","70","test","1","152","152","8","",""
"null","303388","pSARL_v2","pSARL_v2vaadtwz7","5f276d8f38b9f857f5cebf21","freq_resp","img/green_2bandit_b.png","70","70","test","","","","8","",""
"null","303554","pSARL_v2","pSARL_v2vaadtwz7","5f276d8f38b9f857f5cebf21","fixation","img/fixation.png","null","","test","","","","","",""
"583.7000000178814","304143","pSARL_v2","pSARL_v2vaadtwz7","5f276d8f38b9f857f5cebf21","freq","img/green_2bandit_b2.png","70","70","test","1","153","153","8","",""
"null","304386","pSARL_v2","pSARL_v2vaadtwz7","5f276d8f38b9f857f5cebf21","freq_resp","img/green_2bandit_b.png","70","70","test","","","","8","",""
"null","304554","pSARL_v2","pSARL_v2vaadtwz7","5f276d8f38b9f857f5cebf21","fixation","img/fixation.png","null","","test","","","","","",""
"519.4000000059605","305080","pSARL_v2","pSARL_v2vaadtwz7","5f276d8f38b9f857f5cebf21","freq","img/green_2bandit_b2.png","70","70","test","1","154","154","8","",""
"null","305378","pSARL_v2","pSARL_v2vaadtwz7","5f276d8f38b9f857f5cebf21","freq_resp","img/green_2bandit_b.png","70","70","test","","","","8","",""
"null","305543","pSARL_v2","pSARL_v2vaadtwz7","5f276d8f38b9f857f5cebf21","fixation","img/fixation.png","null","","test","","","","","",""
"558.8000000119209","306108","pSARL_v2","pSARL_v2vaadtwz7","5f276d8f38b9f857f5cebf21","freq","img/green_2bandit_b2.png","70","70","test","1","155","155","8","",""
"null","306358","pSARL_v2","pSARL_v2vaadtwz7","5f276d8f38b9f857f5cebf21","freq_resp","img/green_2bandit_b.png","70","70","test","","","","8","",""
"null","306522","pSARL_v2","pSARL_v2vaadtwz7","5f276d8f38b9f857f5cebf21","fixation","img/fixation.png","null","","test","","","","","",""
"594.2999999821186","307122","pSARL_v2","pSARL_v2vaadtwz7","5f276d8f38b9f857f5cebf21","freq","img/green_2bandit_b2.png","70","70","test","1","156","156","8","",""
"null","307333","pSARL_v2","pSARL_v2vaadtwz7","5f276d8f38b9f857f5cebf21","freq_resp","img/green_2bandit_b.png","70","70","test","","","","8","",""
"null","307501","pSARL_v2","pSARL_v2vaadtwz7","5f276d8f38b9f857f5cebf21","fixation","img/fixation.png","null","","test","","","","","",""
"614.1999999880791","308119","pSARL_v2","pSARL_v2vaadtwz7","5f276d8f38b9f857f5cebf21","freq","img/green_2bandit_b2.png","70","70","test","1","157","157","8","",""
"null","308316","pSARL_v2","pSARL_v2vaadtwz7","5f276d8f38b9f857f5cebf21","freq_resp","img/green_2bandit_b.png","70","70","test","","","","8","",""
"null","308474","pSARL_v2","pSARL_v2vaadtwz7","5f276d8f38b9f857f5cebf21","fixation","img/fixation.png","null","","test","","","","","",""
"627.5","309108","pSARL_v2","pSARL_v2vaadtwz7","5f276d8f38b9f857f5cebf21","infreq","img/orange_2bandit_b2.png","68","68","test","1","158","158","8","",""
"null","309289","pSARL_v2","pSARL_v2vaadtwz7","5f276d8f38b9f857f5cebf21","infreq_resp","img/orange_2bandit_b.png","68","68","test","","","","8","",""
"null","309444","pSARL_v2","pSARL_v2vaadtwz7","5f276d8f38b9f857f5cebf21","fixation","img/fixation.png","null","","test","","","","","",""
"570.0999999940395","310020","pSARL_v2","pSARL_v2vaadtwz7","5f276d8f38b9f857f5cebf21","freq","img/green_2bandit_b2.png","70","70","test","1","159","159","8","",""
"null","310258","pSARL_v2","pSARL_v2vaadtwz7","5f276d8f38b9f857f5cebf21","freq_resp","img/green_2bandit_b.png","70","70","test","","","","8","",""
"null","310414","pSARL_v2","pSARL_v2vaadtwz7","5f276d8f38b9f857f5cebf21","fixation","img/fixation.png","null","","test","","","","","",""
"633","311053","pSARL_v2","pSARL_v2vaadtwz7","5f276d8f38b9f857f5cebf21","freq","img/green_2bandit_b2.png","70","70","test","1","160","160","8","",""
"null","311239","pSARL_v2","pSARL_v2vaadtwz7","5f276d8f38b9f857f5cebf21","freq_resp","img/green_2bandit_b.png","70","70","test","","","","8","",""
"null","311404","pSARL_v2","pSARL_v2vaadtwz7","5f276d8f38b9f857f5cebf21","fixation","img/fixation.png","null","","test","","","","","",""
"627.2999999821186","312034","pSARL_v2","pSARL_v2vaadtwz7","5f276d8f38b9f857f5cebf21","freq","img/green_2bandit_b2.png","70","70","test","1","161","161","8","",""
"null","312217","pSARL_v2","pSARL_v2vaadtwz7","5f276d8f38b9f857f5cebf21","freq_resp","img/green_2bandit_b.png","70","70","test","","","","8","",""
"null","312384","pSARL_v2","pSARL_v2vaadtwz7","5f276d8f38b9f857f5cebf21","fixation","img/fixation.png","null","","test","","","","","",""
"604","312991","pSARL_v2","pSARL_v2vaadtwz7","5f276d8f38b9f857f5cebf21","freq","img/green_2bandit_b2.png","70","70","test","1","162","162","8","",""
"null","313199","pSARL_v2","pSARL_v2vaadtwz7","5f276d8f38b9f857f5cebf21","freq_resp","img/green_2bandit_b.png","70","70","test","","","","8","",""
"null","313363","pSARL_v2","pSARL_v2vaadtwz7","5f276d8f38b9f857f5cebf21","fixation","img/fixation.png","null","","test","","","","","",""
"668.8999999761581","314038","pSARL_v2","pSARL_v2vaadtwz7","5f276d8f38b9f857f5cebf21","freq","img/green_2bandit_b2.png","70","70","test","1","163","163","8","",""
"null","314181","pSARL_v2","pSARL_v2vaadtwz7","5f276d8f38b9f857f5cebf21","freq_resp","img/green_2bandit_b.png","70","70","test","","","","8","",""
"null","314348","pSARL_v2","pSARL_v2vaadtwz7","5f276d8f38b9f857f5cebf21","fixation","img/fixation.png","null","","test","","","","","",""
"683.4000000059605","315039","pSARL_v2","pSARL_v2vaadtwz7","5f276d8f38b9f857f5cebf21","freq","img/green_2bandit_b2.png","70","70","test","1","164","164","8","",""
"null","315175","pSARL_v2","pSARL_v2vaadtwz7","5f276d8f38b9f857f5cebf21","freq_resp","img/green_2bandit_b.png","70","70","test","","","","8","",""
"null","315338","pSARL_v2","pSARL_v2vaadtwz7","5f276d8f38b9f857f5cebf21","fixation","img/fixation.png","null","","test","","","","","",""
"734.6999999880791","316078","pSARL_v2","pSARL_v2vaadtwz7","5f276d8f38b9f857f5cebf21","freq","img/green_2bandit_b2.png","70","70","test","1","165","165","8","",""
"null","316152","pSARL_v2","pSARL_v2vaadtwz7","5f276d8f38b9f857f5cebf21","freq_resp","img/green_2bandit_b.png","70","70","test","","","","8","",""
"null","316322","pSARL_v2","pSARL_v2vaadtwz7","5f276d8f38b9f857f5cebf21","fixation","img/fixation.png","null","","test","","","","","",""
"741.4000000059605","317069","pSARL_v2","pSARL_v2vaadtwz7","5f276d8f38b9f857f5cebf21","freq","img/green_2bandit_b2.png","70","70","test","1","166","166","8","",""
"null","317142","pSARL_v2","pSARL_v2vaadtwz7","5f276d8f38b9f857f5cebf21","freq_resp","img/green_2bandit_b.png","70","70","test","","","","8","",""
"null","317302","pSARL_v2","pSARL_v2vaadtwz7","5f276d8f38b9f857f5cebf21","fixation","img/fixation.png","null","","test","","","","","",""
"766","318074","pSARL_v2","pSARL_v2vaadtwz7","5f276d8f38b9f857f5cebf21","freq","img/green_2bandit_b2.png","70","70","test","1","167","167","8","",""
"null","318134","pSARL_v2","pSARL_v2vaadtwz7","5f276d8f38b9f857f5cebf21","freq_resp","img/green_2bandit_b.png","70","70","test","","","","8","",""
"null","318296","pSARL_v2","pSARL_v2vaadtwz7","5f276d8f38b9f857f5cebf21","fixation","img/fixation.png","null","","test","","","","","",""
"794.6999999880791","319096","pSARL_v2","pSARL_v2vaadtwz7","5f276d8f38b9f857f5cebf21","freq","img/green_2bandit_b2.png","70","70","test","1","168","168","8","",""
"null","319109","pSARL_v2","pSARL_v2vaadtwz7","5f276d8f38b9f857f5cebf21","freq_resp","img/green_2bandit_b.png","70","70","test","","","","8","",""
"null","319271","pSARL_v2","pSARL_v2vaadtwz7","5f276d8f38b9f857f5cebf21","fixation","img/fixation.png","null","","test","","","","","",""
"null","320082","pSARL_v2","pSARL_v2vaadtwz7","5f276d8f38b9f857f5cebf21","freq","img/green_2bandit_b2.png","null","70","test","0","169","169","8","",""
"null","320244","pSARL_v2","pSARL_v2vaadtwz7","5f276d8f38b9f857f5cebf21","fixation","img/fixation.png","null","","test","","","","","",""
"662.2999999821186","320913","pSARL_v2","pSARL_v2vaadtwz7","5f276d8f38b9f857f5cebf21","infreq","img/orange_2bandit_b2.png","68","68","test","1","170","170","8","",""
"null","321064","pSARL_v2","pSARL_v2vaadtwz7","5f276d8f38b9f857f5cebf21","infreq_resp","img/orange_2bandit_b.png","68","68","test","","","","8","",""
"null","321230","pSARL_v2","pSARL_v2vaadtwz7","5f276d8f38b9f857f5cebf21","fixation","img/fixation.png","null","","test","","","","","",""
"520.3000000119209","321754","pSARL_v2","pSARL_v2vaadtwz7","5f276d8f38b9f857f5cebf21","freq","img/green_2bandit_b2.png","70","70","test","1","171","171","8","",""
"null","322047","pSARL_v2","pSARL_v2vaadtwz7","5f276d8f38b9f857f5cebf21","freq_resp","img/green_2bandit_b.png","70","70","test","","","","8","",""
"null","322214","pSARL_v2","pSARL_v2vaadtwz7","5f276d8f38b9f857f5cebf21","fixation","img/fixation.png","null","","test","","","","","",""
"659.4000000059605","322879","pSARL_v2","pSARL_v2vaadtwz7","5f276d8f38b9f857f5cebf21","freq","img/green_2bandit_b2.png","70","70","test","1","172","172","8","",""
"null","323036","pSARL_v2","pSARL_v2vaadtwz7","5f276d8f38b9f857f5cebf21","freq_resp","img/green_2bandit_b.png","70","70","test","","","","8","",""
"null","323204","pSARL_v2","pSARL_v2vaadtwz7","5f276d8f38b9f857f5cebf21","fixation","img/fixation.png","null","","test","","","","","",""
"608.5999999940395","323818","pSARL_v2","pSARL_v2vaadtwz7","5f276d8f38b9f857f5cebf21","freq","img/green_2bandit_b2.png","70","70","test","1","173","173","8","",""
"null","324029","pSARL_v2","pSARL_v2vaadtwz7","5f276d8f38b9f857f5cebf21","freq_resp","img/green_2bandit_b.png","70","70","test","","","","8","",""
"null","324186","pSARL_v2","pSARL_v2vaadtwz7","5f276d8f38b9f857f5cebf21","fixation","img/fixation.png","null","","test","","","","","",""
"1303.699999988079","325495","pSARL_v2","pSARL_v2vaadtwz7","5f276d8f38b9f857f5cebf21","reward","img/slot.png","74","","test","","","","","",""
"null","326261","pSARL_v2","pSARL_v2vaadtwz7","5f276d8f38b9f857f5cebf21","points","<div class=""verylowPoints""> -4 </div>","null","na","test","","","","8","-4","7"
"444.59999999403954","326708","pSARL_v2","pSARL_v2vaadtwz7","5f276d8f38b9f857f5cebf21","freq","img/green_2bandit_b2.png","70","70","test","1","174","174","9","",""
"null","327079","pSARL_v2","pSARL_v2vaadtwz7","5f276d8f38b9f857f5cebf21","freq_resp","img/green_2bandit_b.png","70","70","test","","","","9","",""
"null","327251","pSARL_v2","pSARL_v2vaadtwz7","5f276d8f38b9f857f5cebf21","fixation","img/fixation.png","null","","test","","","","","",""
"515","327773","pSARL_v2","pSARL_v2vaadtwz7","5f276d8f38b9f857f5cebf21","freq","img/green_2bandit_b2.png","70","70","test","1","175","175","9","",""
"null","328073","pSARL_v2","pSARL_v2vaadtwz7","5f276d8f38b9f857f5cebf21","freq_resp","img/green_2bandit_b.png","70","70","test","","","","9","",""
"null","328236","pSARL_v2","pSARL_v2vaadtwz7","5f276d8f38b9f857f5cebf21","fixation","img/fixation.png","null","","test","","","","","",""
"586.8999999761581","328829","pSARL_v2","pSARL_v2vaadtwz7","5f276d8f38b9f857f5cebf21","infreq","img/orange_2bandit_b2.png","68","68","test","1","176","176","9","",""
"null","329054","pSARL_v2","pSARL_v2vaadtwz7","5f276d8f38b9f857f5cebf21","infreq_resp","img/orange_2bandit_b.png","68","68","test","","","","9","",""
"null","329221","pSARL_v2","pSARL_v2vaadtwz7","5f276d8f38b9f857f5cebf21","fixation","img/fixation.png","null","","test","","","","","",""
"520.1999999880791","329747","pSARL_v2","pSARL_v2vaadtwz7","5f276d8f38b9f857f5cebf21","freq","img/green_2bandit_b2.png","70","70","test","1","177","177","9","",""
"null","330042","pSARL_v2","pSARL_v2vaadtwz7","5f276d8f38b9f857f5cebf21","freq_resp","img/green_2bandit_b.png","70","70","test","","","","9","",""
"null","330202","pSARL_v2","pSARL_v2vaadtwz7","5f276d8f38b9f857f5cebf21","fixation","img/fixation.png","null","","test","","","","","",""
"null","331015","pSARL_v2","pSARL_v2vaadtwz7","5f276d8f38b9f857f5cebf21","freq","img/green_2bandit_b2.png","null","70","test","0","178","178","9","",""
"null","331175","pSARL_v2","pSARL_v2vaadtwz7","5f276d8f38b9f857f5cebf21","fixation","img/fixation.png","null","","test","","","","","",""
"667.0999999940395","331847","pSARL_v2","pSARL_v2vaadtwz7","5f276d8f38b9f857f5cebf21","freq","img/green_2bandit_b2.png","70","70","test","1","179","179","9","",""
"null","331987","pSARL_v2","pSARL_v2vaadtwz7","5f276d8f38b9f857f5cebf21","freq_resp","img/green_2bandit_b.png","70","70","test","","","","9","",""
"null","332144","pSARL_v2","pSARL_v2vaadtwz7","5f276d8f38b9f857f5cebf21","fixation","img/fixation.png","null","","test","","","","","",""
"715.3000000119209","332863","pSARL_v2","pSARL_v2vaadtwz7","5f276d8f38b9f857f5cebf21","infreq","img/orange_2bandit_b2.png","68","68","test","1","180","180","9","",""
"null","332965","pSARL_v2","pSARL_v2vaadtwz7","5f276d8f38b9f857f5cebf21","infreq_resp","img/orange_2bandit_b.png","68","68","test","","","","9","",""
"null","333129","pSARL_v2","pSARL_v2vaadtwz7","5f276d8f38b9f857f5cebf21","fixation","img/fixation.png","null","","test","","","","","",""
"528.3000000119209","333664","pSARL_v2","pSARL_v2vaadtwz7","5f276d8f38b9f857f5cebf21","freq","img/green_2bandit_b2.png","70","70","test","1","181","181","9","",""
"null","333953","pSARL_v2","pSARL_v2vaadtwz7","5f276d8f38b9f857f5cebf21","freq_resp","img/green_2bandit_b.png","70","70","test","","","","9","",""
"null","334114","pSARL_v2","pSARL_v2vaadtwz7","5f276d8f38b9f857f5cebf21","fixation","img/fixation.png","null","","test","","","","","",""
"573.3999999761581","334694","pSARL_v2","pSARL_v2vaadtwz7","5f276d8f38b9f857f5cebf21","freq","img/green_2bandit_b2.png","70","70","test","1","182","182","9","",""
"null","334931","pSARL_v2","pSARL_v2vaadtwz7","5f276d8f38b9f857f5cebf21","freq_resp","img/green_2bandit_b.png","70","70","test","","","","9","",""
"null","335096","pSARL_v2","pSARL_v2vaadtwz7","5f276d8f38b9f857f5cebf21","fixation","img/fixation.png","null","","test","","","","","",""
"596.8000000119209","335697","pSARL_v2","pSARL_v2vaadtwz7","5f276d8f38b9f857f5cebf21","infreq","img/orange_2bandit_b2.png","68","68","test","1","183","183","9","",""
"null","335918","pSARL_v2","pSARL_v2vaadtwz7","5f276d8f38b9f857f5cebf21","infreq_resp","img/orange_2bandit_b.png","68","68","test","","","","9","",""
"null","336077","pSARL_v2","pSARL_v2vaadtwz7","5f276d8f38b9f857f5cebf21","fixation","img/fixation.png","null","","test","","","","","",""
"508.2000000178814","336590","pSARL_v2","pSARL_v2vaadtwz7","5f276d8f38b9f857f5cebf21","freq","img/green_2bandit_b2.png","70","70","test","1","184","184","9","",""
"null","336896","pSARL_v2","pSARL_v2vaadtwz7","5f276d8f38b9f857f5cebf21","freq_resp","img/green_2bandit_b.png","70","70","test","","","","9","",""
"null","337053","pSARL_v2","pSARL_v2vaadtwz7","5f276d8f38b9f857f5cebf21","fixation","img/fixation.png","null","","test","","","","","",""
"647.0999999940395","337706","pSARL_v2","pSARL_v2vaadtwz7","5f276d8f38b9f857f5cebf21","freq","img/green_2bandit_b2.png","70","70","test","1","185","185","9","",""
"null","337866","pSARL_v2","pSARL_v2vaadtwz7","5f276d8f38b9f857f5cebf21","freq_resp","img/green_2bandit_b.png","70","70","test","","","","9","",""
"null","338030","pSARL_v2","pSARL_v2vaadtwz7","5f276d8f38b9f857f5cebf21","fixation","img/fixation.png","null","","test","","","","","",""
"651.3000000119209","338687","pSARL_v2","pSARL_v2vaadtwz7","5f276d8f38b9f857f5cebf21","freq","img/green_2bandit_b2.png","70","70","test","1","186","186","9","",""
"null","338846","pSARL_v2","pSARL_v2vaadtwz7","5f276d8f38b9f857f5cebf21","freq_resp","img/green_2bandit_b.png","70","70","test","","","","9","",""
"null","339004","pSARL_v2","pSARL_v2vaadtwz7","5f276d8f38b9f857f5cebf21","fixation","img/fixation.png","null","","test","","","","","",""
"617.2000000178814","339628","pSARL_v2","pSARL_v2vaadtwz7","5f276d8f38b9f857f5cebf21","freq","img/green_2bandit_b2.png","70","70","test","1","187","187","9","",""
"null","339826","pSARL_v2","pSARL_v2vaadtwz7","5f276d8f38b9f857f5cebf21","freq_resp","img/green_2bandit_b.png","70","70","test","","","","9","",""
"null","339995","pSARL_v2","pSARL_v2vaadtwz7","5f276d8f38b9f857f5cebf21","fixation","img/fixation.png","null","","test","","","","","",""
"654.9000000059605","340657","pSARL_v2","pSARL_v2vaadtwz7","5f276d8f38b9f857f5cebf21","freq","img/green_2bandit_b2.png","70","70","test","1","188","188","9","",""
"null","340824","pSARL_v2","pSARL_v2vaadtwz7","5f276d8f38b9f857f5cebf21","freq_resp","img/green_2bandit_b.png","70","70","test","","","","9","",""
"null","340983","pSARL_v2","pSARL_v2vaadtwz7","5f276d8f38b9f857f5cebf21","fixation","img/fixation.png","null","","test","","","","","",""
"610.6999999880791","341597","pSARL_v2","pSARL_v2vaadtwz7","5f276d8f38b9f857f5cebf21","freq","img/green_2bandit_b2.png","70","70","test","1","189","189","9","",""
"null","341805","pSARL_v2","pSARL_v2vaadtwz7","5f276d8f38b9f857f5cebf21","freq_resp","img/green_2bandit_b.png","70","70","test","","","","9","",""
"null","341971","pSARL_v2","pSARL_v2vaadtwz7","5f276d8f38b9f857f5cebf21","fixation","img/fixation.png","null","","test","","","","","",""
"574.4000000059605","342551","pSARL_v2","pSARL_v2vaadtwz7","5f276d8f38b9f857f5cebf21","freq","img/green_2bandit_b2.png","70","70","test","1","190","190","9","",""
"null","342793","pSARL_v2","pSARL_v2vaadtwz7","5f276d8f38b9f857f5cebf21","freq_resp","img/green_2bandit_b.png","70","70","test","","","","9","",""
"null","342957","pSARL_v2","pSARL_v2vaadtwz7","5f276d8f38b9f857f5cebf21","fixation","img/fixation.png","null","","test","","","","","",""
"571.5","343536","pSARL_v2","pSARL_v2vaadtwz7","5f276d8f38b9f857f5cebf21","freq","img/green_2bandit_b2.png","70","70","test","1","191","191","9","",""
"null","343782","pSARL_v2","pSARL_v2vaadtwz7","5f276d8f38b9f857f5cebf21","freq_resp","img/green_2bandit_b.png","70","70","test","","","","9","",""
"null","343949","pSARL_v2","pSARL_v2vaadtwz7","5f276d8f38b9f857f5cebf21","fixation","img/fixation.png","null","","test","","","","","",""
"572.7000000178814","344527","pSARL_v2","pSARL_v2vaadtwz7","5f276d8f38b9f857f5cebf21","freq","img/green_2bandit_b2.png","70","70","test","1","192","192","9","",""
"null","344761","pSARL_v2","pSARL_v2vaadtwz7","5f276d8f38b9f857f5cebf21","freq_resp","img/green_2bandit_b.png","70","70","test","","","","9","",""
"null","344917","pSARL_v2","pSARL_v2vaadtwz7","5f276d8f38b9f857f5cebf21","fixation","img/fixation.png","null","","test","","","","","",""
"613.3000000119209","345534","pSARL_v2","pSARL_v2vaadtwz7","5f276d8f38b9f857f5cebf21","freq","img/green_2bandit_b2.png","70","70","test","1","193","193","9","",""
"null","345738","pSARL_v2","pSARL_v2vaadtwz7","5f276d8f38b9f857f5cebf21","freq_resp","img/green_2bandit_b.png","70","70","test","","","","9","",""
"null","345901","pSARL_v2","pSARL_v2vaadtwz7","5f276d8f38b9f857f5cebf21","fixation","img/fixation.png","null","","test","","","","","",""
"615","346522","pSARL_v2","pSARL_v2vaadtwz7","5f276d8f38b9f857f5cebf21","freq","img/green_2bandit_b2.png","70","70","test","1","194","194","9","",""
"null","346729","pSARL_v2","pSARL_v2vaadtwz7","5f276d8f38b9f857f5cebf21","freq_resp","img/green_2bandit_b.png","70","70","test","","","","9","",""
"null","346890","pSARL_v2","pSARL_v2vaadtwz7","5f276d8f38b9f857f5cebf21","fixation","img/fixation.png","null","","test","","","","","",""
"572.5999999940395","347469","pSARL_v2","pSARL_v2vaadtwz7","5f276d8f38b9f857f5cebf21","freq","img/green_2bandit_b2.png","70","70","test","1","195","195","9","",""
"null","347712","pSARL_v2","pSARL_v2vaadtwz7","5f276d8f38b9f857f5cebf21","freq_resp","img/green_2bandit_b.png","70","70","test","","","","9","",""
"null","347874","pSARL_v2","pSARL_v2vaadtwz7","5f276d8f38b9f857f5cebf21","fixation","img/fixation.png","null","","test","","","","","",""
"685.8000000119209","348566","pSARL_v2","pSARL_v2vaadtwz7","5f276d8f38b9f857f5cebf21","freq","img/green_2bandit_b2.png","70","70","test","1","196","196","9","",""
"null","348687","pSARL_v2","pSARL_v2vaadtwz7","5f276d8f38b9f857f5cebf21","freq_resp","img/green_2bandit_b.png","70","70","test","","","","9","",""
"null","348857","pSARL_v2","pSARL_v2vaadtwz7","5f276d8f38b9f857f5cebf21","fixation","img/fixation.png","null","","test","","","","","",""
"3680.2000000178814","352544","pSARL_v2","pSARL_v2vaadtwz7","5f276d8f38b9f857f5cebf21","reward","img/slot.png","74","","test","","","","","",""
"null","353310","pSARL_v2","pSARL_v2vaadtwz7","5f276d8f38b9f857f5cebf21","points","<div class=""verylowPoints""> -3 </div>","null","na","test","","","","9","-3","8"
"743","354060","pSARL_v2","pSARL_v2vaadtwz7","5f276d8f38b9f857f5cebf21","freq","img/green_2bandit_b2.png","70","70","test","1","197","197","10","",""
"null","354135","pSARL_v2","pSARL_v2vaadtwz7","5f276d8f38b9f857f5cebf21","freq_resp","img/green_2bandit_b.png","70","70","test","","","","10","",""
"null","354300","pSARL_v2","pSARL_v2vaadtwz7","5f276d8f38b9f857f5cebf21","fixation","img/fixation.png","null","","test","","","","","",""
"630.0999999940395","354933","pSARL_v2","pSARL_v2vaadtwz7","5f276d8f38b9f857f5cebf21","freq","img/green_2bandit_b2.png","70","70","test","1","198","198","10","",""
"null","355123","pSARL_v2","pSARL_v2vaadtwz7","5f276d8f38b9f857f5cebf21","freq_resp","img/green_2bandit_b.png","70","70","test","","","","10","",""
"null","355287","pSARL_v2","pSARL_v2vaadtwz7","5f276d8f38b9f857f5cebf21","fixation","img/fixation.png","null","","test","","","","","",""
"696.8000000119209","355990","pSARL_v2","pSARL_v2vaadtwz7","5f276d8f38b9f857f5cebf21","freq","img/green_2bandit_b2.png","70","70","test","1","199","199","10","",""
"null","356101","pSARL_v2","pSARL_v2vaadtwz7","5f276d8f38b9f857f5cebf21","freq_resp","img/green_2bandit_b.png","70","70","test","","","","10","",""
"null","356273","pSARL_v2","pSARL_v2vaadtwz7","5f276d8f38b9f857f5cebf21","fixation","img/fixation.png","null","","test","","","","","",""
"634.6000000238419","356914","pSARL_v2","pSARL_v2vaadtwz7","5f276d8f38b9f857f5cebf21","freq","img/green_2bandit_b2.png","70","70","test","1","200","200","10","",""
"null","357089","pSARL_v2","pSARL_v2vaadtwz7","5f276d8f38b9f857f5cebf21","freq_resp","img/green_2bandit_b.png","70","70","test","","","","10","",""
"null","357248","pSARL_v2","pSARL_v2vaadtwz7","5f276d8f38b9f857f5cebf21","fixation","img/fixation.png","null","","test","","","","","",""
"634","357886","pSARL_v2","pSARL_v2vaadtwz7","5f276d8f38b9f857f5cebf21","freq","img/green_2bandit_b2.png","70","70","test","1","201","201","10","",""
"null","358070","pSARL_v2","pSARL_v2vaadtwz7","5f276d8f38b9f857f5cebf21","freq_resp","img/green_2bandit_b.png","70","70","test","","","","10","",""
"null","358243","pSARL_v2","pSARL_v2vaadtwz7","5f276d8f38b9f857f5cebf21","fixation","img/fixation.png","null","","test","","","","","",""
"617.2999999821186","358866","pSARL_v2","pSARL_v2vaadtwz7","5f276d8f38b9f857f5cebf21","freq","img/green_2bandit_b2.png","70","70","test","1","202","202","10","",""
"null","359056","pSARL_v2","pSARL_v2vaadtwz7","5f276d8f38b9f857f5cebf21","freq_resp","img/green_2bandit_b.png","70","70","test","","","","10","",""
"null","359222","pSARL_v2","pSARL_v2vaadtwz7","5f276d8f38b9f857f5cebf21","fixation","img/fixation.png","null","","test","","","","","",""
"664.5","359890","pSARL_v2","pSARL_v2vaadtwz7","5f276d8f38b9f857f5cebf21","freq","img/green_2bandit_b2.png","70","70","test","1","203","203","10","",""
"null","360036","pSARL_v2","pSARL_v2vaadtwz7","5f276d8f38b9f857f5cebf21","freq_resp","img/green_2bandit_b.png","70","70","test","","","","10","",""
"null","360200","pSARL_v2","pSARL_v2vaadtwz7","5f276d8f38b9f857f5cebf21","fixation","img/fixation.png","null","","test","","","","","",""
"623.5","360829","pSARL_v2","pSARL_v2vaadtwz7","5f276d8f38b9f857f5cebf21","freq","img/green_2bandit_b2.png","70","70","test","1","204","204","10","",""
"null","361017","pSARL_v2","pSARL_v2vaadtwz7","5f276d8f38b9f857f5cebf21","freq_resp","img/green_2bandit_b.png","70","70","test","","","","10","",""
"null","361173","pSARL_v2","pSARL_v2vaadtwz7","5f276d8f38b9f857f5cebf21","fixation","img/fixation.png","null","","test","","","","","",""
"655.5999999940395","361834","pSARL_v2","pSARL_v2vaadtwz7","5f276d8f38b9f857f5cebf21","freq","img/green_2bandit_b2.png","70","70","test","1","205","205","10","",""
"null","361995","pSARL_v2","pSARL_v2vaadtwz7","5f276d8f38b9f857f5cebf21","freq_resp","img/green_2bandit_b.png","70","70","test","","","","10","",""
"null","362158","pSARL_v2","pSARL_v2vaadtwz7","5f276d8f38b9f857f5cebf21","fixation","img/fixation.png","null","","test","","","","","",""
"647.9000000059605","362812","pSARL_v2","pSARL_v2vaadtwz7","5f276d8f38b9f857f5cebf21","freq","img/green_2bandit_b2.png","70","70","test","1","206","206","10","",""
"null","362981","pSARL_v2","pSARL_v2vaadtwz7","5f276d8f38b9f857f5cebf21","freq_resp","img/green_2bandit_b.png","70","70","test","","","","10","",""
"null","363148","pSARL_v2","pSARL_v2vaadtwz7","5f276d8f38b9f857f5cebf21","fixation","img/fixation.png","null","","test","","","","","",""
"588","363741","pSARL_v2","pSARL_v2vaadtwz7","5f276d8f38b9f857f5cebf21","freq","img/green_2bandit_b2.png","70","70","test","1","207","207","10","",""
"null","363970","pSARL_v2","pSARL_v2vaadtwz7","5f276d8f38b9f857f5cebf21","freq_resp","img/green_2bandit_b.png","70","70","test","","","","10","",""
"null","364134","pSARL_v2","pSARL_v2vaadtwz7","5f276d8f38b9f857f5cebf21","fixation","img/fixation.png","null","","test","","","","","",""
"576.4000000059605","364714","pSARL_v2","pSARL_v2vaadtwz7","5f276d8f38b9f857f5cebf21","freq","img/green_2bandit_b2.png","70","70","test","1","208","208","10","",""
"null","364946","pSARL_v2","pSARL_v2vaadtwz7","5f276d8f38b9f857f5cebf21","freq_resp","img/green_2bandit_b.png","70","70","test","","","","10","",""
"null","365102","pSARL_v2","pSARL_v2vaadtwz7","5f276d8f38b9f857f5cebf21","fixation","img/fixation.png","null","","test","","","","","",""
"584.2999999821186","365692","pSARL_v2","pSARL_v2vaadtwz7","5f276d8f38b9f857f5cebf21","freq","img/green_2bandit_b2.png","70","70","test","1","209","209","10","",""
"null","365919","pSARL_v2","pSARL_v2vaadtwz7","5f276d8f38b9f857f5cebf21","freq_resp","img/green_2bandit_b.png","70","70","test","","","","10","",""
