"rt","time_elapsed","expId","subject","prolificID","trialType","stimulus","key_press","corrresp","phase","corr","trialNum","attentionRunNum","blockNum","points","rlNum"
"8084","8091","pSARL_v2","pSARL_v2zygfrbby","631f6e0b69d34cd131d923f8","","","","","","","","","","",""
"","11374","pSARL_v2","pSARL_v2zygfrbby","631f6e0b69d34cd131d923f8","fullscreen","","","","","","","","","",""
"87407.10000002384","98785","pSARL_v2","pSARL_v2zygfrbby","631f6e0b69d34cd131d923f8","","","","","","","","","","",""
"null","99601","pSARL_v2","pSARL_v2zygfrbby","631f6e0b69d34cd131d923f8","freqPrac","img/orange_2bandit_a2.png","null","70","prac","0","","","","",""
"null","100611","pSARL_v2","pSARL_v2zygfrbby","631f6e0b69d34cd131d923f8","feedback","img/tooSlow.png","null","na","prac","","","","","",""
"null","100782","pSARL_v2","pSARL_v2zygfrbby","631f6e0b69d34cd131d923f8","fixation","img/fixation.png","null","","prac","","","","","",""
"631.0999999642372","101417","pSARL_v2","pSARL_v2zygfrbby","631f6e0b69d34cd131d923f8","infreqPrac","img/green_2bandit_a2.png","68","68","prac","1","","","","",""
"631.0999999642372","101600","pSARL_v2","pSARL_v2zygfrbby","631f6e0b69d34cd131d923f8","infreqPrac_resp","img/green_2bandit_a.png","68","68","prac","","","","","",""
"null","101771","pSARL_v2","pSARL_v2zygfrbby","631f6e0b69d34cd131d923f8","fixation","img/fixation.png","null","","prac","","","","","",""
"698.0999999642372","102473","pSARL_v2","pSARL_v2zygfrbby","631f6e0b69d34cd131d923f8","freqPrac","img/orange_2bandit_a2.png","68","70","prac","0","","","","",""
"698.0999999642372","102584","pSARL_v2","pSARL_v2zygfrbby","631f6e0b69d34cd131d923f8","freqPrac_resp","img/orange_2bandit_a.png","68","70","prac","","","","","",""
"null","103603","pSARL_v2","pSARL_v2zygfrbby","631f6e0b69d34cd131d923f8","feedback","img/wrongKey.png","null","na","prac","","","","","",""
"null","103772","pSARL_v2","pSARL_v2zygfrbby","631f6e0b69d34cd131d923f8","fixation","img/fixation.png","null","","prac","","","","","",""
"744.7999999523163","104520","pSARL_v2","pSARL_v2zygfrbby","631f6e0b69d34cd131d923f8","infreqPrac","img/green_2bandit_a2.png","68","68","prac","1","","","","",""
"744.7999999523163","104588","pSARL_v2","pSARL_v2zygfrbby","631f6e0b69d34cd131d923f8","infreqPrac_resp","img/green_2bandit_a.png","68","68","prac","","","","","",""
"null","104757","pSARL_v2","pSARL_v2zygfrbby","631f6e0b69d34cd131d923f8","fixation","img/fixation.png","null","","prac","","","","","",""
"481","105244","pSARL_v2","pSARL_v2zygfrbby","631f6e0b69d34cd131d923f8","infreqPrac","img/green_2bandit_a2.png","70","68","prac","0","","","","",""
"481","105582","pSARL_v2","pSARL_v2zygfrbby","631f6e0b69d34cd131d923f8","infreqPrac_resp","img/green_2bandit_a.png","70","68","prac","","","","","",""
"null","106595","pSARL_v2","pSARL_v2zygfrbby","631f6e0b69d34cd131d923f8","feedback","img/wrongKey.png","null","na","prac","","","","","",""
"null","106767","pSARL_v2","pSARL_v2zygfrbby","631f6e0b69d34cd131d923f8","fixation","img/fixation.png","null","","prac","","","","","",""
"438.5999999642372","107212","pSARL_v2","pSARL_v2zygfrbby","631f6e0b69d34cd131d923f8","infreqPrac","img/green_2bandit_a2.png","68","68","prac","1","","","","",""
"438.5999999642372","107577","pSARL_v2","pSARL_v2zygfrbby","631f6e0b69d34cd131d923f8","infreqPrac_resp","img/green_2bandit_a.png","68","68","prac","","","","","",""
"null","107733","pSARL_v2","pSARL_v2zygfrbby","631f6e0b69d34cd131d923f8","fixation","img/fixation.png","null","","prac","","","","","",""
"null","108548","pSARL_v2","pSARL_v2zygfrbby","631f6e0b69d34cd131d923f8","freqPrac","img/orange_2bandit_a2.png","null","70","prac","0","","","","",""
"null","109566","pSARL_v2","pSARL_v2zygfrbby","631f6e0b69d34cd131d923f8","feedback","img/tooSlow.png","null","na","prac","","","","","",""
"null","109725","pSARL_v2","pSARL_v2zygfrbby","631f6e0b69d34cd131d923f8","fixation","img/fixation.png","null","","prac","","","","","",""
"777.4000000357628","110508","pSARL_v2","pSARL_v2zygfrbby","631f6e0b69d34cd131d923f8","infreqPrac","img/green_2bandit_a2.png","70","68","prac","0","","","","",""
"777.4000000357628","110534","pSARL_v2","pSARL_v2zygfrbby","631f6e0b69d34cd131d923f8","infreqPrac_resp","img/green_2bandit_a.png","70","68","prac","","","","","",""
"null","111543","pSARL_v2","pSARL_v2zygfrbby","631f6e0b69d34cd131d923f8","feedback","img/wrongKey.png","null","na","prac","","","","","",""
"null","111711","pSARL_v2","pSARL_v2zygfrbby","631f6e0b69d34cd131d923f8","fixation","img/fixation.png","null","","prac","","","","","",""
"711","112428","pSARL_v2","pSARL_v2zygfrbby","631f6e0b69d34cd131d923f8","freqPrac","img/orange_2bandit_a2.png","68","70","prac","0","","","","",""
"711","112524","pSARL_v2","pSARL_v2zygfrbby","631f6e0b69d34cd131d923f8","freqPrac_resp","img/orange_2bandit_a.png","68","70","prac","","","","","",""
"null","113538","pSARL_v2","pSARL_v2zygfrbby","631f6e0b69d34cd131d923f8","feedback","img/wrongKey.png","null","na","prac","","","","","",""
"null","113709","pSARL_v2","pSARL_v2zygfrbby","631f6e0b69d34cd131d923f8","fixation","img/fixation.png","null","","prac","","","","","",""
"570.7999999523163","114286","pSARL_v2","pSARL_v2zygfrbby","631f6e0b69d34cd131d923f8","freqPrac","img/orange_2bandit_a2.png","70","70","prac","1","","","","",""
"570.7999999523163","114528","pSARL_v2","pSARL_v2zygfrbby","631f6e0b69d34cd131d923f8","freqPrac_resp","img/orange_2bandit_a.png","70","70","prac","","","","","",""
"null","114696","pSARL_v2","pSARL_v2zygfrbby","631f6e0b69d34cd131d923f8","fixation","img/fixation.png","null","","prac","","","","","",""
"17085.900000035763","131785","pSARL_v2","pSARL_v2zygfrbby","631f6e0b69d34cd131d923f8","","","","","prac","","","","","",""
"4172.699999988079","135962","pSARL_v2","pSARL_v2zygfrbby","631f6e0b69d34cd131d923f8","rewardPractice","img/slot.png","74","","prac","","","","","",""
"null","136730","pSARL_v2","pSARL_v2zygfrbby","631f6e0b69d34cd131d923f8","feedback","<div class=""veryhighPoints""> +15 </div>","null","na","prac","","","","","",""
"null","136900","pSARL_v2","pSARL_v2zygfrbby","631f6e0b69d34cd131d923f8","fixation","img/fixation.png","null","","prac","","","","","",""
"28018.69999998808","164927","pSARL_v2","pSARL_v2zygfrbby","631f6e0b69d34cd131d923f8","","","","","prac","","","","","",""
"null","165739","pSARL_v2","pSARL_v2zygfrbby","631f6e0b69d34cd131d923f8","freq","img/orange_2bandit_a2.png","null","70","test","0","1","1","1","",""
"null","165895","pSARL_v2","pSARL_v2zygfrbby","631f6e0b69d34cd131d923f8","fixation","img/fixation.png","null","","test","","","","","",""
"543.1999999880791","166444","pSARL_v2","pSARL_v2zygfrbby","631f6e0b69d34cd131d923f8","freq","img/orange_2bandit_a2.png","70","70","test","1","2","2","1","",""
"null","166710","pSARL_v2","pSARL_v2zygfrbby","631f6e0b69d34cd131d923f8","freq_resp","img/orange_2bandit_a.png","70","70","test","","","","1","",""
"null","166879","pSARL_v2","pSARL_v2zygfrbby","631f6e0b69d34cd131d923f8","fixation","img/fixation.png","null","","test","","","","","",""
"455.10000002384186","167340","pSARL_v2","pSARL_v2zygfrbby","631f6e0b69d34cd131d923f8","freq","img/orange_2bandit_a2.png","70","70","test","1","3","3","1","",""
"null","167692","pSARL_v2","pSARL_v2zygfrbby","631f6e0b69d34cd131d923f8","freq_resp","img/orange_2bandit_a.png","70","70","test","","","","1","",""
"null","167851","pSARL_v2","pSARL_v2zygfrbby","631f6e0b69d34cd131d923f8","fixation","img/fixation.png","null","","test","","","","","",""
"331","168188","pSARL_v2","pSARL_v2zygfrbby","631f6e0b69d34cd131d923f8","freq","img/orange_2bandit_a2.png","70","70","test","1","4","4","1","",""
"null","168668","pSARL_v2","pSARL_v2zygfrbby","631f6e0b69d34cd131d923f8","freq_resp","img/orange_2bandit_a.png","70","70","test","","","","1","",""
"null","168849","pSARL_v2","pSARL_v2zygfrbby","631f6e0b69d34cd131d923f8","fixation","img/fixation.png","null","","test","","","","","",""
"356.9000000357628","169214","pSARL_v2","pSARL_v2zygfrbby","631f6e0b69d34cd131d923f8","freq","img/orange_2bandit_a2.png","70","70","test","1","5","5","1","",""
"null","169672","pSARL_v2","pSARL_v2zygfrbby","631f6e0b69d34cd131d923f8","freq_resp","img/orange_2bandit_a.png","70","70","test","","","","1","",""
"null","169842","pSARL_v2","pSARL_v2zygfrbby","631f6e0b69d34cd131d923f8","fixation","img/fixation.png","null","","test","","","","","",""
"308.5999999642372","170156","pSARL_v2","pSARL_v2zygfrbby","631f6e0b69d34cd131d923f8","freq","img/orange_2bandit_a2.png","70","70","test","1","6","6","1","",""
"null","170657","pSARL_v2","pSARL_v2zygfrbby","631f6e0b69d34cd131d923f8","freq_resp","img/orange_2bandit_a.png","70","70","test","","","","1","",""
"null","170824","pSARL_v2","pSARL_v2zygfrbby","631f6e0b69d34cd131d923f8","fixation","img/fixation.png","null","","test","","","","","",""
"350.4000000357628","171181","pSARL_v2","pSARL_v2zygfrbby","631f6e0b69d34cd131d923f8","freq","img/orange_2bandit_a2.png","70","70","test","1","7","7","1","",""
"null","171640","pSARL_v2","pSARL_v2zygfrbby","631f6e0b69d34cd131d923f8","freq_resp","img/orange_2bandit_a.png","70","70","test","","","","1","",""
"null","171796","pSARL_v2","pSARL_v2zygfrbby","631f6e0b69d34cd131d923f8","fixation","img/fixation.png","null","","test","","","","","",""
"434.0999999642372","172237","pSARL_v2","pSARL_v2zygfrbby","631f6e0b69d34cd131d923f8","freq","img/orange_2bandit_a2.png","70","70","test","1","8","8","1","",""
"null","172615","pSARL_v2","pSARL_v2zygfrbby","631f6e0b69d34cd131d923f8","freq_resp","img/orange_2bandit_a.png","70","70","test","","","","1","",""
"null","172779","pSARL_v2","pSARL_v2zygfrbby","631f6e0b69d34cd131d923f8","fixation","img/fixation.png","null","","test","","","","","",""
"474.89999997615814","173260","pSARL_v2","pSARL_v2zygfrbby","631f6e0b69d34cd131d923f8","freq","img/orange_2bandit_a2.png","70","70","test","1","9","9","1","",""
"null","173599","pSARL_v2","pSARL_v2zygfrbby","631f6e0b69d34cd131d923f8","freq_resp","img/orange_2bandit_a.png","70","70","test","","","","1","",""
"null","173770","pSARL_v2","pSARL_v2zygfrbby","631f6e0b69d34cd131d923f8","fixation","img/fixation.png","null","","test","","","","","",""
"507.7999999523163","174281","pSARL_v2","pSARL_v2zygfrbby","631f6e0b69d34cd131d923f8","freq","img/orange_2bandit_a2.png","70","70","test","1","10","10","1","",""
"null","174583","pSARL_v2","pSARL_v2zygfrbby","631f6e0b69d34cd131d923f8","freq_resp","img/orange_2bandit_a.png","70","70","test","","","","1","",""
"null","174751","pSARL_v2","pSARL_v2zygfrbby","631f6e0b69d34cd131d923f8","fixation","img/fixation.png","null","","test","","","","","",""
"503.5","175261","pSARL_v2","pSARL_v2zygfrbby","631f6e0b69d34cd131d923f8","freq","img/orange_2bandit_a2.png","70","70","test","1","11","11","1","",""
"null","175563","pSARL_v2","pSARL_v2zygfrbby","631f6e0b69d34cd131d923f8","freq_resp","img/orange_2bandit_a.png","70","70","test","","","","1","",""
"null","175734","pSARL_v2","pSARL_v2zygfrbby","631f6e0b69d34cd131d923f8","fixation","img/fixation.png","null","","test","","","","","",""
"480.19999998807907","176220","pSARL_v2","pSARL_v2zygfrbby","631f6e0b69d34cd131d923f8","freq","img/orange_2bandit_a2.png","70","70","test","1","12","12","1","",""
"null","176547","pSARL_v2","pSARL_v2zygfrbby","631f6e0b69d34cd131d923f8","freq_resp","img/orange_2bandit_a.png","70","70","test","","","","1","",""
"null","176717","pSARL_v2","pSARL_v2zygfrbby","631f6e0b69d34cd131d923f8","fixation","img/fixation.png","null","","test","","","","","",""
"458.5999999642372","177182","pSARL_v2","pSARL_v2zygfrbby","631f6e0b69d34cd131d923f8","freq","img/orange_2bandit_a2.png","70","70","test","1","13","13","1","",""
"null","177532","pSARL_v2","pSARL_v2zygfrbby","631f6e0b69d34cd131d923f8","freq_resp","img/orange_2bandit_a.png","70","70","test","","","","1","",""
"null","177703","pSARL_v2","pSARL_v2zygfrbby","631f6e0b69d34cd131d923f8","fixation","img/fixation.png","null","","test","","","","","",""
"398.89999997615814","178108","pSARL_v2","pSARL_v2zygfrbby","631f6e0b69d34cd131d923f8","freq","img/orange_2bandit_a2.png","70","70","test","1","14","14","1","",""
"null","178515","pSARL_v2","pSARL_v2zygfrbby","631f6e0b69d34cd131d923f8","freq_resp","img/orange_2bandit_a.png","70","70","test","","","","1","",""
"null","178670","pSARL_v2","pSARL_v2zygfrbby","631f6e0b69d34cd131d923f8","fixation","img/fixation.png","null","","test","","","","","",""
"440","179117","pSARL_v2","pSARL_v2zygfrbby","631f6e0b69d34cd131d923f8","freq","img/orange_2bandit_a2.png","70","70","test","1","15","15","1","",""
"null","179497","pSARL_v2","pSARL_v2zygfrbby","631f6e0b69d34cd131d923f8","freq_resp","img/orange_2bandit_a.png","70","70","test","","","","1","",""
"null","179659","pSARL_v2","pSARL_v2zygfrbby","631f6e0b69d34cd131d923f8","fixation","img/fixation.png","null","","test","","","","","",""
"378.89999997615814","180044","pSARL_v2","pSARL_v2zygfrbby","631f6e0b69d34cd131d923f8","freq","img/orange_2bandit_a2.png","70","70","test","1","16","16","1","",""
"null","180475","pSARL_v2","pSARL_v2zygfrbby","631f6e0b69d34cd131d923f8","freq_resp","img/orange_2bandit_a.png","70","70","test","","","","1","",""
"null","180631","pSARL_v2","pSARL_v2zygfrbby","631f6e0b69d34cd131d923f8","fixation","img/fixation.png","null","","test","","","","","",""
"575.3999999761581","181212","pSARL_v2","pSARL_v2zygfrbby","631f6e0b69d34cd131d923f8","infreq","img/green_2bandit_a2.png","68","68","test","1","17","17","1","",""
"null","181444","pSARL_v2","pSARL_v2zygfrbby","631f6e0b69d34cd131d923f8","infreq_resp","img/green_2bandit_a.png","68","68","test","","","","1","",""
"null","181603","pSARL_v2","pSARL_v2zygfrbby","631f6e0b69d34cd131d923f8","fixation","img/fixation.png","null","","test","","","","","",""
"451","182061","pSARL_v2","pSARL_v2zygfrbby","631f6e0b69d34cd131d923f8","infreq","img/green_2bandit_a2.png","68","68","test","1","18","18","1","",""
"null","182419","pSARL_v2","pSARL_v2zygfrbby","631f6e0b69d34cd131d923f8","infreq_resp","img/green_2bandit_a.png","68","68","test","","","","1","",""
"null","182582","pSARL_v2","pSARL_v2zygfrbby","631f6e0b69d34cd131d923f8","fixation","img/fixation.png","null","","test","","","","","",""
"496.0999999642372","183085","pSARL_v2","pSARL_v2zygfrbby","631f6e0b69d34cd131d923f8","freq","img/orange_2bandit_a2.png","70","70","test","1","19","19","1","",""
"null","183396","pSARL_v2","pSARL_v2zygfrbby","631f6e0b69d34cd131d923f8","freq_resp","img/orange_2bandit_a.png","70","70","test","","","","1","",""
"null","183564","pSARL_v2","pSARL_v2zygfrbby","631f6e0b69d34cd131d923f8","fixation","img/fixation.png","null","","test","","","","","",""
"634.5","184204","pSARL_v2","pSARL_v2zygfrbby","631f6e0b69d34cd131d923f8","reward","img/slot.png","74","","test","","","","","",""
"null","184969","pSARL_v2","pSARL_v2zygfrbby","631f6e0b69d34cd131d923f8","points","<div class=""verylowPoints""> -6 </div>","null","na","test","","","","1","-6","0"
"null","185784","pSARL_v2","pSARL_v2zygfrbby","631f6e0b69d34cd131d923f8","freq","img/orange_2bandit_a2.png","null","70","test","0","20","20","2","",""
"null","185958","pSARL_v2","pSARL_v2zygfrbby","631f6e0b69d34cd131d923f8","fixation","img/fixation.png","null","","test","","","","","",""
"64.20000004768372","186030","pSARL_v2","pSARL_v2zygfrbby","631f6e0b69d34cd131d923f8","freq","img/orange_2bandit_a2.png","70","70","test","1","21","21","2","",""
"null","186771","pSARL_v2","pSARL_v2zygfrbby","631f6e0b69d34cd131d923f8","freq_resp","img/orange_2bandit_a.png","70","70","test","","","","2","",""
"null","186942","pSARL_v2","pSARL_v2zygfrbby","631f6e0b69d34cd131d923f8","fixation","img/fixation.png","null","","test","","","","","",""
"360","187310","pSARL_v2","pSARL_v2zygfrbby","631f6e0b69d34cd131d923f8","freq","img/orange_2bandit_a2.png","70","70","test","1","22","22","2","",""
"null","187760","pSARL_v2","pSARL_v2zygfrbby","631f6e0b69d34cd131d923f8","freq_resp","img/orange_2bandit_a.png","70","70","test","","","","2","",""
"null","187931","pSARL_v2","pSARL_v2zygfrbby","631f6e0b69d34cd131d923f8","fixation","img/fixation.png","null","","test","","","","","",""
"330.60000002384186","188266","pSARL_v2","pSARL_v2zygfrbby","631f6e0b69d34cd131d923f8","freq","img/orange_2bandit_a2.png","70","70","test","1","23","23","2","",""
"null","188744","pSARL_v2","pSARL_v2zygfrbby","631f6e0b69d34cd131d923f8","freq_resp","img/orange_2bandit_a.png","70","70","test","","","","2","",""
"null","188914","pSARL_v2","pSARL_v2zygfrbby","631f6e0b69d34cd131d923f8","fixation","img/fixation.png","null","","test","","","","","",""
"228.30000001192093","189149","pSARL_v2","pSARL_v2zygfrbby","631f6e0b69d34cd131d923f8","freq","img/orange_2bandit_a2.png","70","70","test","1","24","24","2","",""
"null","189730","pSARL_v2","pSARL_v2zygfrbby","631f6e0b69d34cd131d923f8","freq_resp","img/orange_2bandit_a.png","70","70","test","","","","2","",""
"null","189893","pSARL_v2","pSARL_v2zygfrbby","631f6e0b69d34cd131d923f8","fixation","img/fixation.png","null","","test","","","","","",""
"289.39999997615814","190188","pSARL_v2","pSARL_v2zygfrbby","631f6e0b69d34cd131d923f8","freq","img/orange_2bandit_a2.png","70","70","test","1","25","25","2","",""
"null","190712","pSARL_v2","pSARL_v2zygfrbby","631f6e0b69d34cd131d923f8","freq_resp","img/orange_2bandit_a.png","70","70","test","","","","2","",""
"null","190881","pSARL_v2","pSARL_v2zygfrbby","631f6e0b69d34cd131d923f8","fixation","img/fixation.png","null","","test","","","","","",""
"309.4000000357628","191197","pSARL_v2","pSARL_v2zygfrbby","631f6e0b69d34cd131d923f8","freq","img/orange_2bandit_a2.png","70","70","test","1","26","26","2","",""
"null","191707","pSARL_v2","pSARL_v2zygfrbby","631f6e0b69d34cd131d923f8","freq_resp","img/orange_2bandit_a.png","70","70","test","","","","2","",""
"null","191877","pSARL_v2","pSARL_v2zygfrbby","631f6e0b69d34cd131d923f8","fixation","img/fixation.png","null","","test","","","","","",""
"256","192140","pSARL_v2","pSARL_v2zygfrbby","631f6e0b69d34cd131d923f8","freq","img/orange_2bandit_a2.png","70","70","test","1","27","27","2","",""
"null","192694","pSARL_v2","pSARL_v2zygfrbby","631f6e0b69d34cd131d923f8","freq_resp","img/orange_2bandit_a.png","70","70","test","","","","2","",""
"null","192852","pSARL_v2","pSARL_v2zygfrbby","631f6e0b69d34cd131d923f8","fixation","img/fixation.png","null","","test","","","","","",""
"193.5999999642372","193049","pSARL_v2","pSARL_v2zygfrbby","631f6e0b69d34cd131d923f8","freq","img/orange_2bandit_a2.png","70","70","test","1","28","28","2","",""
"null","193669","pSARL_v2","pSARL_v2zygfrbby","631f6e0b69d34cd131d923f8","freq_resp","img/orange_2bandit_a.png","70","70","test","","","","2","",""
"null","193839","pSARL_v2","pSARL_v2zygfrbby","631f6e0b69d34cd131d923f8","fixation","img/fixation.png","null","","test","","","","","",""
"135.5","193980","pSARL_v2","pSARL_v2zygfrbby","631f6e0b69d34cd131d923f8","infreq","img/green_2bandit_a2.png","70","68","test","0","29","29","2","",""
"null","194658","pSARL_v2","pSARL_v2zygfrbby","631f6e0b69d34cd131d923f8","infreq_resp","img/green_2bandit_a.png","70","68","test","","","","2","",""
"null","194821","pSARL_v2","pSARL_v2zygfrbby","631f6e0b69d34cd131d923f8","fixation","img/fixation.png","null","","test","","","","","",""
"385.19999998807907","195212","pSARL_v2","pSARL_v2zygfrbby","631f6e0b69d34cd131d923f8","infreq","img/green_2bandit_a2.png","68","68","test","1","30","30","2","",""
"null","195648","pSARL_v2","pSARL_v2zygfrbby","631f6e0b69d34cd131d923f8","infreq_resp","img/green_2bandit_a.png","68","68","test","","","","2","",""
"null","195810","pSARL_v2","pSARL_v2zygfrbby","631f6e0b69d34cd131d923f8","fixation","img/fixation.png","null","","test","","","","","",""
"484.7000000476837","196301","pSARL_v2","pSARL_v2zygfrbby","631f6e0b69d34cd131d923f8","freq","img/orange_2bandit_a2.png","70","70","test","1","31","31","2","",""
"null","196625","pSARL_v2","pSARL_v2zygfrbby","631f6e0b69d34cd131d923f8","freq_resp","img/orange_2bandit_a.png","70","70","test","","","","2","",""
"null","196789","pSARL_v2","pSARL_v2zygfrbby","631f6e0b69d34cd131d923f8","fixation","img/fixation.png","null","","test","","","","","",""
"433","197229","pSARL_v2","pSARL_v2zygfrbby","631f6e0b69d34cd131d923f8","freq","img/orange_2bandit_a2.png","70","70","test","1","32","32","2","",""
"null","197605","pSARL_v2","pSARL_v2zygfrbby","631f6e0b69d34cd131d923f8","freq_resp","img/orange_2bandit_a.png","70","70","test","","","","2","",""
"null","197779","pSARL_v2","pSARL_v2zygfrbby","631f6e0b69d34cd131d923f8","fixation","img/fixation.png","null","","test","","","","","",""
"370.7999999523163","198153","pSARL_v2","pSARL_v2zygfrbby","631f6e0b69d34cd131d923f8","freq","img/orange_2bandit_a2.png","70","70","test","1","33","33","2","",""
"null","198594","pSARL_v2","pSARL_v2zygfrbby","631f6e0b69d34cd131d923f8","freq_resp","img/orange_2bandit_a.png","70","70","test","","","","2","",""
"null","198763","pSARL_v2","pSARL_v2zygfrbby","631f6e0b69d34cd131d923f8","fixation","img/fixation.png","null","","test","","","","","",""
"443.60000002384186","199211","pSARL_v2","pSARL_v2zygfrbby","631f6e0b69d34cd131d923f8","infreq","img/green_2bandit_a2.png","68","68","test","1","34","34","2","",""
"null","199577","pSARL_v2","pSARL_v2zygfrbby","631f6e0b69d34cd131d923f8","infreq_resp","img/green_2bandit_a.png","68","68","test","","","","2","",""
"null","199744","pSARL_v2","pSARL_v2zygfrbby","631f6e0b69d34cd131d923f8","fixation","img/fixation.png","null","","test","","","","","",""
"534.1000000238419","200284","pSARL_v2","pSARL_v2zygfrbby","631f6e0b69d34cd131d923f8","freq","img/orange_2bandit_a2.png","70","70","test","1","35","35","2","",""
"null","200558","pSARL_v2","pSARL_v2zygfrbby","631f6e0b69d34cd131d923f8","freq_resp","img/orange_2bandit_a.png","70","70","test","","","","2","",""
"null","200726","pSARL_v2","pSARL_v2zygfrbby","631f6e0b69d34cd131d923f8","fixation","img/fixation.png","null","","test","","","","","",""
"496.30000001192093","201228","pSARL_v2","pSARL_v2zygfrbby","631f6e0b69d34cd131d923f8","freq","img/orange_2bandit_a2.png","70","70","test","1","36","36","2","",""
"null","201549","pSARL_v2","pSARL_v2zygfrbby","631f6e0b69d34cd131d923f8","freq_resp","img/orange_2bandit_a.png","70","70","test","","","","2","",""
"null","201720","pSARL_v2","pSARL_v2zygfrbby","631f6e0b69d34cd131d923f8","fixation","img/fixation.png","null","","test","","","","","",""
"462.0999999642372","202189","pSARL_v2","pSARL_v2zygfrbby","631f6e0b69d34cd131d923f8","freq","img/orange_2bandit_a2.png","70","70","test","1","37","37","2","",""
"null","202535","pSARL_v2","pSARL_v2zygfrbby","631f6e0b69d34cd131d923f8","freq_resp","img/orange_2bandit_a.png","70","70","test","","","","2","",""
"null","202691","pSARL_v2","pSARL_v2zygfrbby","631f6e0b69d34cd131d923f8","fixation","img/fixation.png","null","","test","","","","","",""
"417.80000001192093","203113","pSARL_v2","pSARL_v2zygfrbby","631f6e0b69d34cd131d923f8","freq","img/orange_2bandit_a2.png","70","70","test","1","38","38","2","",""
"null","203500","pSARL_v2","pSARL_v2zygfrbby","631f6e0b69d34cd131d923f8","freq_resp","img/orange_2bandit_a.png","70","70","test","","","","2","",""
"null","203660","pSARL_v2","pSARL_v2zygfrbby","631f6e0b69d34cd131d923f8","fixation","img/fixation.png","null","","test","","","","","",""
"393.80000001192093","204062","pSARL_v2","pSARL_v2zygfrbby","631f6e0b69d34cd131d923f8","freq","img/orange_2bandit_a2.png","70","70","test","1","39","39","2","",""
"null","204486","pSARL_v2","pSARL_v2zygfrbby","631f6e0b69d34cd131d923f8","freq_resp","img/orange_2bandit_a.png","70","70","test","","","","2","",""
"null","204654","pSARL_v2","pSARL_v2zygfrbby","631f6e0b69d34cd131d923f8","fixation","img/fixation.png","null","","test","","","","","",""
"376.0999999642372","205036","pSARL_v2","pSARL_v2zygfrbby","631f6e0b69d34cd131d923f8","freq","img/orange_2bandit_a2.png","70","70","test","1","40","40","2","",""
"null","205467","pSARL_v2","pSARL_v2zygfrbby","631f6e0b69d34cd131d923f8","freq_resp","img/orange_2bandit_a.png","70","70","test","","","","2","",""
"null","205622","pSARL_v2","pSARL_v2zygfrbby","631f6e0b69d34cd131d923f8","fixation","img/fixation.png","null","","test","","","","","",""
"384.39999997615814","206015","pSARL_v2","pSARL_v2zygfrbby","631f6e0b69d34cd131d923f8","freq","img/orange_2bandit_a2.png","70","70","test","1","41","41","2","",""
"null","206439","pSARL_v2","pSARL_v2zygfrbby","631f6e0b69d34cd131d923f8","freq_resp","img/orange_2bandit_a.png","70","70","test","","","","2","",""
"null","206593","pSARL_v2","pSARL_v2zygfrbby","631f6e0b69d34cd131d923f8","fixation","img/fixation.png","null","","test","","","","","",""
"548.1999999880791","207145","pSARL_v2","pSARL_v2zygfrbby","631f6e0b69d34cd131d923f8","reward","img/slot.png","74","","test","","","","","",""
"null","207908","pSARL_v2","pSARL_v2zygfrbby","631f6e0b69d34cd131d923f8","points","<div class=""verylowPoints""> -11 </div>","null","na","test","","","","2","-11","1"
"null","208719","pSARL_v2","pSARL_v2zygfrbby","631f6e0b69d34cd131d923f8","freq","img/orange_2bandit_a2.png","null","70","test","0","42","42","3","",""
"null","208886","pSARL_v2","pSARL_v2zygfrbby","631f6e0b69d34cd131d923f8","fixation","img/fixation.png","null","","test","","","","","",""
"672.6999999880791","209565","pSARL_v2","pSARL_v2zygfrbby","631f6e0b69d34cd131d923f8","freq","img/orange_2bandit_a2.png","70","70","test","1","43","43","3","",""
"null","209704","pSARL_v2","pSARL_v2zygfrbby","631f6e0b69d34cd131d923f8","freq_resp","img/orange_2bandit_a.png","70","70","test","","","","3","",""
"null","209871","pSARL_v2","pSARL_v2zygfrbby","631f6e0b69d34cd131d923f8","fixation","img/fixation.png","null","","test","","","","","",""
"551.1999999880791","210428","pSARL_v2","pSARL_v2zygfrbby","631f6e0b69d34cd131d923f8","freq","img/orange_2bandit_a2.png","70","70","test","1","44","44","3","",""
"null","210692","pSARL_v2","pSARL_v2zygfrbby","631f6e0b69d34cd131d923f8","freq_resp","img/orange_2bandit_a.png","70","70","test","","","","3","",""
"null","210858","pSARL_v2","pSARL_v2zygfrbby","631f6e0b69d34cd131d923f8","fixation","img/fixation.png","null","","test","","","","","",""
"396.30000001192093","211261","pSARL_v2","pSARL_v2zygfrbby","631f6e0b69d34cd131d923f8","freq","img/orange_2bandit_a2.png","70","70","test","1","45","45","3","",""
"null","211679","pSARL_v2","pSARL_v2zygfrbby","631f6e0b69d34cd131d923f8","freq_resp","img/orange_2bandit_a.png","70","70","test","","","","3","",""
"null","211847","pSARL_v2","pSARL_v2zygfrbby","631f6e0b69d34cd131d923f8","fixation","img/fixation.png","null","","test","","","","","",""
"335.0999999642372","212188","pSARL_v2","pSARL_v2zygfrbby","631f6e0b69d34cd131d923f8","freq","img/orange_2bandit_a2.png","70","70","test","1","46","46","3","",""
"null","212662","pSARL_v2","pSARL_v2zygfrbby","631f6e0b69d34cd131d923f8","freq_resp","img/orange_2bandit_a.png","70","70","test","","","","3","",""
"null","212833","pSARL_v2","pSARL_v2zygfrbby","631f6e0b69d34cd131d923f8","fixation","img/fixation.png","null","","test","","","","","",""
"196","213034","pSARL_v2","pSARL_v2zygfrbby","631f6e0b69d34cd131d923f8","freq","img/orange_2bandit_a2.png","70","70","test","1","47","47","3","",""
"null","213653","pSARL_v2","pSARL_v2zygfrbby","631f6e0b69d34cd131d923f8","freq_resp","img/orange_2bandit_a.png","70","70","test","","","","3","",""
"null","213824","pSARL_v2","pSARL_v2zygfrbby","631f6e0b69d34cd131d923f8","fixation","img/fixation.png","null","","test","","","","","",""
"534.1000000238419","214363","pSARL_v2","pSARL_v2zygfrbby","631f6e0b69d34cd131d923f8","freq","img/orange_2bandit_a2.png","70","70","test","1","48","48","3","",""
"null","214632","pSARL_v2","pSARL_v2zygfrbby","631f6e0b69d34cd131d923f8","freq_resp","img/orange_2bandit_a.png","70","70","test","","","","3","",""
"null","214788","pSARL_v2","pSARL_v2zygfrbby","631f6e0b69d34cd131d923f8","fixation","img/fixation.png","null","","test","","","","","",""
"370","215165","pSARL_v2","pSARL_v2zygfrbby","631f6e0b69d34cd131d923f8","freq","img/orange_2bandit_a2.png","70","70","test","1","49","49","3","",""
"null","215605","pSARL_v2","pSARL_v2zygfrbby","631f6e0b69d34cd131d923f8","freq_resp","img/orange_2bandit_a.png","70","70","test","","","","3","",""
"null","215773","pSARL_v2","pSARL_v2zygfrbby","631f6e0b69d34cd131d923f8","fixation","img/fixation.png","null","","test","","","","","",""
"409.80000001192093","216188","pSARL_v2","pSARL_v2zygfrbby","631f6e0b69d34cd131d923f8","freq","img/orange_2bandit_a2.png","70","70","test","1","50","50","3","",""
"null","216601","pSARL_v2","pSARL_v2zygfrbby","631f6e0b69d34cd131d923f8","freq_resp","img/orange_2bandit_a.png","70","70","test","","","","3","",""
"null","216770","pSARL_v2","pSARL_v2zygfrbby","631f6e0b69d34cd131d923f8","fixation","img/fixation.png","null","","test","","","","","",""
"292.39999997615814","217068","pSARL_v2","pSARL_v2zygfrbby","631f6e0b69d34cd131d923f8","freq","img/orange_2bandit_a2.png","70","70","test","1","51","51","3","",""
"null","217590","pSARL_v2","pSARL_v2zygfrbby","631f6e0b69d34cd131d923f8","freq_resp","img/orange_2bandit_a.png","70","70","test","","","","3","",""
"null","217760","pSARL_v2","pSARL_v2zygfrbby","631f6e0b69d34cd131d923f8","fixation","img/fixation.png","null","","test","","","","","",""
"326.80000001192093","218095","pSARL_v2","pSARL_v2zygfrbby","631f6e0b69d34cd131d923f8","freq","img/orange_2bandit_a2.png","70","70","test","1","52","52","3","",""
"null","218587","pSARL_v2","pSARL_v2zygfrbby","631f6e0b69d34cd131d923f8","freq_resp","img/orange_2bandit_a.png","70","70","test","","","","3","",""
"null","218754","pSARL_v2","pSARL_v2zygfrbby","631f6e0b69d34cd131d923f8","fixation","img/fixation.png","null","","test","","","","","",""
"260","219021","pSARL_v2","pSARL_v2zygfrbby","631f6e0b69d34cd131d923f8","freq","img/orange_2bandit_a2.png","70","70","test","1","53","53","3","",""
"null","219576","pSARL_v2","pSARL_v2zygfrbby","631f6e0b69d34cd131d923f8","freq_resp","img/orange_2bandit_a.png","70","70","test","","","","3","",""
"null","219745","pSARL_v2","pSARL_v2zygfrbby","631f6e0b69d34cd131d923f8","fixation","img/fixation.png","null","","test","","","","","",""
"212.30000001192093","219966","pSARL_v2","pSARL_v2zygfrbby","631f6e0b69d34cd131d923f8","infreq","img/green_2bandit_a2.png","70","68","test","0","54","54","3","",""
"null","220564","pSARL_v2","pSARL_v2zygfrbby","631f6e0b69d34cd131d923f8","infreq_resp","img/green_2bandit_a.png","70","68","test","","","","3","",""
"null","220730","pSARL_v2","pSARL_v2zygfrbby","631f6e0b69d34cd131d923f8","fixation","img/fixation.png","null","","test","","","","","",""
"331.60000002384186","221066","pSARL_v2","pSARL_v2zygfrbby","631f6e0b69d34cd131d923f8","infreq","img/green_2bandit_a2.png","68","68","test","1","55","55","3","",""
"null","221544","pSARL_v2","pSARL_v2zygfrbby","631f6e0b69d34cd131d923f8","infreq_resp","img/green_2bandit_a.png","68","68","test","","","","3","",""
"null","221714","pSARL_v2","pSARL_v2zygfrbby","631f6e0b69d34cd131d923f8","fixation","img/fixation.png","null","","test","","","","","",""
"532.3999999761581","222250","pSARL_v2","pSARL_v2zygfrbby","631f6e0b69d34cd131d923f8","freq","img/orange_2bandit_a2.png","70","70","test","1","56","56","3","",""
"null","222528","pSARL_v2","pSARL_v2zygfrbby","631f6e0b69d34cd131d923f8","freq_resp","img/orange_2bandit_a.png","70","70","test","","","","3","",""
"null","222696","pSARL_v2","pSARL_v2zygfrbby","631f6e0b69d34cd131d923f8","fixation","img/fixation.png","null","","test","","","","","",""
"413.5","223113","pSARL_v2","pSARL_v2zygfrbby","631f6e0b69d34cd131d923f8","freq","img/orange_2bandit_a2.png","70","70","test","1","57","57","3","",""
"null","223509","pSARL_v2","pSARL_v2zygfrbby","631f6e0b69d34cd131d923f8","freq_resp","img/orange_2bandit_a.png","70","70","test","","","","3","",""
"null","223679","pSARL_v2","pSARL_v2zygfrbby","631f6e0b69d34cd131d923f8","fixation","img/fixation.png","null","","test","","","","","",""
"470.80000001192093","224155","pSARL_v2","pSARL_v2zygfrbby","631f6e0b69d34cd131d923f8","infreq","img/green_2bandit_a2.png","68","68","test","1","58","58","3","",""
"null","224505","pSARL_v2","pSARL_v2zygfrbby","631f6e0b69d34cd131d923f8","infreq_resp","img/green_2bandit_a.png","68","68","test","","","","3","",""
"null","224675","pSARL_v2","pSARL_v2zygfrbby","631f6e0b69d34cd131d923f8","fixation","img/fixation.png","null","","test","","","","","",""
"406.5999999642372","225090","pSARL_v2","pSARL_v2zygfrbby","631f6e0b69d34cd131d923f8","freq","img/orange_2bandit_a2.png","70","70","test","1","59","59","3","",""
"null","225498","pSARL_v2","pSARL_v2zygfrbby","631f6e0b69d34cd131d923f8","freq_resp","img/orange_2bandit_a.png","70","70","test","","","","3","",""
"null","225654","pSARL_v2","pSARL_v2zygfrbby","631f6e0b69d34cd131d923f8","fixation","img/fixation.png","null","","test","","","","","",""
"400.69999998807907","226061","pSARL_v2","pSARL_v2zygfrbby","631f6e0b69d34cd131d923f8","freq","img/orange_2bandit_a2.png","70","70","test","1","60","60","3","",""
"null","226479","pSARL_v2","pSARL_v2zygfrbby","631f6e0b69d34cd131d923f8","freq_resp","img/orange_2bandit_a.png","70","70","test","","","","3","",""
"null","226651","pSARL_v2","pSARL_v2zygfrbby","631f6e0b69d34cd131d923f8","fixation","img/fixation.png","null","","test","","","","","",""
"458.89999997615814","227117","pSARL_v2","pSARL_v2zygfrbby","631f6e0b69d34cd131d923f8","freq","img/orange_2bandit_a2.png","70","70","test","1","61","61","3","",""
"null","227467","pSARL_v2","pSARL_v2zygfrbby","631f6e0b69d34cd131d923f8","freq_resp","img/orange_2bandit_a.png","70","70","test","","","","3","",""
"null","227623","pSARL_v2","pSARL_v2zygfrbby","631f6e0b69d34cd131d923f8","fixation","img/fixation.png","null","","test","","","","","",""
"415.10000002384186","228046","pSARL_v2","pSARL_v2zygfrbby","631f6e0b69d34cd131d923f8","freq","img/orange_2bandit_a2.png","70","70","test","1","62","62","3","",""
"null","228435","pSARL_v2","pSARL_v2zygfrbby","631f6e0b69d34cd131d923f8","freq_resp","img/orange_2bandit_a.png","70","70","test","","","","3","",""
"null","228589","pSARL_v2","pSARL_v2zygfrbby","631f6e0b69d34cd131d923f8","fixation","img/fixation.png","null","","test","","","","","",""
"538.1999999880791","229131","pSARL_v2","pSARL_v2zygfrbby","631f6e0b69d34cd131d923f8","reward","img/slot.png","74","","test","","","","","",""
"null","229894","pSARL_v2","pSARL_v2zygfrbby","631f6e0b69d34cd131d923f8","points","<div class=""verylowPoints""> -7 </div>","null","na","test","","","","3","-7","2"
"464.19999998807907","230364","pSARL_v2","pSARL_v2zygfrbby","631f6e0b69d34cd131d923f8","freq","img/orange_2bandit_a2.png","70","70","test","1","63","63","4","",""
"null","230709","pSARL_v2","pSARL_v2zygfrbby","631f6e0b69d34cd131d923f8","freq_resp","img/orange_2bandit_a.png","70","70","test","","","","4","",""
"null","230880","pSARL_v2","pSARL_v2zygfrbby","631f6e0b69d34cd131d923f8","fixation","img/fixation.png","null","","test","","","","","",""
"374.19999998807907","231258","pSARL_v2","pSARL_v2zygfrbby","631f6e0b69d34cd131d923f8","freq","img/orange_2bandit_a2.png","70","70","test","1","64","64","4","",""
"null","231700","pSARL_v2","pSARL_v2zygfrbby","631f6e0b69d34cd131d923f8","freq_resp","img/orange_2bandit_a.png","70","70","test","","","","4","",""
"null","231866","pSARL_v2","pSARL_v2zygfrbby","631f6e0b69d34cd131d923f8","fixation","img/fixation.png","null","","test","","","","","",""
"140.39999997615814","232014","pSARL_v2","pSARL_v2zygfrbby","631f6e0b69d34cd131d923f8","freq","img/orange_2bandit_a2.png","70","70","test","1","65","65","4","",""
"null","232684","pSARL_v2","pSARL_v2zygfrbby","631f6e0b69d34cd131d923f8","freq_resp","img/orange_2bandit_a.png","70","70","test","","","","4","",""
"null","232868","pSARL_v2","pSARL_v2zygfrbby","631f6e0b69d34cd131d923f8","fixation","img/fixation.png","null","","test","","","","","",""
"98.39999997615814","232973","pSARL_v2","pSARL_v2zygfrbby","631f6e0b69d34cd131d923f8","freq","img/orange_2bandit_a2.png","70","70","test","1","66","66","4","",""
"null","233687","pSARL_v2","pSARL_v2zygfrbby","631f6e0b69d34cd131d923f8","freq_resp","img/orange_2bandit_a.png","70","70","test","","","","4","",""
"null","233859","pSARL_v2","pSARL_v2zygfrbby","631f6e0b69d34cd131d923f8","fixation","img/fixation.png","null","","test","","","","","",""
"114.70000004768372","233983","pSARL_v2","pSARL_v2zygfrbby","631f6e0b69d34cd131d923f8","freq","img/orange_2bandit_a2.png","70","70","test","1","67","67","4","",""
"null","234686","pSARL_v2","pSARL_v2zygfrbby","631f6e0b69d34cd131d923f8","freq_resp","img/orange_2bandit_a.png","70","70","test","","","","4","",""
"null","234856","pSARL_v2","pSARL_v2zygfrbby","631f6e0b69d34cd131d923f8","fixation","img/fixation.png","null","","test","","","","","",""
"141.5999999642372","235001","pSARL_v2","pSARL_v2zygfrbby","631f6e0b69d34cd131d923f8","freq","img/orange_2bandit_a2.png","70","70","test","1","68","68","4","",""
"null","235665","pSARL_v2","pSARL_v2zygfrbby","631f6e0b69d34cd131d923f8","freq_resp","img/orange_2bandit_a.png","70","70","test","","","","4","",""
"null","235825","pSARL_v2","pSARL_v2zygfrbby","631f6e0b69d34cd131d923f8","fixation","img/fixation.png","null","","test","","","","","",""
"276.0999999642372","236106","pSARL_v2","pSARL_v2zygfrbby","631f6e0b69d34cd131d923f8","infreq","img/green_2bandit_a2.png","70","68","test","0","69","69","4","",""
"null","236648","pSARL_v2","pSARL_v2zygfrbby","631f6e0b69d34cd131d923f8","infreq_resp","img/green_2bandit_a.png","70","68","test","","","","4","",""
"null","236818","pSARL_v2","pSARL_v2zygfrbby","631f6e0b69d34cd131d923f8","fixation","img/fixation.png","null","","test","","","","","",""
"515.3000000119209","237337","pSARL_v2","pSARL_v2zygfrbby","631f6e0b69d34cd131d923f8","freq","img/orange_2bandit_a2.png","70","70","test","1","70","70","4","",""
"null","237635","pSARL_v2","pSARL_v2zygfrbby","631f6e0b69d34cd131d923f8","freq_resp","img/orange_2bandit_a.png","70","70","test","","","","4","",""
"null","237800","pSARL_v2","pSARL_v2zygfrbby","631f6e0b69d34cd131d923f8","fixation","img/fixation.png","null","","test","","","","","",""
"414.19999998807907","238222","pSARL_v2","pSARL_v2zygfrbby","631f6e0b69d34cd131d923f8","infreq","img/green_2bandit_a2.png","68","68","test","1","71","71","4","",""
"null","238614","pSARL_v2","pSARL_v2zygfrbby","631f6e0b69d34cd131d923f8","infreq_resp","img/green_2bandit_a.png","68","68","test","","","","4","",""
"null","238773","pSARL_v2","pSARL_v2zygfrbby","631f6e0b69d34cd131d923f8","fixation","img/fixation.png","null","","test","","","","","",""
"385.9000000357628","239165","pSARL_v2","pSARL_v2zygfrbby","631f6e0b69d34cd131d923f8","freq","img/orange_2bandit_a2.png","68","70","test","0","72","72","4","",""
"null","239588","pSARL_v2","pSARL_v2zygfrbby","631f6e0b69d34cd131d923f8","freq_resp","img/orange_2bandit_a.png","68","70","test","","","","4","",""
"null","239756","pSARL_v2","pSARL_v2zygfrbby","631f6e0b69d34cd131d923f8","fixation","img/fixation.png","null","","test","","","","","",""
"538.8999999761581","240301","pSARL_v2","pSARL_v2zygfrbby","631f6e0b69d34cd131d923f8","freq","img/orange_2bandit_a2.png","70","70","test","1","73","73","4","",""
"null","240568","pSARL_v2","pSARL_v2zygfrbby","631f6e0b69d34cd131d923f8","freq_resp","img/orange_2bandit_a.png","70","70","test","","","","4","",""
"null","240737","pSARL_v2","pSARL_v2zygfrbby","631f6e0b69d34cd131d923f8","fixation","img/fixation.png","null","","test","","","","","",""
"438","241183","pSARL_v2","pSARL_v2zygfrbby","631f6e0b69d34cd131d923f8","freq","img/orange_2bandit_a2.png","70","70","test","1","74","74","4","",""
"null","241556","pSARL_v2","pSARL_v2zygfrbby","631f6e0b69d34cd131d923f8","freq_resp","img/orange_2bandit_a.png","70","70","test","","","","4","",""
"null","241724","pSARL_v2","pSARL_v2zygfrbby","631f6e0b69d34cd131d923f8","fixation","img/fixation.png","null","","test","","","","","",""
"361.30000001192093","242090","pSARL_v2","pSARL_v2zygfrbby","631f6e0b69d34cd131d923f8","freq","img/orange_2bandit_a2.png","70","70","test","1","75","75","4","",""
"null","242538","pSARL_v2","pSARL_v2zygfrbby","631f6e0b69d34cd131d923f8","freq_resp","img/orange_2bandit_a.png","70","70","test","","","","4","",""
"null","242708","pSARL_v2","pSARL_v2zygfrbby","631f6e0b69d34cd131d923f8","fixation","img/fixation.png","null","","test","","","","","",""
"354.10000002384186","243069","pSARL_v2","pSARL_v2zygfrbby","631f6e0b69d34cd131d923f8","freq","img/orange_2bandit_a2.png","70","70","test","1","76","76","4","",""
"null","243520","pSARL_v2","pSARL_v2zygfrbby","631f6e0b69d34cd131d923f8","freq_resp","img/orange_2bandit_a.png","70","70","test","","","","4","",""
"null","243690","pSARL_v2","pSARL_v2zygfrbby","631f6e0b69d34cd131d923f8","fixation","img/fixation.png","null","","test","","","","","",""
"316.19999998807907","244013","pSARL_v2","pSARL_v2zygfrbby","631f6e0b69d34cd131d923f8","freq","img/orange_2bandit_a2.png","70","70","test","1","77","77","4","",""
"null","244501","pSARL_v2","pSARL_v2zygfrbby","631f6e0b69d34cd131d923f8","freq_resp","img/orange_2bandit_a.png","70","70","test","","","","4","",""
"null","244671","pSARL_v2","pSARL_v2zygfrbby","631f6e0b69d34cd131d923f8","fixation","img/fixation.png","null","","test","","","","","",""
"358.39999997615814","245033","pSARL_v2","pSARL_v2zygfrbby","631f6e0b69d34cd131d923f8","freq","img/orange_2bandit_a2.png","70","70","test","1","78","78","4","",""
"null","245483","pSARL_v2","pSARL_v2zygfrbby","631f6e0b69d34cd131d923f8","freq_resp","img/orange_2bandit_a.png","70","70","test","","","","4","",""
"null","245652","pSARL_v2","pSARL_v2zygfrbby","631f6e0b69d34cd131d923f8","fixation","img/fixation.png","null","","test","","","","","",""
"370.39999997615814","246029","pSARL_v2","pSARL_v2zygfrbby","631f6e0b69d34cd131d923f8","freq","img/orange_2bandit_a2.png","70","70","test","1","79","79","4","",""
"null","246471","pSARL_v2","pSARL_v2zygfrbby","631f6e0b69d34cd131d923f8","freq_resp","img/orange_2bandit_a.png","70","70","test","","","","4","",""
"null","246638","pSARL_v2","pSARL_v2zygfrbby","631f6e0b69d34cd131d923f8","fixation","img/fixation.png","null","","test","","","","","",""
"327.80000001192093","246973","pSARL_v2","pSARL_v2zygfrbby","631f6e0b69d34cd131d923f8","freq","img/orange_2bandit_a2.png","70","70","test","1","80","80","4","",""
"null","247455","pSARL_v2","pSARL_v2zygfrbby","631f6e0b69d34cd131d923f8","freq_resp","img/orange_2bandit_a.png","70","70","test","","","","4","",""
"null","247622","pSARL_v2","pSARL_v2zygfrbby","631f6e0b69d34cd131d923f8","fixation","img/fixation.png","null","","test","","","","","",""
"319.5","247948","pSARL_v2","pSARL_v2zygfrbby","631f6e0b69d34cd131d923f8","freq","img/orange_2bandit_a2.png","70","70","test","1","81","81","4","",""
"null","248436","pSARL_v2","pSARL_v2zygfrbby","631f6e0b69d34cd131d923f8","freq_resp","img/orange_2bandit_a.png","70","70","test","","","","4","",""
"null","248605","pSARL_v2","pSARL_v2zygfrbby","631f6e0b69d34cd131d923f8","fixation","img/fixation.png","null","","test","","","","","",""
"329.9000000357628","248941","pSARL_v2","pSARL_v2zygfrbby","631f6e0b69d34cd131d923f8","freq","img/orange_2bandit_a2.png","70","70","test","1","82","82","4","",""
"null","249419","pSARL_v2","pSARL_v2zygfrbby","631f6e0b69d34cd131d923f8","freq_resp","img/orange_2bandit_a.png","70","70","test","","","","4","",""
"null","249574","pSARL_v2","pSARL_v2zygfrbby","631f6e0b69d34cd131d923f8","fixation","img/fixation.png","null","","test","","","","","",""
"352.80000001192093","249933","pSARL_v2","pSARL_v2zygfrbby","631f6e0b69d34cd131d923f8","freq","img/orange_2bandit_a2.png","70","70","test","1","83","83","4","",""
"null","250388","pSARL_v2","pSARL_v2zygfrbby","631f6e0b69d34cd131d923f8","freq_resp","img/orange_2bandit_a.png","70","70","test","","","","4","",""
"null","250556","pSARL_v2","pSARL_v2zygfrbby","631f6e0b69d34cd131d923f8","fixation","img/fixation.png","null","","test","","","","","",""
"490.39999997615814","251055","pSARL_v2","pSARL_v2zygfrbby","631f6e0b69d34cd131d923f8","infreq","img/green_2bandit_a2.png","68","68","test","1","84","84","4","",""
"null","251373","pSARL_v2","pSARL_v2zygfrbby","631f6e0b69d34cd131d923f8","infreq_resp","img/green_2bandit_a.png","68","68","test","","","","4","",""
"null","251542","pSARL_v2","pSARL_v2zygfrbby","631f6e0b69d34cd131d923f8","fixation","img/fixation.png","null","","test","","","","","",""
"415.89999997615814","251961","pSARL_v2","pSARL_v2zygfrbby","631f6e0b69d34cd131d923f8","freq","img/orange_2bandit_a2.png","70","70","test","1","85","85","4","",""
"null","252356","pSARL_v2","pSARL_v2zygfrbby","631f6e0b69d34cd131d923f8","freq_resp","img/orange_2bandit_a.png","70","70","test","","","","4","",""
"null","252523","pSARL_v2","pSARL_v2zygfrbby","631f6e0b69d34cd131d923f8","fixation","img/fixation.png","null","","test","","","","","",""
"411.39999997615814","252938","pSARL_v2","pSARL_v2zygfrbby","631f6e0b69d34cd131d923f8","freq","img/orange_2bandit_a2.png","70","70","test","1","86","86","4","",""
"null","253340","pSARL_v2","pSARL_v2zygfrbby","631f6e0b69d34cd131d923f8","freq_resp","img/orange_2bandit_a.png","70","70","test","","","","4","",""
"null","253496","pSARL_v2","pSARL_v2zygfrbby","631f6e0b69d34cd131d923f8","fixation","img/fixation.png","null","","test","","","","","",""
"381.89999997615814","253885","pSARL_v2","pSARL_v2zygfrbby","631f6e0b69d34cd131d923f8","freq","img/orange_2bandit_a2.png","70","70","test","1","87","87","4","",""
"null","254323","pSARL_v2","pSARL_v2zygfrbby","631f6e0b69d34cd131d923f8","freq_resp","img/orange_2bandit_a.png","70","70","test","","","","4","",""
"null","254492","pSARL_v2","pSARL_v2zygfrbby","631f6e0b69d34cd131d923f8","fixation","img/fixation.png","null","","test","","","","","",""
"378.5","254876","pSARL_v2","pSARL_v2zygfrbby","631f6e0b69d34cd131d923f8","freq","img/orange_2bandit_a2.png","70","70","test","1","88","88","4","",""
"null","255315","pSARL_v2","pSARL_v2zygfrbby","631f6e0b69d34cd131d923f8","freq_resp","img/orange_2bandit_a.png","70","70","test","","","","4","",""
"null","255487","pSARL_v2","pSARL_v2zygfrbby","631f6e0b69d34cd131d923f8","fixation","img/fixation.png","null","","test","","","","","",""
"358.69999998807907","255853","pSARL_v2","pSARL_v2zygfrbby","631f6e0b69d34cd131d923f8","freq","img/orange_2bandit_a2.png","70","70","test","1","89","89","4","",""
"null","256300","pSARL_v2","pSARL_v2zygfrbby","631f6e0b69d34cd131d923f8","freq_resp","img/orange_2bandit_a.png","70","70","test","","","","4","",""
"null","256469","pSARL_v2","pSARL_v2zygfrbby","631f6e0b69d34cd131d923f8","fixation","img/fixation.png","null","","test","","","","","",""
"609.1999999880791","257082","pSARL_v2","pSARL_v2zygfrbby","631f6e0b69d34cd131d923f8","reward","img/slot.png","74","","test","","","","","",""
"null","257837","pSARL_v2","pSARL_v2zygfrbby","631f6e0b69d34cd131d923f8","points","<div class=""verylowPoints""> -3 </div>","null","na","test","","","","4","-3","3"
"473.19999998807907","258319","pSARL_v2","pSARL_v2zygfrbby","631f6e0b69d34cd131d923f8","freq","img/orange_2bandit_a2.png","70","70","test","1","90","90","5","",""
"null","258665","pSARL_v2","pSARL_v2zygfrbby","631f6e0b69d34cd131d923f8","freq_resp","img/orange_2bandit_a.png","70","70","test","","","","5","",""
"null","258837","pSARL_v2","pSARL_v2zygfrbby","631f6e0b69d34cd131d923f8","fixation","img/fixation.png","null","","test","","","","","",""
"369.60000002384186","259213","pSARL_v2","pSARL_v2zygfrbby","631f6e0b69d34cd131d923f8","freq","img/orange_2bandit_a2.png","70","70","test","1","91","91","5","",""
"null","259654","pSARL_v2","pSARL_v2zygfrbby","631f6e0b69d34cd131d923f8","freq_resp","img/orange_2bandit_a.png","70","70","test","","","","5","",""
"null","259820","pSARL_v2","pSARL_v2zygfrbby","631f6e0b69d34cd131d923f8","fixation","img/fixation.png","null","","test","","","","","",""
"329.9000000357628","260156","pSARL_v2","pSARL_v2zygfrbby","631f6e0b69d34cd131d923f8","freq","img/orange_2bandit_a2.png","70","70","test","1","92","92","5","",""
"null","260640","pSARL_v2","pSARL_v2zygfrbby","631f6e0b69d34cd131d923f8","freq_resp","img/orange_2bandit_a.png","70","70","test","","","","5","",""
"null","260806","pSARL_v2","pSARL_v2zygfrbby","631f6e0b69d34cd131d923f8","fixation","img/fixation.png","null","","test","","","","","",""
"322.89999997615814","261133","pSARL_v2","pSARL_v2zygfrbby","631f6e0b69d34cd131d923f8","freq","img/orange_2bandit_a2.png","70","70","test","1","93","93","5","",""
"null","261621","pSARL_v2","pSARL_v2zygfrbby","631f6e0b69d34cd131d923f8","freq_resp","img/orange_2bandit_a.png","70","70","test","","","","5","",""
"null","261779","pSARL_v2","pSARL_v2zygfrbby","631f6e0b69d34cd131d923f8","fixation","img/fixation.png","null","","test","","","","","",""
"307.5","262093","pSARL_v2","pSARL_v2zygfrbby","631f6e0b69d34cd131d923f8","freq","img/orange_2bandit_a2.png","70","70","test","1","94","94","5","",""
"null","262595","pSARL_v2","pSARL_v2zygfrbby","631f6e0b69d34cd131d923f8","freq_resp","img/orange_2bandit_a.png","70","70","test","","","","5","",""
"null","262767","pSARL_v2","pSARL_v2zygfrbby","631f6e0b69d34cd131d923f8","fixation","img/fixation.png","null","","test","","","","","",""
"278.5999999642372","263053","pSARL_v2","pSARL_v2zygfrbby","631f6e0b69d34cd131d923f8","infreq","img/green_2bandit_a2.png","70","68","test","0","95","95","5","",""
"null","263593","pSARL_v2","pSARL_v2zygfrbby","631f6e0b69d34cd131d923f8","infreq_resp","img/green_2bandit_a.png","70","68","test","","","","5","",""
"null","263762","pSARL_v2","pSARL_v2zygfrbby","631f6e0b69d34cd131d923f8","fixation","img/fixation.png","null","","test","","","","","",""
"452.10000002384186","264218","pSARL_v2","pSARL_v2zygfrbby","631f6e0b69d34cd131d923f8","freq","img/orange_2bandit_a2.png","70","70","test","1","96","96","5","",""
"null","264577","pSARL_v2","pSARL_v2zygfrbby","631f6e0b69d34cd131d923f8","freq_resp","img/orange_2bandit_a.png","70","70","test","","","","5","",""
"null","264734","pSARL_v2","pSARL_v2zygfrbby","631f6e0b69d34cd131d923f8","fixation","img/fixation.png","null","","test","","","","","",""
"408.2000000476837","265149","pSARL_v2","pSARL_v2zygfrbby","631f6e0b69d34cd131d923f8","freq","img/orange_2bandit_a2.png","70","70","test","1","97","97","5","",""
"null","265548","pSARL_v2","pSARL_v2zygfrbby","631f6e0b69d34cd131d923f8","freq_resp","img/orange_2bandit_a.png","70","70","test","","","","5","",""
"null","265715","pSARL_v2","pSARL_v2zygfrbby","631f6e0b69d34cd131d923f8","fixation","img/fixation.png","null","","test","","","","","",""
"355.30000001192093","266074","pSARL_v2","pSARL_v2zygfrbby","631f6e0b69d34cd131d923f8","freq","img/orange_2bandit_a2.png","70","70","test","1","98","98","5","",""
"null","266527","pSARL_v2","pSARL_v2zygfrbby","631f6e0b69d34cd131d923f8","freq_resp","img/orange_2bandit_a.png","70","70","test","","","","5","",""
"null","266684","pSARL_v2","pSARL_v2zygfrbby","631f6e0b69d34cd131d923f8","fixation","img/fixation.png","null","","test","","","","","",""
"444.5","267137","pSARL_v2","pSARL_v2zygfrbby","631f6e0b69d34cd131d923f8","freq","img/orange_2bandit_a2.png","70","70","test","1","99","99","5","",""
"null","267513","pSARL_v2","pSARL_v2zygfrbby","631f6e0b69d34cd131d923f8","freq_resp","img/orange_2bandit_a.png","70","70","test","","","","5","",""
"null","267679","pSARL_v2","pSARL_v2zygfrbby","631f6e0b69d34cd131d923f8","fixation","img/fixation.png","null","","test","","","","","",""
"506.60000002384186","268192","pSARL_v2","pSARL_v2zygfrbby","631f6e0b69d34cd131d923f8","freq","img/orange_2bandit_a2.png","70","70","test","1","100","100","5","",""
"null","268500","pSARL_v2","pSARL_v2zygfrbby","631f6e0b69d34cd131d923f8","freq_resp","img/orange_2bandit_a.png","70","70","test","","","","5","",""
"null","268669","pSARL_v2","pSARL_v2zygfrbby","631f6e0b69d34cd131d923f8","fixation","img/fixation.png","null","","test","","","","","",""
"570","269245","pSARL_v2","pSARL_v2zygfrbby","631f6e0b69d34cd131d923f8","freq","img/orange_2bandit_a2.png","70","70","test","1","101","101","5","",""
"null","269483","pSARL_v2","pSARL_v2zygfrbby","631f6e0b69d34cd131d923f8","freq_resp","img/orange_2bandit_a.png","70","70","test","","","","5","",""
"null","269650","pSARL_v2","pSARL_v2zygfrbby","631f6e0b69d34cd131d923f8","fixation","img/fixation.png","null","","test","","","","","",""
"469.10000002384186","270125","pSARL_v2","pSARL_v2zygfrbby","631f6e0b69d34cd131d923f8","freq","img/orange_2bandit_a2.png","70","70","test","1","102","102","5","",""
"null","270467","pSARL_v2","pSARL_v2zygfrbby","631f6e0b69d34cd131d923f8","freq_resp","img/orange_2bandit_a.png","70","70","test","","","","5","",""
"null","270623","pSARL_v2","pSARL_v2zygfrbby","631f6e0b69d34cd131d923f8","fixation","img/fixation.png","null","","test","","","","","",""
"487.89999997615814","271118","pSARL_v2","pSARL_v2zygfrbby","631f6e0b69d34cd131d923f8","infreq","img/green_2bandit_a2.png","68","68","test","1","103","103","5","",""
"null","271440","pSARL_v2","pSARL_v2zygfrbby","631f6e0b69d34cd131d923f8","infreq_resp","img/green_2bandit_a.png","68","68","test","","","","5","",""
"null","271600","pSARL_v2","pSARL_v2zygfrbby","631f6e0b69d34cd131d923f8","fixation","img/fixation.png","null","","test","","","","","",""
"423.10000002384186","272030","pSARL_v2","pSARL_v2zygfrbby","631f6e0b69d34cd131d923f8","freq","img/orange_2bandit_a2.png","70","70","test","1","104","104","5","",""
"null","272416","pSARL_v2","pSARL_v2zygfrbby","631f6e0b69d34cd131d923f8","freq_resp","img/orange_2bandit_a.png","70","70","test","","","","5","",""
"null","272585","pSARL_v2","pSARL_v2zygfrbby","631f6e0b69d34cd131d923f8","fixation","img/fixation.png","null","","test","","","","","",""
"396.2999999523163","272986","pSARL_v2","pSARL_v2zygfrbby","631f6e0b69d34cd131d923f8","freq","img/orange_2bandit_a2.png","70","70","test","1","105","105","5","",""
"null","273402","pSARL_v2","pSARL_v2zygfrbby","631f6e0b69d34cd131d923f8","freq_resp","img/orange_2bandit_a.png","70","70","test","","","","5","",""
"null","273570","pSARL_v2","pSARL_v2zygfrbby","631f6e0b69d34cd131d923f8","fixation","img/fixation.png","null","","test","","","","","",""
"420.69999998807907","273997","pSARL_v2","pSARL_v2zygfrbby","631f6e0b69d34cd131d923f8","freq","img/orange_2bandit_a2.png","70","70","test","1","106","106","5","",""
"null","274389","pSARL_v2","pSARL_v2zygfrbby","631f6e0b69d34cd131d923f8","freq_resp","img/orange_2bandit_a.png","70","70","test","","","","5","",""
"null","274558","pSARL_v2","pSARL_v2zygfrbby","631f6e0b69d34cd131d923f8","fixation","img/fixation.png","null","","test","","","","","",""
"376.4000000357628","274941","pSARL_v2","pSARL_v2zygfrbby","631f6e0b69d34cd131d923f8","freq","img/orange_2bandit_a2.png","70","70","test","1","107","107","5","",""
"null","275374","pSARL_v2","pSARL_v2zygfrbby","631f6e0b69d34cd131d923f8","freq_resp","img/orange_2bandit_a.png","70","70","test","","","","5","",""
"null","275534","pSARL_v2","pSARL_v2zygfrbby","631f6e0b69d34cd131d923f8","fixation","img/fixation.png","null","","test","","","","","",""
"346.80000001192093","275886","pSARL_v2","pSARL_v2zygfrbby","631f6e0b69d34cd131d923f8","freq","img/orange_2bandit_a2.png","70","70","test","1","108","108","5","",""
"null","276354","pSARL_v2","pSARL_v2zygfrbby","631f6e0b69d34cd131d923f8","freq_resp","img/orange_2bandit_a.png","70","70","test","","","","5","",""
"null","276521","pSARL_v2","pSARL_v2zygfrbby","631f6e0b69d34cd131d923f8","fixation","img/fixation.png","null","","test","","","","","",""
"364.5","276892","pSARL_v2","pSARL_v2zygfrbby","631f6e0b69d34cd131d923f8","freq","img/orange_2bandit_a2.png","70","70","test","1","109","109","5","",""
"null","277345","pSARL_v2","pSARL_v2zygfrbby","631f6e0b69d34cd131d923f8","freq_resp","img/orange_2bandit_a.png","70","70","test","","","","5","",""
"null","277512","pSARL_v2","pSARL_v2zygfrbby","631f6e0b69d34cd131d923f8","fixation","img/fixation.png","null","","test","","","","","",""
"237.69999998807907","277753","pSARL_v2","pSARL_v2zygfrbby","631f6e0b69d34cd131d923f8","freq","img/orange_2bandit_a2.png","70","70","test","1","110","110","5","",""
"null","278325","pSARL_v2","pSARL_v2zygfrbby","631f6e0b69d34cd131d923f8","freq_resp","img/orange_2bandit_a.png","70","70","test","","","","5","",""
"null","278479","pSARL_v2","pSARL_v2zygfrbby","631f6e0b69d34cd131d923f8","fixation","img/fixation.png","null","","test","","","","","",""
"183.5","278667","pSARL_v2","pSARL_v2zygfrbby","631f6e0b69d34cd131d923f8","freq","img/orange_2bandit_a2.png","70","70","test","1","111","111","5","",""
"null","279292","pSARL_v2","pSARL_v2zygfrbby","631f6e0b69d34cd131d923f8","freq_resp","img/orange_2bandit_a.png","70","70","test","","","","5","",""
"null","279450","pSARL_v2","pSARL_v2zygfrbby","631f6e0b69d34cd131d923f8","fixation","img/fixation.png","null","","test","","","","","",""
"221.60000002384186","279680","pSARL_v2","pSARL_v2zygfrbby","631f6e0b69d34cd131d923f8","freq","img/orange_2bandit_a2.png","70","70","test","1","112","112","5","",""
"null","280272","pSARL_v2","pSARL_v2zygfrbby","631f6e0b69d34cd131d923f8","freq_resp","img/orange_2bandit_a.png","70","70","test","","","","5","",""
"null","280428","pSARL_v2","pSARL_v2zygfrbby","631f6e0b69d34cd131d923f8","fixation","img/fixation.png","null","","test","","","","","",""
"331.10000002384186","280765","pSARL_v2","pSARL_v2zygfrbby","631f6e0b69d34cd131d923f8","freq","img/orange_2bandit_a2.png","70","70","test","1","113","113","5","",""
"null","281244","pSARL_v2","pSARL_v2zygfrbby","631f6e0b69d34cd131d923f8","freq_resp","img/orange_2bandit_a.png","70","70","test","","","","5","",""
"null","281416","pSARL_v2","pSARL_v2zygfrbby","631f6e0b69d34cd131d923f8","fixation","img/fixation.png","null","","test","","","","","",""
"335.5","281754","pSARL_v2","pSARL_v2zygfrbby","631f6e0b69d34cd131d923f8","freq","img/orange_2bandit_a2.png","70","70","test","1","114","114","5","",""
"null","282230","pSARL_v2","pSARL_v2zygfrbby","631f6e0b69d34cd131d923f8","freq_resp","img/orange_2bandit_a.png","70","70","test","","","","5","",""
"null","282396","pSARL_v2","pSARL_v2zygfrbby","631f6e0b69d34cd131d923f8","fixation","img/fixation.png","null","","test","","","","","",""
"346.60000002384186","282748","pSARL_v2","pSARL_v2zygfrbby","631f6e0b69d34cd131d923f8","freq","img/orange_2bandit_a2.png","70","70","test","1","115","115","5","",""
"null","283214","pSARL_v2","pSARL_v2zygfrbby","631f6e0b69d34cd131d923f8","freq_resp","img/orange_2bandit_a.png","70","70","test","","","","5","",""
"null","283385","pSARL_v2","pSARL_v2zygfrbby","631f6e0b69d34cd131d923f8","fixation","img/fixation.png","null","","test","","","","","",""
"590.1000000238419","283981","pSARL_v2","pSARL_v2zygfrbby","631f6e0b69d34cd131d923f8","reward","img/slot.png","74","","test","","","","","",""
"null","284741","pSARL_v2","pSARL_v2zygfrbby","631f6e0b69d34cd131d923f8","points","<div class=""veryhighPoints""> +1 </div>","null","na","test","","","","5","1","4"
"369.2000000476837","285114","pSARL_v2","pSARL_v2zygfrbby","631f6e0b69d34cd131d923f8","freq","img/orange_2bandit_a2.png","70","70","test","1","116","116","6","",""
"null","285557","pSARL_v2","pSARL_v2zygfrbby","631f6e0b69d34cd131d923f8","freq_resp","img/orange_2bandit_a.png","70","70","test","","","","6","",""
"null","285725","pSARL_v2","pSARL_v2zygfrbby","631f6e0b69d34cd131d923f8","fixation","img/fixation.png","null","","test","","","","","",""
"313.9000000357628","286047","pSARL_v2","pSARL_v2zygfrbby","631f6e0b69d34cd131d923f8","freq","img/orange_2bandit_a2.png","70","70","test","1","117","117","6","",""
"null","286540","pSARL_v2","pSARL_v2zygfrbby","631f6e0b69d34cd131d923f8","freq_resp","img/orange_2bandit_a.png","70","70","test","","","","6","",""
"null","286710","pSARL_v2","pSARL_v2zygfrbby","631f6e0b69d34cd131d923f8","fixation","img/fixation.png","null","","test","","","","","",""
"320.80000001192093","287037","pSARL_v2","pSARL_v2zygfrbby","631f6e0b69d34cd131d923f8","infreq","img/green_2bandit_a2.png","70","68","test","0","118","118","6","",""
"null","287535","pSARL_v2","pSARL_v2zygfrbby","631f6e0b69d34cd131d923f8","infreq_resp","img/green_2bandit_a.png","70","68","test","","","","6","",""
"null","287705","pSARL_v2","pSARL_v2zygfrbby","631f6e0b69d34cd131d923f8","fixation","img/fixation.png","null","","test","","","","","",""
"445.39999997615814","288157","pSARL_v2","pSARL_v2zygfrbby","631f6e0b69d34cd131d923f8","freq","img/orange_2bandit_a2.png","70","70","test","1","119","119","6","",""
"null","288518","pSARL_v2","pSARL_v2zygfrbby","631f6e0b69d34cd131d923f8","freq_resp","img/orange_2bandit_a.png","70","70","test","","","","6","",""
"null","288688","pSARL_v2","pSARL_v2zygfrbby","631f6e0b69d34cd131d923f8","fixation","img/fixation.png","null","","test","","","","","",""
"405.9000000357628","289100","pSARL_v2","pSARL_v2zygfrbby","631f6e0b69d34cd131d923f8","freq","img/orange_2bandit_a2.png","70","70","test","1","120","120","6","",""
"null","289498","pSARL_v2","pSARL_v2zygfrbby","631f6e0b69d34cd131d923f8","freq_resp","img/orange_2bandit_a.png","70","70","test","","","","6","",""
"null","289658","pSARL_v2","pSARL_v2zygfrbby","631f6e0b69d34cd131d923f8","fixation","img/fixation.png","null","","test","","","","","",""
"395.7999999523163","290057","pSARL_v2","pSARL_v2zygfrbby","631f6e0b69d34cd131d923f8","freq","img/orange_2bandit_a2.png","70","70","test","1","121","121","6","",""
"null","290472","pSARL_v2","pSARL_v2zygfrbby","631f6e0b69d34cd131d923f8","freq_resp","img/orange_2bandit_a.png","70","70","test","","","","6","",""
"null","290629","pSARL_v2","pSARL_v2zygfrbby","631f6e0b69d34cd131d923f8","fixation","img/fixation.png","null","","test","","","","","",""
"369.5","291003","pSARL_v2","pSARL_v2zygfrbby","631f6e0b69d34cd131d923f8","freq","img/orange_2bandit_a2.png","70","70","test","1","122","122","6","",""
"null","291452","pSARL_v2","pSARL_v2zygfrbby","631f6e0b69d34cd131d923f8","freq_resp","img/orange_2bandit_a.png","70","70","test","","","","6","",""
"null","291619","pSARL_v2","pSARL_v2zygfrbby","631f6e0b69d34cd131d923f8","fixation","img/fixation.png","null","","test","","","","","",""
"370.60000002384186","291994","pSARL_v2","pSARL_v2zygfrbby","631f6e0b69d34cd131d923f8","freq","img/orange_2bandit_a2.png","70","70","test","1","123","123","6","",""
"null","292436","pSARL_v2","pSARL_v2zygfrbby","631f6e0b69d34cd131d923f8","freq_resp","img/orange_2bandit_a.png","70","70","test","","","","6","",""
"null","292605","pSARL_v2","pSARL_v2zygfrbby","631f6e0b69d34cd131d923f8","fixation","img/fixation.png","null","","test","","","","","",""
"505.80000001192093","293117","pSARL_v2","pSARL_v2zygfrbby","631f6e0b69d34cd131d923f8","infreq","img/green_2bandit_a2.png","68","68","test","1","124","124","6","",""
"null","293417","pSARL_v2","pSARL_v2zygfrbby","631f6e0b69d34cd131d923f8","infreq_resp","img/green_2bandit_a.png","68","68","test","","","","6","",""
"null","293587","pSARL_v2","pSARL_v2zygfrbby","631f6e0b69d34cd131d923f8","fixation","img/fixation.png","null","","test","","","","","",""
"418.60000002384186","294010","pSARL_v2","pSARL_v2zygfrbby","631f6e0b69d34cd131d923f8","freq","img/orange_2bandit_a2.png","70","70","test","1","125","125","6","",""
"null","294404","pSARL_v2","pSARL_v2zygfrbby","631f6e0b69d34cd131d923f8","freq_resp","img/orange_2bandit_a.png","70","70","test","","","","6","",""
"null","294572","pSARL_v2","pSARL_v2zygfrbby","631f6e0b69d34cd131d923f8","fixation","img/fixation.png","null","","test","","","","","",""
"490.5","295071","pSARL_v2","pSARL_v2zygfrbby","631f6e0b69d34cd131d923f8","freq","img/orange_2bandit_a2.png","70","70","test","1","126","126","6","",""
"null","295389","pSARL_v2","pSARL_v2zygfrbby","631f6e0b69d34cd131d923f8","freq_resp","img/orange_2bandit_a.png","70","70","test","","","","6","",""
"null","295558","pSARL_v2","pSARL_v2zygfrbby","631f6e0b69d34cd131d923f8","fixation","img/fixation.png","null","","test","","","","","",""
"528.5999999642372","296093","pSARL_v2","pSARL_v2zygfrbby","631f6e0b69d34cd131d923f8","freq","img/orange_2bandit_a2.png","70","70","test","1","127","127","6","",""
"null","296386","pSARL_v2","pSARL_v2zygfrbby","631f6e0b69d34cd131d923f8","freq_resp","img/orange_2bandit_a.png","70","70","test","","","","6","",""
"null","296554","pSARL_v2","pSARL_v2zygfrbby","631f6e0b69d34cd131d923f8","fixation","img/fixation.png","null","","test","","","","","",""
"429.5","296989","pSARL_v2","pSARL_v2zygfrbby","631f6e0b69d34cd131d923f8","freq","img/orange_2bandit_a2.png","70","70","test","1","128","128","6","",""
"null","297371","pSARL_v2","pSARL_v2zygfrbby","631f6e0b69d34cd131d923f8","freq_resp","img/orange_2bandit_a.png","70","70","test","","","","6","",""
"null","297540","pSARL_v2","pSARL_v2zygfrbby","631f6e0b69d34cd131d923f8","fixation","img/fixation.png","null","","test","","","","","",""
"386.19999998807907","297929","pSARL_v2","pSARL_v2zygfrbby","631f6e0b69d34cd131d923f8","freq","img/orange_2bandit_a2.png","70","70","test","1","129","129","6","",""
"null","298360","pSARL_v2","pSARL_v2zygfrbby","631f6e0b69d34cd131d923f8","freq_resp","img/orange_2bandit_a.png","70","70","test","","","","6","",""
"null","298529","pSARL_v2","pSARL_v2zygfrbby","631f6e0b69d34cd131d923f8","fixation","img/fixation.png","null","","test","","","","","",""
"374.19999998807907","298910","pSARL_v2","pSARL_v2zygfrbby","631f6e0b69d34cd131d923f8","freq","img/orange_2bandit_a2.png","70","70","test","1","130","130","6","",""
"null","299352","pSARL_v2","pSARL_v2zygfrbby","631f6e0b69d34cd131d923f8","freq_resp","img/orange_2bandit_a.png","70","70","test","","","","6","",""
"null","299517","pSARL_v2","pSARL_v2zygfrbby","631f6e0b69d34cd131d923f8","fixation","img/fixation.png","null","","test","","","","","",""
"409.60000002384186","299929","pSARL_v2","pSARL_v2zygfrbby","631f6e0b69d34cd131d923f8","freq","img/orange_2bandit_a2.png","70","70","test","1","131","131","6","",""
"null","300324","pSARL_v2","pSARL_v2zygfrbby","631f6e0b69d34cd131d923f8","freq_resp","img/orange_2bandit_a.png","70","70","test","","","","6","",""
"null","300489","pSARL_v2","pSARL_v2zygfrbby","631f6e0b69d34cd131d923f8","fixation","img/fixation.png","null","","test","","","","","",""
"381.69999998807907","300877","pSARL_v2","pSARL_v2zygfrbby","631f6e0b69d34cd131d923f8","freq","img/orange_2bandit_a2.png","70","70","test","1","132","132","6","",""
"null","301306","pSARL_v2","pSARL_v2zygfrbby","631f6e0b69d34cd131d923f8","freq_resp","img/orange_2bandit_a.png","70","70","test","","","","6","",""
"null","301472","pSARL_v2","pSARL_v2zygfrbby","631f6e0b69d34cd131d923f8","fixation","img/fixation.png","null","","test","","","","","",""
"326.5","301806","pSARL_v2","pSARL_v2zygfrbby","631f6e0b69d34cd131d923f8","freq","img/orange_2bandit_a2.png","70","70","test","1","133","133","6","",""
"null","302290","pSARL_v2","pSARL_v2zygfrbby","631f6e0b69d34cd131d923f8","freq_resp","img/orange_2bandit_a.png","70","70","test","","","","6","",""
"null","302460","pSARL_v2","pSARL_v2zygfrbby","631f6e0b69d34cd131d923f8","fixation","img/fixation.png","null","","test","","","","","",""
"331.30000001192093","302797","pSARL_v2","pSARL_v2zygfrbby","631f6e0b69d34cd131d923f8","freq","img/orange_2bandit_a2.png","70","70","test","1","134","134","6","",""
"null","303281","pSARL_v2","pSARL_v2zygfrbby","631f6e0b69d34cd131d923f8","freq_resp","img/orange_2bandit_a.png","70","70","test","","","","6","",""
"null","303449","pSARL_v2","pSARL_v2zygfrbby","631f6e0b69d34cd131d923f8","fixation","img/fixation.png","null","","test","","","","","",""
"332.4000000357628","303785","pSARL_v2","pSARL_v2zygfrbby","631f6e0b69d34cd131d923f8","freq","img/orange_2bandit_a2.png","70","70","test","1","135","135","6","",""
"null","304260","pSARL_v2","pSARL_v2zygfrbby","631f6e0b69d34cd131d923f8","freq_resp","img/orange_2bandit_a.png","70","70","test","","","","6","",""
"null","304434","pSARL_v2","pSARL_v2zygfrbby","631f6e0b69d34cd131d923f8","fixation","img/fixation.png","null","","test","","","","","",""
"307.30000001192093","304747","pSARL_v2","pSARL_v2zygfrbby","631f6e0b69d34cd131d923f8","freq","img/orange_2bandit_a2.png","70","70","test","1","136","136","6","",""
"null","305248","pSARL_v2","pSARL_v2zygfrbby","631f6e0b69d34cd131d923f8","freq_resp","img/orange_2bandit_a.png","70","70","test","","","","6","",""
"null","305405","pSARL_v2","pSARL_v2zygfrbby","631f6e0b69d34cd131d923f8","fixation","img/fixation.png","null","","test","","","","","",""
"314.10000002384186","305725","pSARL_v2","pSARL_v2zygfrbby","631f6e0b69d34cd131d923f8","freq","img/orange_2bandit_a2.png","70","70","test","1","137","137","6","",""
"null","306216","pSARL_v2","pSARL_v2zygfrbby","631f6e0b69d34cd131d923f8","freq_resp","img/orange_2bandit_a.png","70","70","test","","","","6","",""
"null","306388","pSARL_v2","pSARL_v2zygfrbby","631f6e0b69d34cd131d923f8","fixation","img/fixation.png","null","","test","","","","","",""
"290.69999998807907","306685","pSARL_v2","pSARL_v2zygfrbby","631f6e0b69d34cd131d923f8","freq","img/orange_2bandit_a2.png","70","70","test","1","138","138","6","",""
"null","307215","pSARL_v2","pSARL_v2zygfrbby","631f6e0b69d34cd131d923f8","freq_resp","img/orange_2bandit_a.png","70","70","test","","","","6","",""
"null","307382","pSARL_v2","pSARL_v2zygfrbby","631f6e0b69d34cd131d923f8","fixation","img/fixation.png","null","","test","","","","","",""
"321.80000001192093","307711","pSARL_v2","pSARL_v2zygfrbby","631f6e0b69d34cd131d923f8","freq","img/orange_2bandit_a2.png","70","70","test","1","139","139","6","",""
"null","308195","pSARL_v2","pSARL_v2zygfrbby","631f6e0b69d34cd131d923f8","freq_resp","img/orange_2bandit_a.png","70","70","test","","","","6","",""
"null","308349","pSARL_v2","pSARL_v2zygfrbby","631f6e0b69d34cd131d923f8","fixation","img/fixation.png","null","","test","","","","","",""
"554","308909","pSARL_v2","pSARL_v2zygfrbby","631f6e0b69d34cd131d923f8","reward","img/slot.png","74","","test","","","","","",""
"null","309667","pSARL_v2","pSARL_v2zygfrbby","631f6e0b69d34cd131d923f8","points","<div class=""verylowPoints""> -7 </div>","null","na","test","","","","6","-7","5"
"307.10000002384186","309980","pSARL_v2","pSARL_v2zygfrbby","631f6e0b69d34cd131d923f8","freq","img/orange_2bandit_a2.png","70","70","test","1","140","140","7","",""
"null","310485","pSARL_v2","pSARL_v2zygfrbby","631f6e0b69d34cd131d923f8","freq_resp","img/orange_2bandit_a.png","70","70","test","","","","7","",""
"null","310656","pSARL_v2","pSARL_v2zygfrbby","631f6e0b69d34cd131d923f8","fixation","img/fixation.png","null","","test","","","","","",""
"309.9000000357628","310972","pSARL_v2","pSARL_v2zygfrbby","631f6e0b69d34cd131d923f8","freq","img/orange_2bandit_a2.png","70","70","test","1","141","141","7","",""
"null","311466","pSARL_v2","pSARL_v2zygfrbby","631f6e0b69d34cd131d923f8","freq_resp","img/orange_2bandit_a.png","70","70","test","","","","7","",""
"null","311639","pSARL_v2","pSARL_v2zygfrbby","631f6e0b69d34cd131d923f8","fixation","img/fixation.png","null","","test","","","","","",""
"352","311996","pSARL_v2","pSARL_v2zygfrbby","631f6e0b69d34cd131d923f8","freq","img/orange_2bandit_a2.png","70","70","test","1","142","142","7","",""
"null","312453","pSARL_v2","pSARL_v2zygfrbby","631f6e0b69d34cd131d923f8","freq_resp","img/orange_2bandit_a.png","70","70","test","","","","7","",""
"null","312622","pSARL_v2","pSARL_v2zygfrbby","631f6e0b69d34cd131d923f8","fixation","img/fixation.png","null","","test","","","","","",""
"280.30000001192093","312910","pSARL_v2","pSARL_v2zygfrbby","631f6e0b69d34cd131d923f8","infreq","img/green_2bandit_a2.png","70","68","test","0","143","143","7","",""
"null","313440","pSARL_v2","pSARL_v2zygfrbby","631f6e0b69d34cd131d923f8","infreq_resp","img/green_2bandit_a.png","70","68","test","","","","7","",""
"null","313612","pSARL_v2","pSARL_v2zygfrbby","631f6e0b69d34cd131d923f8","fixation","img/fixation.png","null","","test","","","","","",""
"507.19999998807907","314124","pSARL_v2","pSARL_v2zygfrbby","631f6e0b69d34cd131d923f8","freq","img/orange_2bandit_a2.png","68","70","test","0","144","144","7","",""
"null","314437","pSARL_v2","pSARL_v2zygfrbby","631f6e0b69d34cd131d923f8","freq_resp","img/orange_2bandit_a.png","68","70","test","","","","7","",""
"null","314608","pSARL_v2","pSARL_v2zygfrbby","631f6e0b69d34cd131d923f8","fixation","img/fixation.png","null","","test","","","","","",""
"439.39999997615814","315053","pSARL_v2","pSARL_v2zygfrbby","631f6e0b69d34cd131d923f8","freq","img/orange_2bandit_a2.png","70","70","test","1","145","145","7","",""
"null","315424","pSARL_v2","pSARL_v2zygfrbby","631f6e0b69d34cd131d923f8","freq_resp","img/orange_2bandit_a.png","70","70","test","","","","7","",""
"null","315592","pSARL_v2","pSARL_v2zygfrbby","631f6e0b69d34cd131d923f8","fixation","img/fixation.png","null","","test","","","","","",""
"398.30000001192093","315999","pSARL_v2","pSARL_v2zygfrbby","631f6e0b69d34cd131d923f8","freq","img/orange_2bandit_a2.png","70","70","test","1","146","146","7","",""
"null","316404","pSARL_v2","pSARL_v2zygfrbby","631f6e0b69d34cd131d923f8","freq_resp","img/orange_2bandit_a.png","70","70","test","","","","7","",""
"null","316562","pSARL_v2","pSARL_v2zygfrbby","631f6e0b69d34cd131d923f8","fixation","img/fixation.png","null","","test","","","","","",""
"503.5","317071","pSARL_v2","pSARL_v2zygfrbby","631f6e0b69d34cd131d923f8","infreq","img/green_2bandit_a2.png","68","68","test","1","147","147","7","",""
"null","317372","pSARL_v2","pSARL_v2zygfrbby","631f6e0b69d34cd131d923f8","infreq_resp","img/green_2bandit_a.png","68","68","test","","","","7","",""
"null","317528","pSARL_v2","pSARL_v2zygfrbby","631f6e0b69d34cd131d923f8","fixation","img/fixation.png","null","","test","","","","","",""
"638.1000000238419","318171","pSARL_v2","pSARL_v2zygfrbby","631f6e0b69d34cd131d923f8","freq","img/orange_2bandit_a2.png","70","70","test","1","148","148","7","",""
"null","318338","pSARL_v2","pSARL_v2zygfrbby","631f6e0b69d34cd131d923f8","freq_resp","img/orange_2bandit_a.png","70","70","test","","","","7","",""
"null","318498","pSARL_v2","pSARL_v2zygfrbby","631f6e0b69d34cd131d923f8","fixation","img/fixation.png","null","","test","","","","","",""
"549","319053","pSARL_v2","pSARL_v2zygfrbby","631f6e0b69d34cd131d923f8","freq","img/orange_2bandit_a2.png","70","70","test","1","149","149","7","",""
"null","319312","pSARL_v2","pSARL_v2zygfrbby","631f6e0b69d34cd131d923f8","freq_resp","img/orange_2bandit_a.png","70","70","test","","","","7","",""
"null","319480","pSARL_v2","pSARL_v2zygfrbby","631f6e0b69d34cd131d923f8","fixation","img/fixation.png","null","","test","","","","","",""
"558.3999999761581","320045","pSARL_v2","pSARL_v2zygfrbby","631f6e0b69d34cd131d923f8","freq","img/orange_2bandit_a2.png","70","70","test","1","150","150","7","",""
"null","320302","pSARL_v2","pSARL_v2zygfrbby","631f6e0b69d34cd131d923f8","freq_resp","img/orange_2bandit_a.png","70","70","test","","","","7","",""
"null","320470","pSARL_v2","pSARL_v2zygfrbby","631f6e0b69d34cd131d923f8","fixation","img/fixation.png","null","","test","","","","","",""
"496.5","320974","pSARL_v2","pSARL_v2zygfrbby","631f6e0b69d34cd131d923f8","freq","img/orange_2bandit_a2.png","70","70","test","1","151","151","7","",""
"null","321299","pSARL_v2","pSARL_v2zygfrbby","631f6e0b69d34cd131d923f8","freq_resp","img/orange_2bandit_a.png","70","70","test","","","","7","",""
"null","321469","pSARL_v2","pSARL_v2zygfrbby","631f6e0b69d34cd131d923f8","fixation","img/fixation.png","null","","test","","","","","",""
"536.6999999880791","322013","pSARL_v2","pSARL_v2zygfrbby","631f6e0b69d34cd131d923f8","freq","img/orange_2bandit_a2.png","70","70","test","1","152","152","7","",""
"null","322283","pSARL_v2","pSARL_v2zygfrbby","631f6e0b69d34cd131d923f8","freq_resp","img/orange_2bandit_a.png","70","70","test","","","","7","",""
"null","322441","pSARL_v2","pSARL_v2zygfrbby","631f6e0b69d34cd131d923f8","fixation","img/fixation.png","null","","test","","","","","",""
"556.8000000119209","323001","pSARL_v2","pSARL_v2zygfrbby","631f6e0b69d34cd131d923f8","freq","img/orange_2bandit_a2.png","70","70","test","1","153","153","7","",""
"null","323255","pSARL_v2","pSARL_v2zygfrbby","631f6e0b69d34cd131d923f8","freq_resp","img/orange_2bandit_a.png","70","70","test","","","","7","",""
"null","323409","pSARL_v2","pSARL_v2zygfrbby","631f6e0b69d34cd131d923f8","fixation","img/fixation.png","null","","test","","","","","",""
"550.3999999761581","323968","pSARL_v2","pSARL_v2zygfrbby","631f6e0b69d34cd131d923f8","freq","img/orange_2bandit_a2.png","70","70","test","1","154","154","7","",""
"null","324228","pSARL_v2","pSARL_v2zygfrbby","631f6e0b69d34cd131d923f8","freq_resp","img/orange_2bandit_a.png","70","70","test","","","","7","",""
"null","324393","pSARL_v2","pSARL_v2zygfrbby","631f6e0b69d34cd131d923f8","fixation","img/fixation.png","null","","test","","","","","",""
"477.60000002384186","324877","pSARL_v2","pSARL_v2zygfrbby","631f6e0b69d34cd131d923f8","freq","img/orange_2bandit_a2.png","70","70","test","1","155","155","7","",""
"null","325209","pSARL_v2","pSARL_v2zygfrbby","631f6e0b69d34cd131d923f8","freq_resp","img/orange_2bandit_a.png","70","70","test","","","","7","",""
"null","325378","pSARL_v2","pSARL_v2zygfrbby","631f6e0b69d34cd131d923f8","fixation","img/fixation.png","null","","test","","","","","",""
"484.19999998807907","325870","pSARL_v2","pSARL_v2zygfrbby","631f6e0b69d34cd131d923f8","freq","img/orange_2bandit_a2.png","70","70","test","1","156","156","7","",""
"null","326192","pSARL_v2","pSARL_v2zygfrbby","631f6e0b69d34cd131d923f8","freq_resp","img/orange_2bandit_a.png","70","70","test","","","","7","",""
"null","326349","pSARL_v2","pSARL_v2zygfrbby","631f6e0b69d34cd131d923f8","fixation","img/fixation.png","null","","test","","","","","",""
"553.3000000119209","326909","pSARL_v2","pSARL_v2zygfrbby","631f6e0b69d34cd131d923f8","freq","img/orange_2bandit_a2.png","70","70","test","1","157","157","7","",""
"null","327164","pSARL_v2","pSARL_v2zygfrbby","631f6e0b69d34cd131d923f8","freq_resp","img/orange_2bandit_a.png","70","70","test","","","","7","",""
"null","327335","pSARL_v2","pSARL_v2zygfrbby","631f6e0b69d34cd131d923f8","fixation","img/fixation.png","null","","test","","","","","",""
"544","327885","pSARL_v2","pSARL_v2zygfrbby","631f6e0b69d34cd131d923f8","infreq","img/green_2bandit_a2.png","68","68","test","1","158","158","7","",""
"null","328153","pSARL_v2","pSARL_v2zygfrbby","631f6e0b69d34cd131d923f8","infreq_resp","img/green_2bandit_a.png","68","68","test","","","","7","",""
"null","328322","pSARL_v2","pSARL_v2zygfrbby","631f6e0b69d34cd131d923f8","fixation","img/fixation.png","null","","test","","","","","",""
"563.5","328895","pSARL_v2","pSARL_v2zygfrbby","631f6e0b69d34cd131d923f8","freq","img/orange_2bandit_a2.png","70","70","test","1","159","159","7","",""
"null","329145","pSARL_v2","pSARL_v2zygfrbby","631f6e0b69d34cd131d923f8","freq_resp","img/orange_2bandit_a.png","70","70","test","","","","7","",""
"null","329313","pSARL_v2","pSARL_v2zygfrbby","631f6e0b69d34cd131d923f8","fixation","img/fixation.png","null","","test","","","","","",""
"533.4000000357628","329852","pSARL_v2","pSARL_v2zygfrbby","631f6e0b69d34cd131d923f8","freq","img/orange_2bandit_a2.png","70","70","test","1","160","160","7","",""
"null","330130","pSARL_v2","pSARL_v2zygfrbby","631f6e0b69d34cd131d923f8","freq_resp","img/orange_2bandit_a.png","70","70","test","","","","7","",""
"null","330301","pSARL_v2","pSARL_v2zygfrbby","631f6e0b69d34cd131d923f8","fixation","img/fixation.png","null","","test","","","","","",""
"505.5","330813","pSARL_v2","pSARL_v2zygfrbby","631f6e0b69d34cd131d923f8","freq","img/orange_2bandit_a2.png","70","70","test","1","161","161","7","",""
"null","331123","pSARL_v2","pSARL_v2zygfrbby","631f6e0b69d34cd131d923f8","freq_resp","img/orange_2bandit_a.png","70","70","test","","","","7","",""
"null","331294","pSARL_v2","pSARL_v2zygfrbby","631f6e0b69d34cd131d923f8","fixation","img/fixation.png","null","","test","","","","","",""
"408.39999997615814","331708","pSARL_v2","pSARL_v2zygfrbby","631f6e0b69d34cd131d923f8","freq","img/orange_2bandit_a2.png","70","70","test","1","162","162","7","",""
"null","332114","pSARL_v2","pSARL_v2zygfrbby","631f6e0b69d34cd131d923f8","freq_resp","img/orange_2bandit_a.png","70","70","test","","","","7","",""
"null","332283","pSARL_v2","pSARL_v2zygfrbby","631f6e0b69d34cd131d923f8","fixation","img/fixation.png","null","","test","","","","","",""
"570.6999999880791","332859","pSARL_v2","pSARL_v2zygfrbby","631f6e0b69d34cd131d923f8","reward","img/slot.png","74","","test","","","","","",""
"null","333625","pSARL_v2","pSARL_v2zygfrbby","631f6e0b69d34cd131d923f8","points","<div class=""verylowPoints""> -6 </div>","null","na","test","","","","7","-6","6"
"334","333965","pSARL_v2","pSARL_v2zygfrbby","631f6e0b69d34cd131d923f8","freq","img/orange_2bandit_a2.png","70","70","test","1","163","163","8","",""
"null","334446","pSARL_v2","pSARL_v2zygfrbby","631f6e0b69d34cd131d923f8","freq_resp","img/orange_2bandit_a.png","70","70","test","","","","8","",""
"null","334610","pSARL_v2","pSARL_v2zygfrbby","631f6e0b69d34cd131d923f8","fixation","img/fixation.png","null","","test","","","","","",""
"340.80000001192093","334957","pSARL_v2","pSARL_v2zygfrbby","631f6e0b69d34cd131d923f8","freq","img/orange_2bandit_a2.png","70","70","test","1","164","164","8","",""
"null","335433","pSARL_v2","pSARL_v2zygfrbby","631f6e0b69d34cd131d923f8","freq_resp","img/orange_2bandit_a.png","70","70","test","","","","8","",""
"null","335596","pSARL_v2","pSARL_v2zygfrbby","631f6e0b69d34cd131d923f8","fixation","img/fixation.png","null","","test","","","","","",""
"346.80000001192093","335950","pSARL_v2","pSARL_v2zygfrbby","631f6e0b69d34cd131d923f8","freq","img/orange_2bandit_a2.png","70","70","test","1","165","165","8","",""
"null","336420","pSARL_v2","pSARL_v2zygfrbby","631f6e0b69d34cd131d923f8","freq_resp","img/orange_2bandit_a.png","70","70","test","","","","8","",""
"null","336587","pSARL_v2","pSARL_v2zygfrbby","631f6e0b69d34cd131d923f8","fixation","img/fixation.png","null","","test","","","","","",""
"347.5","336941","pSARL_v2","pSARL_v2zygfrbby","631f6e0b69d34cd131d923f8","freq","img/orange_2bandit_a2.png","70","70","test","1","166","166","8","",""
"null","337406","pSARL_v2","pSARL_v2zygfrbby","631f6e0b69d34cd131d923f8","freq_resp","img/orange_2bandit_a.png","70","70","test","","","","8","",""
"null","337589","pSARL_v2","pSARL_v2zygfrbby","631f6e0b69d34cd131d923f8","fixation","img/fixation.png","null","","test","","","","","",""
"306.0999999642372","337902","pSARL_v2","pSARL_v2zygfrbby","631f6e0b69d34cd131d923f8","freq","img/orange_2bandit_a2.png","70","70","test","1","167","167","8","",""
"null","338405","pSARL_v2","pSARL_v2zygfrbby","631f6e0b69d34cd131d923f8","freq_resp","img/orange_2bandit_a.png","70","70","test","","","","8","",""
"null","338575","pSARL_v2","pSARL_v2zygfrbby","631f6e0b69d34cd131d923f8","fixation","img/fixation.png","null","","test","","","","","",""
"358.39999997615814","338937","pSARL_v2","pSARL_v2zygfrbby","631f6e0b69d34cd131d923f8","freq","img/orange_2bandit_a2.png","70","70","test","1","168","168","8","",""
"null","339397","pSARL_v2","pSARL_v2zygfrbby","631f6e0b69d34cd131d923f8","freq_resp","img/orange_2bandit_a.png","70","70","test","","","","8","",""
"null","339566","pSARL_v2","pSARL_v2zygfrbby","631f6e0b69d34cd131d923f8","fixation","img/fixation.png","null","","test","","","","","",""
"424.10000002384186","339997","pSARL_v2","pSARL_v2zygfrbby","631f6e0b69d34cd131d923f8","freq","img/orange_2bandit_a2.png","70","70","test","1","169","169","8","",""
"null","340386","pSARL_v2","pSARL_v2zygfrbby","631f6e0b69d34cd131d923f8","freq_resp","img/orange_2bandit_a.png","70","70","test","","","","8","",""
"null","340556","pSARL_v2","pSARL_v2zygfrbby","631f6e0b69d34cd131d923f8","fixation","img/fixation.png","null","","test","","","","","",""
"298.39999997615814","340860","pSARL_v2","pSARL_v2zygfrbby","631f6e0b69d34cd131d923f8","freq","img/orange_2bandit_a2.png","70","70","test","1","170","170","8","",""
"null","341366","pSARL_v2","pSARL_v2zygfrbby","631f6e0b69d34cd131d923f8","freq_resp","img/orange_2bandit_a.png","70","70","test","","","","8","",""
"null","341527","pSARL_v2","pSARL_v2zygfrbby","631f6e0b69d34cd131d923f8","fixation","img/fixation.png","null","","test","","","","","",""
"334.69999998807907","341869","pSARL_v2","pSARL_v2zygfrbby","631f6e0b69d34cd131d923f8","freq","img/orange_2bandit_a2.png","70","70","test","1","171","171","8","",""
"null","342352","pSARL_v2","pSARL_v2zygfrbby","631f6e0b69d34cd131d923f8","freq_resp","img/orange_2bandit_a.png","70","70","test","","","","8","",""
"null","342521","pSARL_v2","pSARL_v2zygfrbby","631f6e0b69d34cd131d923f8","fixation","img/fixation.png","null","","test","","","","","",""
"351.80000001192093","342881","pSARL_v2","pSARL_v2zygfrbby","631f6e0b69d34cd131d923f8","freq","img/orange_2bandit_a2.png","70","70","test","1","172","172","8","",""
"null","343337","pSARL_v2","pSARL_v2zygfrbby","631f6e0b69d34cd131d923f8","freq_resp","img/orange_2bandit_a.png","70","70","test","","","","8","",""
"null","343505","pSARL_v2","pSARL_v2zygfrbby","631f6e0b69d34cd131d923f8","fixation","img/fixation.png","null","","test","","","","","",""
"501.60000002384186","344013","pSARL_v2","pSARL_v2zygfrbby","631f6e0b69d34cd131d923f8","infreq","img/green_2bandit_a2.png","68","68","test","1","173","173","8","",""
"null","344320","pSARL_v2","pSARL_v2zygfrbby","631f6e0b69d34cd131d923f8","infreq_resp","img/green_2bandit_a.png","68","68","test","","","","8","",""
"null","344476","pSARL_v2","pSARL_v2zygfrbby","631f6e0b69d34cd131d923f8","fixation","img/fixation.png","null","","test","","","","","",""
"490.10000002384186","344975","pSARL_v2","pSARL_v2zygfrbby","631f6e0b69d34cd131d923f8","freq","img/orange_2bandit_a2.png","70","70","test","1","174","174","8","",""
"null","345292","pSARL_v2","pSARL_v2zygfrbby","631f6e0b69d34cd131d923f8","freq_resp","img/orange_2bandit_a.png","70","70","test","","","","8","",""
"null","345448","pSARL_v2","pSARL_v2zygfrbby","631f6e0b69d34cd131d923f8","fixation","img/fixation.png","null","","test","","","","","",""
"462.4000000357628","345916","pSARL_v2","pSARL_v2zygfrbby","631f6e0b69d34cd131d923f8","freq","img/orange_2bandit_a2.png","70","70","test","1","175","175","8","",""
"null","346264","pSARL_v2","pSARL_v2zygfrbby","631f6e0b69d34cd131d923f8","freq_resp","img/orange_2bandit_a.png","70","70","test","","","","8","",""
"null","346432","pSARL_v2","pSARL_v2zygfrbby","631f6e0b69d34cd131d923f8","fixation","img/fixation.png","null","","test","","","","","",""
"373.89999997615814","346809","pSARL_v2","pSARL_v2zygfrbby","631f6e0b69d34cd131d923f8","freq","img/orange_2bandit_a2.png","70","70","test","1","176","176","8","",""
"null","347252","pSARL_v2","pSARL_v2zygfrbby","631f6e0b69d34cd131d923f8","freq_resp","img/orange_2bandit_a.png","70","70","test","","","","8","",""
"null","347422","pSARL_v2","pSARL_v2zygfrbby","631f6e0b69d34cd131d923f8","fixation","img/fixation.png","null","","test","","","","","",""
"327.89999997615814","347757","pSARL_v2","pSARL_v2zygfrbby","631f6e0b69d34cd131d923f8","freq","img/orange_2bandit_a2.png","70","70","test","1","177","177","8","",""
"null","348238","pSARL_v2","pSARL_v2zygfrbby","631f6e0b69d34cd131d923f8","freq_resp","img/orange_2bandit_a.png","70","70","test","","","","8","",""
"null","348402","pSARL_v2","pSARL_v2zygfrbby","631f6e0b69d34cd131d923f8","fixation","img/fixation.png","null","","test","","","","","",""
"482.89999997615814","348891","pSARL_v2","pSARL_v2zygfrbby","631f6e0b69d34cd131d923f8","infreq","img/green_2bandit_a2.png","68","68","test","1","178","178","8","",""
"null","349224","pSARL_v2","pSARL_v2zygfrbby","631f6e0b69d34cd131d923f8","infreq_resp","img/green_2bandit_a.png","68","68","test","","","","8","",""
"null","349388","pSARL_v2","pSARL_v2zygfrbby","631f6e0b69d34cd131d923f8","fixation","img/fixation.png","null","","test","","","","","",""
"377.60000002384186","349769","pSARL_v2","pSARL_v2zygfrbby","631f6e0b69d34cd131d923f8","freq","img/orange_2bandit_a2.png","70","70","test","1","179","179","8","",""
"null","350204","pSARL_v2","pSARL_v2zygfrbby","631f6e0b69d34cd131d923f8","freq_resp","img/orange_2bandit_a.png","70","70","test","","","","8","",""
"null","350359","pSARL_v2","pSARL_v2zygfrbby","631f6e0b69d34cd131d923f8","fixation","img/fixation.png","null","","test","","","","","",""
"367.19999998807907","350733","pSARL_v2","pSARL_v2zygfrbby","631f6e0b69d34cd131d923f8","freq","img/orange_2bandit_a2.png","70","70","test","1","180","180","8","",""
"null","351176","pSARL_v2","pSARL_v2zygfrbby","631f6e0b69d34cd131d923f8","freq_resp","img/orange_2bandit_a.png","70","70","test","","","","8","",""
"null","351348","pSARL_v2","pSARL_v2zygfrbby","631f6e0b69d34cd131d923f8","fixation","img/fixation.png","null","","test","","","","","",""
"353.89999997615814","351709","pSARL_v2","pSARL_v2zygfrbby","631f6e0b69d34cd131d923f8","freq","img/orange_2bandit_a2.png","70","70","test","1","181","181","8","",""
"null","352164","pSARL_v2","pSARL_v2zygfrbby","631f6e0b69d34cd131d923f8","freq_resp","img/orange_2bandit_a.png","70","70","test","","","","8","",""
"null","352321","pSARL_v2","pSARL_v2zygfrbby","631f6e0b69d34cd131d923f8","fixation","img/fixation.png","null","","test","","","","","",""
"357.10000002384186","352681","pSARL_v2","pSARL_v2zygfrbby","631f6e0b69d34cd131d923f8","freq","img/orange_2bandit_a2.png","70","70","test","1","182","182","8","",""
"null","353132","pSARL_v2","pSARL_v2zygfrbby","631f6e0b69d34cd131d923f8","freq_resp","img/orange_2bandit_a.png","70","70","test","","","","8","",""
"null","353290","pSARL_v2","pSARL_v2zygfrbby","631f6e0b69d34cd131d923f8","fixation","img/fixation.png","null","","test","","","","","",""
"314.39999997615814","353608","pSARL_v2","pSARL_v2zygfrbby","631f6e0b69d34cd131d923f8","freq","img/orange_2bandit_a2.png","70","70","test","1","183","183","8","",""
"null","354101","pSARL_v2","pSARL_v2zygfrbby","631f6e0b69d34cd131d923f8","freq_resp","img/orange_2bandit_a.png","70","70","test","","","","8","",""
"null","354270","pSARL_v2","pSARL_v2zygfrbby","631f6e0b69d34cd131d923f8","fixation","img/fixation.png","null","","test","","","","","",""
"360.80000001192093","354637","pSARL_v2","pSARL_v2zygfrbby","631f6e0b69d34cd131d923f8","freq","img/orange_2bandit_a2.png","70","70","test","1","184","184","8","",""
"null","355084","pSARL_v2","pSARL_v2zygfrbby","631f6e0b69d34cd131d923f8","freq_resp","img/orange_2bandit_a.png","70","70","test","","","","8","",""
"null","355257","pSARL_v2","pSARL_v2zygfrbby","631f6e0b69d34cd131d923f8","fixation","img/fixation.png","null","","test","","","","","",""
"332.9000000357628","355596","pSARL_v2","pSARL_v2zygfrbby","631f6e0b69d34cd131d923f8","freq","img/orange_2bandit_a2.png","70","70","test","1","185","185","8","",""
"null","356073","pSARL_v2","pSARL_v2zygfrbby","631f6e0b69d34cd131d923f8","freq_resp","img/orange_2bandit_a.png","70","70","test","","","","8","",""
"null","356244","pSARL_v2","pSARL_v2zygfrbby","631f6e0b69d34cd131d923f8","fixation","img/fixation.png","null","","test","","","","","",""
"304.89999997615814","356552","pSARL_v2","pSARL_v2zygfrbby","631f6e0b69d34cd131d923f8","freq","img/orange_2bandit_a2.png","70","70","test","1","186","186","8","",""
"null","357059","pSARL_v2","pSARL_v2zygfrbby","631f6e0b69d34cd131d923f8","freq_resp","img/orange_2bandit_a.png","70","70","test","","","","8","",""
"null","357231","pSARL_v2","pSARL_v2zygfrbby","631f6e0b69d34cd131d923f8","fixation","img/fixation.png","null","","test","","","","","",""
"294.9000000357628","357532","pSARL_v2","pSARL_v2zygfrbby","631f6e0b69d34cd131d923f8","freq","img/orange_2bandit_a2.png","70","70","test","1","187","187","8","",""
"null","358044","pSARL_v2","pSARL_v2zygfrbby","631f6e0b69d34cd131d923f8","freq_resp","img/orange_2bandit_a.png","70","70","test","","","","8","",""
"null","358216","pSARL_v2","pSARL_v2zygfrbby","631f6e0b69d34cd131d923f8","fixation","img/fixation.png","null","","test","","","","","",""
"526.8000000119209","358749","pSARL_v2","pSARL_v2zygfrbby","631f6e0b69d34cd131d923f8","reward","img/slot.png","74","","test","","","","","",""
"null","359517","pSARL_v2","pSARL_v2zygfrbby","631f6e0b69d34cd131d923f8","points","<div class=""verylowPoints""> -4 </div>","null","na","test","","","","8","-4","7"
"426.30000001192093","359949","pSARL_v2","pSARL_v2zygfrbby","631f6e0b69d34cd131d923f8","freq","img/orange_2bandit_a2.png","70","70","test","1","188","188","9","",""
"null","360340","pSARL_v2","pSARL_v2zygfrbby","631f6e0b69d34cd131d923f8","freq_resp","img/orange_2bandit_a.png","70","70","test","","","","9","",""
"null","360509","pSARL_v2","pSARL_v2zygfrbby","631f6e0b69d34cd131d923f8","fixation","img/fixation.png","null","","test","","","","","",""
"425.4000000357628","360940","pSARL_v2","pSARL_v2zygfrbby","631f6e0b69d34cd131d923f8","freq","img/orange_2bandit_a2.png","70","70","test","1","189","189","9","",""
"null","361326","pSARL_v2","pSARL_v2zygfrbby","631f6e0b69d34cd131d923f8","freq_resp","img/orange_2bandit_a.png","70","70","test","","","","9","",""
"null","361493","pSARL_v2","pSARL_v2zygfrbby","631f6e0b69d34cd131d923f8","fixation","img/fixation.png","null","","test","","","","","",""
"417.9000000357628","361917","pSARL_v2","pSARL_v2zygfrbby","631f6e0b69d34cd131d923f8","freq","img/orange_2bandit_a2.png","70","70","test","1","190","190","9","",""
"null","362308","pSARL_v2","pSARL_v2zygfrbby","631f6e0b69d34cd131d923f8","freq_resp","img/orange_2bandit_a.png","70","70","test","","","","9","",""
"null","362474","pSARL_v2","pSARL_v2zygfrbby","631f6e0b69d34cd131d923f8","fixation","img/fixation.png","null","","test","","","","","",""
"347.60000002384186","362825","pSARL_v2","pSARL_v2zygfrbby","631f6e0b69d34cd131d923f8","freq","img/orange_2bandit_a2.png","70","70","test","1","191","191","9","",""
"null","363294","pSARL_v2","pSARL_v2zygfrbby","631f6e0b69d34cd131d923f8","freq_resp","img/orange_2bandit_a.png","70","70","test","","","","9","",""
"null","363464","pSARL_v2","pSARL_v2zygfrbby","631f6e0b69d34cd131d923f8","fixation","img/fixation.png","null","","test","","","","","",""
"397.39999997615814","363865","pSARL_v2","pSARL_v2zygfrbby","631f6e0b69d34cd131d923f8","freq","img/orange_2bandit_a2.png","70","70","test","1","192","192","9","",""
"null","364284","pSARL_v2","pSARL_v2zygfrbby","631f6e0b69d34cd131d923f8","freq_resp","img/orange_2bandit_a.png","70","70","test","","","","9","",""
"null","364450","pSARL_v2","pSARL_v2zygfrbby","631f6e0b69d34cd131d923f8","fixation","img/fixation.png","null","","test","","","","","",""
"404.19999998807907","364858","pSARL_v2","pSARL_v2zygfrbby","631f6e0b69d34cd131d923f8","freq","img/orange_2bandit_a2.png","70","70","test","1","193","193","9","",""
"null","365257","pSARL_v2","pSARL_v2zygfrbby","631f6e0b69d34cd131d923f8","freq_resp","img/orange_2bandit_a.png","70","70","test","","","","9","",""
"null","365413","pSARL_v2","pSARL_v2zygfrbby","631f6e0b69d34cd131d923f8","fixation","img/fixation.png","null","","test","","","","","",""
"352.5","365769","pSARL_v2","pSARL_v2zygfrbby","631f6e0b69d34cd131d923f8","freq","img/orange_2bandit_a2.png","70","70","test","1","194","194","9","",""
"null","366228","pSARL_v2","pSARL_v2zygfrbby","631f6e0b69d34cd131d923f8","freq_resp","img/orange_2bandit_a.png","70","70","test","","","","9","",""
"null","366385","pSARL_v2","pSARL_v2zygfrbby","631f6e0b69d34cd131d923f8","fixation","img/fixation.png","null","","test","","","","","",""
"325.30000001192093","366717","pSARL_v2","pSARL_v2zygfrbby","631f6e0b69d34cd131d923f8","freq","img/orange_2bandit_a2.png","70","70","test","1","195","195","9","",""
"null","367212","pSARL_v2","pSARL_v2zygfrbby","631f6e0b69d34cd131d923f8","freq_resp","img/orange_2bandit_a.png","70","70","test","","","","9","",""
"null","367383","pSARL_v2","pSARL_v2zygfrbby","631f6e0b69d34cd131d923f8","fixation","img/fixation.png","null","","test","","","","","",""
"287.5","367677","pSARL_v2","pSARL_v2zygfrbby","631f6e0b69d34cd131d923f8","freq","img/orange_2bandit_a2.png","70","70","test","1","196","196","9","",""
"null","368195","pSARL_v2","pSARL_v2zygfrbby","631f6e0b69d34cd131d923f8","freq_resp","img/orange_2bandit_a.png","70","70","test","","","","9","",""
"null","368369","pSARL_v2","pSARL_v2zygfrbby","631f6e0b69d34cd131d923f8","fixation","img/fixation.png","null","","test","","","","","",""
"243.89999997615814","368618","pSARL_v2","pSARL_v2zygfrbby","631f6e0b69d34cd131d923f8","freq","img/orange_2bandit_a2.png","70","70","test","1","197","197","9","",""
"null","369192","pSARL_v2","pSARL_v2zygfrbby","631f6e0b69d34cd131d923f8","freq_resp","img/orange_2bandit_a.png","70","70","test","","","","9","",""
"null","369349","pSARL_v2","pSARL_v2zygfrbby","631f6e0b69d34cd131d923f8","fixation","img/fixation.png","null","","test","","","","","",""
"321.30000001192093","369677","pSARL_v2","pSARL_v2zygfrbby","631f6e0b69d34cd131d923f8","freq","img/orange_2bandit_a2.png","70","70","test","1","198","198","9","",""
"null","370159","pSARL_v2","pSARL_v2zygfrbby","631f6e0b69d34cd131d923f8","freq_resp","img/orange_2bandit_a.png","70","70","test","","","","9","",""
"null","370328","pSARL_v2","pSARL_v2zygfrbby","631f6e0b69d34cd131d923f8","fixation","img/fixation.png","null","","test","","","","","",""
"383.69999998807907","370717","pSARL_v2","pSARL_v2zygfrbby","631f6e0b69d34cd131d923f8","infreq","img/green_2bandit_a2.png","68","68","test","1","199","199","9","",""
"null","371145","pSARL_v2","pSARL_v2zygfrbby","631f6e0b69d34cd131d923f8","infreq_resp","img/green_2bandit_a.png","68","68","test","","","","9","",""
"null","371316","pSARL_v2","pSARL_v2zygfrbby","631f6e0b69d34cd131d923f8","fixation","img/fixation.png","null","","test","","","","","",""
"370.10000002384186","371693","pSARL_v2","pSARL_v2zygfrbby","631f6e0b69d34cd131d923f8","freq","img/orange_2bandit_a2.png","70","70","test","1","200","200","9","",""
"null","372132","pSARL_v2","pSARL_v2zygfrbby","631f6e0b69d34cd131d923f8","freq_resp","img/orange_2bandit_a.png","70","70","test","","","","9","",""
"null","372299","pSARL_v2","pSARL_v2zygfrbby","631f6e0b69d34cd131d923f8","fixation","img/fixation.png","null","","test","","","","","",""
"330.80000001192093","372633","pSARL_v2","pSARL_v2zygfrbby","631f6e0b69d34cd131d923f8","freq","img/orange_2bandit_a2.png","70","70","test","1","201","201","9","",""
"null","373110","pSARL_v2","pSARL_v2zygfrbby","631f6e0b69d34cd131d923f8","freq_resp","img/orange_2bandit_a.png","70","70","test","","","","9","",""
"null","373276","pSARL_v2","pSARL_v2zygfrbby","631f6e0b69d34cd131d923f8","fixation","img/fixation.png","null","","test","","","","","",""
"362.19999998807907","373645","pSARL_v2","pSARL_v2zygfrbby","631f6e0b69d34cd131d923f8","freq","img/orange_2bandit_a2.png","70","70","test","1","202","202","9","",""
"null","374096","pSARL_v2","pSARL_v2zygfrbby","631f6e0b69d34cd131d923f8","freq_resp","img/orange_2bandit_a.png","70","70","test","","","","9","",""
"null","374264","pSARL_v2","pSARL_v2zygfrbby","631f6e0b69d34cd131d923f8","fixation","img/fixation.png","null","","test","","","","","",""
"334","374604","pSARL_v2","pSARL_v2zygfrbby","631f6e0b69d34cd131d923f8","freq","img/orange_2bandit_a2.png","70","70","test","1","203","203","9","",""
"null","375081","pSARL_v2","pSARL_v2zygfrbby","631f6e0b69d34cd131d923f8","freq_resp","img/orange_2bandit_a.png","70","70","test","","","","9","",""
"null","375236","pSARL_v2","pSARL_v2zygfrbby","631f6e0b69d34cd131d923f8","fixation","img/fixation.png","null","","test","","","","","",""
"370.10000002384186","375611","pSARL_v2","pSARL_v2zygfrbby","631f6e0b69d34cd131d923f8","freq","img/orange_2bandit_a2.png","70","70","test","1","204","204","9","",""
"null","376053","pSARL_v2","pSARL_v2zygfrbby","631f6e0b69d34cd131d923f8","freq_resp","img/orange_2bandit_a.png","70","70","test","","","","9","",""
"null","376210","pSARL_v2","pSARL_v2zygfrbby","631f6e0b69d34cd131d923f8","fixation","img/fixation.png","null","","test","","","","","",""
"451.10000002384186","376667","pSARL_v2","pSARL_v2zygfrbby","631f6e0b69d34cd131d923f8","infreq","img/green_2bandit_a2.png","68","68","test","1","205","205","9","",""
"null","377029","pSARL_v2","pSARL_v2zygfrbby","631f6e0b69d34cd131d923f8","infreq_resp","img/green_2bandit_a.png","68","68","test","","","","9","",""
"null","377200","pSARL_v2","pSARL_v2zygfrbby","631f6e0b69d34cd131d923f8","fixation","img/fixation.png","null","","test","","","","","",""
