"rt","time_elapsed","expId","subject","prolificID","trialType","stimulus","key_press","corrresp","phase","corr","trialNum","attentionRunNum","blockNum","points","rlNum"
"12926.800000011921","12931","pSARL_v2","pSARL_v2ndqfxfr7","5c9fe2591bb8800018ec92bb","","","","","","","","","","",""
"","16847","pSARL_v2","pSARL_v2ndqfxfr7","5c9fe2591bb8800018ec92bb","fullscreen","","","","","","","","","",""
"129894","146744","pSARL_v2","pSARL_v2ndqfxfr7","5c9fe2591bb8800018ec92bb","","","","","","","","","","",""
"null","147554","pSARL_v2","pSARL_v2ndqfxfr7","5c9fe2591bb8800018ec92bb","freqPrac","img/green_2bandit_a2.png","null","70","prac","0","","","","",""
"null","148559","pSARL_v2","pSARL_v2ndqfxfr7","5c9fe2591bb8800018ec92bb","feedback","img/tooSlow.png","null","na","prac","","","","","",""
"null","148713","pSARL_v2","pSARL_v2ndqfxfr7","5c9fe2591bb8800018ec92bb","fixation","img/fixation.png","null","","prac","","","","","",""
"728.6999999880791","149445","pSARL_v2","pSARL_v2ndqfxfr7","5c9fe2591bb8800018ec92bb","infreqPrac","img/orange_2bandit_a2.png","70","68","prac","0","","","","",""
"728.6999999880791","149521","pSARL_v2","pSARL_v2ndqfxfr7","5c9fe2591bb8800018ec92bb","infreqPrac_resp","img/orange_2bandit_a.png","70","68","prac","","","","","",""
"null","150538","pSARL_v2","pSARL_v2ndqfxfr7","5c9fe2591bb8800018ec92bb","feedback","img/wrongKey.png","null","na","prac","","","","","",""
"null","150692","pSARL_v2","pSARL_v2ndqfxfr7","5c9fe2591bb8800018ec92bb","fixation","img/fixation.png","null","","prac","","","","","",""
"392.30000001192093","151087","pSARL_v2","pSARL_v2ndqfxfr7","5c9fe2591bb8800018ec92bb","freqPrac","img/green_2bandit_a2.png","70","70","prac","1","","","","",""
"392.30000001192093","151510","pSARL_v2","pSARL_v2ndqfxfr7","5c9fe2591bb8800018ec92bb","freqPrac_resp","img/green_2bandit_a.png","70","70","prac","","","","","",""
"null","151679","pSARL_v2","pSARL_v2ndqfxfr7","5c9fe2591bb8800018ec92bb","fixation","img/fixation.png","null","","prac","","","","","",""
"449.89999997615814","152132","pSARL_v2","pSARL_v2ndqfxfr7","5c9fe2591bb8800018ec92bb","infreqPrac","img/orange_2bandit_a2.png","68","68","prac","1","","","","",""
"449.89999997615814","152499","pSARL_v2","pSARL_v2ndqfxfr7","5c9fe2591bb8800018ec92bb","infreqPrac_resp","img/orange_2bandit_a.png","68","68","prac","","","","","",""
"null","152653","pSARL_v2","pSARL_v2ndqfxfr7","5c9fe2591bb8800018ec92bb","fixation","img/fixation.png","null","","prac","","","","","",""
"510.5","153167","pSARL_v2","pSARL_v2ndqfxfr7","5c9fe2591bb8800018ec92bb","infreqPrac","img/orange_2bandit_a2.png","68","68","prac","1","","","","",""
"510.5","153468","pSARL_v2","pSARL_v2ndqfxfr7","5c9fe2591bb8800018ec92bb","infreqPrac_resp","img/orange_2bandit_a.png","68","68","prac","","","","","",""
"null","153622","pSARL_v2","pSARL_v2ndqfxfr7","5c9fe2591bb8800018ec92bb","fixation","img/fixation.png","null","","prac","","","","","",""
"415.2000000476837","154039","pSARL_v2","pSARL_v2ndqfxfr7","5c9fe2591bb8800018ec92bb","infreqPrac","img/orange_2bandit_a2.png","68","68","prac","1","","","","",""
"415.2000000476837","154441","pSARL_v2","pSARL_v2ndqfxfr7","5c9fe2591bb8800018ec92bb","infreqPrac_resp","img/orange_2bandit_a.png","68","68","prac","","","","","",""
"null","154595","pSARL_v2","pSARL_v2ndqfxfr7","5c9fe2591bb8800018ec92bb","fixation","img/fixation.png","null","","prac","","","","","",""
"433.7999999523163","155032","pSARL_v2","pSARL_v2ndqfxfr7","5c9fe2591bb8800018ec92bb","freqPrac","img/green_2bandit_a2.png","70","70","prac","1","","","","",""
"433.7999999523163","155408","pSARL_v2","pSARL_v2ndqfxfr7","5c9fe2591bb8800018ec92bb","freqPrac_resp","img/green_2bandit_a.png","70","70","prac","","","","","",""
"null","155564","pSARL_v2","pSARL_v2ndqfxfr7","5c9fe2591bb8800018ec92bb","fixation","img/fixation.png","null","","prac","","","","","",""
"457.9000000357628","156024","pSARL_v2","pSARL_v2ndqfxfr7","5c9fe2591bb8800018ec92bb","infreqPrac","img/orange_2bandit_a2.png","68","68","prac","1","","","","",""
"457.9000000357628","156381","pSARL_v2","pSARL_v2ndqfxfr7","5c9fe2591bb8800018ec92bb","infreqPrac_resp","img/orange_2bandit_a.png","68","68","prac","","","","","",""
"null","156536","pSARL_v2","pSARL_v2ndqfxfr7","5c9fe2591bb8800018ec92bb","fixation","img/fixation.png","null","","prac","","","","","",""
"456.80000001192093","156995","pSARL_v2","pSARL_v2ndqfxfr7","5c9fe2591bb8800018ec92bb","freqPrac","img/green_2bandit_a2.png","70","70","prac","1","","","","",""
"456.80000001192093","157350","pSARL_v2","pSARL_v2ndqfxfr7","5c9fe2591bb8800018ec92bb","freqPrac_resp","img/green_2bandit_a.png","70","70","prac","","","","","",""
"null","157503","pSARL_v2","pSARL_v2ndqfxfr7","5c9fe2591bb8800018ec92bb","fixation","img/fixation.png","null","","prac","","","","","",""
"461.69999998807907","157968","pSARL_v2","pSARL_v2ndqfxfr7","5c9fe2591bb8800018ec92bb","freqPrac","img/green_2bandit_a2.png","70","70","prac","1","","","","",""
"461.69999998807907","158322","pSARL_v2","pSARL_v2ndqfxfr7","5c9fe2591bb8800018ec92bb","freqPrac_resp","img/green_2bandit_a.png","70","70","prac","","","","","",""
"null","158476","pSARL_v2","pSARL_v2ndqfxfr7","5c9fe2591bb8800018ec92bb","fixation","img/fixation.png","null","","prac","","","","","",""
"51372.59999996424","209852","pSARL_v2","pSARL_v2ndqfxfr7","5c9fe2591bb8800018ec92bb","","","","","prac","","","","","",""
"459.5999999642372","210315","pSARL_v2","pSARL_v2ndqfxfr7","5c9fe2591bb8800018ec92bb","rewardPractice","img/slot.png","74","","prac","","","","","",""
"null","211073","pSARL_v2","pSARL_v2ndqfxfr7","5c9fe2591bb8800018ec92bb","feedback","<div class=""veryhighPoints""> +15 </div>","null","na","prac","","","","","",""
"null","211228","pSARL_v2","pSARL_v2ndqfxfr7","5c9fe2591bb8800018ec92bb","fixation","img/fixation.png","null","","prac","","","","","",""
"43524.69999998808","254756","pSARL_v2","pSARL_v2ndqfxfr7","5c9fe2591bb8800018ec92bb","","","","","prac","","","","","",""
"391.39999997615814","255151","pSARL_v2","pSARL_v2ndqfxfr7","5c9fe2591bb8800018ec92bb","freq","img/green_2bandit_a2.png","70","70","test","1","1","1","1","",""
"null","255564","pSARL_v2","pSARL_v2ndqfxfr7","5c9fe2591bb8800018ec92bb","freq_resp","img/green_2bandit_a.png","70","70","test","","","","1","",""
"null","255732","pSARL_v2","pSARL_v2ndqfxfr7","5c9fe2591bb8800018ec92bb","fixation","img/fixation.png","null","","test","","","","","",""
"434.30000001192093","256170","pSARL_v2","pSARL_v2ndqfxfr7","5c9fe2591bb8800018ec92bb","freq","img/green_2bandit_a2.png","70","70","test","1","2","2","1","",""
"null","256538","pSARL_v2","pSARL_v2ndqfxfr7","5c9fe2591bb8800018ec92bb","freq_resp","img/green_2bandit_a.png","70","70","test","","","","1","",""
"null","256695","pSARL_v2","pSARL_v2ndqfxfr7","5c9fe2591bb8800018ec92bb","fixation","img/fixation.png","null","","test","","","","","",""
"334.89999997615814","257033","pSARL_v2","pSARL_v2ndqfxfr7","5c9fe2591bb8800018ec92bb","freq","img/green_2bandit_a2.png","70","70","test","1","3","3","1","",""
"null","257512","pSARL_v2","pSARL_v2ndqfxfr7","5c9fe2591bb8800018ec92bb","freq_resp","img/green_2bandit_a.png","70","70","test","","","","1","",""
"null","257680","pSARL_v2","pSARL_v2ndqfxfr7","5c9fe2591bb8800018ec92bb","fixation","img/fixation.png","null","","test","","","","","",""
"357.7999999523163","258041","pSARL_v2","pSARL_v2ndqfxfr7","5c9fe2591bb8800018ec92bb","freq","img/green_2bandit_a2.png","70","70","test","1","4","4","1","",""
"null","258499","pSARL_v2","pSARL_v2ndqfxfr7","5c9fe2591bb8800018ec92bb","freq_resp","img/green_2bandit_a.png","70","70","test","","","","1","",""
"null","258653","pSARL_v2","pSARL_v2ndqfxfr7","5c9fe2591bb8800018ec92bb","fixation","img/fixation.png","null","","test","","","","","",""
"303.4000000357628","258960","pSARL_v2","pSARL_v2ndqfxfr7","5c9fe2591bb8800018ec92bb","freq","img/green_2bandit_a2.png","70","70","test","1","5","5","1","",""
"null","259474","pSARL_v2","pSARL_v2ndqfxfr7","5c9fe2591bb8800018ec92bb","freq_resp","img/green_2bandit_a.png","70","70","test","","","","1","",""
"null","259641","pSARL_v2","pSARL_v2ndqfxfr7","5c9fe2591bb8800018ec92bb","fixation","img/fixation.png","null","","test","","","","","",""
"290","259934","pSARL_v2","pSARL_v2ndqfxfr7","5c9fe2591bb8800018ec92bb","freq","img/green_2bandit_a2.png","70","70","test","1","6","6","1","",""
"null","260463","pSARL_v2","pSARL_v2ndqfxfr7","5c9fe2591bb8800018ec92bb","freq_resp","img/green_2bandit_a.png","70","70","test","","","","1","",""
"null","260617","pSARL_v2","pSARL_v2ndqfxfr7","5c9fe2591bb8800018ec92bb","fixation","img/fixation.png","null","","test","","","","","",""
"282.80000001192093","260903","pSARL_v2","pSARL_v2ndqfxfr7","5c9fe2591bb8800018ec92bb","freq","img/green_2bandit_a2.png","70","70","test","1","7","7","1","",""
"null","261439","pSARL_v2","pSARL_v2ndqfxfr7","5c9fe2591bb8800018ec92bb","freq_resp","img/green_2bandit_a.png","70","70","test","","","","1","",""
"null","261593","pSARL_v2","pSARL_v2ndqfxfr7","5c9fe2591bb8800018ec92bb","fixation","img/fixation.png","null","","test","","","","","",""
"317.60000002384186","261913","pSARL_v2","pSARL_v2ndqfxfr7","5c9fe2591bb8800018ec92bb","freq","img/green_2bandit_a2.png","70","70","test","1","8","8","1","",""
"null","262412","pSARL_v2","pSARL_v2ndqfxfr7","5c9fe2591bb8800018ec92bb","freq_resp","img/green_2bandit_a.png","70","70","test","","","","1","",""
"null","262580","pSARL_v2","pSARL_v2ndqfxfr7","5c9fe2591bb8800018ec92bb","fixation","img/fixation.png","null","","test","","","","","",""
"295.5","262878","pSARL_v2","pSARL_v2ndqfxfr7","5c9fe2591bb8800018ec92bb","freq","img/green_2bandit_a2.png","70","70","test","1","9","9","1","",""
"null","263398","pSARL_v2","pSARL_v2ndqfxfr7","5c9fe2591bb8800018ec92bb","freq_resp","img/green_2bandit_a.png","70","70","test","","","","1","",""
"null","263552","pSARL_v2","pSARL_v2ndqfxfr7","5c9fe2591bb8800018ec92bb","fixation","img/fixation.png","null","","test","","","","","",""
"256.60000002384186","263811","pSARL_v2","pSARL_v2ndqfxfr7","5c9fe2591bb8800018ec92bb","freq","img/green_2bandit_a2.png","70","70","test","1","10","10","1","",""
"null","264370","pSARL_v2","pSARL_v2ndqfxfr7","5c9fe2591bb8800018ec92bb","freq_resp","img/green_2bandit_a.png","70","70","test","","","","1","",""
"null","264539","pSARL_v2","pSARL_v2ndqfxfr7","5c9fe2591bb8800018ec92bb","fixation","img/fixation.png","null","","test","","","","","",""
"251.5","264792","pSARL_v2","pSARL_v2ndqfxfr7","5c9fe2591bb8800018ec92bb","freq","img/green_2bandit_a2.png","70","70","test","1","11","11","1","",""
"null","265344","pSARL_v2","pSARL_v2ndqfxfr7","5c9fe2591bb8800018ec92bb","freq_resp","img/green_2bandit_a.png","70","70","test","","","","1","",""
"null","265498","pSARL_v2","pSARL_v2ndqfxfr7","5c9fe2591bb8800018ec92bb","fixation","img/fixation.png","null","","test","","","","","",""
"236.5","265738","pSARL_v2","pSARL_v2ndqfxfr7","5c9fe2591bb8800018ec92bb","freq","img/green_2bandit_a2.png","70","70","test","1","12","12","1","",""
"null","266305","pSARL_v2","pSARL_v2ndqfxfr7","5c9fe2591bb8800018ec92bb","freq_resp","img/green_2bandit_a.png","70","70","test","","","","1","",""
"null","266460","pSARL_v2","pSARL_v2ndqfxfr7","5c9fe2591bb8800018ec92bb","fixation","img/fixation.png","null","","test","","","","","",""
"267.5","266731","pSARL_v2","pSARL_v2ndqfxfr7","5c9fe2591bb8800018ec92bb","freq","img/green_2bandit_a2.png","70","70","test","1","13","13","1","",""
"null","267280","pSARL_v2","pSARL_v2ndqfxfr7","5c9fe2591bb8800018ec92bb","freq_resp","img/green_2bandit_a.png","70","70","test","","","","1","",""
"null","267435","pSARL_v2","pSARL_v2ndqfxfr7","5c9fe2591bb8800018ec92bb","fixation","img/fixation.png","null","","test","","","","","",""
"251.10000002384186","267689","pSARL_v2","pSARL_v2ndqfxfr7","5c9fe2591bb8800018ec92bb","freq","img/green_2bandit_a2.png","70","70","test","1","14","14","1","",""
"null","268251","pSARL_v2","pSARL_v2ndqfxfr7","5c9fe2591bb8800018ec92bb","freq_resp","img/green_2bandit_a.png","70","70","test","","","","1","",""
"null","268405","pSARL_v2","pSARL_v2ndqfxfr7","5c9fe2591bb8800018ec92bb","fixation","img/fixation.png","null","","test","","","","","",""
"257.10000002384186","268665","pSARL_v2","pSARL_v2ndqfxfr7","5c9fe2591bb8800018ec92bb","freq","img/green_2bandit_a2.png","70","70","test","1","15","15","1","",""
"null","269221","pSARL_v2","pSARL_v2ndqfxfr7","5c9fe2591bb8800018ec92bb","freq_resp","img/green_2bandit_a.png","70","70","test","","","","1","",""
"null","269375","pSARL_v2","pSARL_v2ndqfxfr7","5c9fe2591bb8800018ec92bb","fixation","img/fixation.png","null","","test","","","","","",""
"175.19999998807907","269552","pSARL_v2","pSARL_v2ndqfxfr7","5c9fe2591bb8800018ec92bb","freq","img/green_2bandit_a2.png","70","70","test","1","16","16","1","",""
"null","270191","pSARL_v2","pSARL_v2ndqfxfr7","5c9fe2591bb8800018ec92bb","freq_resp","img/green_2bandit_a.png","70","70","test","","","","1","",""
"null","270347","pSARL_v2","pSARL_v2ndqfxfr7","5c9fe2591bb8800018ec92bb","fixation","img/fixation.png","null","","test","","","","","",""
"209","270560","pSARL_v2","pSARL_v2ndqfxfr7","5c9fe2591bb8800018ec92bb","infreq","img/orange_2bandit_a2.png","70","68","test","0","17","17","1","",""
"null","271169","pSARL_v2","pSARL_v2ndqfxfr7","5c9fe2591bb8800018ec92bb","infreq_resp","img/orange_2bandit_a.png","70","68","test","","","","1","",""
"null","271325","pSARL_v2","pSARL_v2ndqfxfr7","5c9fe2591bb8800018ec92bb","fixation","img/fixation.png","null","","test","","","","","",""
"531.5","271859","pSARL_v2","pSARL_v2ndqfxfr7","5c9fe2591bb8800018ec92bb","infreq","img/orange_2bandit_a2.png","68","68","test","1","18","18","1","",""
"null","272140","pSARL_v2","pSARL_v2ndqfxfr7","5c9fe2591bb8800018ec92bb","infreq_resp","img/orange_2bandit_a.png","68","68","test","","","","1","",""
"null","272294","pSARL_v2","pSARL_v2ndqfxfr7","5c9fe2591bb8800018ec92bb","fixation","img/fixation.png","null","","test","","","","","",""
"491.60000002384186","272788","pSARL_v2","pSARL_v2ndqfxfr7","5c9fe2591bb8800018ec92bb","freq","img/green_2bandit_a2.png","70","70","test","1","19","19","1","",""
"null","273104","pSARL_v2","pSARL_v2ndqfxfr7","5c9fe2591bb8800018ec92bb","freq_resp","img/green_2bandit_a.png","70","70","test","","","","1","",""
"null","273258","pSARL_v2","pSARL_v2ndqfxfr7","5c9fe2591bb8800018ec92bb","fixation","img/fixation.png","null","","test","","","","","",""
"477","273737","pSARL_v2","pSARL_v2ndqfxfr7","5c9fe2591bb8800018ec92bb","reward","img/slot.png","74","","test","","","","","",""
"null","274495","pSARL_v2","pSARL_v2ndqfxfr7","5c9fe2591bb8800018ec92bb","points","<div class=""verylowPoints""> -6 </div>","null","na","test","","","","1","-6","0"
"null","275312","pSARL_v2","pSARL_v2ndqfxfr7","5c9fe2591bb8800018ec92bb","freq","img/green_2bandit_a2.png","null","70","test","0","20","20","2","",""
"null","275466","pSARL_v2","pSARL_v2ndqfxfr7","5c9fe2591bb8800018ec92bb","fixation","img/fixation.png","null","","test","","","","","",""
"774.5","276243","pSARL_v2","pSARL_v2ndqfxfr7","5c9fe2591bb8800018ec92bb","freq","img/green_2bandit_a2.png","70","70","test","1","21","21","2","",""
"null","276272","pSARL_v2","pSARL_v2ndqfxfr7","5c9fe2591bb8800018ec92bb","freq_resp","img/green_2bandit_a.png","70","70","test","","","","2","",""
"null","276440","pSARL_v2","pSARL_v2ndqfxfr7","5c9fe2591bb8800018ec92bb","fixation","img/fixation.png","null","","test","","","","","",""
"519.6999999880791","276963","pSARL_v2","pSARL_v2ndqfxfr7","5c9fe2591bb8800018ec92bb","freq","img/green_2bandit_a2.png","70","70","test","1","22","22","2","",""
"null","277259","pSARL_v2","pSARL_v2ndqfxfr7","5c9fe2591bb8800018ec92bb","freq_resp","img/green_2bandit_a.png","70","70","test","","","","2","",""
"null","277413","pSARL_v2","pSARL_v2ndqfxfr7","5c9fe2591bb8800018ec92bb","fixation","img/fixation.png","null","","test","","","","","",""
"353","277769","pSARL_v2","pSARL_v2ndqfxfr7","5c9fe2591bb8800018ec92bb","freq","img/green_2bandit_a2.png","70","70","test","1","23","23","2","",""
"null","278235","pSARL_v2","pSARL_v2ndqfxfr7","5c9fe2591bb8800018ec92bb","freq_resp","img/green_2bandit_a.png","70","70","test","","","","2","",""
"null","278403","pSARL_v2","pSARL_v2ndqfxfr7","5c9fe2591bb8800018ec92bb","fixation","img/fixation.png","null","","test","","","","","",""
"319.80000001192093","278727","pSARL_v2","pSARL_v2ndqfxfr7","5c9fe2591bb8800018ec92bb","freq","img/green_2bandit_a2.png","70","70","test","1","24","24","2","",""
"null","279218","pSARL_v2","pSARL_v2ndqfxfr7","5c9fe2591bb8800018ec92bb","freq_resp","img/green_2bandit_a.png","70","70","test","","","","2","",""
"null","279375","pSARL_v2","pSARL_v2ndqfxfr7","5c9fe2591bb8800018ec92bb","fixation","img/fixation.png","null","","test","","","","","",""
"310.2999999523163","279688","pSARL_v2","pSARL_v2ndqfxfr7","5c9fe2591bb8800018ec92bb","freq","img/green_2bandit_a2.png","70","70","test","1","25","25","2","",""
"null","280194","pSARL_v2","pSARL_v2ndqfxfr7","5c9fe2591bb8800018ec92bb","freq_resp","img/green_2bandit_a.png","70","70","test","","","","2","",""
"null","280351","pSARL_v2","pSARL_v2ndqfxfr7","5c9fe2591bb8800018ec92bb","fixation","img/fixation.png","null","","test","","","","","",""
"254.19999998807907","280608","pSARL_v2","pSARL_v2ndqfxfr7","5c9fe2591bb8800018ec92bb","freq","img/green_2bandit_a2.png","70","70","test","1","26","26","2","",""
"null","281158","pSARL_v2","pSARL_v2ndqfxfr7","5c9fe2591bb8800018ec92bb","freq_resp","img/green_2bandit_a.png","70","70","test","","","","2","",""
"null","281313","pSARL_v2","pSARL_v2ndqfxfr7","5c9fe2591bb8800018ec92bb","fixation","img/fixation.png","null","","test","","","","","",""
"196.5","281512","pSARL_v2","pSARL_v2ndqfxfr7","5c9fe2591bb8800018ec92bb","freq","img/green_2bandit_a2.png","70","70","test","1","27","27","2","",""
"null","282122","pSARL_v2","pSARL_v2ndqfxfr7","5c9fe2591bb8800018ec92bb","freq_resp","img/green_2bandit_a.png","70","70","test","","","","2","",""
"null","282289","pSARL_v2","pSARL_v2ndqfxfr7","5c9fe2591bb8800018ec92bb","fixation","img/fixation.png","null","","test","","","","","",""
"289.30000001192093","282582","pSARL_v2","pSARL_v2ndqfxfr7","5c9fe2591bb8800018ec92bb","freq","img/green_2bandit_a2.png","70","70","test","1","28","28","2","",""
"null","283107","pSARL_v2","pSARL_v2ndqfxfr7","5c9fe2591bb8800018ec92bb","freq_resp","img/green_2bandit_a.png","70","70","test","","","","2","",""
"null","283262","pSARL_v2","pSARL_v2ndqfxfr7","5c9fe2591bb8800018ec92bb","fixation","img/fixation.png","null","","test","","","","","",""
"366.7000000476837","283632","pSARL_v2","pSARL_v2ndqfxfr7","5c9fe2591bb8800018ec92bb","infreq","img/orange_2bandit_a2.png","68","68","test","1","29","29","2","",""
"null","284068","pSARL_v2","pSARL_v2ndqfxfr7","5c9fe2591bb8800018ec92bb","infreq_resp","img/orange_2bandit_a.png","68","68","test","","","","2","",""
"null","284222","pSARL_v2","pSARL_v2ndqfxfr7","5c9fe2591bb8800018ec92bb","fixation","img/fixation.png","null","","test","","","","","",""
"316.89999997615814","284541","pSARL_v2","pSARL_v2ndqfxfr7","5c9fe2591bb8800018ec92bb","infreq","img/orange_2bandit_a2.png","68","68","test","1","30","30","2","",""
"null","285027","pSARL_v2","pSARL_v2ndqfxfr7","5c9fe2591bb8800018ec92bb","infreq_resp","img/orange_2bandit_a.png","68","68","test","","","","2","",""
"null","285182","pSARL_v2","pSARL_v2ndqfxfr7","5c9fe2591bb8800018ec92bb","fixation","img/fixation.png","null","","test","","","","","",""
"324.2999999523163","285509","pSARL_v2","pSARL_v2ndqfxfr7","5c9fe2591bb8800018ec92bb","freq","img/green_2bandit_a2.png","70","70","test","1","31","31","2","",""
"null","286001","pSARL_v2","pSARL_v2ndqfxfr7","5c9fe2591bb8800018ec92bb","freq_resp","img/green_2bandit_a.png","70","70","test","","","","2","",""
"null","286156","pSARL_v2","pSARL_v2ndqfxfr7","5c9fe2591bb8800018ec92bb","fixation","img/fixation.png","null","","test","","","","","",""
"297.89999997615814","286457","pSARL_v2","pSARL_v2ndqfxfr7","5c9fe2591bb8800018ec92bb","freq","img/green_2bandit_a2.png","70","70","test","1","32","32","2","",""
"null","286969","pSARL_v2","pSARL_v2ndqfxfr7","5c9fe2591bb8800018ec92bb","freq_resp","img/green_2bandit_a.png","70","70","test","","","","2","",""
"null","287125","pSARL_v2","pSARL_v2ndqfxfr7","5c9fe2591bb8800018ec92bb","fixation","img/fixation.png","null","","test","","","","","",""
"296.10000002384186","287424","pSARL_v2","pSARL_v2ndqfxfr7","5c9fe2591bb8800018ec92bb","freq","img/green_2bandit_a2.png","70","70","test","1","33","33","2","",""
"null","287931","pSARL_v2","pSARL_v2ndqfxfr7","5c9fe2591bb8800018ec92bb","freq_resp","img/green_2bandit_a.png","70","70","test","","","","2","",""
"null","288087","pSARL_v2","pSARL_v2ndqfxfr7","5c9fe2591bb8800018ec92bb","fixation","img/fixation.png","null","","test","","","","","",""
"296.19999998807907","288386","pSARL_v2","pSARL_v2ndqfxfr7","5c9fe2591bb8800018ec92bb","infreq","img/orange_2bandit_a2.png","68","68","test","1","34","34","2","",""
"null","288906","pSARL_v2","pSARL_v2ndqfxfr7","5c9fe2591bb8800018ec92bb","infreq_resp","img/orange_2bandit_a.png","68","68","test","","","","2","",""
"null","289061","pSARL_v2","pSARL_v2ndqfxfr7","5c9fe2591bb8800018ec92bb","fixation","img/fixation.png","null","","test","","","","","",""
"389.80000001192093","289454","pSARL_v2","pSARL_v2ndqfxfr7","5c9fe2591bb8800018ec92bb","freq","img/green_2bandit_a2.png","70","70","test","1","35","35","2","",""
"null","289881","pSARL_v2","pSARL_v2ndqfxfr7","5c9fe2591bb8800018ec92bb","freq_resp","img/green_2bandit_a.png","70","70","test","","","","2","",""
"null","290035","pSARL_v2","pSARL_v2ndqfxfr7","5c9fe2591bb8800018ec92bb","fixation","img/fixation.png","null","","test","","","","","",""
"354.30000001192093","290393","pSARL_v2","pSARL_v2ndqfxfr7","5c9fe2591bb8800018ec92bb","freq","img/green_2bandit_a2.png","70","70","test","1","36","36","2","",""
"null","290856","pSARL_v2","pSARL_v2ndqfxfr7","5c9fe2591bb8800018ec92bb","freq_resp","img/green_2bandit_a.png","70","70","test","","","","2","",""
"null","291010","pSARL_v2","pSARL_v2ndqfxfr7","5c9fe2591bb8800018ec92bb","fixation","img/fixation.png","null","","test","","","","","",""
"289.7000000476837","291302","pSARL_v2","pSARL_v2ndqfxfr7","5c9fe2591bb8800018ec92bb","freq","img/green_2bandit_a2.png","70","70","test","1","37","37","2","",""
"null","291828","pSARL_v2","pSARL_v2ndqfxfr7","5c9fe2591bb8800018ec92bb","freq_resp","img/green_2bandit_a.png","70","70","test","","","","2","",""
"null","291991","pSARL_v2","pSARL_v2ndqfxfr7","5c9fe2591bb8800018ec92bb","fixation","img/fixation.png","null","","test","","","","","",""
"272","292265","pSARL_v2","pSARL_v2ndqfxfr7","5c9fe2591bb8800018ec92bb","freq","img/green_2bandit_a2.png","70","70","test","1","38","38","2","",""
"null","292812","pSARL_v2","pSARL_v2ndqfxfr7","5c9fe2591bb8800018ec92bb","freq_resp","img/green_2bandit_a.png","70","70","test","","","","2","",""
"null","292972","pSARL_v2","pSARL_v2ndqfxfr7","5c9fe2591bb8800018ec92bb","fixation","img/fixation.png","null","","test","","","","","",""
"243.5","293219","pSARL_v2","pSARL_v2ndqfxfr7","5c9fe2591bb8800018ec92bb","freq","img/green_2bandit_a2.png","70","70","test","1","39","39","2","",""
"null","293787","pSARL_v2","pSARL_v2ndqfxfr7","5c9fe2591bb8800018ec92bb","freq_resp","img/green_2bandit_a.png","70","70","test","","","","2","",""
"null","293942","pSARL_v2","pSARL_v2ndqfxfr7","5c9fe2591bb8800018ec92bb","fixation","img/fixation.png","null","","test","","","","","",""
"249","294194","pSARL_v2","pSARL_v2ndqfxfr7","5c9fe2591bb8800018ec92bb","freq","img/green_2bandit_a2.png","70","70","test","1","40","40","2","",""
"null","294760","pSARL_v2","pSARL_v2ndqfxfr7","5c9fe2591bb8800018ec92bb","freq_resp","img/green_2bandit_a.png","70","70","test","","","","2","",""
"null","294915","pSARL_v2","pSARL_v2ndqfxfr7","5c9fe2591bb8800018ec92bb","fixation","img/fixation.png","null","","test","","","","","",""
"234.0999999642372","295152","pSARL_v2","pSARL_v2ndqfxfr7","5c9fe2591bb8800018ec92bb","freq","img/green_2bandit_a2.png","70","70","test","1","41","41","2","",""
"null","295734","pSARL_v2","pSARL_v2ndqfxfr7","5c9fe2591bb8800018ec92bb","freq_resp","img/green_2bandit_a.png","70","70","test","","","","2","",""
"null","295903","pSARL_v2","pSARL_v2ndqfxfr7","5c9fe2591bb8800018ec92bb","fixation","img/fixation.png","null","","test","","","","","",""
"330.7999999523163","296236","pSARL_v2","pSARL_v2ndqfxfr7","5c9fe2591bb8800018ec92bb","reward","img/slot.png","74","","test","","","","","",""
"null","296999","pSARL_v2","pSARL_v2ndqfxfr7","5c9fe2591bb8800018ec92bb","points","<div class=""verylowPoints""> -11 </div>","null","na","test","","","","2","-11","1"
"574.8000000119209","297577","pSARL_v2","pSARL_v2ndqfxfr7","5c9fe2591bb8800018ec92bb","freq","img/green_2bandit_a2.png","70","70","test","1","42","42","3","",""
"null","297806","pSARL_v2","pSARL_v2ndqfxfr7","5c9fe2591bb8800018ec92bb","freq_resp","img/green_2bandit_a.png","70","70","test","","","","3","",""
"null","297974","pSARL_v2","pSARL_v2ndqfxfr7","5c9fe2591bb8800018ec92bb","fixation","img/fixation.png","null","","test","","","","","",""
"389.80000001192093","298366","pSARL_v2","pSARL_v2ndqfxfr7","5c9fe2591bb8800018ec92bb","freq","img/green_2bandit_a2.png","70","70","test","1","43","43","3","",""
"null","298781","pSARL_v2","pSARL_v2ndqfxfr7","5c9fe2591bb8800018ec92bb","freq_resp","img/green_2bandit_a.png","70","70","test","","","","3","",""
"null","298935","pSARL_v2","pSARL_v2ndqfxfr7","5c9fe2591bb8800018ec92bb","fixation","img/fixation.png","null","","test","","","","","",""
"273.89999997615814","299212","pSARL_v2","pSARL_v2ndqfxfr7","5c9fe2591bb8800018ec92bb","freq","img/green_2bandit_a2.png","70","70","test","1","44","44","3","",""
"null","299741","pSARL_v2","pSARL_v2ndqfxfr7","5c9fe2591bb8800018ec92bb","freq_resp","img/green_2bandit_a.png","70","70","test","","","","3","",""
"null","299896","pSARL_v2","pSARL_v2ndqfxfr7","5c9fe2591bb8800018ec92bb","fixation","img/fixation.png","null","","test","","","","","",""
"423.69999998807907","300322","pSARL_v2","pSARL_v2ndqfxfr7","5c9fe2591bb8800018ec92bb","freq","img/green_2bandit_a2.png","70","70","test","1","45","45","3","",""
"null","300705","pSARL_v2","pSARL_v2ndqfxfr7","5c9fe2591bb8800018ec92bb","freq_resp","img/green_2bandit_a.png","70","70","test","","","","3","",""
"null","300859","pSARL_v2","pSARL_v2ndqfxfr7","5c9fe2591bb8800018ec92bb","fixation","img/fixation.png","null","","test","","","","","",""
"264.69999998807907","301127","pSARL_v2","pSARL_v2ndqfxfr7","5c9fe2591bb8800018ec92bb","freq","img/green_2bandit_a2.png","70","70","test","1","46","46","3","",""
"null","301679","pSARL_v2","pSARL_v2ndqfxfr7","5c9fe2591bb8800018ec92bb","freq_resp","img/green_2bandit_a.png","70","70","test","","","","3","",""
"null","301837","pSARL_v2","pSARL_v2ndqfxfr7","5c9fe2591bb8800018ec92bb","fixation","img/fixation.png","null","","test","","","","","",""
"235.80000001192093","302075","pSARL_v2","pSARL_v2ndqfxfr7","5c9fe2591bb8800018ec92bb","freq","img/green_2bandit_a2.png","70","70","test","1","47","47","3","",""
"null","302657","pSARL_v2","pSARL_v2ndqfxfr7","5c9fe2591bb8800018ec92bb","freq_resp","img/green_2bandit_a.png","70","70","test","","","","3","",""
"null","302812","pSARL_v2","pSARL_v2ndqfxfr7","5c9fe2591bb8800018ec92bb","fixation","img/fixation.png","null","","test","","","","","",""
"67","302881","pSARL_v2","pSARL_v2ndqfxfr7","5c9fe2591bb8800018ec92bb","freq","img/green_2bandit_a2.png","70","70","test","1","48","48","3","",""
"null","303631","pSARL_v2","pSARL_v2ndqfxfr7","5c9fe2591bb8800018ec92bb","freq_resp","img/green_2bandit_a.png","70","70","test","","","","3","",""
"null","303788","pSARL_v2","pSARL_v2ndqfxfr7","5c9fe2591bb8800018ec92bb","fixation","img/fixation.png","null","","test","","","","","",""
"null","304596","pSARL_v2","pSARL_v2ndqfxfr7","5c9fe2591bb8800018ec92bb","freq","img/green_2bandit_a2.png","null","70","test","0","49","49","3","",""
"null","304753","pSARL_v2","pSARL_v2ndqfxfr7","5c9fe2591bb8800018ec92bb","fixation","img/fixation.png","null","","test","","","","","",""
"null","305556","pSARL_v2","pSARL_v2ndqfxfr7","5c9fe2591bb8800018ec92bb","freq","img/green_2bandit_a2.png","null","70","test","0","50","50","3","",""
"null","305723","pSARL_v2","pSARL_v2ndqfxfr7","5c9fe2591bb8800018ec92bb","fixation","img/fixation.png","null","","test","","","","","",""
"87.80000001192093","305815","pSARL_v2","pSARL_v2ndqfxfr7","5c9fe2591bb8800018ec92bb","freq","img/green_2bandit_a2.png","70","70","test","1","51","51","3","",""
"null","306543","pSARL_v2","pSARL_v2ndqfxfr7","5c9fe2591bb8800018ec92bb","freq_resp","img/green_2bandit_a.png","70","70","test","","","","3","",""
"null","306697","pSARL_v2","pSARL_v2ndqfxfr7","5c9fe2591bb8800018ec92bb","fixation","img/fixation.png","null","","test","","","","","",""
"308.5","307008","pSARL_v2","pSARL_v2ndqfxfr7","5c9fe2591bb8800018ec92bb","freq","img/green_2bandit_a2.png","70","70","test","1","52","52","3","",""
"null","307516","pSARL_v2","pSARL_v2ndqfxfr7","5c9fe2591bb8800018ec92bb","freq_resp","img/green_2bandit_a.png","70","70","test","","","","3","",""
"null","307671","pSARL_v2","pSARL_v2ndqfxfr7","5c9fe2591bb8800018ec92bb","fixation","img/fixation.png","null","","test","","","","","",""
"320.9000000357628","307994","pSARL_v2","pSARL_v2ndqfxfr7","5c9fe2591bb8800018ec92bb","freq","img/green_2bandit_a2.png","70","70","test","1","53","53","3","",""
"null","308480","pSARL_v2","pSARL_v2ndqfxfr7","5c9fe2591bb8800018ec92bb","freq_resp","img/green_2bandit_a.png","70","70","test","","","","3","",""
"null","308635","pSARL_v2","pSARL_v2ndqfxfr7","5c9fe2591bb8800018ec92bb","fixation","img/fixation.png","null","","test","","","","","",""
"509.80000001192093","309148","pSARL_v2","pSARL_v2ndqfxfr7","5c9fe2591bb8800018ec92bb","infreq","img/orange_2bandit_a2.png","68","68","test","1","54","54","3","",""
"null","309457","pSARL_v2","pSARL_v2ndqfxfr7","5c9fe2591bb8800018ec92bb","infreq_resp","img/orange_2bandit_a.png","68","68","test","","","","3","",""
"null","309625","pSARL_v2","pSARL_v2ndqfxfr7","5c9fe2591bb8800018ec92bb","fixation","img/fixation.png","null","","test","","","","","",""
"458","310086","pSARL_v2","pSARL_v2ndqfxfr7","5c9fe2591bb8800018ec92bb","infreq","img/orange_2bandit_a2.png","68","68","test","1","55","55","3","",""
"null","310444","pSARL_v2","pSARL_v2ndqfxfr7","5c9fe2591bb8800018ec92bb","infreq_resp","img/orange_2bandit_a.png","68","68","test","","","","3","",""
"null","310598","pSARL_v2","pSARL_v2ndqfxfr7","5c9fe2591bb8800018ec92bb","fixation","img/fixation.png","null","","test","","","","","",""
"441.9000000357628","311043","pSARL_v2","pSARL_v2ndqfxfr7","5c9fe2591bb8800018ec92bb","freq","img/green_2bandit_a2.png","70","70","test","1","56","56","3","",""
"null","311418","pSARL_v2","pSARL_v2ndqfxfr7","5c9fe2591bb8800018ec92bb","freq_resp","img/green_2bandit_a.png","70","70","test","","","","3","",""
"null","311586","pSARL_v2","pSARL_v2ndqfxfr7","5c9fe2591bb8800018ec92bb","fixation","img/fixation.png","null","","test","","","","","",""
"341.9000000357628","311931","pSARL_v2","pSARL_v2ndqfxfr7","5c9fe2591bb8800018ec92bb","freq","img/green_2bandit_a2.png","70","70","test","1","57","57","3","",""
"null","312404","pSARL_v2","pSARL_v2ndqfxfr7","5c9fe2591bb8800018ec92bb","freq_resp","img/green_2bandit_a.png","70","70","test","","","","3","",""
"null","312571","pSARL_v2","pSARL_v2ndqfxfr7","5c9fe2591bb8800018ec92bb","fixation","img/fixation.png","null","","test","","","","","",""
"439","313013","pSARL_v2","pSARL_v2ndqfxfr7","5c9fe2591bb8800018ec92bb","infreq","img/orange_2bandit_a2.png","68","68","test","1","58","58","3","",""
"null","313379","pSARL_v2","pSARL_v2ndqfxfr7","5c9fe2591bb8800018ec92bb","infreq_resp","img/orange_2bandit_a.png","68","68","test","","","","3","",""
"null","313541","pSARL_v2","pSARL_v2ndqfxfr7","5c9fe2591bb8800018ec92bb","fixation","img/fixation.png","null","","test","","","","","",""
"439.60000002384186","313983","pSARL_v2","pSARL_v2ndqfxfr7","5c9fe2591bb8800018ec92bb","freq","img/green_2bandit_a2.png","70","70","test","1","59","59","3","",""
"null","314350","pSARL_v2","pSARL_v2ndqfxfr7","5c9fe2591bb8800018ec92bb","freq_resp","img/green_2bandit_a.png","70","70","test","","","","3","",""
"null","314505","pSARL_v2","pSARL_v2ndqfxfr7","5c9fe2591bb8800018ec92bb","fixation","img/fixation.png","null","","test","","","","","",""
"357.10000002384186","314865","pSARL_v2","pSARL_v2ndqfxfr7","5c9fe2591bb8800018ec92bb","freq","img/green_2bandit_a2.png","70","70","test","1","60","60","3","",""
"null","315326","pSARL_v2","pSARL_v2ndqfxfr7","5c9fe2591bb8800018ec92bb","freq_resp","img/green_2bandit_a.png","70","70","test","","","","3","",""
"null","315481","pSARL_v2","pSARL_v2ndqfxfr7","5c9fe2591bb8800018ec92bb","fixation","img/fixation.png","null","","test","","","","","",""
"301.10000002384186","315785","pSARL_v2","pSARL_v2ndqfxfr7","5c9fe2591bb8800018ec92bb","freq","img/green_2bandit_a2.png","70","70","test","1","61","61","3","",""
"null","316297","pSARL_v2","pSARL_v2ndqfxfr7","5c9fe2591bb8800018ec92bb","freq_resp","img/green_2bandit_a.png","70","70","test","","","","3","",""
"null","316453","pSARL_v2","pSARL_v2ndqfxfr7","5c9fe2591bb8800018ec92bb","fixation","img/fixation.png","null","","test","","","","","",""
"271.39999997615814","316728","pSARL_v2","pSARL_v2ndqfxfr7","5c9fe2591bb8800018ec92bb","freq","img/green_2bandit_a2.png","70","70","test","1","62","62","3","",""
"null","317259","pSARL_v2","pSARL_v2ndqfxfr7","5c9fe2591bb8800018ec92bb","freq_resp","img/green_2bandit_a.png","70","70","test","","","","3","",""
"null","317415","pSARL_v2","pSARL_v2ndqfxfr7","5c9fe2591bb8800018ec92bb","fixation","img/fixation.png","null","","test","","","","","",""
"401","317819","pSARL_v2","pSARL_v2ndqfxfr7","5c9fe2591bb8800018ec92bb","reward","img/slot.png","74","","test","","","","","",""
"null","318579","pSARL_v2","pSARL_v2ndqfxfr7","5c9fe2591bb8800018ec92bb","points","<div class=""verylowPoints""> -7 </div>","null","na","test","","","","3","-7","2"
"546.6999999880791","319129","pSARL_v2","pSARL_v2ndqfxfr7","5c9fe2591bb8800018ec92bb","freq","img/green_2bandit_a2.png","70","70","test","1","63","63","4","",""
"null","319399","pSARL_v2","pSARL_v2ndqfxfr7","5c9fe2591bb8800018ec92bb","freq_resp","img/green_2bandit_a.png","70","70","test","","","","4","",""
"null","319553","pSARL_v2","pSARL_v2ndqfxfr7","5c9fe2591bb8800018ec92bb","fixation","img/fixation.png","null","","test","","","","","",""
"477.80000001192093","320034","pSARL_v2","pSARL_v2ndqfxfr7","5c9fe2591bb8800018ec92bb","freq","img/green_2bandit_a2.png","70","70","test","1","64","64","4","",""
"null","320359","pSARL_v2","pSARL_v2ndqfxfr7","5c9fe2591bb8800018ec92bb","freq_resp","img/green_2bandit_a.png","70","70","test","","","","4","",""
"null","320513","pSARL_v2","pSARL_v2ndqfxfr7","5c9fe2591bb8800018ec92bb","fixation","img/fixation.png","null","","test","","","","","",""
"339.69999998807907","320856","pSARL_v2","pSARL_v2ndqfxfr7","5c9fe2591bb8800018ec92bb","freq","img/green_2bandit_a2.png","70","70","test","1","65","65","4","",""
"null","321334","pSARL_v2","pSARL_v2ndqfxfr7","5c9fe2591bb8800018ec92bb","freq_resp","img/green_2bandit_a.png","70","70","test","","","","4","",""
"null","321488","pSARL_v2","pSARL_v2ndqfxfr7","5c9fe2591bb8800018ec92bb","fixation","img/fixation.png","null","","test","","","","","",""
"347.5","321838","pSARL_v2","pSARL_v2ndqfxfr7","5c9fe2591bb8800018ec92bb","freq","img/green_2bandit_a2.png","70","70","test","1","66","66","4","",""
"null","322297","pSARL_v2","pSARL_v2ndqfxfr7","5c9fe2591bb8800018ec92bb","freq_resp","img/green_2bandit_a.png","70","70","test","","","","4","",""
"null","322451","pSARL_v2","pSARL_v2ndqfxfr7","5c9fe2591bb8800018ec92bb","fixation","img/fixation.png","null","","test","","","","","",""
"339.80000001192093","322794","pSARL_v2","pSARL_v2ndqfxfr7","5c9fe2591bb8800018ec92bb","freq","img/green_2bandit_a2.png","70","70","test","1","67","67","4","",""
"null","323257","pSARL_v2","pSARL_v2ndqfxfr7","5c9fe2591bb8800018ec92bb","freq_resp","img/green_2bandit_a.png","70","70","test","","","","4","",""
"null","323424","pSARL_v2","pSARL_v2ndqfxfr7","5c9fe2591bb8800018ec92bb","fixation","img/fixation.png","null","","test","","","","","",""
"308.60000002384186","323735","pSARL_v2","pSARL_v2ndqfxfr7","5c9fe2591bb8800018ec92bb","freq","img/green_2bandit_a2.png","70","70","test","1","68","68","4","",""
"null","324231","pSARL_v2","pSARL_v2ndqfxfr7","5c9fe2591bb8800018ec92bb","freq_resp","img/green_2bandit_a.png","70","70","test","","","","4","",""
"null","324386","pSARL_v2","pSARL_v2ndqfxfr7","5c9fe2591bb8800018ec92bb","fixation","img/fixation.png","null","","test","","","","","",""
"441.5999999642372","324831","pSARL_v2","pSARL_v2ndqfxfr7","5c9fe2591bb8800018ec92bb","infreq","img/orange_2bandit_a2.png","68","68","test","1","69","69","4","",""
"null","325203","pSARL_v2","pSARL_v2ndqfxfr7","5c9fe2591bb8800018ec92bb","infreq_resp","img/orange_2bandit_a.png","68","68","test","","","","4","",""
"null","325357","pSARL_v2","pSARL_v2ndqfxfr7","5c9fe2591bb8800018ec92bb","fixation","img/fixation.png","null","","test","","","","","",""
"424.7000000476837","325785","pSARL_v2","pSARL_v2ndqfxfr7","5c9fe2591bb8800018ec92bb","freq","img/green_2bandit_a2.png","70","70","test","1","70","70","4","",""
"null","326169","pSARL_v2","pSARL_v2ndqfxfr7","5c9fe2591bb8800018ec92bb","freq_resp","img/green_2bandit_a.png","70","70","test","","","","4","",""
"null","326324","pSARL_v2","pSARL_v2ndqfxfr7","5c9fe2591bb8800018ec92bb","fixation","img/fixation.png","null","","test","","","","","",""
"359.39999997615814","326686","pSARL_v2","pSARL_v2ndqfxfr7","5c9fe2591bb8800018ec92bb","infreq","img/orange_2bandit_a2.png","68","68","test","1","71","71","4","",""
"null","327141","pSARL_v2","pSARL_v2ndqfxfr7","5c9fe2591bb8800018ec92bb","infreq_resp","img/orange_2bandit_a.png","68","68","test","","","","4","",""
"null","327295","pSARL_v2","pSARL_v2ndqfxfr7","5c9fe2591bb8800018ec92bb","fixation","img/fixation.png","null","","test","","","","","",""
"476.39999997615814","327774","pSARL_v2","pSARL_v2ndqfxfr7","5c9fe2591bb8800018ec92bb","freq","img/green_2bandit_a2.png","70","70","test","1","72","72","4","",""
"null","328113","pSARL_v2","pSARL_v2ndqfxfr7","5c9fe2591bb8800018ec92bb","freq_resp","img/green_2bandit_a.png","70","70","test","","","","4","",""
"null","328267","pSARL_v2","pSARL_v2ndqfxfr7","5c9fe2591bb8800018ec92bb","fixation","img/fixation.png","null","","test","","","","","",""
"424.69999998807907","328695","pSARL_v2","pSARL_v2ndqfxfr7","5c9fe2591bb8800018ec92bb","freq","img/green_2bandit_a2.png","70","70","test","1","73","73","4","",""
"null","329087","pSARL_v2","pSARL_v2ndqfxfr7","5c9fe2591bb8800018ec92bb","freq_resp","img/green_2bandit_a.png","70","70","test","","","","4","",""
"null","329256","pSARL_v2","pSARL_v2ndqfxfr7","5c9fe2591bb8800018ec92bb","fixation","img/fixation.png","null","","test","","","","","",""
"343","329602","pSARL_v2","pSARL_v2ndqfxfr7","5c9fe2591bb8800018ec92bb","freq","img/green_2bandit_a2.png","70","70","test","1","74","74","4","",""
"null","330075","pSARL_v2","pSARL_v2ndqfxfr7","5c9fe2591bb8800018ec92bb","freq_resp","img/green_2bandit_a.png","70","70","test","","","","4","",""
"null","330229","pSARL_v2","pSARL_v2ndqfxfr7","5c9fe2591bb8800018ec92bb","fixation","img/fixation.png","null","","test","","","","","",""
"308.19999998807907","330540","pSARL_v2","pSARL_v2ndqfxfr7","5c9fe2591bb8800018ec92bb","freq","img/green_2bandit_a2.png","70","70","test","1","75","75","4","",""
"null","331048","pSARL_v2","pSARL_v2ndqfxfr7","5c9fe2591bb8800018ec92bb","freq_resp","img/green_2bandit_a.png","70","70","test","","","","4","",""
"null","331204","pSARL_v2","pSARL_v2ndqfxfr7","5c9fe2591bb8800018ec92bb","fixation","img/fixation.png","null","","test","","","","","",""
"264.7999999523163","331472","pSARL_v2","pSARL_v2ndqfxfr7","5c9fe2591bb8800018ec92bb","freq","img/green_2bandit_a2.png","70","70","test","1","76","76","4","",""
"null","332024","pSARL_v2","pSARL_v2ndqfxfr7","5c9fe2591bb8800018ec92bb","freq_resp","img/green_2bandit_a.png","70","70","test","","","","4","",""
"null","332179","pSARL_v2","pSARL_v2ndqfxfr7","5c9fe2591bb8800018ec92bb","fixation","img/fixation.png","null","","test","","","","","",""
"213.30000001192093","332395","pSARL_v2","pSARL_v2ndqfxfr7","5c9fe2591bb8800018ec92bb","freq","img/green_2bandit_a2.png","70","70","test","1","77","77","4","",""
"null","332986","pSARL_v2","pSARL_v2ndqfxfr7","5c9fe2591bb8800018ec92bb","freq_resp","img/green_2bandit_a.png","70","70","test","","","","4","",""
"null","333153","pSARL_v2","pSARL_v2ndqfxfr7","5c9fe2591bb8800018ec92bb","fixation","img/fixation.png","null","","test","","","","","",""
"216.89999997615814","333373","pSARL_v2","pSARL_v2ndqfxfr7","5c9fe2591bb8800018ec92bb","freq","img/green_2bandit_a2.png","70","70","test","1","78","78","4","",""
"null","333975","pSARL_v2","pSARL_v2ndqfxfr7","5c9fe2591bb8800018ec92bb","freq_resp","img/green_2bandit_a.png","70","70","test","","","","4","",""
"null","334132","pSARL_v2","pSARL_v2ndqfxfr7","5c9fe2591bb8800018ec92bb","fixation","img/fixation.png","null","","test","","","","","",""
"240.80000001192093","334376","pSARL_v2","pSARL_v2ndqfxfr7","5c9fe2591bb8800018ec92bb","freq","img/green_2bandit_a2.png","70","70","test","1","79","79","4","",""
"null","334938","pSARL_v2","pSARL_v2ndqfxfr7","5c9fe2591bb8800018ec92bb","freq_resp","img/green_2bandit_a.png","70","70","test","","","","4","",""
"null","335093","pSARL_v2","pSARL_v2ndqfxfr7","5c9fe2591bb8800018ec92bb","fixation","img/fixation.png","null","","test","","","","","",""
"257","335353","pSARL_v2","pSARL_v2ndqfxfr7","5c9fe2591bb8800018ec92bb","freq","img/green_2bandit_a2.png","70","70","test","1","80","80","4","",""
"null","335905","pSARL_v2","pSARL_v2ndqfxfr7","5c9fe2591bb8800018ec92bb","freq_resp","img/green_2bandit_a.png","70","70","test","","","","4","",""
"null","336060","pSARL_v2","pSARL_v2ndqfxfr7","5c9fe2591bb8800018ec92bb","fixation","img/fixation.png","null","","test","","","","","",""
"251","336313","pSARL_v2","pSARL_v2ndqfxfr7","5c9fe2591bb8800018ec92bb","freq","img/green_2bandit_a2.png","70","70","test","1","81","81","4","",""
"null","336866","pSARL_v2","pSARL_v2ndqfxfr7","5c9fe2591bb8800018ec92bb","freq_resp","img/green_2bandit_a.png","70","70","test","","","","4","",""
"null","337021","pSARL_v2","pSARL_v2ndqfxfr7","5c9fe2591bb8800018ec92bb","fixation","img/fixation.png","null","","test","","","","","",""
"247.70000004768372","337271","pSARL_v2","pSARL_v2ndqfxfr7","5c9fe2591bb8800018ec92bb","freq","img/green_2bandit_a2.png","70","70","test","1","82","82","4","",""
"null","337827","pSARL_v2","pSARL_v2ndqfxfr7","5c9fe2591bb8800018ec92bb","freq_resp","img/green_2bandit_a.png","70","70","test","","","","4","",""
"null","337984","pSARL_v2","pSARL_v2ndqfxfr7","5c9fe2591bb8800018ec92bb","fixation","img/fixation.png","null","","test","","","","","",""
"242.30000001192093","338229","pSARL_v2","pSARL_v2ndqfxfr7","5c9fe2591bb8800018ec92bb","freq","img/green_2bandit_a2.png","70","70","test","1","83","83","4","",""
"null","338800","pSARL_v2","pSARL_v2ndqfxfr7","5c9fe2591bb8800018ec92bb","freq_resp","img/green_2bandit_a.png","70","70","test","","","","4","",""
"null","338961","pSARL_v2","pSARL_v2ndqfxfr7","5c9fe2591bb8800018ec92bb","fixation","img/fixation.png","null","","test","","","","","",""
"270.19999998807907","339234","pSARL_v2","pSARL_v2ndqfxfr7","5c9fe2591bb8800018ec92bb","infreq","img/orange_2bandit_a2.png","68","68","test","1","84","84","4","",""
"null","339778","pSARL_v2","pSARL_v2ndqfxfr7","5c9fe2591bb8800018ec92bb","infreq_resp","img/orange_2bandit_a.png","68","68","test","","","","4","",""
"null","339946","pSARL_v2","pSARL_v2ndqfxfr7","5c9fe2591bb8800018ec92bb","fixation","img/fixation.png","null","","test","","","","","",""
"418.5","340367","pSARL_v2","pSARL_v2ndqfxfr7","5c9fe2591bb8800018ec92bb","freq","img/green_2bandit_a2.png","70","70","test","1","85","85","4","",""
"null","340765","pSARL_v2","pSARL_v2ndqfxfr7","5c9fe2591bb8800018ec92bb","freq_resp","img/green_2bandit_a.png","70","70","test","","","","4","",""
"null","340933","pSARL_v2","pSARL_v2ndqfxfr7","5c9fe2591bb8800018ec92bb","fixation","img/fixation.png","null","","test","","","","","",""
"333.2000000476837","341269","pSARL_v2","pSARL_v2ndqfxfr7","5c9fe2591bb8800018ec92bb","freq","img/green_2bandit_a2.png","70","70","test","1","86","86","4","",""
"null","341753","pSARL_v2","pSARL_v2ndqfxfr7","5c9fe2591bb8800018ec92bb","freq_resp","img/green_2bandit_a.png","70","70","test","","","","4","",""
"null","341907","pSARL_v2","pSARL_v2ndqfxfr7","5c9fe2591bb8800018ec92bb","fixation","img/fixation.png","null","","test","","","","","",""
"271.5999999642372","342181","pSARL_v2","pSARL_v2ndqfxfr7","5c9fe2591bb8800018ec92bb","freq","img/green_2bandit_a2.png","70","70","test","1","87","87","4","",""
"null","342729","pSARL_v2","pSARL_v2ndqfxfr7","5c9fe2591bb8800018ec92bb","freq_resp","img/green_2bandit_a.png","70","70","test","","","","4","",""
"null","342884","pSARL_v2","pSARL_v2ndqfxfr7","5c9fe2591bb8800018ec92bb","fixation","img/fixation.png","null","","test","","","","","",""
"235","343122","pSARL_v2","pSARL_v2ndqfxfr7","5c9fe2591bb8800018ec92bb","freq","img/green_2bandit_a2.png","70","70","test","1","88","88","4","",""
"null","343701","pSARL_v2","pSARL_v2ndqfxfr7","5c9fe2591bb8800018ec92bb","freq_resp","img/green_2bandit_a.png","70","70","test","","","","4","",""
"null","343855","pSARL_v2","pSARL_v2ndqfxfr7","5c9fe2591bb8800018ec92bb","fixation","img/fixation.png","null","","test","","","","","",""
"250.80000001192093","344109","pSARL_v2","pSARL_v2ndqfxfr7","5c9fe2591bb8800018ec92bb","freq","img/green_2bandit_a2.png","70","70","test","1","89","89","4","",""
"null","344675","pSARL_v2","pSARL_v2ndqfxfr7","5c9fe2591bb8800018ec92bb","freq_resp","img/green_2bandit_a.png","70","70","test","","","","4","",""
"null","344841","pSARL_v2","pSARL_v2ndqfxfr7","5c9fe2591bb8800018ec92bb","fixation","img/fixation.png","null","","test","","","","","",""
"424","345268","pSARL_v2","pSARL_v2ndqfxfr7","5c9fe2591bb8800018ec92bb","reward","img/slot.png","74","","test","","","","","",""
"null","346036","pSARL_v2","pSARL_v2ndqfxfr7","5c9fe2591bb8800018ec92bb","points","<div class=""verylowPoints""> -3 </div>","null","na","test","","","","4","-3","3"
"684","346723","pSARL_v2","pSARL_v2ndqfxfr7","5c9fe2591bb8800018ec92bb","freq","img/green_2bandit_a2.png","70","70","test","1","90","90","5","",""
"null","346857","pSARL_v2","pSARL_v2ndqfxfr7","5c9fe2591bb8800018ec92bb","freq_resp","img/green_2bandit_a.png","70","70","test","","","","5","",""
"null","347011","pSARL_v2","pSARL_v2ndqfxfr7","5c9fe2591bb8800018ec92bb","fixation","img/fixation.png","null","","test","","","","","",""
"615.1000000238419","347629","pSARL_v2","pSARL_v2ndqfxfr7","5c9fe2591bb8800018ec92bb","freq","img/green_2bandit_a2.png","70","70","test","1","91","91","5","",""
"null","347817","pSARL_v2","pSARL_v2ndqfxfr7","5c9fe2591bb8800018ec92bb","freq_resp","img/green_2bandit_a.png","70","70","test","","","","5","",""
"null","347971","pSARL_v2","pSARL_v2ndqfxfr7","5c9fe2591bb8800018ec92bb","fixation","img/fixation.png","null","","test","","","","","",""
"563.1999999880791","348537","pSARL_v2","pSARL_v2ndqfxfr7","5c9fe2591bb8800018ec92bb","freq","img/green_2bandit_a2.png","70","70","test","1","92","92","5","",""
"null","348776","pSARL_v2","pSARL_v2ndqfxfr7","5c9fe2591bb8800018ec92bb","freq_resp","img/green_2bandit_a.png","70","70","test","","","","5","",""
"null","348931","pSARL_v2","pSARL_v2ndqfxfr7","5c9fe2591bb8800018ec92bb","fixation","img/fixation.png","null","","test","","","","","",""
"524.3999999761581","349459","pSARL_v2","pSARL_v2ndqfxfr7","5c9fe2591bb8800018ec92bb","freq","img/green_2bandit_a2.png","70","70","test","1","93","93","5","",""
"null","349745","pSARL_v2","pSARL_v2ndqfxfr7","5c9fe2591bb8800018ec92bb","freq_resp","img/green_2bandit_a.png","70","70","test","","","","5","",""
"null","349900","pSARL_v2","pSARL_v2ndqfxfr7","5c9fe2591bb8800018ec92bb","fixation","img/fixation.png","null","","test","","","","","",""
"364.89999997615814","350268","pSARL_v2","pSARL_v2ndqfxfr7","5c9fe2591bb8800018ec92bb","freq","img/green_2bandit_a2.png","70","70","test","1","94","94","5","",""
"null","350710","pSARL_v2","pSARL_v2ndqfxfr7","5c9fe2591bb8800018ec92bb","freq_resp","img/green_2bandit_a.png","70","70","test","","","","5","",""
"null","350866","pSARL_v2","pSARL_v2ndqfxfr7","5c9fe2591bb8800018ec92bb","fixation","img/fixation.png","null","","test","","","","","",""
"null","351681","pSARL_v2","pSARL_v2ndqfxfr7","5c9fe2591bb8800018ec92bb","infreq","img/orange_2bandit_a2.png","null","68","test","0","95","95","5","",""
"null","351835","pSARL_v2","pSARL_v2ndqfxfr7","5c9fe2591bb8800018ec92bb","fixation","img/fixation.png","null","","test","","","","","",""
"804","352642","pSARL_v2","pSARL_v2ndqfxfr7","5c9fe2591bb8800018ec92bb","freq","img/green_2bandit_a2.png","70","70","test","1","96","96","5","",""
"null","352807","pSARL_v2","pSARL_v2ndqfxfr7","5c9fe2591bb8800018ec92bb","fixation","img/fixation.png","null","","test","","","","","",""
"761.3000000119209","353571","pSARL_v2","pSARL_v2ndqfxfr7","5c9fe2591bb8800018ec92bb","freq","img/green_2bandit_a2.png","70","70","test","1","97","97","5","",""
"null","353625","pSARL_v2","pSARL_v2ndqfxfr7","5c9fe2591bb8800018ec92bb","freq_resp","img/green_2bandit_a.png","70","70","test","","","","5","",""
"null","353778","pSARL_v2","pSARL_v2ndqfxfr7","5c9fe2591bb8800018ec92bb","fixation","img/fixation.png","null","","test","","","","","",""
"625.6000000238419","354406","pSARL_v2","pSARL_v2ndqfxfr7","5c9fe2591bb8800018ec92bb","freq","img/green_2bandit_a2.png","70","70","test","1","98","98","5","",""
"null","354595","pSARL_v2","pSARL_v2ndqfxfr7","5c9fe2591bb8800018ec92bb","freq_resp","img/green_2bandit_a.png","70","70","test","","","","5","",""
"null","354762","pSARL_v2","pSARL_v2ndqfxfr7","5c9fe2591bb8800018ec92bb","fixation","img/fixation.png","null","","test","","","","","",""
"478.5","355243","pSARL_v2","pSARL_v2ndqfxfr7","5c9fe2591bb8800018ec92bb","freq","img/green_2bandit_a2.png","70","70","test","1","99","99","5","",""
"null","355582","pSARL_v2","pSARL_v2ndqfxfr7","5c9fe2591bb8800018ec92bb","freq_resp","img/green_2bandit_a.png","70","70","test","","","","5","",""
"null","355750","pSARL_v2","pSARL_v2ndqfxfr7","5c9fe2591bb8800018ec92bb","fixation","img/fixation.png","null","","test","","","","","",""
"272","356024","pSARL_v2","pSARL_v2ndqfxfr7","5c9fe2591bb8800018ec92bb","freq","img/green_2bandit_a2.png","70","70","test","1","100","100","5","",""
"null","356569","pSARL_v2","pSARL_v2ndqfxfr7","5c9fe2591bb8800018ec92bb","freq_resp","img/green_2bandit_a.png","70","70","test","","","","5","",""
"null","356723","pSARL_v2","pSARL_v2ndqfxfr7","5c9fe2591bb8800018ec92bb","fixation","img/fixation.png","null","","test","","","","","",""
"260.69999998807907","356985","pSARL_v2","pSARL_v2ndqfxfr7","5c9fe2591bb8800018ec92bb","freq","img/green_2bandit_a2.png","70","70","test","1","101","101","5","",""
"null","357535","pSARL_v2","pSARL_v2ndqfxfr7","5c9fe2591bb8800018ec92bb","freq_resp","img/green_2bandit_a.png","70","70","test","","","","5","",""
"null","357689","pSARL_v2","pSARL_v2ndqfxfr7","5c9fe2591bb8800018ec92bb","fixation","img/fixation.png","null","","test","","","","","",""
"247","357939","pSARL_v2","pSARL_v2ndqfxfr7","5c9fe2591bb8800018ec92bb","freq","img/green_2bandit_a2.png","70","70","test","1","102","102","5","",""
"null","358498","pSARL_v2","pSARL_v2ndqfxfr7","5c9fe2591bb8800018ec92bb","freq_resp","img/green_2bandit_a.png","70","70","test","","","","5","",""
"null","358654","pSARL_v2","pSARL_v2ndqfxfr7","5c9fe2591bb8800018ec92bb","fixation","img/fixation.png","null","","test","","","","","",""
"342.5999999642372","358999","pSARL_v2","pSARL_v2ndqfxfr7","5c9fe2591bb8800018ec92bb","infreq","img/orange_2bandit_a2.png","68","68","test","1","103","103","5","",""
"null","359468","pSARL_v2","pSARL_v2ndqfxfr7","5c9fe2591bb8800018ec92bb","infreq_resp","img/orange_2bandit_a.png","68","68","test","","","","5","",""
"null","359636","pSARL_v2","pSARL_v2ndqfxfr7","5c9fe2591bb8800018ec92bb","fixation","img/fixation.png","null","","test","","","","","",""
"320.69999998807907","359959","pSARL_v2","pSARL_v2ndqfxfr7","5c9fe2591bb8800018ec92bb","freq","img/green_2bandit_a2.png","70","70","test","1","104","104","5","",""
"null","360442","pSARL_v2","pSARL_v2ndqfxfr7","5c9fe2591bb8800018ec92bb","freq_resp","img/green_2bandit_a.png","70","70","test","","","","5","",""
"null","360596","pSARL_v2","pSARL_v2ndqfxfr7","5c9fe2591bb8800018ec92bb","fixation","img/fixation.png","null","","test","","","","","",""
"321.89999997615814","360921","pSARL_v2","pSARL_v2ndqfxfr7","5c9fe2591bb8800018ec92bb","freq","img/green_2bandit_a2.png","70","70","test","1","105","105","5","",""
"null","361410","pSARL_v2","pSARL_v2ndqfxfr7","5c9fe2591bb8800018ec92bb","freq_resp","img/green_2bandit_a.png","70","70","test","","","","5","",""
"null","361564","pSARL_v2","pSARL_v2ndqfxfr7","5c9fe2591bb8800018ec92bb","fixation","img/fixation.png","null","","test","","","","","",""
"268.9000000357628","361836","pSARL_v2","pSARL_v2ndqfxfr7","5c9fe2591bb8800018ec92bb","freq","img/green_2bandit_a2.png","70","70","test","1","106","106","5","",""
"null","362380","pSARL_v2","pSARL_v2ndqfxfr7","5c9fe2591bb8800018ec92bb","freq_resp","img/green_2bandit_a.png","70","70","test","","","","5","",""
"null","362535","pSARL_v2","pSARL_v2ndqfxfr7","5c9fe2591bb8800018ec92bb","fixation","img/fixation.png","null","","test","","","","","",""
"304.19999998807907","362842","pSARL_v2","pSARL_v2ndqfxfr7","5c9fe2591bb8800018ec92bb","freq","img/green_2bandit_a2.png","70","70","test","1","107","107","5","",""
"null","363349","pSARL_v2","pSARL_v2ndqfxfr7","5c9fe2591bb8800018ec92bb","freq_resp","img/green_2bandit_a.png","70","70","test","","","","5","",""
"null","363518","pSARL_v2","pSARL_v2ndqfxfr7","5c9fe2591bb8800018ec92bb","fixation","img/fixation.png","null","","test","","","","","",""
"316","363836","pSARL_v2","pSARL_v2ndqfxfr7","5c9fe2591bb8800018ec92bb","freq","img/green_2bandit_a2.png","70","70","test","1","108","108","5","",""
"null","364324","pSARL_v2","pSARL_v2ndqfxfr7","5c9fe2591bb8800018ec92bb","freq_resp","img/green_2bandit_a.png","70","70","test","","","","5","",""
"null","364477","pSARL_v2","pSARL_v2ndqfxfr7","5c9fe2591bb8800018ec92bb","fixation","img/fixation.png","null","","test","","","","","",""
"268.7999999523163","364749","pSARL_v2","pSARL_v2ndqfxfr7","5c9fe2591bb8800018ec92bb","freq","img/green_2bandit_a2.png","70","70","test","1","109","109","5","",""
"null","365295","pSARL_v2","pSARL_v2ndqfxfr7","5c9fe2591bb8800018ec92bb","freq_resp","img/green_2bandit_a.png","70","70","test","","","","5","",""
"null","365451","pSARL_v2","pSARL_v2ndqfxfr7","5c9fe2591bb8800018ec92bb","fixation","img/fixation.png","null","","test","","","","","",""
"241","365695","pSARL_v2","pSARL_v2ndqfxfr7","5c9fe2591bb8800018ec92bb","freq","img/green_2bandit_a2.png","70","70","test","1","110","110","5","",""
"null","366271","pSARL_v2","pSARL_v2ndqfxfr7","5c9fe2591bb8800018ec92bb","freq_resp","img/green_2bandit_a.png","70","70","test","","","","5","",""
"null","366426","pSARL_v2","pSARL_v2ndqfxfr7","5c9fe2591bb8800018ec92bb","fixation","img/fixation.png","null","","test","","","","","",""
"273.5","366703","pSARL_v2","pSARL_v2ndqfxfr7","5c9fe2591bb8800018ec92bb","freq","img/green_2bandit_a2.png","70","70","test","1","111","111","5","",""
"null","367246","pSARL_v2","pSARL_v2ndqfxfr7","5c9fe2591bb8800018ec92bb","freq_resp","img/green_2bandit_a.png","70","70","test","","","","5","",""
"null","367401","pSARL_v2","pSARL_v2ndqfxfr7","5c9fe2591bb8800018ec92bb","fixation","img/fixation.png","null","","test","","","","","",""
"287.5","367692","pSARL_v2","pSARL_v2ndqfxfr7","5c9fe2591bb8800018ec92bb","freq","img/green_2bandit_a2.png","70","70","test","1","112","112","5","",""
"null","368209","pSARL_v2","pSARL_v2ndqfxfr7","5c9fe2591bb8800018ec92bb","freq_resp","img/green_2bandit_a.png","70","70","test","","","","5","",""
"null","368362","pSARL_v2","pSARL_v2ndqfxfr7","5c9fe2591bb8800018ec92bb","fixation","img/fixation.png","null","","test","","","","","",""
"319.19999998807907","368684","pSARL_v2","pSARL_v2ndqfxfr7","5c9fe2591bb8800018ec92bb","freq","img/green_2bandit_a2.png","70","70","test","1","113","113","5","",""
"null","369168","pSARL_v2","pSARL_v2ndqfxfr7","5c9fe2591bb8800018ec92bb","freq_resp","img/green_2bandit_a.png","70","70","test","","","","5","",""
"null","369334","pSARL_v2","pSARL_v2ndqfxfr7","5c9fe2591bb8800018ec92bb","fixation","img/fixation.png","null","","test","","","","","",""
"291.39999997615814","369629","pSARL_v2","pSARL_v2ndqfxfr7","5c9fe2591bb8800018ec92bb","freq","img/green_2bandit_a2.png","70","70","test","1","114","114","5","",""
"null","370140","pSARL_v2","pSARL_v2ndqfxfr7","5c9fe2591bb8800018ec92bb","freq_resp","img/green_2bandit_a.png","70","70","test","","","","5","",""
"null","370295","pSARL_v2","pSARL_v2ndqfxfr7","5c9fe2591bb8800018ec92bb","fixation","img/fixation.png","null","","test","","","","","",""
"241.19999998807907","370539","pSARL_v2","pSARL_v2ndqfxfr7","5c9fe2591bb8800018ec92bb","freq","img/green_2bandit_a2.png","70","70","test","1","115","115","5","",""
"null","371101","pSARL_v2","pSARL_v2ndqfxfr7","5c9fe2591bb8800018ec92bb","freq_resp","img/green_2bandit_a.png","70","70","test","","","","5","",""
"null","371261","pSARL_v2","pSARL_v2ndqfxfr7","5c9fe2591bb8800018ec92bb","fixation","img/fixation.png","null","","test","","","","","",""
"416","371680","pSARL_v2","pSARL_v2ndqfxfr7","5c9fe2591bb8800018ec92bb","reward","img/slot.png","74","","test","","","","","",""
"null","372448","pSARL_v2","pSARL_v2ndqfxfr7","5c9fe2591bb8800018ec92bb","points","<div class=""veryhighPoints""> +1 </div>","null","na","test","","","","5","1","4"
"412.10000002384186","372863","pSARL_v2","pSARL_v2ndqfxfr7","5c9fe2591bb8800018ec92bb","freq","img/green_2bandit_a2.png","70","70","test","1","116","116","6","",""
"null","373267","pSARL_v2","pSARL_v2ndqfxfr7","5c9fe2591bb8800018ec92bb","freq_resp","img/green_2bandit_a.png","70","70","test","","","","6","",""
"null","373436","pSARL_v2","pSARL_v2ndqfxfr7","5c9fe2591bb8800018ec92bb","fixation","img/fixation.png","null","","test","","","","","",""
"328.39999997615814","373767","pSARL_v2","pSARL_v2ndqfxfr7","5c9fe2591bb8800018ec92bb","freq","img/green_2bandit_a2.png","70","70","test","1","117","117","6","",""
"null","374243","pSARL_v2","pSARL_v2ndqfxfr7","5c9fe2591bb8800018ec92bb","freq_resp","img/green_2bandit_a.png","70","70","test","","","","6","",""
"null","374397","pSARL_v2","pSARL_v2ndqfxfr7","5c9fe2591bb8800018ec92bb","fixation","img/fixation.png","null","","test","","","","","",""
"305.7000000476837","374705","pSARL_v2","pSARL_v2ndqfxfr7","5c9fe2591bb8800018ec92bb","infreq","img/orange_2bandit_a2.png","70","68","test","0","118","118","6","",""
"null","375207","pSARL_v2","pSARL_v2ndqfxfr7","5c9fe2591bb8800018ec92bb","infreq_resp","img/orange_2bandit_a.png","70","68","test","","","","6","",""
"null","375367","pSARL_v2","pSARL_v2ndqfxfr7","5c9fe2591bb8800018ec92bb","fixation","img/fixation.png","null","","test","","","","","",""
"442.39999997615814","375813","pSARL_v2","pSARL_v2ndqfxfr7","5c9fe2591bb8800018ec92bb","freq","img/green_2bandit_a2.png","70","70","test","1","119","119","6","",""
"null","376186","pSARL_v2","pSARL_v2ndqfxfr7","5c9fe2591bb8800018ec92bb","freq_resp","img/green_2bandit_a.png","70","70","test","","","","6","",""
"null","376355","pSARL_v2","pSARL_v2ndqfxfr7","5c9fe2591bb8800018ec92bb","fixation","img/fixation.png","null","","test","","","","","",""
"341.5","376699","pSARL_v2","pSARL_v2ndqfxfr7","5c9fe2591bb8800018ec92bb","freq","img/green_2bandit_a2.png","70","70","test","1","120","120","6","",""
"null","377161","pSARL_v2","pSARL_v2ndqfxfr7","5c9fe2591bb8800018ec92bb","freq_resp","img/green_2bandit_a.png","70","70","test","","","","6","",""
"null","377316","pSARL_v2","pSARL_v2ndqfxfr7","5c9fe2591bb8800018ec92bb","fixation","img/fixation.png","null","","test","","","","","",""
"320.69999998807907","377640","pSARL_v2","pSARL_v2ndqfxfr7","5c9fe2591bb8800018ec92bb","freq","img/green_2bandit_a2.png","70","70","test","1","121","121","6","",""
"null","378135","pSARL_v2","pSARL_v2ndqfxfr7","5c9fe2591bb8800018ec92bb","freq_resp","img/green_2bandit_a.png","70","70","test","","","","6","",""
"null","378290","pSARL_v2","pSARL_v2ndqfxfr7","5c9fe2591bb8800018ec92bb","fixation","img/fixation.png","null","","test","","","","","",""
"290.30000001192093","378584","pSARL_v2","pSARL_v2ndqfxfr7","5c9fe2591bb8800018ec92bb","freq","img/green_2bandit_a2.png","70","70","test","1","122","122","6","",""
"null","379097","pSARL_v2","pSARL_v2ndqfxfr7","5c9fe2591bb8800018ec92bb","freq_resp","img/green_2bandit_a.png","70","70","test","","","","6","",""
"null","379252","pSARL_v2","pSARL_v2ndqfxfr7","5c9fe2591bb8800018ec92bb","fixation","img/fixation.png","null","","test","","","","","",""
"265.4000000357628","379521","pSARL_v2","pSARL_v2ndqfxfr7","5c9fe2591bb8800018ec92bb","freq","img/green_2bandit_a2.png","70","70","test","1","123","123","6","",""
"null","380071","pSARL_v2","pSARL_v2ndqfxfr7","5c9fe2591bb8800018ec92bb","freq_resp","img/green_2bandit_a.png","70","70","test","","","","6","",""
"null","380239","pSARL_v2","pSARL_v2ndqfxfr7","5c9fe2591bb8800018ec92bb","fixation","img/fixation.png","null","","test","","","","","",""
"374.19999998807907","380616","pSARL_v2","pSARL_v2ndqfxfr7","5c9fe2591bb8800018ec92bb","infreq","img/orange_2bandit_a2.png","68","68","test","1","124","124","6","",""
"null","381048","pSARL_v2","pSARL_v2ndqfxfr7","5c9fe2591bb8800018ec92bb","infreq_resp","img/orange_2bandit_a.png","68","68","test","","","","6","",""
"null","381211","pSARL_v2","pSARL_v2ndqfxfr7","5c9fe2591bb8800018ec92bb","fixation","img/fixation.png","null","","test","","","","","",""
"360.39999997615814","381574","pSARL_v2","pSARL_v2ndqfxfr7","5c9fe2591bb8800018ec92bb","freq","img/green_2bandit_a2.png","70","70","test","1","125","125","6","",""
"null","382029","pSARL_v2","pSARL_v2ndqfxfr7","5c9fe2591bb8800018ec92bb","freq_resp","img/green_2bandit_a.png","70","70","test","","","","6","",""
"null","382183","pSARL_v2","pSARL_v2ndqfxfr7","5c9fe2591bb8800018ec92bb","fixation","img/fixation.png","null","","test","","","","","",""
"308.89999997615814","382495","pSARL_v2","pSARL_v2ndqfxfr7","5c9fe2591bb8800018ec92bb","freq","img/green_2bandit_a2.png","70","70","test","1","126","126","6","",""
"null","383000","pSARL_v2","pSARL_v2ndqfxfr7","5c9fe2591bb8800018ec92bb","freq_resp","img/green_2bandit_a.png","70","70","test","","","","6","",""
"null","383154","pSARL_v2","pSARL_v2ndqfxfr7","5c9fe2591bb8800018ec92bb","fixation","img/fixation.png","null","","test","","","","","",""
"301.0999999642372","383458","pSARL_v2","pSARL_v2ndqfxfr7","5c9fe2591bb8800018ec92bb","freq","img/green_2bandit_a2.png","70","70","test","1","127","127","6","",""
"null","383971","pSARL_v2","pSARL_v2ndqfxfr7","5c9fe2591bb8800018ec92bb","freq_resp","img/green_2bandit_a.png","70","70","test","","","","6","",""
"null","384126","pSARL_v2","pSARL_v2ndqfxfr7","5c9fe2591bb8800018ec92bb","fixation","img/fixation.png","null","","test","","","","","",""
"266.39999997615814","384395","pSARL_v2","pSARL_v2ndqfxfr7","5c9fe2591bb8800018ec92bb","freq","img/green_2bandit_a2.png","70","70","test","1","128","128","6","",""
"null","384946","pSARL_v2","pSARL_v2ndqfxfr7","5c9fe2591bb8800018ec92bb","freq_resp","img/green_2bandit_a.png","70","70","test","","","","6","",""
"null","385100","pSARL_v2","pSARL_v2ndqfxfr7","5c9fe2591bb8800018ec92bb","fixation","img/fixation.png","null","","test","","","","","",""
"284.80000001192093","385387","pSARL_v2","pSARL_v2ndqfxfr7","5c9fe2591bb8800018ec92bb","freq","img/green_2bandit_a2.png","70","70","test","1","129","129","6","",""
"null","385921","pSARL_v2","pSARL_v2ndqfxfr7","5c9fe2591bb8800018ec92bb","freq_resp","img/green_2bandit_a.png","70","70","test","","","","6","",""
"null","386075","pSARL_v2","pSARL_v2ndqfxfr7","5c9fe2591bb8800018ec92bb","fixation","img/fixation.png","null","","test","","","","","",""
"292.69999998807907","386370","pSARL_v2","pSARL_v2ndqfxfr7","5c9fe2591bb8800018ec92bb","freq","img/green_2bandit_a2.png","70","70","test","1","130","130","6","",""
"null","386889","pSARL_v2","pSARL_v2ndqfxfr7","5c9fe2591bb8800018ec92bb","freq_resp","img/green_2bandit_a.png","70","70","test","","","","6","",""
"null","387043","pSARL_v2","pSARL_v2ndqfxfr7","5c9fe2591bb8800018ec92bb","fixation","img/fixation.png","null","","test","","","","","",""
"283.30000001192093","387329","pSARL_v2","pSARL_v2ndqfxfr7","5c9fe2591bb8800018ec92bb","freq","img/green_2bandit_a2.png","70","70","test","1","131","131","6","",""
"null","387858","pSARL_v2","pSARL_v2ndqfxfr7","5c9fe2591bb8800018ec92bb","freq_resp","img/green_2bandit_a.png","70","70","test","","","","6","",""
"null","388012","pSARL_v2","pSARL_v2ndqfxfr7","5c9fe2591bb8800018ec92bb","fixation","img/fixation.png","null","","test","","","","","",""
"255.69999998807907","388271","pSARL_v2","pSARL_v2ndqfxfr7","5c9fe2591bb8800018ec92bb","freq","img/green_2bandit_a2.png","70","70","test","1","132","132","6","",""
"null","388819","pSARL_v2","pSARL_v2ndqfxfr7","5c9fe2591bb8800018ec92bb","freq_resp","img/green_2bandit_a.png","70","70","test","","","","6","",""
"null","388975","pSARL_v2","pSARL_v2ndqfxfr7","5c9fe2591bb8800018ec92bb","fixation","img/fixation.png","null","","test","","","","","",""
"304.10000002384186","389281","pSARL_v2","pSARL_v2ndqfxfr7","5c9fe2591bb8800018ec92bb","freq","img/green_2bandit_a2.png","70","70","test","1","133","133","6","",""
"null","389781","pSARL_v2","pSARL_v2ndqfxfr7","5c9fe2591bb8800018ec92bb","freq_resp","img/green_2bandit_a.png","70","70","test","","","","6","",""
"null","389948","pSARL_v2","pSARL_v2ndqfxfr7","5c9fe2591bb8800018ec92bb","fixation","img/fixation.png","null","","test","","","","","",""
"261","390212","pSARL_v2","pSARL_v2ndqfxfr7","5c9fe2591bb8800018ec92bb","freq","img/green_2bandit_a2.png","70","70","test","1","134","134","6","",""
"null","390769","pSARL_v2","pSARL_v2ndqfxfr7","5c9fe2591bb8800018ec92bb","freq_resp","img/green_2bandit_a.png","70","70","test","","","","6","",""
"null","390924","pSARL_v2","pSARL_v2ndqfxfr7","5c9fe2591bb8800018ec92bb","fixation","img/fixation.png","null","","test","","","","","",""
"247.60000002384186","391174","pSARL_v2","pSARL_v2ndqfxfr7","5c9fe2591bb8800018ec92bb","freq","img/green_2bandit_a2.png","70","70","test","1","135","135","6","",""
"null","391741","pSARL_v2","pSARL_v2ndqfxfr7","5c9fe2591bb8800018ec92bb","freq_resp","img/green_2bandit_a.png","70","70","test","","","","6","",""
"null","391910","pSARL_v2","pSARL_v2ndqfxfr7","5c9fe2591bb8800018ec92bb","fixation","img/fixation.png","null","","test","","","","","",""
"231.10000002384186","392144","pSARL_v2","pSARL_v2ndqfxfr7","5c9fe2591bb8800018ec92bb","freq","img/green_2bandit_a2.png","70","70","test","1","136","136","6","",""
"null","392716","pSARL_v2","pSARL_v2ndqfxfr7","5c9fe2591bb8800018ec92bb","freq_resp","img/green_2bandit_a.png","70","70","test","","","","6","",""
"null","392871","pSARL_v2","pSARL_v2ndqfxfr7","5c9fe2591bb8800018ec92bb","fixation","img/fixation.png","null","","test","","","","","",""
"275.5999999642372","393149","pSARL_v2","pSARL_v2ndqfxfr7","5c9fe2591bb8800018ec92bb","freq","img/green_2bandit_a2.png","70","70","test","1","137","137","6","",""
"null","393690","pSARL_v2","pSARL_v2ndqfxfr7","5c9fe2591bb8800018ec92bb","freq_resp","img/green_2bandit_a.png","70","70","test","","","","6","",""
"null","393845","pSARL_v2","pSARL_v2ndqfxfr7","5c9fe2591bb8800018ec92bb","fixation","img/fixation.png","null","","test","","","","","",""
"258.60000002384186","394106","pSARL_v2","pSARL_v2ndqfxfr7","5c9fe2591bb8800018ec92bb","freq","img/green_2bandit_a2.png","70","70","test","1","138","138","6","",""
"null","394663","pSARL_v2","pSARL_v2ndqfxfr7","5c9fe2591bb8800018ec92bb","freq_resp","img/green_2bandit_a.png","70","70","test","","","","6","",""
"null","394818","pSARL_v2","pSARL_v2ndqfxfr7","5c9fe2591bb8800018ec92bb","fixation","img/fixation.png","null","","test","","","","","",""
"246.89999997615814","395067","pSARL_v2","pSARL_v2ndqfxfr7","5c9fe2591bb8800018ec92bb","freq","img/green_2bandit_a2.png","70","70","test","1","139","139","6","",""
"null","395625","pSARL_v2","pSARL_v2ndqfxfr7","5c9fe2591bb8800018ec92bb","freq_resp","img/green_2bandit_a.png","70","70","test","","","","6","",""
"null","395781","pSARL_v2","pSARL_v2ndqfxfr7","5c9fe2591bb8800018ec92bb","fixation","img/fixation.png","null","","test","","","","","",""
"438.19999998807907","396222","pSARL_v2","pSARL_v2ndqfxfr7","5c9fe2591bb8800018ec92bb","reward","img/slot.png","74","","test","","","","","",""
"null","396986","pSARL_v2","pSARL_v2ndqfxfr7","5c9fe2591bb8800018ec92bb","points","<div class=""verylowPoints""> -7 </div>","null","na","test","","","","6","-7","5"
"407.5999999642372","397397","pSARL_v2","pSARL_v2ndqfxfr7","5c9fe2591bb8800018ec92bb","freq","img/green_2bandit_a2.png","70","70","test","1","140","140","7","",""
"null","397807","pSARL_v2","pSARL_v2ndqfxfr7","5c9fe2591bb8800018ec92bb","freq_resp","img/green_2bandit_a.png","70","70","test","","","","7","",""
"null","397962","pSARL_v2","pSARL_v2ndqfxfr7","5c9fe2591bb8800018ec92bb","fixation","img/fixation.png","null","","test","","","","","",""
"371","398336","pSARL_v2","pSARL_v2ndqfxfr7","5c9fe2591bb8800018ec92bb","freq","img/green_2bandit_a2.png","70","70","test","1","141","141","7","",""
"null","398782","pSARL_v2","pSARL_v2ndqfxfr7","5c9fe2591bb8800018ec92bb","freq_resp","img/green_2bandit_a.png","70","70","test","","","","7","",""
"null","398937","pSARL_v2","pSARL_v2ndqfxfr7","5c9fe2591bb8800018ec92bb","fixation","img/fixation.png","null","","test","","","","","",""
"326.19999998807907","399266","pSARL_v2","pSARL_v2ndqfxfr7","5c9fe2591bb8800018ec92bb","freq","img/green_2bandit_a2.png","70","70","test","1","142","142","7","",""
"null","399754","pSARL_v2","pSARL_v2ndqfxfr7","5c9fe2591bb8800018ec92bb","freq_resp","img/green_2bandit_a.png","70","70","test","","","","7","",""
"null","399909","pSARL_v2","pSARL_v2ndqfxfr7","5c9fe2591bb8800018ec92bb","fixation","img/fixation.png","null","","test","","","","","",""
"406.10000002384186","400318","pSARL_v2","pSARL_v2ndqfxfr7","5c9fe2591bb8800018ec92bb","infreq","img/orange_2bandit_a2.png","68","68","test","1","143","143","7","",""
"null","400729","pSARL_v2","pSARL_v2ndqfxfr7","5c9fe2591bb8800018ec92bb","infreq_resp","img/orange_2bandit_a.png","68","68","test","","","","7","",""
"null","400887","pSARL_v2","pSARL_v2ndqfxfr7","5c9fe2591bb8800018ec92bb","fixation","img/fixation.png","null","","test","","","","","",""
"280.0999999642372","401171","pSARL_v2","pSARL_v2ndqfxfr7","5c9fe2591bb8800018ec92bb","freq","img/green_2bandit_a2.png","70","70","test","1","144","144","7","",""
"null","401696","pSARL_v2","pSARL_v2ndqfxfr7","5c9fe2591bb8800018ec92bb","freq_resp","img/green_2bandit_a.png","70","70","test","","","","7","",""
"null","401851","pSARL_v2","pSARL_v2ndqfxfr7","5c9fe2591bb8800018ec92bb","fixation","img/fixation.png","null","","test","","","","","",""
"315.69999998807907","402169","pSARL_v2","pSARL_v2ndqfxfr7","5c9fe2591bb8800018ec92bb","freq","img/green_2bandit_a2.png","70","70","test","1","145","145","7","",""
"null","402669","pSARL_v2","pSARL_v2ndqfxfr7","5c9fe2591bb8800018ec92bb","freq_resp","img/green_2bandit_a.png","70","70","test","","","","7","",""
"null","402824","pSARL_v2","pSARL_v2ndqfxfr7","5c9fe2591bb8800018ec92bb","fixation","img/fixation.png","null","","test","","","","","",""
"272.60000002384186","403099","pSARL_v2","pSARL_v2ndqfxfr7","5c9fe2591bb8800018ec92bb","freq","img/green_2bandit_a2.png","70","70","test","1","146","146","7","",""
"null","403637","pSARL_v2","pSARL_v2ndqfxfr7","5c9fe2591bb8800018ec92bb","freq_resp","img/green_2bandit_a.png","70","70","test","","","","7","",""
"null","403806","pSARL_v2","pSARL_v2ndqfxfr7","5c9fe2591bb8800018ec92bb","fixation","img/fixation.png","null","","test","","","","","",""
"377.80000001192093","404187","pSARL_v2","pSARL_v2ndqfxfr7","5c9fe2591bb8800018ec92bb","infreq","img/orange_2bandit_a2.png","68","68","test","1","147","147","7","",""
"null","404612","pSARL_v2","pSARL_v2ndqfxfr7","5c9fe2591bb8800018ec92bb","infreq_resp","img/orange_2bandit_a.png","68","68","test","","","","7","",""
"null","404767","pSARL_v2","pSARL_v2ndqfxfr7","5c9fe2591bb8800018ec92bb","fixation","img/fixation.png","null","","test","","","","","",""
"294.5","405064","pSARL_v2","pSARL_v2ndqfxfr7","5c9fe2591bb8800018ec92bb","freq","img/green_2bandit_a2.png","70","70","test","1","148","148","7","",""
"null","405581","pSARL_v2","pSARL_v2ndqfxfr7","5c9fe2591bb8800018ec92bb","freq_resp","img/green_2bandit_a.png","70","70","test","","","","7","",""
"null","405735","pSARL_v2","pSARL_v2ndqfxfr7","5c9fe2591bb8800018ec92bb","fixation","img/fixation.png","null","","test","","","","","",""
"273.5","406011","pSARL_v2","pSARL_v2ndqfxfr7","5c9fe2591bb8800018ec92bb","freq","img/green_2bandit_a2.png","70","70","test","1","149","149","7","",""
"null","406553","pSARL_v2","pSARL_v2ndqfxfr7","5c9fe2591bb8800018ec92bb","freq_resp","img/green_2bandit_a.png","70","70","test","","","","7","",""
"null","406707","pSARL_v2","pSARL_v2ndqfxfr7","5c9fe2591bb8800018ec92bb","fixation","img/fixation.png","null","","test","","","","","",""
"276.0999999642372","406986","pSARL_v2","pSARL_v2ndqfxfr7","5c9fe2591bb8800018ec92bb","freq","img/green_2bandit_a2.png","70","70","test","1","150","150","7","",""
"null","407523","pSARL_v2","pSARL_v2ndqfxfr7","5c9fe2591bb8800018ec92bb","freq_resp","img/green_2bandit_a.png","70","70","test","","","","7","",""
"null","407677","pSARL_v2","pSARL_v2ndqfxfr7","5c9fe2591bb8800018ec92bb","fixation","img/fixation.png","null","","test","","","","","",""
"261","407942","pSARL_v2","pSARL_v2ndqfxfr7","5c9fe2591bb8800018ec92bb","freq","img/green_2bandit_a2.png","70","70","test","1","151","151","7","",""
"null","408496","pSARL_v2","pSARL_v2ndqfxfr7","5c9fe2591bb8800018ec92bb","freq_resp","img/green_2bandit_a.png","70","70","test","","","","7","",""
"null","408650","pSARL_v2","pSARL_v2ndqfxfr7","5c9fe2591bb8800018ec92bb","fixation","img/fixation.png","null","","test","","","","","",""
"179.60000002384186","408833","pSARL_v2","pSARL_v2ndqfxfr7","5c9fe2591bb8800018ec92bb","freq","img/green_2bandit_a2.png","70","70","test","1","152","152","7","",""
"null","409456","pSARL_v2","pSARL_v2ndqfxfr7","5c9fe2591bb8800018ec92bb","freq_resp","img/green_2bandit_a.png","70","70","test","","","","7","",""
"null","409612","pSARL_v2","pSARL_v2ndqfxfr7","5c9fe2591bb8800018ec92bb","fixation","img/fixation.png","null","","test","","","","","",""
"237.39999997615814","409852","pSARL_v2","pSARL_v2ndqfxfr7","5c9fe2591bb8800018ec92bb","freq","img/green_2bandit_a2.png","70","70","test","1","153","153","7","",""
"null","410424","pSARL_v2","pSARL_v2ndqfxfr7","5c9fe2591bb8800018ec92bb","freq_resp","img/green_2bandit_a.png","70","70","test","","","","7","",""
"null","410578","pSARL_v2","pSARL_v2ndqfxfr7","5c9fe2591bb8800018ec92bb","fixation","img/fixation.png","null","","test","","","","","",""
"170","410750","pSARL_v2","pSARL_v2ndqfxfr7","5c9fe2591bb8800018ec92bb","freq","img/green_2bandit_a2.png","70","70","test","1","154","154","7","",""
"null","411399","pSARL_v2","pSARL_v2ndqfxfr7","5c9fe2591bb8800018ec92bb","freq_resp","img/green_2bandit_a.png","70","70","test","","","","7","",""
"null","411553","pSARL_v2","pSARL_v2ndqfxfr7","5c9fe2591bb8800018ec92bb","fixation","img/fixation.png","null","","test","","","","","",""
"254.4000000357628","411811","pSARL_v2","pSARL_v2ndqfxfr7","5c9fe2591bb8800018ec92bb","freq","img/green_2bandit_a2.png","70","70","test","1","155","155","7","",""
"null","412373","pSARL_v2","pSARL_v2ndqfxfr7","5c9fe2591bb8800018ec92bb","freq_resp","img/green_2bandit_a.png","70","70","test","","","","7","",""
"null","412529","pSARL_v2","pSARL_v2ndqfxfr7","5c9fe2591bb8800018ec92bb","fixation","img/fixation.png","null","","test","","","","","",""
"236","412767","pSARL_v2","pSARL_v2ndqfxfr7","5c9fe2591bb8800018ec92bb","freq","img/green_2bandit_a2.png","70","70","test","1","156","156","7","",""
"null","413351","pSARL_v2","pSARL_v2ndqfxfr7","5c9fe2591bb8800018ec92bb","freq_resp","img/green_2bandit_a.png","70","70","test","","","","7","",""
"null","413505","pSARL_v2","pSARL_v2ndqfxfr7","5c9fe2591bb8800018ec92bb","fixation","img/fixation.png","null","","test","","","","","",""
"264.80000001192093","413773","pSARL_v2","pSARL_v2ndqfxfr7","5c9fe2591bb8800018ec92bb","freq","img/green_2bandit_a2.png","70","70","test","1","157","157","7","",""
"null","414326","pSARL_v2","pSARL_v2ndqfxfr7","5c9fe2591bb8800018ec92bb","freq_resp","img/green_2bandit_a.png","70","70","test","","","","7","",""
"null","414494","pSARL_v2","pSARL_v2ndqfxfr7","5c9fe2591bb8800018ec92bb","fixation","img/fixation.png","null","","test","","","","","",""
"387.10000002384186","414884","pSARL_v2","pSARL_v2ndqfxfr7","5c9fe2591bb8800018ec92bb","infreq","img/orange_2bandit_a2.png","68","68","test","1","158","158","7","",""
"null","415304","pSARL_v2","pSARL_v2ndqfxfr7","5c9fe2591bb8800018ec92bb","infreq_resp","img/orange_2bandit_a.png","68","68","test","","","","7","",""
"null","415459","pSARL_v2","pSARL_v2ndqfxfr7","5c9fe2591bb8800018ec92bb","fixation","img/fixation.png","null","","test","","","","","",""
"301.5","415763","pSARL_v2","pSARL_v2ndqfxfr7","5c9fe2591bb8800018ec92bb","freq","img/green_2bandit_a2.png","70","70","test","1","159","159","7","",""
"null","416272","pSARL_v2","pSARL_v2ndqfxfr7","5c9fe2591bb8800018ec92bb","freq_resp","img/green_2bandit_a.png","70","70","test","","","","7","",""
"null","416426","pSARL_v2","pSARL_v2ndqfxfr7","5c9fe2591bb8800018ec92bb","fixation","img/fixation.png","null","","test","","","","","",""
"297.5999999642372","416727","pSARL_v2","pSARL_v2ndqfxfr7","5c9fe2591bb8800018ec92bb","freq","img/green_2bandit_a2.png","70","70","test","1","160","160","7","",""
"null","417244","pSARL_v2","pSARL_v2ndqfxfr7","5c9fe2591bb8800018ec92bb","freq_resp","img/green_2bandit_a.png","70","70","test","","","","7","",""
"null","417397","pSARL_v2","pSARL_v2ndqfxfr7","5c9fe2591bb8800018ec92bb","fixation","img/fixation.png","null","","test","","","","","",""
"267.19999998807907","417667","pSARL_v2","pSARL_v2ndqfxfr7","5c9fe2591bb8800018ec92bb","freq","img/green_2bandit_a2.png","70","70","test","1","161","161","7","",""
"null","418218","pSARL_v2","pSARL_v2ndqfxfr7","5c9fe2591bb8800018ec92bb","freq_resp","img/green_2bandit_a.png","70","70","test","","","","7","",""
"null","418372","pSARL_v2","pSARL_v2ndqfxfr7","5c9fe2591bb8800018ec92bb","fixation","img/fixation.png","null","","test","","","","","",""
"280.80000001192093","418655","pSARL_v2","pSARL_v2ndqfxfr7","5c9fe2591bb8800018ec92bb","freq","img/green_2bandit_a2.png","70","70","test","1","162","162","7","",""
"null","419178","pSARL_v2","pSARL_v2ndqfxfr7","5c9fe2591bb8800018ec92bb","freq_resp","img/green_2bandit_a.png","70","70","test","","","","7","",""
"null","419331","pSARL_v2","pSARL_v2ndqfxfr7","5c9fe2591bb8800018ec92bb","fixation","img/fixation.png","null","","test","","","","","",""
"407.30000001192093","419741","pSARL_v2","pSARL_v2ndqfxfr7","5c9fe2591bb8800018ec92bb","reward","img/slot.png","74","","test","","","","","",""
"null","420500","pSARL_v2","pSARL_v2ndqfxfr7","5c9fe2591bb8800018ec92bb","points","<div class=""verylowPoints""> -6 </div>","null","na","test","","","","7","-6","6"
"342.39999997615814","420846","pSARL_v2","pSARL_v2ndqfxfr7","5c9fe2591bb8800018ec92bb","freq","img/green_2bandit_a2.png","70","70","test","1","163","163","8","",""
"null","421318","pSARL_v2","pSARL_v2ndqfxfr7","5c9fe2591bb8800018ec92bb","freq_resp","img/green_2bandit_a.png","70","70","test","","","","8","",""
"null","421472","pSARL_v2","pSARL_v2ndqfxfr7","5c9fe2591bb8800018ec92bb","fixation","img/fixation.png","null","","test","","","","","",""
"322.39999997615814","421798","pSARL_v2","pSARL_v2ndqfxfr7","5c9fe2591bb8800018ec92bb","freq","img/green_2bandit_a2.png","70","70","test","1","164","164","8","",""
"null","422288","pSARL_v2","pSARL_v2ndqfxfr7","5c9fe2591bb8800018ec92bb","freq_resp","img/green_2bandit_a.png","70","70","test","","","","8","",""
"null","422443","pSARL_v2","pSARL_v2ndqfxfr7","5c9fe2591bb8800018ec92bb","fixation","img/fixation.png","null","","test","","","","","",""
"295.7999999523163","422742","pSARL_v2","pSARL_v2ndqfxfr7","5c9fe2591bb8800018ec92bb","freq","img/green_2bandit_a2.png","70","70","test","1","165","165","8","",""
"null","423264","pSARL_v2","pSARL_v2ndqfxfr7","5c9fe2591bb8800018ec92bb","freq_resp","img/green_2bandit_a.png","70","70","test","","","","8","",""
"null","423432","pSARL_v2","pSARL_v2ndqfxfr7","5c9fe2591bb8800018ec92bb","fixation","img/fixation.png","null","","test","","","","","",""
"230.10000002384186","423665","pSARL_v2","pSARL_v2ndqfxfr7","5c9fe2591bb8800018ec92bb","freq","img/green_2bandit_a2.png","70","70","test","1","166","166","8","",""
"null","424242","pSARL_v2","pSARL_v2ndqfxfr7","5c9fe2591bb8800018ec92bb","freq_resp","img/green_2bandit_a.png","70","70","test","","","","8","",""
"null","424411","pSARL_v2","pSARL_v2ndqfxfr7","5c9fe2591bb8800018ec92bb","fixation","img/fixation.png","null","","test","","","","","",""
"240.9000000357628","424655","pSARL_v2","pSARL_v2ndqfxfr7","5c9fe2591bb8800018ec92bb","freq","img/green_2bandit_a2.png","70","70","test","1","167","167","8","",""
"null","425225","pSARL_v2","pSARL_v2ndqfxfr7","5c9fe2591bb8800018ec92bb","freq_resp","img/green_2bandit_a.png","70","70","test","","","","8","",""
"null","425379","pSARL_v2","pSARL_v2ndqfxfr7","5c9fe2591bb8800018ec92bb","fixation","img/fixation.png","null","","test","","","","","",""
"261","425644","pSARL_v2","pSARL_v2ndqfxfr7","5c9fe2591bb8800018ec92bb","freq","img/green_2bandit_a2.png","70","70","test","1","168","168","8","",""
"null","426189","pSARL_v2","pSARL_v2ndqfxfr7","5c9fe2591bb8800018ec92bb","freq_resp","img/green_2bandit_a.png","70","70","test","","","","8","",""
"null","426343","pSARL_v2","pSARL_v2ndqfxfr7","5c9fe2591bb8800018ec92bb","fixation","img/fixation.png","null","","test","","","","","",""
"385.10000002384186","426731","pSARL_v2","pSARL_v2ndqfxfr7","5c9fe2591bb8800018ec92bb","freq","img/green_2bandit_a2.png","70","70","test","1","169","169","8","",""
"null","427150","pSARL_v2","pSARL_v2ndqfxfr7","5c9fe2591bb8800018ec92bb","freq_resp","img/green_2bandit_a.png","70","70","test","","","","8","",""
"null","427319","pSARL_v2","pSARL_v2ndqfxfr7","5c9fe2591bb8800018ec92bb","fixation","img/fixation.png","null","","test","","","","","",""
"708.6000000238419","428031","pSARL_v2","pSARL_v2ndqfxfr7","5c9fe2591bb8800018ec92bb","freq","img/green_2bandit_a2.png","70","70","test","1","170","170","8","",""
"null","428134","pSARL_v2","pSARL_v2ndqfxfr7","5c9fe2591bb8800018ec92bb","freq_resp","img/green_2bandit_a.png","70","70","test","","","","8","",""
"null","428287","pSARL_v2","pSARL_v2ndqfxfr7","5c9fe2591bb8800018ec92bb","fixation","img/fixation.png","null","","test","","","","","",""
"554.5","428844","pSARL_v2","pSARL_v2ndqfxfr7","5c9fe2591bb8800018ec92bb","freq","img/green_2bandit_a2.png","70","70","test","1","171","171","8","",""
"null","429096","pSARL_v2","pSARL_v2ndqfxfr7","5c9fe2591bb8800018ec92bb","freq_resp","img/green_2bandit_a.png","70","70","test","","","","8","",""
"null","429250","pSARL_v2","pSARL_v2ndqfxfr7","5c9fe2591bb8800018ec92bb","fixation","img/fixation.png","null","","test","","","","","",""
"459.60000002384186","429713","pSARL_v2","pSARL_v2ndqfxfr7","5c9fe2591bb8800018ec92bb","freq","img/green_2bandit_a2.png","70","70","test","1","172","172","8","",""
"null","430069","pSARL_v2","pSARL_v2ndqfxfr7","5c9fe2591bb8800018ec92bb","freq_resp","img/green_2bandit_a.png","70","70","test","","","","8","",""
"null","430223","pSARL_v2","pSARL_v2ndqfxfr7","5c9fe2591bb8800018ec92bb","fixation","img/fixation.png","null","","test","","","","","",""
"395","430620","pSARL_v2","pSARL_v2ndqfxfr7","5c9fe2591bb8800018ec92bb","infreq","img/orange_2bandit_a2.png","68","68","test","1","173","173","8","",""
"null","431031","pSARL_v2","pSARL_v2ndqfxfr7","5c9fe2591bb8800018ec92bb","infreq_resp","img/orange_2bandit_a.png","68","68","test","","","","8","",""
"null","431187","pSARL_v2","pSARL_v2ndqfxfr7","5c9fe2591bb8800018ec92bb","fixation","img/fixation.png","null","","test","","","","","",""
"338.39999997615814","431528","pSARL_v2","pSARL_v2ndqfxfr7","5c9fe2591bb8800018ec92bb","freq","img/green_2bandit_a2.png","70","70","test","1","174","174","8","",""
"null","432003","pSARL_v2","pSARL_v2ndqfxfr7","5c9fe2591bb8800018ec92bb","freq_resp","img/green_2bandit_a.png","70","70","test","","","","8","",""
"null","432157","pSARL_v2","pSARL_v2ndqfxfr7","5c9fe2591bb8800018ec92bb","fixation","img/fixation.png","null","","test","","","","","",""
"307","432466","pSARL_v2","pSARL_v2ndqfxfr7","5c9fe2591bb8800018ec92bb","freq","img/green_2bandit_a2.png","70","70","test","1","175","175","8","",""
"null","432964","pSARL_v2","pSARL_v2ndqfxfr7","5c9fe2591bb8800018ec92bb","freq_resp","img/green_2bandit_a.png","70","70","test","","","","8","",""
"null","433118","pSARL_v2","pSARL_v2ndqfxfr7","5c9fe2591bb8800018ec92bb","fixation","img/fixation.png","null","","test","","","","","",""
"250.10000002384186","433371","pSARL_v2","pSARL_v2ndqfxfr7","5c9fe2591bb8800018ec92bb","freq","img/green_2bandit_a2.png","70","70","test","1","176","176","8","",""
"null","433939","pSARL_v2","pSARL_v2ndqfxfr7","5c9fe2591bb8800018ec92bb","freq_resp","img/green_2bandit_a.png","70","70","test","","","","8","",""
"null","434095","pSARL_v2","pSARL_v2ndqfxfr7","5c9fe2591bb8800018ec92bb","fixation","img/fixation.png","null","","test","","","","","",""
"246.79999995231628","434344","pSARL_v2","pSARL_v2ndqfxfr7","5c9fe2591bb8800018ec92bb","freq","img/green_2bandit_a2.png","70","70","test","1","177","177","8","",""
"null","434912","pSARL_v2","pSARL_v2ndqfxfr7","5c9fe2591bb8800018ec92bb","freq_resp","img/green_2bandit_a.png","70","70","test","","","","8","",""
"null","435073","pSARL_v2","pSARL_v2ndqfxfr7","5c9fe2591bb8800018ec92bb","fixation","img/fixation.png","null","","test","","","","","",""
"257.69999998807907","435334","pSARL_v2","pSARL_v2ndqfxfr7","5c9fe2591bb8800018ec92bb","infreq","img/orange_2bandit_a2.png","70","68","test","0","178","178","8","",""
"null","435880","pSARL_v2","pSARL_v2ndqfxfr7","5c9fe2591bb8800018ec92bb","infreq_resp","img/orange_2bandit_a.png","70","68","test","","","","8","",""
"null","436036","pSARL_v2","pSARL_v2ndqfxfr7","5c9fe2591bb8800018ec92bb","fixation","img/fixation.png","null","","test","","","","","",""
"323.80000001192093","436363","pSARL_v2","pSARL_v2ndqfxfr7","5c9fe2591bb8800018ec92bb","freq","img/green_2bandit_a2.png","70","70","test","1","179","179","8","",""
"null","436853","pSARL_v2","pSARL_v2ndqfxfr7","5c9fe2591bb8800018ec92bb","freq_resp","img/green_2bandit_a.png","70","70","test","","","","8","",""
"null","437008","pSARL_v2","pSARL_v2ndqfxfr7","5c9fe2591bb8800018ec92bb","fixation","img/fixation.png","null","","test","","","","","",""
"291.4000000357628","437303","pSARL_v2","pSARL_v2ndqfxfr7","5c9fe2591bb8800018ec92bb","freq","img/green_2bandit_a2.png","70","70","test","1","180","180","8","",""
"null","437827","pSARL_v2","pSARL_v2ndqfxfr7","5c9fe2591bb8800018ec92bb","freq_resp","img/green_2bandit_a.png","70","70","test","","","","8","",""
"null","437983","pSARL_v2","pSARL_v2ndqfxfr7","5c9fe2591bb8800018ec92bb","fixation","img/fixation.png","null","","test","","","","","",""
"210.69999998807907","438197","pSARL_v2","pSARL_v2ndqfxfr7","5c9fe2591bb8800018ec92bb","freq","img/green_2bandit_a2.png","70","70","test","1","181","181","8","",""
"null","438804","pSARL_v2","pSARL_v2ndqfxfr7","5c9fe2591bb8800018ec92bb","freq_resp","img/green_2bandit_a.png","70","70","test","","","","8","",""
"null","438966","pSARL_v2","pSARL_v2ndqfxfr7","5c9fe2591bb8800018ec92bb","fixation","img/fixation.png","null","","test","","","","","",""
"646.8000000119209","439616","pSARL_v2","pSARL_v2ndqfxfr7","5c9fe2591bb8800018ec92bb","freq","img/green_2bandit_a2.png","70","70","test","1","182","182","8","",""
"null","439783","pSARL_v2","pSARL_v2ndqfxfr7","5c9fe2591bb8800018ec92bb","freq_resp","img/green_2bandit_a.png","70","70","test","","","","8","",""
"null","439938","pSARL_v2","pSARL_v2ndqfxfr7","5c9fe2591bb8800018ec92bb","fixation","img/fixation.png","null","","test","","","","","",""
"null","440754","pSARL_v2","pSARL_v2ndqfxfr7","5c9fe2591bb8800018ec92bb","freq","img/green_2bandit_a2.png","null","70","test","0","183","183","8","",""
"null","440909","pSARL_v2","pSARL_v2ndqfxfr7","5c9fe2591bb8800018ec92bb","fixation","img/fixation.png","null","","test","","","","","",""
"699.3000000119209","441612","pSARL_v2","pSARL_v2ndqfxfr7","5c9fe2591bb8800018ec92bb","freq","img/green_2bandit_a2.png","70","70","test","1","184","184","8","",""
"null","441725","pSARL_v2","pSARL_v2ndqfxfr7","5c9fe2591bb8800018ec92bb","freq_resp","img/green_2bandit_a.png","70","70","test","","","","8","",""
"null","441879","pSARL_v2","pSARL_v2ndqfxfr7","5c9fe2591bb8800018ec92bb","fixation","img/fixation.png","null","","test","","","","","",""
"688.6999999880791","442570","pSARL_v2","pSARL_v2ndqfxfr7","5c9fe2591bb8800018ec92bb","freq","img/green_2bandit_a2.png","70","70","test","1","185","185","8","",""
"null","442697","pSARL_v2","pSARL_v2ndqfxfr7","5c9fe2591bb8800018ec92bb","freq_resp","img/green_2bandit_a.png","70","70","test","","","","8","",""
"null","442850","pSARL_v2","pSARL_v2ndqfxfr7","5c9fe2591bb8800018ec92bb","fixation","img/fixation.png","null","","test","","","","","",""
"571.9000000357628","443425","pSARL_v2","pSARL_v2ndqfxfr7","5c9fe2591bb8800018ec92bb","freq","img/green_2bandit_a2.png","70","70","test","1","186","186","8","",""
"null","443659","pSARL_v2","pSARL_v2ndqfxfr7","5c9fe2591bb8800018ec92bb","freq_resp","img/green_2bandit_a.png","70","70","test","","","","8","",""
"null","443815","pSARL_v2","pSARL_v2ndqfxfr7","5c9fe2591bb8800018ec92bb","fixation","img/fixation.png","null","","test","","","","","",""
"460.69999998807907","444279","pSARL_v2","pSARL_v2ndqfxfr7","5c9fe2591bb8800018ec92bb","freq","img/green_2bandit_a2.png","70","70","test","1","187","187","8","",""
"null","444633","pSARL_v2","pSARL_v2ndqfxfr7","5c9fe2591bb8800018ec92bb","freq_resp","img/green_2bandit_a.png","70","70","test","","","","8","",""
"null","444788","pSARL_v2","pSARL_v2ndqfxfr7","5c9fe2591bb8800018ec92bb","fixation","img/fixation.png","null","","test","","","","","",""
"430.80000001192093","445221","pSARL_v2","pSARL_v2ndqfxfr7","5c9fe2591bb8800018ec92bb","reward","img/slot.png","74","","test","","","","","",""
"null","445986","pSARL_v2","pSARL_v2ndqfxfr7","5c9fe2591bb8800018ec92bb","points","<div class=""verylowPoints""> -4 </div>","null","na","test","","","","8","-4","7"
"322.5999999642372","446312","pSARL_v2","pSARL_v2ndqfxfr7","5c9fe2591bb8800018ec92bb","freq","img/green_2bandit_a2.png","70","70","test","1","188","188","9","",""
"null","446803","pSARL_v2","pSARL_v2ndqfxfr7","5c9fe2591bb8800018ec92bb","freq_resp","img/green_2bandit_a.png","70","70","test","","","","9","",""
"null","446957","pSARL_v2","pSARL_v2ndqfxfr7","5c9fe2591bb8800018ec92bb","fixation","img/fixation.png","null","","test","","","","","",""
"272.69999998807907","447232","pSARL_v2","pSARL_v2ndqfxfr7","5c9fe2591bb8800018ec92bb","freq","img/green_2bandit_a2.png","70","70","test","1","189","189","9","",""
"null","447765","pSARL_v2","pSARL_v2ndqfxfr7","5c9fe2591bb8800018ec92bb","freq_resp","img/green_2bandit_a.png","70","70","test","","","","9","",""
"null","447923","pSARL_v2","pSARL_v2ndqfxfr7","5c9fe2591bb8800018ec92bb","fixation","img/fixation.png","null","","test","","","","","",""
"299.19999998807907","448225","pSARL_v2","pSARL_v2ndqfxfr7","5c9fe2591bb8800018ec92bb","freq","img/green_2bandit_a2.png","70","70","test","1","190","190","9","",""
"null","448743","pSARL_v2","pSARL_v2ndqfxfr7","5c9fe2591bb8800018ec92bb","freq_resp","img/green_2bandit_a.png","70","70","test","","","","9","",""
"null","448898","pSARL_v2","pSARL_v2ndqfxfr7","5c9fe2591bb8800018ec92bb","fixation","img/fixation.png","null","","test","","","","","",""
"282.30000001192093","449183","pSARL_v2","pSARL_v2ndqfxfr7","5c9fe2591bb8800018ec92bb","freq","img/green_2bandit_a2.png","70","70","test","1","191","191","9","",""
"null","449715","pSARL_v2","pSARL_v2ndqfxfr7","5c9fe2591bb8800018ec92bb","freq_resp","img/green_2bandit_a.png","70","70","test","","","","9","",""
"null","449870","pSARL_v2","pSARL_v2ndqfxfr7","5c9fe2591bb8800018ec92bb","fixation","img/fixation.png","null","","test","","","","","",""
"307.0999999642372","450180","pSARL_v2","pSARL_v2ndqfxfr7","5c9fe2591bb8800018ec92bb","freq","img/green_2bandit_a2.png","70","70","test","1","192","192","9","",""
"null","450687","pSARL_v2","pSARL_v2ndqfxfr7","5c9fe2591bb8800018ec92bb","freq_resp","img/green_2bandit_a.png","70","70","test","","","","9","",""
"null","450841","pSARL_v2","pSARL_v2ndqfxfr7","5c9fe2591bb8800018ec92bb","fixation","img/fixation.png","null","","test","","","","","",""
"234","451078","pSARL_v2","pSARL_v2ndqfxfr7","5c9fe2591bb8800018ec92bb","freq","img/green_2bandit_a2.png","70","70","test","1","193","193","9","",""
"null","451650","pSARL_v2","pSARL_v2ndqfxfr7","5c9fe2591bb8800018ec92bb","freq_resp","img/green_2bandit_a.png","70","70","test","","","","9","",""
"null","451804","pSARL_v2","pSARL_v2ndqfxfr7","5c9fe2591bb8800018ec92bb","fixation","img/fixation.png","null","","test","","","","","",""
"211.69999998807907","452018","pSARL_v2","pSARL_v2ndqfxfr7","5c9fe2591bb8800018ec92bb","freq","img/green_2bandit_a2.png","70","70","test","1","194","194","9","",""
"null","452624","pSARL_v2","pSARL_v2ndqfxfr7","5c9fe2591bb8800018ec92bb","freq_resp","img/green_2bandit_a.png","70","70","test","","","","9","",""
"null","452778","pSARL_v2","pSARL_v2ndqfxfr7","5c9fe2591bb8800018ec92bb","fixation","img/fixation.png","null","","test","","","","","",""
"237.10000002384186","453017","pSARL_v2","pSARL_v2ndqfxfr7","5c9fe2591bb8800018ec92bb","freq","img/green_2bandit_a2.png","70","70","test","1","195","195","9","",""
"null","453595","pSARL_v2","pSARL_v2ndqfxfr7","5c9fe2591bb8800018ec92bb","freq_resp","img/green_2bandit_a.png","70","70","test","","","","9","",""
"null","453750","pSARL_v2","pSARL_v2ndqfxfr7","5c9fe2591bb8800018ec92bb","fixation","img/fixation.png","null","","test","","","","","",""
"160.70000004768372","453914","pSARL_v2","pSARL_v2ndqfxfr7","5c9fe2591bb8800018ec92bb","freq","img/green_2bandit_a2.png","70","70","test","1","196","196","9","",""
"null","454566","pSARL_v2","pSARL_v2ndqfxfr7","5c9fe2591bb8800018ec92bb","freq_resp","img/green_2bandit_a.png","70","70","test","","","","9","",""
"null","454723","pSARL_v2","pSARL_v2ndqfxfr7","5c9fe2591bb8800018ec92bb","fixation","img/fixation.png","null","","test","","","","","",""
"278","455004","pSARL_v2","pSARL_v2ndqfxfr7","5c9fe2591bb8800018ec92bb","freq","img/green_2bandit_a2.png","70","70","test","1","197","197","9","",""
"null","455542","pSARL_v2","pSARL_v2ndqfxfr7","5c9fe2591bb8800018ec92bb","freq_resp","img/green_2bandit_a.png","70","70","test","","","","9","",""
"null","455696","pSARL_v2","pSARL_v2ndqfxfr7","5c9fe2591bb8800018ec92bb","fixation","img/fixation.png","null","","test","","","","","",""
"253.79999995231628","455953","pSARL_v2","pSARL_v2ndqfxfr7","5c9fe2591bb8800018ec92bb","freq","img/green_2bandit_a2.png","70","70","test","1","198","198","9","",""
"null","456503","pSARL_v2","pSARL_v2ndqfxfr7","5c9fe2591bb8800018ec92bb","freq_resp","img/green_2bandit_a.png","70","70","test","","","","9","",""
"null","456657","pSARL_v2","pSARL_v2ndqfxfr7","5c9fe2591bb8800018ec92bb","fixation","img/fixation.png","null","","test","","","","","",""
"363.80000001192093","457024","pSARL_v2","pSARL_v2ndqfxfr7","5c9fe2591bb8800018ec92bb","infreq","img/orange_2bandit_a2.png","68","68","test","1","199","199","9","",""
"null","457475","pSARL_v2","pSARL_v2ndqfxfr7","5c9fe2591bb8800018ec92bb","infreq_resp","img/orange_2bandit_a.png","68","68","test","","","","9","",""
"null","457644","pSARL_v2","pSARL_v2ndqfxfr7","5c9fe2591bb8800018ec92bb","fixation","img/fixation.png","null","","test","","","","","",""
"263.80000001192093","457910","pSARL_v2","pSARL_v2ndqfxfr7","5c9fe2591bb8800018ec92bb","freq","img/green_2bandit_a2.png","70","70","test","1","200","200","9","",""
"null","458455","pSARL_v2","pSARL_v2ndqfxfr7","5c9fe2591bb8800018ec92bb","freq_resp","img/green_2bandit_a.png","70","70","test","","","","9","",""
"null","458608","pSARL_v2","pSARL_v2ndqfxfr7","5c9fe2591bb8800018ec92bb","fixation","img/fixation.png","null","","test","","","","","",""
"244.9000000357628","458855","pSARL_v2","pSARL_v2ndqfxfr7","5c9fe2591bb8800018ec92bb","freq","img/green_2bandit_a2.png","70","70","test","1","201","201","9","",""
"null","459417","pSARL_v2","pSARL_v2ndqfxfr7","5c9fe2591bb8800018ec92bb","freq_resp","img/green_2bandit_a.png","70","70","test","","","","9","",""
"null","459573","pSARL_v2","pSARL_v2ndqfxfr7","5c9fe2591bb8800018ec92bb","fixation","img/fixation.png","null","","test","","","","","",""
"228.60000002384186","459805","pSARL_v2","pSARL_v2ndqfxfr7","5c9fe2591bb8800018ec92bb","freq","img/green_2bandit_a2.png","70","70","test","1","202","202","9","",""
"null","460391","pSARL_v2","pSARL_v2ndqfxfr7","5c9fe2591bb8800018ec92bb","freq_resp","img/green_2bandit_a.png","70","70","test","","","","9","",""
"null","460546","pSARL_v2","pSARL_v2ndqfxfr7","5c9fe2591bb8800018ec92bb","fixation","img/fixation.png","null","","test","","","","","",""
"237.30000001192093","460786","pSARL_v2","pSARL_v2ndqfxfr7","5c9fe2591bb8800018ec92bb","freq","img/green_2bandit_a2.png","70","70","test","1","203","203","9","",""
"null","461359","pSARL_v2","pSARL_v2ndqfxfr7","5c9fe2591bb8800018ec92bb","freq_resp","img/green_2bandit_a.png","70","70","test","","","","9","",""
"null","461512","pSARL_v2","pSARL_v2ndqfxfr7","5c9fe2591bb8800018ec92bb","fixation","img/fixation.png","null","","test","","","","","",""
"180.5999999642372","461697","pSARL_v2","pSARL_v2ndqfxfr7","5c9fe2591bb8800018ec92bb","freq","img/green_2bandit_a2.png","70","70","test","1","204","204","9","",""
"null","462327","pSARL_v2","pSARL_v2ndqfxfr7","5c9fe2591bb8800018ec92bb","freq_resp","img/green_2bandit_a.png","70","70","test","","","","9","",""
"null","462482","pSARL_v2","pSARL_v2ndqfxfr7","5c9fe2591bb8800018ec92bb","fixation","img/fixation.png","null","","test","","","","","",""
"255.4000000357628","462739","pSARL_v2","pSARL_v2ndqfxfr7","5c9fe2591bb8800018ec92bb","infreq","img/orange_2bandit_a2.png","70","68","test","0","205","205","9","",""
"null","463286","pSARL_v2","pSARL_v2ndqfxfr7","5c9fe2591bb8800018ec92bb","infreq_resp","img/orange_2bandit_a.png","70","68","test","","","","9","",""
"null","463439","pSARL_v2","pSARL_v2ndqfxfr7","5c9fe2591bb8800018ec92bb","fixation","img/fixation.png","null","","test","","","","","",""
"313.80000001192093","463756","pSARL_v2","pSARL_v2ndqfxfr7","5c9fe2591bb8800018ec92bb","freq","img/green_2bandit_a2.png","70","70","test","1","206","206","9","",""
"null","464255","pSARL_v2","pSARL_v2ndqfxfr7","5c9fe2591bb8800018ec92bb","freq_resp","img/green_2bandit_a.png","70","70","test","","","","9","",""
"null","464410","pSARL_v2","pSARL_v2ndqfxfr7","5c9fe2591bb8800018ec92bb","fixation","img/fixation.png","null","","test","","","","","",""
"262.69999998807907","464676","pSARL_v2","pSARL_v2ndqfxfr7","5c9fe2591bb8800018ec92bb","freq","img/green_2bandit_a2.png","70","70","test","1","207","207","9","",""
"null","465222","pSARL_v2","pSARL_v2ndqfxfr7","5c9fe2591bb8800018ec92bb","freq_resp","img/green_2bandit_a.png","70","70","test","","","","9","",""
"null","465376","pSARL_v2","pSARL_v2ndqfxfr7","5c9fe2591bb8800018ec92bb","fixation","img/fixation.png","null","","test","","","","","",""
"241.10000002384186","465620","pSARL_v2","pSARL_v2ndqfxfr7","5c9fe2591bb8800018ec92bb","freq","img/green_2bandit_a2.png","70","70","test","1","208","208","9","",""
"null","466182","pSARL_v2","pSARL_v2ndqfxfr7","5c9fe2591bb8800018ec92bb","freq_resp","img/green_2bandit_a.png","70","70","test","","","","9","",""
"null","466337","pSARL_v2","pSARL_v2ndqfxfr7","5c9fe2591bb8800018ec92bb","fixation","img/fixation.png","null","","test","","","","","",""
