"rt","time_elapsed","expId","subject","prolificID","trialType","stimulus","key_press","corrresp","phase","corr","trialNum","attentionRunNum","blockNum","points","rlNum"
"8738.400000095367","8747","pSARL_v2","pSARL_v2dvsvzgwv","58ae37d8e6afe00001d36ac9","","","","","","","","","","",""
"","10976","pSARL_v2","pSARL_v2dvsvzgwv","58ae37d8e6afe00001d36ac9","fullscreen","","","","","","","","","",""
"63642","74624","pSARL_v2","pSARL_v2dvsvzgwv","58ae37d8e6afe00001d36ac9","","","","","","","","","","",""
"null","75445","pSARL_v2","pSARL_v2dvsvzgwv","58ae37d8e6afe00001d36ac9","freqPrac","img/orange_2bandit_b2.png","null","70","prac","0","","","","",""
"null","76466","pSARL_v2","pSARL_v2dvsvzgwv","58ae37d8e6afe00001d36ac9","feedback","img/tooSlow.png","null","na","prac","","","","","",""
"null","76639","pSARL_v2","pSARL_v2dvsvzgwv","58ae37d8e6afe00001d36ac9","fixation","img/fixation.png","null","","prac","","","","","",""
"782.3999999761581","77431","pSARL_v2","pSARL_v2dvsvzgwv","58ae37d8e6afe00001d36ac9","infreqPrac","img/green_2bandit_b2.png","70","68","prac","0","","","","",""
"782.3999999761581","77459","pSARL_v2","pSARL_v2dvsvzgwv","58ae37d8e6afe00001d36ac9","infreqPrac_resp","img/green_2bandit_b.png","70","68","prac","","","","","",""
"null","78476","pSARL_v2","pSARL_v2dvsvzgwv","58ae37d8e6afe00001d36ac9","feedback","img/wrongKey.png","null","na","prac","","","","","",""
"null","78646","pSARL_v2","pSARL_v2dvsvzgwv","58ae37d8e6afe00001d36ac9","fixation","img/fixation.png","null","","prac","","","","","",""
"673.2999999523163","79329","pSARL_v2","pSARL_v2dvsvzgwv","58ae37d8e6afe00001d36ac9","freqPrac","img/orange_2bandit_b2.png","70","70","prac","1","","","","",""
"673.2999999523163","79465","pSARL_v2","pSARL_v2dvsvzgwv","58ae37d8e6afe00001d36ac9","freqPrac_resp","img/orange_2bandit_b.png","70","70","prac","","","","","",""
"null","79637","pSARL_v2","pSARL_v2dvsvzgwv","58ae37d8e6afe00001d36ac9","fixation","img/fixation.png","null","","prac","","","","","",""
"524.5","80171","pSARL_v2","pSARL_v2dvsvzgwv","58ae37d8e6afe00001d36ac9","infreqPrac","img/green_2bandit_b2.png","68","68","prac","1","","","","",""
"524.5","80468","pSARL_v2","pSARL_v2dvsvzgwv","58ae37d8e6afe00001d36ac9","infreqPrac_resp","img/green_2bandit_b.png","68","68","prac","","","","","",""
"null","80636","pSARL_v2","pSARL_v2dvsvzgwv","58ae37d8e6afe00001d36ac9","fixation","img/fixation.png","null","","prac","","","","","",""
"518","81165","pSARL_v2","pSARL_v2dvsvzgwv","58ae37d8e6afe00001d36ac9","infreqPrac","img/green_2bandit_b2.png","68","68","prac","1","","","","",""
"518","81470","pSARL_v2","pSARL_v2dvsvzgwv","58ae37d8e6afe00001d36ac9","infreqPrac_resp","img/green_2bandit_b.png","68","68","prac","","","","","",""
"null","81641","pSARL_v2","pSARL_v2dvsvzgwv","58ae37d8e6afe00001d36ac9","fixation","img/fixation.png","null","","prac","","","","","",""
"460.09999990463257","82110","pSARL_v2","pSARL_v2dvsvzgwv","58ae37d8e6afe00001d36ac9","infreqPrac","img/green_2bandit_b2.png","68","68","prac","1","","","","",""
"460.09999990463257","82461","pSARL_v2","pSARL_v2dvsvzgwv","58ae37d8e6afe00001d36ac9","infreqPrac_resp","img/green_2bandit_b.png","68","68","prac","","","","","",""
"null","82630","pSARL_v2","pSARL_v2dvsvzgwv","58ae37d8e6afe00001d36ac9","fixation","img/fixation.png","null","","prac","","","","","",""
"534.3999999761581","83174","pSARL_v2","pSARL_v2dvsvzgwv","58ae37d8e6afe00001d36ac9","freqPrac","img/orange_2bandit_b2.png","70","70","prac","1","","","","",""
"534.3999999761581","83450","pSARL_v2","pSARL_v2dvsvzgwv","58ae37d8e6afe00001d36ac9","freqPrac_resp","img/orange_2bandit_b.png","70","70","prac","","","","","",""
"null","83620","pSARL_v2","pSARL_v2dvsvzgwv","58ae37d8e6afe00001d36ac9","fixation","img/fixation.png","null","","prac","","","","","",""
"514.6000000238419","84144","pSARL_v2","pSARL_v2dvsvzgwv","58ae37d8e6afe00001d36ac9","infreqPrac","img/green_2bandit_b2.png","68","68","prac","1","","","","",""
"514.6000000238419","84439","pSARL_v2","pSARL_v2dvsvzgwv","58ae37d8e6afe00001d36ac9","infreqPrac_resp","img/green_2bandit_b.png","68","68","prac","","","","","",""
"null","84609","pSARL_v2","pSARL_v2dvsvzgwv","58ae37d8e6afe00001d36ac9","fixation","img/fixation.png","null","","prac","","","","","",""
"493.7000000476837","85112","pSARL_v2","pSARL_v2dvsvzgwv","58ae37d8e6afe00001d36ac9","freqPrac","img/orange_2bandit_b2.png","70","70","prac","1","","","","",""
"493.7000000476837","85431","pSARL_v2","pSARL_v2dvsvzgwv","58ae37d8e6afe00001d36ac9","freqPrac_resp","img/orange_2bandit_b.png","70","70","prac","","","","","",""
"null","85601","pSARL_v2","pSARL_v2dvsvzgwv","58ae37d8e6afe00001d36ac9","fixation","img/fixation.png","null","","prac","","","","","",""
"393.2999999523163","85999","pSARL_v2","pSARL_v2dvsvzgwv","58ae37d8e6afe00001d36ac9","freqPrac","img/orange_2bandit_b2.png","70","70","prac","1","","","","",""
"393.2999999523163","86420","pSARL_v2","pSARL_v2dvsvzgwv","58ae37d8e6afe00001d36ac9","freqPrac_resp","img/orange_2bandit_b.png","70","70","prac","","","","","",""
"null","86592","pSARL_v2","pSARL_v2dvsvzgwv","58ae37d8e6afe00001d36ac9","fixation","img/fixation.png","null","","prac","","","","","",""
"28762.5","115364","pSARL_v2","pSARL_v2dvsvzgwv","58ae37d8e6afe00001d36ac9","","","","","prac","","","","","",""
"727","116100","pSARL_v2","pSARL_v2dvsvzgwv","58ae37d8e6afe00001d36ac9","rewardPractice","img/slot.png","74","","prac","","","","","",""
"null","116869","pSARL_v2","pSARL_v2dvsvzgwv","58ae37d8e6afe00001d36ac9","feedback","<div class=""veryhighPoints""> +15 </div>","null","na","prac","","","","","",""
"null","117039","pSARL_v2","pSARL_v2dvsvzgwv","58ae37d8e6afe00001d36ac9","fixation","img/fixation.png","null","","prac","","","","","",""
"8649.5","125697","pSARL_v2","pSARL_v2dvsvzgwv","58ae37d8e6afe00001d36ac9","","","","","prac","","","","","",""
"781.5","126488","pSARL_v2","pSARL_v2dvsvzgwv","58ae37d8e6afe00001d36ac9","freq","img/orange_2bandit_b2.png","68","70","test","0","1","1","1","",""
"null","126517","pSARL_v2","pSARL_v2dvsvzgwv","58ae37d8e6afe00001d36ac9","freq_resp","img/orange_2bandit_b.png","68","70","test","","","","1","",""
"null","126690","pSARL_v2","pSARL_v2dvsvzgwv","58ae37d8e6afe00001d36ac9","fixation","img/fixation.png","null","","test","","","","","",""
"682.3999999761581","127382","pSARL_v2","pSARL_v2dvsvzgwv","58ae37d8e6afe00001d36ac9","freq","img/orange_2bandit_b2.png","70","70","test","1","2","2","1","",""
"null","127515","pSARL_v2","pSARL_v2dvsvzgwv","58ae37d8e6afe00001d36ac9","freq_resp","img/orange_2bandit_b.png","70","70","test","","","","1","",""
"null","127686","pSARL_v2","pSARL_v2dvsvzgwv","58ae37d8e6afe00001d36ac9","fixation","img/fixation.png","null","","test","","","","","",""
"419.10000002384186","128114","pSARL_v2","pSARL_v2dvsvzgwv","58ae37d8e6afe00001d36ac9","freq","img/orange_2bandit_b2.png","70","70","test","1","3","3","1","",""
"null","128508","pSARL_v2","pSARL_v2dvsvzgwv","58ae37d8e6afe00001d36ac9","freq_resp","img/orange_2bandit_b.png","70","70","test","","","","1","",""
"null","128680","pSARL_v2","pSARL_v2dvsvzgwv","58ae37d8e6afe00001d36ac9","fixation","img/fixation.png","null","","test","","","","","",""
"347.10000002384186","129037","pSARL_v2","pSARL_v2dvsvzgwv","58ae37d8e6afe00001d36ac9","freq","img/orange_2bandit_b2.png","70","70","test","1","4","4","1","",""
"null","129511","pSARL_v2","pSARL_v2dvsvzgwv","58ae37d8e6afe00001d36ac9","freq_resp","img/orange_2bandit_b.png","70","70","test","","","","1","",""
"null","129680","pSARL_v2","pSARL_v2dvsvzgwv","58ae37d8e6afe00001d36ac9","fixation","img/fixation.png","null","","test","","","","","",""
"301.2999999523163","129991","pSARL_v2","pSARL_v2dvsvzgwv","58ae37d8e6afe00001d36ac9","freq","img/orange_2bandit_b2.png","70","70","test","1","5","5","1","",""
"null","130501","pSARL_v2","pSARL_v2dvsvzgwv","58ae37d8e6afe00001d36ac9","freq_resp","img/orange_2bandit_b.png","70","70","test","","","","1","",""
"null","130672","pSARL_v2","pSARL_v2dvsvzgwv","58ae37d8e6afe00001d36ac9","fixation","img/fixation.png","null","","test","","","","","",""
"372.5","131054","pSARL_v2","pSARL_v2dvsvzgwv","58ae37d8e6afe00001d36ac9","freq","img/orange_2bandit_b2.png","70","70","test","1","6","6","1","",""
"null","131491","pSARL_v2","pSARL_v2dvsvzgwv","58ae37d8e6afe00001d36ac9","freq_resp","img/orange_2bandit_b.png","70","70","test","","","","1","",""
"null","131661","pSARL_v2","pSARL_v2dvsvzgwv","58ae37d8e6afe00001d36ac9","fixation","img/fixation.png","null","","test","","","","","",""
"291.2000000476837","131962","pSARL_v2","pSARL_v2dvsvzgwv","58ae37d8e6afe00001d36ac9","freq","img/orange_2bandit_b2.png","70","70","test","1","7","7","1","",""
"null","132493","pSARL_v2","pSARL_v2dvsvzgwv","58ae37d8e6afe00001d36ac9","freq_resp","img/orange_2bandit_b.png","70","70","test","","","","1","",""
"null","132664","pSARL_v2","pSARL_v2dvsvzgwv","58ae37d8e6afe00001d36ac9","fixation","img/fixation.png","null","","test","","","","","",""
"433.8000000715256","133107","pSARL_v2","pSARL_v2dvsvzgwv","58ae37d8e6afe00001d36ac9","infreq","img/green_2bandit_b2.png","68","68","test","1","8","8","1","",""
"null","133486","pSARL_v2","pSARL_v2dvsvzgwv","58ae37d8e6afe00001d36ac9","infreq_resp","img/green_2bandit_b.png","68","68","test","","","","1","",""
"null","133655","pSARL_v2","pSARL_v2dvsvzgwv","58ae37d8e6afe00001d36ac9","fixation","img/fixation.png","null","","test","","","","","",""
"432","134097","pSARL_v2","pSARL_v2dvsvzgwv","58ae37d8e6afe00001d36ac9","freq","img/orange_2bandit_b2.png","70","70","test","1","9","9","1","",""
"null","134489","pSARL_v2","pSARL_v2dvsvzgwv","58ae37d8e6afe00001d36ac9","freq_resp","img/orange_2bandit_b.png","70","70","test","","","","1","",""
"null","134659","pSARL_v2","pSARL_v2dvsvzgwv","58ae37d8e6afe00001d36ac9","fixation","img/fixation.png","null","","test","","","","","",""
"391.2999999523163","135061","pSARL_v2","pSARL_v2dvsvzgwv","58ae37d8e6afe00001d36ac9","freq","img/orange_2bandit_b2.png","70","70","test","1","10","10","1","",""
"null","135480","pSARL_v2","pSARL_v2dvsvzgwv","58ae37d8e6afe00001d36ac9","freq_resp","img/orange_2bandit_b.png","70","70","test","","","","1","",""
"null","135650","pSARL_v2","pSARL_v2dvsvzgwv","58ae37d8e6afe00001d36ac9","fixation","img/fixation.png","null","","test","","","","","",""
"353","136012","pSARL_v2","pSARL_v2dvsvzgwv","58ae37d8e6afe00001d36ac9","freq","img/orange_2bandit_b2.png","70","70","test","1","11","11","1","",""
"null","136470","pSARL_v2","pSARL_v2dvsvzgwv","58ae37d8e6afe00001d36ac9","freq_resp","img/orange_2bandit_b.png","70","70","test","","","","1","",""
"null","136641","pSARL_v2","pSARL_v2dvsvzgwv","58ae37d8e6afe00001d36ac9","fixation","img/fixation.png","null","","test","","","","","",""
"327.2999999523163","136978","pSARL_v2","pSARL_v2dvsvzgwv","58ae37d8e6afe00001d36ac9","freq","img/orange_2bandit_b2.png","70","70","test","1","12","12","1","",""
"null","137462","pSARL_v2","pSARL_v2dvsvzgwv","58ae37d8e6afe00001d36ac9","freq_resp","img/orange_2bandit_b.png","70","70","test","","","","1","",""
"null","137631","pSARL_v2","pSARL_v2dvsvzgwv","58ae37d8e6afe00001d36ac9","fixation","img/fixation.png","null","","test","","","","","",""
"276.39999997615814","137918","pSARL_v2","pSARL_v2dvsvzgwv","58ae37d8e6afe00001d36ac9","freq","img/orange_2bandit_b2.png","70","70","test","1","13","13","1","",""
"null","138451","pSARL_v2","pSARL_v2dvsvzgwv","58ae37d8e6afe00001d36ac9","freq_resp","img/orange_2bandit_b.png","70","70","test","","","","1","",""
"null","138621","pSARL_v2","pSARL_v2dvsvzgwv","58ae37d8e6afe00001d36ac9","fixation","img/fixation.png","null","","test","","","","","",""
"334.89999997615814","138966","pSARL_v2","pSARL_v2dvsvzgwv","58ae37d8e6afe00001d36ac9","freq","img/orange_2bandit_b2.png","70","70","test","1","14","14","1","",""
"null","139454","pSARL_v2","pSARL_v2dvsvzgwv","58ae37d8e6afe00001d36ac9","freq_resp","img/orange_2bandit_b.png","70","70","test","","","","1","",""
"null","139622","pSARL_v2","pSARL_v2dvsvzgwv","58ae37d8e6afe00001d36ac9","fixation","img/fixation.png","null","","test","","","","","",""
"242.39999997615814","139874","pSARL_v2","pSARL_v2dvsvzgwv","58ae37d8e6afe00001d36ac9","freq","img/orange_2bandit_b2.png","70","70","test","1","15","15","1","",""
"null","140442","pSARL_v2","pSARL_v2dvsvzgwv","58ae37d8e6afe00001d36ac9","freq_resp","img/orange_2bandit_b.png","70","70","test","","","","1","",""
"null","140615","pSARL_v2","pSARL_v2dvsvzgwv","58ae37d8e6afe00001d36ac9","fixation","img/fixation.png","null","","test","","","","","",""
"270.90000009536743","140895","pSARL_v2","pSARL_v2dvsvzgwv","58ae37d8e6afe00001d36ac9","freq","img/orange_2bandit_b2.png","70","70","test","1","16","16","1","",""
"null","141447","pSARL_v2","pSARL_v2dvsvzgwv","58ae37d8e6afe00001d36ac9","freq_resp","img/orange_2bandit_b.png","70","70","test","","","","1","",""
"null","141619","pSARL_v2","pSARL_v2dvsvzgwv","58ae37d8e6afe00001d36ac9","fixation","img/fixation.png","null","","test","","","","","",""
"269.60000002384186","141898","pSARL_v2","pSARL_v2dvsvzgwv","58ae37d8e6afe00001d36ac9","freq","img/orange_2bandit_b2.png","70","70","test","1","17","17","1","",""
"null","142440","pSARL_v2","pSARL_v2dvsvzgwv","58ae37d8e6afe00001d36ac9","freq_resp","img/orange_2bandit_b.png","70","70","test","","","","1","",""
"null","142612","pSARL_v2","pSARL_v2dvsvzgwv","58ae37d8e6afe00001d36ac9","fixation","img/fixation.png","null","","test","","","","","",""
"262.7000000476837","142883","pSARL_v2","pSARL_v2dvsvzgwv","58ae37d8e6afe00001d36ac9","freq","img/orange_2bandit_b2.png","70","70","test","1","18","18","1","",""
"null","143432","pSARL_v2","pSARL_v2dvsvzgwv","58ae37d8e6afe00001d36ac9","freq_resp","img/orange_2bandit_b.png","70","70","test","","","","1","",""
"null","143601","pSARL_v2","pSARL_v2dvsvzgwv","58ae37d8e6afe00001d36ac9","fixation","img/fixation.png","null","","test","","","","","",""
"290.90000009536743","143902","pSARL_v2","pSARL_v2dvsvzgwv","58ae37d8e6afe00001d36ac9","freq","img/orange_2bandit_b2.png","70","70","test","1","19","19","1","",""
"null","144436","pSARL_v2","pSARL_v2dvsvzgwv","58ae37d8e6afe00001d36ac9","freq_resp","img/orange_2bandit_b.png","70","70","test","","","","1","",""
"null","144605","pSARL_v2","pSARL_v2dvsvzgwv","58ae37d8e6afe00001d36ac9","fixation","img/fixation.png","null","","test","","","","","",""
"290.59999990463257","144905","pSARL_v2","pSARL_v2dvsvzgwv","58ae37d8e6afe00001d36ac9","infreq","img/green_2bandit_b2.png","70","68","test","0","20","20","1","",""
"null","145435","pSARL_v2","pSARL_v2dvsvzgwv","58ae37d8e6afe00001d36ac9","infreq_resp","img/green_2bandit_b.png","70","68","test","","","","1","",""
"null","145606","pSARL_v2","pSARL_v2dvsvzgwv","58ae37d8e6afe00001d36ac9","fixation","img/fixation.png","null","","test","","","","","",""
"349.2999999523163","145965","pSARL_v2","pSARL_v2dvsvzgwv","58ae37d8e6afe00001d36ac9","freq","img/orange_2bandit_b2.png","70","70","test","1","21","21","1","",""
"null","146432","pSARL_v2","pSARL_v2dvsvzgwv","58ae37d8e6afe00001d36ac9","freq_resp","img/orange_2bandit_b.png","70","70","test","","","","1","",""
"null","146602","pSARL_v2","pSARL_v2dvsvzgwv","58ae37d8e6afe00001d36ac9","fixation","img/fixation.png","null","","test","","","","","",""
"544.8999999761581","147156","pSARL_v2","pSARL_v2dvsvzgwv","58ae37d8e6afe00001d36ac9","reward","img/slot.png","74","","test","","","","","",""
"null","147932","pSARL_v2","pSARL_v2dvsvzgwv","58ae37d8e6afe00001d36ac9","points","<div class=""verylowPoints""> -6 </div>","null","na","test","","","","1","-6","0"
"536.8999999761581","148478","pSARL_v2","pSARL_v2dvsvzgwv","58ae37d8e6afe00001d36ac9","freq","img/orange_2bandit_b2.png","70","70","test","1","22","22","2","",""
"null","148764","pSARL_v2","pSARL_v2dvsvzgwv","58ae37d8e6afe00001d36ac9","freq_resp","img/orange_2bandit_b.png","70","70","test","","","","2","",""
"null","148934","pSARL_v2","pSARL_v2dvsvzgwv","58ae37d8e6afe00001d36ac9","fixation","img/fixation.png","null","","test","","","","","",""
"379","149322","pSARL_v2","pSARL_v2dvsvzgwv","58ae37d8e6afe00001d36ac9","freq","img/orange_2bandit_b2.png","70","70","test","1","23","23","2","",""
"null","149756","pSARL_v2","pSARL_v2dvsvzgwv","58ae37d8e6afe00001d36ac9","freq_resp","img/orange_2bandit_b.png","70","70","test","","","","2","",""
"null","149927","pSARL_v2","pSARL_v2dvsvzgwv","58ae37d8e6afe00001d36ac9","fixation","img/fixation.png","null","","test","","","","","",""
"480.60000002384186","150417","pSARL_v2","pSARL_v2dvsvzgwv","58ae37d8e6afe00001d36ac9","infreq","img/green_2bandit_b2.png","68","68","test","1","24","24","2","",""
"null","150749","pSARL_v2","pSARL_v2dvsvzgwv","58ae37d8e6afe00001d36ac9","infreq_resp","img/green_2bandit_b.png","68","68","test","","","","2","",""
"null","150920","pSARL_v2","pSARL_v2dvsvzgwv","58ae37d8e6afe00001d36ac9","fixation","img/fixation.png","null","","test","","","","","",""
"413.2999999523163","151343","pSARL_v2","pSARL_v2dvsvzgwv","58ae37d8e6afe00001d36ac9","freq","img/orange_2bandit_b2.png","70","70","test","1","25","25","2","",""
"null","151743","pSARL_v2","pSARL_v2dvsvzgwv","58ae37d8e6afe00001d36ac9","freq_resp","img/orange_2bandit_b.png","70","70","test","","","","2","",""
"null","151915","pSARL_v2","pSARL_v2dvsvzgwv","58ae37d8e6afe00001d36ac9","fixation","img/fixation.png","null","","test","","","","","",""
"414.8000000715256","152339","pSARL_v2","pSARL_v2dvsvzgwv","58ae37d8e6afe00001d36ac9","infreq","img/green_2bandit_b2.png","68","68","test","1","26","26","2","",""
"null","152745","pSARL_v2","pSARL_v2dvsvzgwv","58ae37d8e6afe00001d36ac9","infreq_resp","img/green_2bandit_b.png","68","68","test","","","","2","",""
"null","152917","pSARL_v2","pSARL_v2dvsvzgwv","58ae37d8e6afe00001d36ac9","fixation","img/fixation.png","null","","test","","","","","",""
"366.3000000715256","153293","pSARL_v2","pSARL_v2dvsvzgwv","58ae37d8e6afe00001d36ac9","freq","img/orange_2bandit_b2.png","70","70","test","1","27","27","2","",""
"null","153737","pSARL_v2","pSARL_v2dvsvzgwv","58ae37d8e6afe00001d36ac9","freq_resp","img/orange_2bandit_b.png","70","70","test","","","","2","",""
"null","153908","pSARL_v2","pSARL_v2dvsvzgwv","58ae37d8e6afe00001d36ac9","fixation","img/fixation.png","null","","test","","","","","",""
"303.39999997615814","154221","pSARL_v2","pSARL_v2dvsvzgwv","58ae37d8e6afe00001d36ac9","freq","img/orange_2bandit_b2.png","70","70","test","1","28","28","2","",""
"null","154727","pSARL_v2","pSARL_v2dvsvzgwv","58ae37d8e6afe00001d36ac9","freq_resp","img/orange_2bandit_b.png","70","70","test","","","","2","",""
"null","154896","pSARL_v2","pSARL_v2dvsvzgwv","58ae37d8e6afe00001d36ac9","fixation","img/fixation.png","null","","test","","","","","",""
"427.59999990463257","155333","pSARL_v2","pSARL_v2dvsvzgwv","58ae37d8e6afe00001d36ac9","freq","img/orange_2bandit_b2.png","70","70","test","1","29","29","2","",""
"null","155715","pSARL_v2","pSARL_v2dvsvzgwv","58ae37d8e6afe00001d36ac9","freq_resp","img/orange_2bandit_b.png","70","70","test","","","","2","",""
"null","155884","pSARL_v2","pSARL_v2dvsvzgwv","58ae37d8e6afe00001d36ac9","fixation","img/fixation.png","null","","test","","","","","",""
"325.10000002384186","156215","pSARL_v2","pSARL_v2dvsvzgwv","58ae37d8e6afe00001d36ac9","freq","img/orange_2bandit_b2.png","70","70","test","1","30","30","2","",""
"null","156706","pSARL_v2","pSARL_v2dvsvzgwv","58ae37d8e6afe00001d36ac9","freq_resp","img/orange_2bandit_b.png","70","70","test","","","","2","",""
"null","156877","pSARL_v2","pSARL_v2dvsvzgwv","58ae37d8e6afe00001d36ac9","fixation","img/fixation.png","null","","test","","","","","",""
"274.59999990463257","157161","pSARL_v2","pSARL_v2dvsvzgwv","58ae37d8e6afe00001d36ac9","freq","img/orange_2bandit_b2.png","70","70","test","1","31","31","2","",""
"null","157697","pSARL_v2","pSARL_v2dvsvzgwv","58ae37d8e6afe00001d36ac9","freq_resp","img/orange_2bandit_b.png","70","70","test","","","","2","",""
"null","157867","pSARL_v2","pSARL_v2dvsvzgwv","58ae37d8e6afe00001d36ac9","fixation","img/fixation.png","null","","test","","","","","",""
"338.39999997615814","158215","pSARL_v2","pSARL_v2dvsvzgwv","58ae37d8e6afe00001d36ac9","freq","img/orange_2bandit_b2.png","70","70","test","1","32","32","2","",""
"null","158699","pSARL_v2","pSARL_v2dvsvzgwv","58ae37d8e6afe00001d36ac9","freq_resp","img/orange_2bandit_b.png","70","70","test","","","","2","",""
"null","158872","pSARL_v2","pSARL_v2dvsvzgwv","58ae37d8e6afe00001d36ac9","fixation","img/fixation.png","null","","test","","","","","",""
"277.60000002384186","159159","pSARL_v2","pSARL_v2dvsvzgwv","58ae37d8e6afe00001d36ac9","freq","img/orange_2bandit_b2.png","70","70","test","1","33","33","2","",""
"null","159693","pSARL_v2","pSARL_v2dvsvzgwv","58ae37d8e6afe00001d36ac9","freq_resp","img/orange_2bandit_b.png","70","70","test","","","","2","",""
"null","159862","pSARL_v2","pSARL_v2dvsvzgwv","58ae37d8e6afe00001d36ac9","fixation","img/fixation.png","null","","test","","","","","",""
"286.60000002384186","160158","pSARL_v2","pSARL_v2dvsvzgwv","58ae37d8e6afe00001d36ac9","freq","img/orange_2bandit_b2.png","70","70","test","1","34","34","2","",""
"null","160683","pSARL_v2","pSARL_v2dvsvzgwv","58ae37d8e6afe00001d36ac9","freq_resp","img/orange_2bandit_b.png","70","70","test","","","","2","",""
"null","160851","pSARL_v2","pSARL_v2dvsvzgwv","58ae37d8e6afe00001d36ac9","fixation","img/fixation.png","null","","test","","","","","",""
"377.10000002384186","161237","pSARL_v2","pSARL_v2dvsvzgwv","58ae37d8e6afe00001d36ac9","freq","img/orange_2bandit_b2.png","70","70","test","1","35","35","2","",""
"null","161671","pSARL_v2","pSARL_v2dvsvzgwv","58ae37d8e6afe00001d36ac9","freq_resp","img/orange_2bandit_b.png","70","70","test","","","","2","",""
"null","161842","pSARL_v2","pSARL_v2dvsvzgwv","58ae37d8e6afe00001d36ac9","fixation","img/fixation.png","null","","test","","","","","",""
"261","162112","pSARL_v2","pSARL_v2dvsvzgwv","58ae37d8e6afe00001d36ac9","freq","img/orange_2bandit_b2.png","70","70","test","1","36","36","2","",""
"null","162664","pSARL_v2","pSARL_v2dvsvzgwv","58ae37d8e6afe00001d36ac9","freq_resp","img/orange_2bandit_b.png","70","70","test","","","","2","",""
"null","162832","pSARL_v2","pSARL_v2dvsvzgwv","58ae37d8e6afe00001d36ac9","fixation","img/fixation.png","null","","test","","","","","",""
"289.89999997615814","163131","pSARL_v2","pSARL_v2dvsvzgwv","58ae37d8e6afe00001d36ac9","freq","img/orange_2bandit_b2.png","70","70","test","1","37","37","2","",""
"null","163649","pSARL_v2","pSARL_v2dvsvzgwv","58ae37d8e6afe00001d36ac9","freq_resp","img/orange_2bandit_b.png","70","70","test","","","","2","",""
"null","163806","pSARL_v2","pSARL_v2dvsvzgwv","58ae37d8e6afe00001d36ac9","fixation","img/fixation.png","null","","test","","","","","",""
"316","164126","pSARL_v2","pSARL_v2dvsvzgwv","58ae37d8e6afe00001d36ac9","freq","img/orange_2bandit_b2.png","70","70","test","1","38","38","2","",""
"null","164617","pSARL_v2","pSARL_v2dvsvzgwv","58ae37d8e6afe00001d36ac9","freq_resp","img/orange_2bandit_b.png","70","70","test","","","","2","",""
"null","164777","pSARL_v2","pSARL_v2dvsvzgwv","58ae37d8e6afe00001d36ac9","fixation","img/fixation.png","null","","test","","","","","",""
"251.39999997615814","165033","pSARL_v2","pSARL_v2dvsvzgwv","58ae37d8e6afe00001d36ac9","freq","img/orange_2bandit_b2.png","70","70","test","1","39","39","2","",""
"null","165595","pSARL_v2","pSARL_v2dvsvzgwv","58ae37d8e6afe00001d36ac9","freq_resp","img/orange_2bandit_b.png","70","70","test","","","","2","",""
"null","165767","pSARL_v2","pSARL_v2dvsvzgwv","58ae37d8e6afe00001d36ac9","fixation","img/fixation.png","null","","test","","","","","",""
"312.5","166089","pSARL_v2","pSARL_v2dvsvzgwv","58ae37d8e6afe00001d36ac9","freq","img/orange_2bandit_b2.png","70","70","test","1","40","40","2","",""
"null","166590","pSARL_v2","pSARL_v2dvsvzgwv","58ae37d8e6afe00001d36ac9","freq_resp","img/orange_2bandit_b.png","70","70","test","","","","2","",""
"null","166759","pSARL_v2","pSARL_v2dvsvzgwv","58ae37d8e6afe00001d36ac9","fixation","img/fixation.png","null","","test","","","","","",""
"606.1000000238419","167374","pSARL_v2","pSARL_v2dvsvzgwv","58ae37d8e6afe00001d36ac9","reward","img/slot.png","74","","test","","","","","",""
"null","168132","pSARL_v2","pSARL_v2dvsvzgwv","58ae37d8e6afe00001d36ac9","points","<div class=""verylowPoints""> -11 </div>","null","na","test","","","","2","-11","1"
"721.2999999523163","168862","pSARL_v2","pSARL_v2dvsvzgwv","58ae37d8e6afe00001d36ac9","freq","img/orange_2bandit_b2.png","70","70","test","1","41","41","3","",""
"null","168953","pSARL_v2","pSARL_v2dvsvzgwv","58ae37d8e6afe00001d36ac9","freq_resp","img/orange_2bandit_b.png","70","70","test","","","","3","",""
"null","169125","pSARL_v2","pSARL_v2dvsvzgwv","58ae37d8e6afe00001d36ac9","fixation","img/fixation.png","null","","test","","","","","",""
"570.2999999523163","169704","pSARL_v2","pSARL_v2dvsvzgwv","58ae37d8e6afe00001d36ac9","freq","img/orange_2bandit_b2.png","70","70","test","1","42","42","3","",""
"null","169943","pSARL_v2","pSARL_v2dvsvzgwv","58ae37d8e6afe00001d36ac9","freq_resp","img/orange_2bandit_b.png","70","70","test","","","","3","",""
"null","170113","pSARL_v2","pSARL_v2dvsvzgwv","58ae37d8e6afe00001d36ac9","fixation","img/fixation.png","null","","test","","","","","",""
"695.2999999523163","170817","pSARL_v2","pSARL_v2dvsvzgwv","58ae37d8e6afe00001d36ac9","freq","img/orange_2bandit_b2.png","70","70","test","1","43","43","3","",""
"null","170935","pSARL_v2","pSARL_v2dvsvzgwv","58ae37d8e6afe00001d36ac9","freq_resp","img/orange_2bandit_b.png","70","70","test","","","","3","",""
"null","171105","pSARL_v2","pSARL_v2dvsvzgwv","58ae37d8e6afe00001d36ac9","fixation","img/fixation.png","null","","test","","","","","",""
"726.1000000238419","171841","pSARL_v2","pSARL_v2dvsvzgwv","58ae37d8e6afe00001d36ac9","freq","img/orange_2bandit_b2.png","70","70","test","1","44","44","3","",""
"null","171939","pSARL_v2","pSARL_v2dvsvzgwv","58ae37d8e6afe00001d36ac9","freq_resp","img/orange_2bandit_b.png","70","70","test","","","","3","",""
"null","172109","pSARL_v2","pSARL_v2dvsvzgwv","58ae37d8e6afe00001d36ac9","fixation","img/fixation.png","null","","test","","","","","",""
"632","172751","pSARL_v2","pSARL_v2dvsvzgwv","58ae37d8e6afe00001d36ac9","freq","img/orange_2bandit_b2.png","70","70","test","1","45","45","3","",""
"null","172930","pSARL_v2","pSARL_v2dvsvzgwv","58ae37d8e6afe00001d36ac9","freq_resp","img/orange_2bandit_b.png","70","70","test","","","","3","",""
"null","173101","pSARL_v2","pSARL_v2dvsvzgwv","58ae37d8e6afe00001d36ac9","fixation","img/fixation.png","null","","test","","","","","",""
"603.3999999761581","173714","pSARL_v2","pSARL_v2dvsvzgwv","58ae37d8e6afe00001d36ac9","freq","img/orange_2bandit_b2.png","70","70","test","1","46","46","3","",""
"null","173920","pSARL_v2","pSARL_v2dvsvzgwv","58ae37d8e6afe00001d36ac9","freq_resp","img/orange_2bandit_b.png","70","70","test","","","","3","",""
"null","174092","pSARL_v2","pSARL_v2dvsvzgwv","58ae37d8e6afe00001d36ac9","fixation","img/fixation.png","null","","test","","","","","",""
"634.5999999046326","174736","pSARL_v2","pSARL_v2dvsvzgwv","58ae37d8e6afe00001d36ac9","freq","img/orange_2bandit_b2.png","70","70","test","1","47","47","3","",""
"null","174912","pSARL_v2","pSARL_v2dvsvzgwv","58ae37d8e6afe00001d36ac9","freq_resp","img/orange_2bandit_b.png","70","70","test","","","","3","",""
"null","175082","pSARL_v2","pSARL_v2dvsvzgwv","58ae37d8e6afe00001d36ac9","fixation","img/fixation.png","null","","test","","","","","",""
"368.90000009536743","175461","pSARL_v2","pSARL_v2dvsvzgwv","58ae37d8e6afe00001d36ac9","freq","img/orange_2bandit_b2.png","70","70","test","1","48","48","3","",""
"null","175904","pSARL_v2","pSARL_v2dvsvzgwv","58ae37d8e6afe00001d36ac9","freq_resp","img/orange_2bandit_b.png","70","70","test","","","","3","",""
"null","176073","pSARL_v2","pSARL_v2dvsvzgwv","58ae37d8e6afe00001d36ac9","fixation","img/fixation.png","null","","test","","","","","",""
"308.2000000476837","176391","pSARL_v2","pSARL_v2dvsvzgwv","58ae37d8e6afe00001d36ac9","freq","img/orange_2bandit_b2.png","70","70","test","1","49","49","3","",""
"null","176891","pSARL_v2","pSARL_v2dvsvzgwv","58ae37d8e6afe00001d36ac9","freq_resp","img/orange_2bandit_b.png","70","70","test","","","","3","",""
"null","177061","pSARL_v2","pSARL_v2dvsvzgwv","58ae37d8e6afe00001d36ac9","fixation","img/fixation.png","null","","test","","","","","",""
"403.2000000476837","177476","pSARL_v2","pSARL_v2dvsvzgwv","58ae37d8e6afe00001d36ac9","freq","img/orange_2bandit_b2.png","70","70","test","1","50","50","3","",""
"null","177896","pSARL_v2","pSARL_v2dvsvzgwv","58ae37d8e6afe00001d36ac9","freq_resp","img/orange_2bandit_b.png","70","70","test","","","","3","",""
"null","178069","pSARL_v2","pSARL_v2dvsvzgwv","58ae37d8e6afe00001d36ac9","fixation","img/fixation.png","null","","test","","","","","",""
"349","178428","pSARL_v2","pSARL_v2dvsvzgwv","58ae37d8e6afe00001d36ac9","freq","img/orange_2bandit_b2.png","70","70","test","1","51","51","3","",""
"null","178900","pSARL_v2","pSARL_v2dvsvzgwv","58ae37d8e6afe00001d36ac9","freq_resp","img/orange_2bandit_b.png","70","70","test","","","","3","",""
"null","179070","pSARL_v2","pSARL_v2dvsvzgwv","58ae37d8e6afe00001d36ac9","fixation","img/fixation.png","null","","test","","","","","",""
"346.2000000476837","179426","pSARL_v2","pSARL_v2dvsvzgwv","58ae37d8e6afe00001d36ac9","freq","img/orange_2bandit_b2.png","70","70","test","1","52","52","3","",""
"null","179889","pSARL_v2","pSARL_v2dvsvzgwv","58ae37d8e6afe00001d36ac9","freq_resp","img/orange_2bandit_b.png","70","70","test","","","","3","",""
"null","180059","pSARL_v2","pSARL_v2dvsvzgwv","58ae37d8e6afe00001d36ac9","fixation","img/fixation.png","null","","test","","","","","",""
"283.7000000476837","180353","pSARL_v2","pSARL_v2dvsvzgwv","58ae37d8e6afe00001d36ac9","freq","img/orange_2bandit_b2.png","70","70","test","1","53","53","3","",""
"null","180882","pSARL_v2","pSARL_v2dvsvzgwv","58ae37d8e6afe00001d36ac9","freq_resp","img/orange_2bandit_b.png","70","70","test","","","","3","",""
"null","181053","pSARL_v2","pSARL_v2dvsvzgwv","58ae37d8e6afe00001d36ac9","fixation","img/fixation.png","null","","test","","","","","",""
"272.90000009536743","181336","pSARL_v2","pSARL_v2dvsvzgwv","58ae37d8e6afe00001d36ac9","freq","img/orange_2bandit_b2.png","70","70","test","1","54","54","3","",""
"null","181883","pSARL_v2","pSARL_v2dvsvzgwv","58ae37d8e6afe00001d36ac9","freq_resp","img/orange_2bandit_b.png","70","70","test","","","","3","",""
"null","182053","pSARL_v2","pSARL_v2dvsvzgwv","58ae37d8e6afe00001d36ac9","fixation","img/fixation.png","null","","test","","","","","",""
"272.3000000715256","182336","pSARL_v2","pSARL_v2dvsvzgwv","58ae37d8e6afe00001d36ac9","freq","img/orange_2bandit_b2.png","70","70","test","1","55","55","3","",""
"null","182885","pSARL_v2","pSARL_v2dvsvzgwv","58ae37d8e6afe00001d36ac9","freq_resp","img/orange_2bandit_b.png","70","70","test","","","","3","",""
"null","183056","pSARL_v2","pSARL_v2dvsvzgwv","58ae37d8e6afe00001d36ac9","fixation","img/fixation.png","null","","test","","","","","",""
"247.79999995231628","183314","pSARL_v2","pSARL_v2dvsvzgwv","58ae37d8e6afe00001d36ac9","infreq","img/green_2bandit_b2.png","70","68","test","0","56","56","3","",""
"null","183880","pSARL_v2","pSARL_v2dvsvzgwv","58ae37d8e6afe00001d36ac9","infreq_resp","img/green_2bandit_b.png","70","68","test","","","","3","",""
"null","184050","pSARL_v2","pSARL_v2dvsvzgwv","58ae37d8e6afe00001d36ac9","fixation","img/fixation.png","null","","test","","","","","",""
"334.7000000476837","184394","pSARL_v2","pSARL_v2dvsvzgwv","58ae37d8e6afe00001d36ac9","freq","img/orange_2bandit_b2.png","70","70","test","1","57","57","3","",""
"null","184873","pSARL_v2","pSARL_v2dvsvzgwv","58ae37d8e6afe00001d36ac9","freq_resp","img/orange_2bandit_b.png","70","70","test","","","","3","",""
"null","185045","pSARL_v2","pSARL_v2dvsvzgwv","58ae37d8e6afe00001d36ac9","fixation","img/fixation.png","null","","test","","","","","",""
"356.2999999523163","185411","pSARL_v2","pSARL_v2dvsvzgwv","58ae37d8e6afe00001d36ac9","freq","img/orange_2bandit_b2.png","70","70","test","1","58","58","3","",""
"null","185867","pSARL_v2","pSARL_v2dvsvzgwv","58ae37d8e6afe00001d36ac9","freq_resp","img/orange_2bandit_b.png","70","70","test","","","","3","",""
"null","186037","pSARL_v2","pSARL_v2dvsvzgwv","58ae37d8e6afe00001d36ac9","fixation","img/fixation.png","null","","test","","","","","",""
"359.90000009536743","186406","pSARL_v2","pSARL_v2dvsvzgwv","58ae37d8e6afe00001d36ac9","freq","img/orange_2bandit_b2.png","70","70","test","1","59","59","3","",""
"null","186857","pSARL_v2","pSARL_v2dvsvzgwv","58ae37d8e6afe00001d36ac9","freq_resp","img/orange_2bandit_b.png","70","70","test","","","","3","",""
"null","187027","pSARL_v2","pSARL_v2dvsvzgwv","58ae37d8e6afe00001d36ac9","fixation","img/fixation.png","null","","test","","","","","",""
"460","187496","pSARL_v2","pSARL_v2dvsvzgwv","58ae37d8e6afe00001d36ac9","infreq","img/green_2bandit_b2.png","68","68","test","1","60","60","3","",""
"null","187846","pSARL_v2","pSARL_v2dvsvzgwv","58ae37d8e6afe00001d36ac9","infreq_resp","img/green_2bandit_b.png","68","68","test","","","","3","",""
"null","188016","pSARL_v2","pSARL_v2dvsvzgwv","58ae37d8e6afe00001d36ac9","fixation","img/fixation.png","null","","test","","","","","",""
"422.5","188448","pSARL_v2","pSARL_v2dvsvzgwv","58ae37d8e6afe00001d36ac9","freq","img/orange_2bandit_b2.png","70","70","test","1","61","61","3","",""
"null","188838","pSARL_v2","pSARL_v2dvsvzgwv","58ae37d8e6afe00001d36ac9","freq_resp","img/orange_2bandit_b.png","70","70","test","","","","3","",""
"null","189009","pSARL_v2","pSARL_v2dvsvzgwv","58ae37d8e6afe00001d36ac9","fixation","img/fixation.png","null","","test","","","","","",""
"366","189385","pSARL_v2","pSARL_v2dvsvzgwv","58ae37d8e6afe00001d36ac9","freq","img/orange_2bandit_b2.png","70","70","test","1","62","62","3","",""
"null","189844","pSARL_v2","pSARL_v2dvsvzgwv","58ae37d8e6afe00001d36ac9","freq_resp","img/orange_2bandit_b.png","70","70","test","","","","3","",""
"null","190013","pSARL_v2","pSARL_v2dvsvzgwv","58ae37d8e6afe00001d36ac9","fixation","img/fixation.png","null","","test","","","","","",""
"478.5","190500","pSARL_v2","pSARL_v2dvsvzgwv","58ae37d8e6afe00001d36ac9","reward","img/slot.png","74","","test","","","","","",""
"null","191272","pSARL_v2","pSARL_v2dvsvzgwv","58ae37d8e6afe00001d36ac9","points","<div class=""verylowPoints""> -7 </div>","null","na","test","","","","3","-7","2"
"538.1000000238419","191817","pSARL_v2","pSARL_v2dvsvzgwv","58ae37d8e6afe00001d36ac9","freq","img/orange_2bandit_b2.png","70","70","test","1","63","63","4","",""
"null","192090","pSARL_v2","pSARL_v2dvsvzgwv","58ae37d8e6afe00001d36ac9","freq_resp","img/orange_2bandit_b.png","70","70","test","","","","4","",""
"null","192260","pSARL_v2","pSARL_v2dvsvzgwv","58ae37d8e6afe00001d36ac9","fixation","img/fixation.png","null","","test","","","","","",""
"435.5","192705","pSARL_v2","pSARL_v2dvsvzgwv","58ae37d8e6afe00001d36ac9","infreq","img/green_2bandit_b2.png","68","68","test","1","64","64","4","",""
"null","193079","pSARL_v2","pSARL_v2dvsvzgwv","58ae37d8e6afe00001d36ac9","infreq_resp","img/green_2bandit_b.png","68","68","test","","","","4","",""
"null","193249","pSARL_v2","pSARL_v2dvsvzgwv","58ae37d8e6afe00001d36ac9","fixation","img/fixation.png","null","","test","","","","","",""
"405.59999990463257","193665","pSARL_v2","pSARL_v2dvsvzgwv","58ae37d8e6afe00001d36ac9","freq","img/orange_2bandit_b2.png","70","70","test","1","65","65","4","",""
"null","194069","pSARL_v2","pSARL_v2dvsvzgwv","58ae37d8e6afe00001d36ac9","freq_resp","img/orange_2bandit_b.png","70","70","test","","","","4","",""
"null","194240","pSARL_v2","pSARL_v2dvsvzgwv","58ae37d8e6afe00001d36ac9","fixation","img/fixation.png","null","","test","","","","","",""
"358.40000009536743","194609","pSARL_v2","pSARL_v2dvsvzgwv","58ae37d8e6afe00001d36ac9","freq","img/orange_2bandit_b2.png","70","70","test","1","66","66","4","",""
"null","195073","pSARL_v2","pSARL_v2dvsvzgwv","58ae37d8e6afe00001d36ac9","freq_resp","img/orange_2bandit_b.png","70","70","test","","","","4","",""
"null","195243","pSARL_v2","pSARL_v2dvsvzgwv","58ae37d8e6afe00001d36ac9","fixation","img/fixation.png","null","","test","","","","","",""
"269.60000002384186","195523","pSARL_v2","pSARL_v2dvsvzgwv","58ae37d8e6afe00001d36ac9","freq","img/orange_2bandit_b2.png","70","70","test","1","67","67","4","",""
"null","196064","pSARL_v2","pSARL_v2dvsvzgwv","58ae37d8e6afe00001d36ac9","freq_resp","img/orange_2bandit_b.png","70","70","test","","","","4","",""
"null","196234","pSARL_v2","pSARL_v2dvsvzgwv","58ae37d8e6afe00001d36ac9","fixation","img/fixation.png","null","","test","","","","","",""
"430.7000000476837","196674","pSARL_v2","pSARL_v2dvsvzgwv","58ae37d8e6afe00001d36ac9","infreq","img/green_2bandit_b2.png","68","68","test","1","68","68","4","",""
"null","197065","pSARL_v2","pSARL_v2dvsvzgwv","58ae37d8e6afe00001d36ac9","infreq_resp","img/green_2bandit_b.png","68","68","test","","","","4","",""
"null","197233","pSARL_v2","pSARL_v2dvsvzgwv","58ae37d8e6afe00001d36ac9","fixation","img/fixation.png","null","","test","","","","","",""
"347.8000000715256","197591","pSARL_v2","pSARL_v2dvsvzgwv","58ae37d8e6afe00001d36ac9","freq","img/orange_2bandit_b2.png","70","70","test","1","69","69","4","",""
"null","198063","pSARL_v2","pSARL_v2dvsvzgwv","58ae37d8e6afe00001d36ac9","freq_resp","img/orange_2bandit_b.png","70","70","test","","","","4","",""
"null","198234","pSARL_v2","pSARL_v2dvsvzgwv","58ae37d8e6afe00001d36ac9","fixation","img/fixation.png","null","","test","","","","","",""
"348.5","198588","pSARL_v2","pSARL_v2dvsvzgwv","58ae37d8e6afe00001d36ac9","freq","img/orange_2bandit_b2.png","70","70","test","1","70","70","4","",""
"null","199055","pSARL_v2","pSARL_v2dvsvzgwv","58ae37d8e6afe00001d36ac9","freq_resp","img/orange_2bandit_b.png","70","70","test","","","","4","",""
"null","199222","pSARL_v2","pSARL_v2dvsvzgwv","58ae37d8e6afe00001d36ac9","fixation","img/fixation.png","null","","test","","","","","",""
"293.40000009536743","199521","pSARL_v2","pSARL_v2dvsvzgwv","58ae37d8e6afe00001d36ac9","freq","img/orange_2bandit_b2.png","70","70","test","1","71","71","4","",""
"null","200048","pSARL_v2","pSARL_v2dvsvzgwv","58ae37d8e6afe00001d36ac9","freq_resp","img/orange_2bandit_b.png","70","70","test","","","","4","",""
"null","200217","pSARL_v2","pSARL_v2dvsvzgwv","58ae37d8e6afe00001d36ac9","fixation","img/fixation.png","null","","test","","","","","",""
"272.39999997615814","200499","pSARL_v2","pSARL_v2dvsvzgwv","58ae37d8e6afe00001d36ac9","freq","img/orange_2bandit_b2.png","70","70","test","1","72","72","4","",""
"null","201048","pSARL_v2","pSARL_v2dvsvzgwv","58ae37d8e6afe00001d36ac9","freq_resp","img/orange_2bandit_b.png","70","70","test","","","","4","",""
"null","201220","pSARL_v2","pSARL_v2dvsvzgwv","58ae37d8e6afe00001d36ac9","fixation","img/fixation.png","null","","test","","","","","",""
"279","201508","pSARL_v2","pSARL_v2dvsvzgwv","58ae37d8e6afe00001d36ac9","freq","img/orange_2bandit_b2.png","70","70","test","1","73","73","4","",""
"null","202040","pSARL_v2","pSARL_v2dvsvzgwv","58ae37d8e6afe00001d36ac9","freq_resp","img/orange_2bandit_b.png","70","70","test","","","","4","",""
"null","202210","pSARL_v2","pSARL_v2dvsvzgwv","58ae37d8e6afe00001d36ac9","fixation","img/fixation.png","null","","test","","","","","",""
"293.60000002384186","202513","pSARL_v2","pSARL_v2dvsvzgwv","58ae37d8e6afe00001d36ac9","freq","img/orange_2bandit_b2.png","70","70","test","1","74","74","4","",""
"null","203029","pSARL_v2","pSARL_v2dvsvzgwv","58ae37d8e6afe00001d36ac9","freq_resp","img/orange_2bandit_b.png","70","70","test","","","","4","",""
"null","203197","pSARL_v2","pSARL_v2dvsvzgwv","58ae37d8e6afe00001d36ac9","fixation","img/fixation.png","null","","test","","","","","",""
"318.39999997615814","203524","pSARL_v2","pSARL_v2dvsvzgwv","58ae37d8e6afe00001d36ac9","freq","img/orange_2bandit_b2.png","70","70","test","1","75","75","4","",""
"null","204017","pSARL_v2","pSARL_v2dvsvzgwv","58ae37d8e6afe00001d36ac9","freq_resp","img/orange_2bandit_b.png","70","70","test","","","","4","",""
"null","204187","pSARL_v2","pSARL_v2dvsvzgwv","58ae37d8e6afe00001d36ac9","fixation","img/fixation.png","null","","test","","","","","",""
"279.7000000476837","204476","pSARL_v2","pSARL_v2dvsvzgwv","58ae37d8e6afe00001d36ac9","freq","img/orange_2bandit_b2.png","70","70","test","1","76","76","4","",""
"null","205009","pSARL_v2","pSARL_v2dvsvzgwv","58ae37d8e6afe00001d36ac9","freq_resp","img/orange_2bandit_b.png","70","70","test","","","","4","",""
"null","205181","pSARL_v2","pSARL_v2dvsvzgwv","58ae37d8e6afe00001d36ac9","fixation","img/fixation.png","null","","test","","","","","",""
"380.60000002384186","205571","pSARL_v2","pSARL_v2dvsvzgwv","58ae37d8e6afe00001d36ac9","freq","img/orange_2bandit_b2.png","70","70","test","1","77","77","4","",""
"null","206014","pSARL_v2","pSARL_v2dvsvzgwv","58ae37d8e6afe00001d36ac9","freq_resp","img/orange_2bandit_b.png","70","70","test","","","","4","",""
"null","206184","pSARL_v2","pSARL_v2dvsvzgwv","58ae37d8e6afe00001d36ac9","fixation","img/fixation.png","null","","test","","","","","",""
"329.09999990463257","206523","pSARL_v2","pSARL_v2dvsvzgwv","58ae37d8e6afe00001d36ac9","freq","img/orange_2bandit_b2.png","70","70","test","1","78","78","4","",""
"null","207008","pSARL_v2","pSARL_v2dvsvzgwv","58ae37d8e6afe00001d36ac9","freq_resp","img/orange_2bandit_b.png","70","70","test","","","","4","",""
"null","207177","pSARL_v2","pSARL_v2dvsvzgwv","58ae37d8e6afe00001d36ac9","fixation","img/fixation.png","null","","test","","","","","",""
"337","207523","pSARL_v2","pSARL_v2dvsvzgwv","58ae37d8e6afe00001d36ac9","freq","img/orange_2bandit_b2.png","70","70","test","1","79","79","4","",""
"null","207998","pSARL_v2","pSARL_v2dvsvzgwv","58ae37d8e6afe00001d36ac9","freq_resp","img/orange_2bandit_b.png","70","70","test","","","","4","",""
"null","208168","pSARL_v2","pSARL_v2dvsvzgwv","58ae37d8e6afe00001d36ac9","fixation","img/fixation.png","null","","test","","","","","",""
"318.7999999523163","208496","pSARL_v2","pSARL_v2dvsvzgwv","58ae37d8e6afe00001d36ac9","freq","img/orange_2bandit_b2.png","70","70","test","1","80","80","4","",""
"null","208993","pSARL_v2","pSARL_v2dvsvzgwv","58ae37d8e6afe00001d36ac9","freq_resp","img/orange_2bandit_b.png","70","70","test","","","","4","",""
"null","209163","pSARL_v2","pSARL_v2dvsvzgwv","58ae37d8e6afe00001d36ac9","fixation","img/fixation.png","null","","test","","","","","",""
"344.60000002384186","209518","pSARL_v2","pSARL_v2dvsvzgwv","58ae37d8e6afe00001d36ac9","freq","img/orange_2bandit_b2.png","70","70","test","1","81","81","4","",""
"null","209997","pSARL_v2","pSARL_v2dvsvzgwv","58ae37d8e6afe00001d36ac9","freq_resp","img/orange_2bandit_b.png","70","70","test","","","","4","",""
"null","210167","pSARL_v2","pSARL_v2dvsvzgwv","58ae37d8e6afe00001d36ac9","fixation","img/fixation.png","null","","test","","","","","",""
"362.3000000715256","210539","pSARL_v2","pSARL_v2dvsvzgwv","58ae37d8e6afe00001d36ac9","freq","img/orange_2bandit_b2.png","70","70","test","1","82","82","4","",""
"null","211001","pSARL_v2","pSARL_v2dvsvzgwv","58ae37d8e6afe00001d36ac9","freq_resp","img/orange_2bandit_b.png","70","70","test","","","","4","",""
"null","211171","pSARL_v2","pSARL_v2dvsvzgwv","58ae37d8e6afe00001d36ac9","fixation","img/fixation.png","null","","test","","","","","",""
"309.2999999523163","211490","pSARL_v2","pSARL_v2dvsvzgwv","58ae37d8e6afe00001d36ac9","freq","img/orange_2bandit_b2.png","70","70","test","1","83","83","4","",""
"null","211995","pSARL_v2","pSARL_v2dvsvzgwv","58ae37d8e6afe00001d36ac9","freq_resp","img/orange_2bandit_b.png","70","70","test","","","","4","",""
"null","212165","pSARL_v2","pSARL_v2dvsvzgwv","58ae37d8e6afe00001d36ac9","fixation","img/fixation.png","null","","test","","","","","",""
"594.2000000476837","212769","pSARL_v2","pSARL_v2dvsvzgwv","58ae37d8e6afe00001d36ac9","reward","img/slot.png","74","","test","","","","","",""
"null","213542","pSARL_v2","pSARL_v2dvsvzgwv","58ae37d8e6afe00001d36ac9","points","<div class=""verylowPoints""> -3 </div>","null","na","test","","","","4","-3","3"
"551.2999999523163","214103","pSARL_v2","pSARL_v2dvsvzgwv","58ae37d8e6afe00001d36ac9","freq","img/orange_2bandit_b2.png","70","70","test","1","84","84","5","",""
"null","214372","pSARL_v2","pSARL_v2dvsvzgwv","58ae37d8e6afe00001d36ac9","freq_resp","img/orange_2bandit_b.png","70","70","test","","","","5","",""
"null","214543","pSARL_v2","pSARL_v2dvsvzgwv","58ae37d8e6afe00001d36ac9","fixation","img/fixation.png","null","","test","","","","","",""
"759.5","215312","pSARL_v2","pSARL_v2dvsvzgwv","58ae37d8e6afe00001d36ac9","freq","img/orange_2bandit_b2.png","70","70","test","1","85","85","5","",""
"null","215362","pSARL_v2","pSARL_v2dvsvzgwv","58ae37d8e6afe00001d36ac9","freq_resp","img/orange_2bandit_b.png","70","70","test","","","","5","",""
"null","215535","pSARL_v2","pSARL_v2dvsvzgwv","58ae37d8e6afe00001d36ac9","fixation","img/fixation.png","null","","test","","","","","",""
"792.7000000476837","216337","pSARL_v2","pSARL_v2dvsvzgwv","58ae37d8e6afe00001d36ac9","freq","img/orange_2bandit_b2.png","70","70","test","1","86","86","5","",""
"null","216352","pSARL_v2","pSARL_v2dvsvzgwv","58ae37d8e6afe00001d36ac9","freq_resp","img/orange_2bandit_b.png","70","70","test","","","","5","",""
"null","216524","pSARL_v2","pSARL_v2dvsvzgwv","58ae37d8e6afe00001d36ac9","fixation","img/fixation.png","null","","test","","","","","",""
"768","217301","pSARL_v2","pSARL_v2dvsvzgwv","58ae37d8e6afe00001d36ac9","freq","img/orange_2bandit_b2.png","70","70","test","1","87","87","5","",""
"null","217342","pSARL_v2","pSARL_v2dvsvzgwv","58ae37d8e6afe00001d36ac9","freq_resp","img/orange_2bandit_b.png","70","70","test","","","","5","",""
"null","217513","pSARL_v2","pSARL_v2dvsvzgwv","58ae37d8e6afe00001d36ac9","fixation","img/fixation.png","null","","test","","","","","",""
"738.3999999761581","218261","pSARL_v2","pSARL_v2dvsvzgwv","58ae37d8e6afe00001d36ac9","freq","img/orange_2bandit_b2.png","70","70","test","1","88","88","5","",""
"null","218334","pSARL_v2","pSARL_v2dvsvzgwv","58ae37d8e6afe00001d36ac9","freq_resp","img/orange_2bandit_b.png","70","70","test","","","","5","",""
"null","218503","pSARL_v2","pSARL_v2dvsvzgwv","58ae37d8e6afe00001d36ac9","fixation","img/fixation.png","null","","test","","","","","",""
"428","218941","pSARL_v2","pSARL_v2dvsvzgwv","58ae37d8e6afe00001d36ac9","freq","img/orange_2bandit_b2.png","70","70","test","1","89","89","5","",""
"null","219324","pSARL_v2","pSARL_v2dvsvzgwv","58ae37d8e6afe00001d36ac9","freq_resp","img/orange_2bandit_b.png","70","70","test","","","","5","",""
"null","219496","pSARL_v2","pSARL_v2dvsvzgwv","58ae37d8e6afe00001d36ac9","fixation","img/fixation.png","null","","test","","","","","",""
"318.39999997615814","219824","pSARL_v2","pSARL_v2dvsvzgwv","58ae37d8e6afe00001d36ac9","freq","img/orange_2bandit_b2.png","70","70","test","1","90","90","5","",""
"null","220327","pSARL_v2","pSARL_v2dvsvzgwv","58ae37d8e6afe00001d36ac9","freq_resp","img/orange_2bandit_b.png","70","70","test","","","","5","",""
"null","220499","pSARL_v2","pSARL_v2dvsvzgwv","58ae37d8e6afe00001d36ac9","fixation","img/fixation.png","null","","test","","","","","",""
"374.89999997615814","220883","pSARL_v2","pSARL_v2dvsvzgwv","58ae37d8e6afe00001d36ac9","freq","img/orange_2bandit_b2.png","70","70","test","1","91","91","5","",""
"null","221322","pSARL_v2","pSARL_v2dvsvzgwv","58ae37d8e6afe00001d36ac9","freq_resp","img/orange_2bandit_b.png","70","70","test","","","","5","",""
"null","221493","pSARL_v2","pSARL_v2dvsvzgwv","58ae37d8e6afe00001d36ac9","fixation","img/fixation.png","null","","test","","","","","",""
"354.59999990463257","221858","pSARL_v2","pSARL_v2dvsvzgwv","58ae37d8e6afe00001d36ac9","freq","img/orange_2bandit_b2.png","70","70","test","1","92","92","5","",""
"null","222327","pSARL_v2","pSARL_v2dvsvzgwv","58ae37d8e6afe00001d36ac9","freq_resp","img/orange_2bandit_b.png","70","70","test","","","","5","",""
"null","222498","pSARL_v2","pSARL_v2dvsvzgwv","58ae37d8e6afe00001d36ac9","fixation","img/fixation.png","null","","test","","","","","",""
"250.29999995231628","222754","pSARL_v2","pSARL_v2dvsvzgwv","58ae37d8e6afe00001d36ac9","freq","img/orange_2bandit_b2.png","70","70","test","1","93","93","5","",""
"null","223313","pSARL_v2","pSARL_v2dvsvzgwv","58ae37d8e6afe00001d36ac9","freq_resp","img/orange_2bandit_b.png","70","70","test","","","","5","",""
"null","223485","pSARL_v2","pSARL_v2dvsvzgwv","58ae37d8e6afe00001d36ac9","fixation","img/fixation.png","null","","test","","","","","",""
"265.1999999284744","223761","pSARL_v2","pSARL_v2dvsvzgwv","58ae37d8e6afe00001d36ac9","freq","img/orange_2bandit_b2.png","70","70","test","1","94","94","5","",""
"null","224306","pSARL_v2","pSARL_v2dvsvzgwv","58ae37d8e6afe00001d36ac9","freq_resp","img/orange_2bandit_b.png","70","70","test","","","","5","",""
"null","224475","pSARL_v2","pSARL_v2dvsvzgwv","58ae37d8e6afe00001d36ac9","fixation","img/fixation.png","null","","test","","","","","",""
"293.09999990463257","224778","pSARL_v2","pSARL_v2dvsvzgwv","58ae37d8e6afe00001d36ac9","freq","img/orange_2bandit_b2.png","70","70","test","1","95","95","5","",""
"null","225308","pSARL_v2","pSARL_v2dvsvzgwv","58ae37d8e6afe00001d36ac9","freq_resp","img/orange_2bandit_b.png","70","70","test","","","","5","",""
"null","225476","pSARL_v2","pSARL_v2dvsvzgwv","58ae37d8e6afe00001d36ac9","fixation","img/fixation.png","null","","test","","","","","",""
"365.6999999284744","225852","pSARL_v2","pSARL_v2dvsvzgwv","58ae37d8e6afe00001d36ac9","freq","img/orange_2bandit_b2.png","70","70","test","1","96","96","5","",""
"null","226298","pSARL_v2","pSARL_v2dvsvzgwv","58ae37d8e6afe00001d36ac9","freq_resp","img/orange_2bandit_b.png","70","70","test","","","","5","",""
"null","226468","pSARL_v2","pSARL_v2dvsvzgwv","58ae37d8e6afe00001d36ac9","fixation","img/fixation.png","null","","test","","","","","",""
"287.89999997615814","226765","pSARL_v2","pSARL_v2dvsvzgwv","58ae37d8e6afe00001d36ac9","freq","img/orange_2bandit_b2.png","70","70","test","1","97","97","5","",""
"null","227301","pSARL_v2","pSARL_v2dvsvzgwv","58ae37d8e6afe00001d36ac9","freq_resp","img/orange_2bandit_b.png","70","70","test","","","","5","",""
"null","227469","pSARL_v2","pSARL_v2dvsvzgwv","58ae37d8e6afe00001d36ac9","fixation","img/fixation.png","null","","test","","","","","",""
"320.89999997615814","227800","pSARL_v2","pSARL_v2dvsvzgwv","58ae37d8e6afe00001d36ac9","freq","img/orange_2bandit_b2.png","70","70","test","1","98","98","5","",""
"null","228290","pSARL_v2","pSARL_v2dvsvzgwv","58ae37d8e6afe00001d36ac9","freq_resp","img/orange_2bandit_b.png","70","70","test","","","","5","",""
"null","228461","pSARL_v2","pSARL_v2dvsvzgwv","58ae37d8e6afe00001d36ac9","fixation","img/fixation.png","null","","test","","","","","",""
"310.09999990463257","228781","pSARL_v2","pSARL_v2dvsvzgwv","58ae37d8e6afe00001d36ac9","freq","img/orange_2bandit_b2.png","70","70","test","1","99","99","5","",""
"null","229282","pSARL_v2","pSARL_v2dvsvzgwv","58ae37d8e6afe00001d36ac9","freq_resp","img/orange_2bandit_b.png","70","70","test","","","","5","",""
"null","229454","pSARL_v2","pSARL_v2dvsvzgwv","58ae37d8e6afe00001d36ac9","fixation","img/fixation.png","null","","test","","","","","",""
"409.5","229870","pSARL_v2","pSARL_v2dvsvzgwv","58ae37d8e6afe00001d36ac9","infreq","img/green_2bandit_b2.png","68","68","test","1","100","100","5","",""
"null","230270","pSARL_v2","pSARL_v2dvsvzgwv","58ae37d8e6afe00001d36ac9","infreq_resp","img/green_2bandit_b.png","68","68","test","","","","5","",""
"null","230441","pSARL_v2","pSARL_v2dvsvzgwv","58ae37d8e6afe00001d36ac9","fixation","img/fixation.png","null","","test","","","","","",""
"407.5","230858","pSARL_v2","pSARL_v2dvsvzgwv","58ae37d8e6afe00001d36ac9","infreq","img/green_2bandit_b2.png","68","68","test","1","101","101","5","",""
"null","231263","pSARL_v2","pSARL_v2dvsvzgwv","58ae37d8e6afe00001d36ac9","infreq_resp","img/green_2bandit_b.png","68","68","test","","","","5","",""
"null","231434","pSARL_v2","pSARL_v2dvsvzgwv","58ae37d8e6afe00001d36ac9","fixation","img/fixation.png","null","","test","","","","","",""
"434.2999999523163","231878","pSARL_v2","pSARL_v2dvsvzgwv","58ae37d8e6afe00001d36ac9","freq","img/orange_2bandit_b2.png","70","70","test","1","102","102","5","",""
"null","232267","pSARL_v2","pSARL_v2dvsvzgwv","58ae37d8e6afe00001d36ac9","freq_resp","img/orange_2bandit_b.png","70","70","test","","","","5","",""
"null","232437","pSARL_v2","pSARL_v2dvsvzgwv","58ae37d8e6afe00001d36ac9","fixation","img/fixation.png","null","","test","","","","","",""
"385.2000000476837","232829","pSARL_v2","pSARL_v2dvsvzgwv","58ae37d8e6afe00001d36ac9","infreq","img/green_2bandit_b2.png","68","68","test","1","103","103","5","",""
"null","233266","pSARL_v2","pSARL_v2dvsvzgwv","58ae37d8e6afe00001d36ac9","infreq_resp","img/green_2bandit_b.png","68","68","test","","","","5","",""
"null","233437","pSARL_v2","pSARL_v2dvsvzgwv","58ae37d8e6afe00001d36ac9","fixation","img/fixation.png","null","","test","","","","","",""
"441.09999990463257","233888","pSARL_v2","pSARL_v2dvsvzgwv","58ae37d8e6afe00001d36ac9","freq","img/orange_2bandit_b2.png","70","70","test","1","104","104","5","",""
"null","234268","pSARL_v2","pSARL_v2dvsvzgwv","58ae37d8e6afe00001d36ac9","freq_resp","img/orange_2bandit_b.png","70","70","test","","","","5","",""
"null","234438","pSARL_v2","pSARL_v2dvsvzgwv","58ae37d8e6afe00001d36ac9","fixation","img/fixation.png","null","","test","","","","","",""
"390.5","234835","pSARL_v2","pSARL_v2dvsvzgwv","58ae37d8e6afe00001d36ac9","freq","img/orange_2bandit_b2.png","70","70","test","1","105","105","5","",""
"null","235264","pSARL_v2","pSARL_v2dvsvzgwv","58ae37d8e6afe00001d36ac9","freq_resp","img/orange_2bandit_b.png","70","70","test","","","","5","",""
"null","235434","pSARL_v2","pSARL_v2dvsvzgwv","58ae37d8e6afe00001d36ac9","fixation","img/fixation.png","null","","test","","","","","",""
"352.5","235796","pSARL_v2","pSARL_v2dvsvzgwv","58ae37d8e6afe00001d36ac9","freq","img/orange_2bandit_b2.png","70","70","test","1","106","106","5","",""
"null","236256","pSARL_v2","pSARL_v2dvsvzgwv","58ae37d8e6afe00001d36ac9","freq_resp","img/orange_2bandit_b.png","70","70","test","","","","5","",""
"null","236428","pSARL_v2","pSARL_v2dvsvzgwv","58ae37d8e6afe00001d36ac9","fixation","img/fixation.png","null","","test","","","","","",""
"474.5","236912","pSARL_v2","pSARL_v2dvsvzgwv","58ae37d8e6afe00001d36ac9","reward","img/slot.png","74","","test","","","","","",""
"null","237679","pSARL_v2","pSARL_v2dvsvzgwv","58ae37d8e6afe00001d36ac9","points","<div class=""veryhighPoints""> +1 </div>","null","na","test","","","","5","1","4"
"635.2999999523163","238324","pSARL_v2","pSARL_v2dvsvzgwv","58ae37d8e6afe00001d36ac9","freq","img/orange_2bandit_b2.png","70","70","test","1","107","107","6","",""
"null","238498","pSARL_v2","pSARL_v2dvsvzgwv","58ae37d8e6afe00001d36ac9","freq_resp","img/orange_2bandit_b.png","70","70","test","","","","6","",""
"null","238671","pSARL_v2","pSARL_v2dvsvzgwv","58ae37d8e6afe00001d36ac9","fixation","img/fixation.png","null","","test","","","","","",""
"441.10000002384186","239117","pSARL_v2","pSARL_v2dvsvzgwv","58ae37d8e6afe00001d36ac9","freq","img/orange_2bandit_b2.png","70","70","test","1","108","108","6","",""
"null","239496","pSARL_v2","pSARL_v2dvsvzgwv","58ae37d8e6afe00001d36ac9","freq_resp","img/orange_2bandit_b.png","70","70","test","","","","6","",""
"null","239652","pSARL_v2","pSARL_v2dvsvzgwv","58ae37d8e6afe00001d36ac9","fixation","img/fixation.png","null","","test","","","","","",""
"441.5","240100","pSARL_v2","pSARL_v2dvsvzgwv","58ae37d8e6afe00001d36ac9","freq","img/orange_2bandit_b2.png","70","70","test","1","109","109","6","",""
"null","240474","pSARL_v2","pSARL_v2dvsvzgwv","58ae37d8e6afe00001d36ac9","freq_resp","img/orange_2bandit_b.png","70","70","test","","","","6","",""
"null","240633","pSARL_v2","pSARL_v2dvsvzgwv","58ae37d8e6afe00001d36ac9","fixation","img/fixation.png","null","","test","","","","","",""
"382.6999999284744","241020","pSARL_v2","pSARL_v2dvsvzgwv","58ae37d8e6afe00001d36ac9","freq","img/orange_2bandit_b2.png","70","70","test","1","110","110","6","",""
"null","241447","pSARL_v2","pSARL_v2dvsvzgwv","58ae37d8e6afe00001d36ac9","freq_resp","img/orange_2bandit_b.png","70","70","test","","","","6","",""
"null","241602","pSARL_v2","pSARL_v2dvsvzgwv","58ae37d8e6afe00001d36ac9","fixation","img/fixation.png","null","","test","","","","","",""
"525.2000000476837","242132","pSARL_v2","pSARL_v2dvsvzgwv","58ae37d8e6afe00001d36ac9","freq","img/orange_2bandit_b2.png","70","70","test","1","111","111","6","",""
"null","242426","pSARL_v2","pSARL_v2dvsvzgwv","58ae37d8e6afe00001d36ac9","freq_resp","img/orange_2bandit_b.png","70","70","test","","","","6","",""
"null","242584","pSARL_v2","pSARL_v2dvsvzgwv","58ae37d8e6afe00001d36ac9","fixation","img/fixation.png","null","","test","","","","","",""
"541.1000000238419","243129","pSARL_v2","pSARL_v2dvsvzgwv","58ae37d8e6afe00001d36ac9","freq","img/orange_2bandit_b2.png","70","70","test","1","112","112","6","",""
"null","243405","pSARL_v2","pSARL_v2dvsvzgwv","58ae37d8e6afe00001d36ac9","freq_resp","img/orange_2bandit_b.png","70","70","test","","","","6","",""
"null","243565","pSARL_v2","pSARL_v2dvsvzgwv","58ae37d8e6afe00001d36ac9","fixation","img/fixation.png","null","","test","","","","","",""
"398","243967","pSARL_v2","pSARL_v2dvsvzgwv","58ae37d8e6afe00001d36ac9","freq","img/orange_2bandit_b2.png","70","70","test","1","113","113","6","",""
"null","244385","pSARL_v2","pSARL_v2dvsvzgwv","58ae37d8e6afe00001d36ac9","freq_resp","img/orange_2bandit_b.png","70","70","test","","","","6","",""
"null","244542","pSARL_v2","pSARL_v2dvsvzgwv","58ae37d8e6afe00001d36ac9","fixation","img/fixation.png","null","","test","","","","","",""
"434","244981","pSARL_v2","pSARL_v2dvsvzgwv","58ae37d8e6afe00001d36ac9","freq","img/orange_2bandit_b2.png","70","70","test","1","114","114","6","",""
"null","245353","pSARL_v2","pSARL_v2dvsvzgwv","58ae37d8e6afe00001d36ac9","freq_resp","img/orange_2bandit_b.png","70","70","test","","","","6","",""
"null","245511","pSARL_v2","pSARL_v2dvsvzgwv","58ae37d8e6afe00001d36ac9","fixation","img/fixation.png","null","","test","","","","","",""
"426.5","245942","pSARL_v2","pSARL_v2dvsvzgwv","58ae37d8e6afe00001d36ac9","freq","img/orange_2bandit_b2.png","70","70","test","1","115","115","6","",""
"null","246329","pSARL_v2","pSARL_v2dvsvzgwv","58ae37d8e6afe00001d36ac9","freq_resp","img/orange_2bandit_b.png","70","70","test","","","","6","",""
"null","246488","pSARL_v2","pSARL_v2dvsvzgwv","58ae37d8e6afe00001d36ac9","fixation","img/fixation.png","null","","test","","","","","",""
"520.2999999523163","247013","pSARL_v2","pSARL_v2dvsvzgwv","58ae37d8e6afe00001d36ac9","infreq","img/green_2bandit_b2.png","68","68","test","1","116","116","6","",""
"null","247308","pSARL_v2","pSARL_v2dvsvzgwv","58ae37d8e6afe00001d36ac9","infreq_resp","img/green_2bandit_b.png","68","68","test","","","","6","",""
"null","247468","pSARL_v2","pSARL_v2dvsvzgwv","58ae37d8e6afe00001d36ac9","fixation","img/fixation.png","null","","test","","","","","",""
"547.5","248019","pSARL_v2","pSARL_v2dvsvzgwv","58ae37d8e6afe00001d36ac9","freq","img/orange_2bandit_b2.png","70","70","test","1","117","117","6","",""
"null","248281","pSARL_v2","pSARL_v2dvsvzgwv","58ae37d8e6afe00001d36ac9","freq_resp","img/orange_2bandit_b.png","70","70","test","","","","6","",""
"null","248443","pSARL_v2","pSARL_v2dvsvzgwv","58ae37d8e6afe00001d36ac9","fixation","img/fixation.png","null","","test","","","","","",""
"538.7000000476837","248986","pSARL_v2","pSARL_v2dvsvzgwv","58ae37d8e6afe00001d36ac9","infreq","img/green_2bandit_b2.png","68","68","test","1","118","118","6","",""
"null","249263","pSARL_v2","pSARL_v2dvsvzgwv","58ae37d8e6afe00001d36ac9","infreq_resp","img/green_2bandit_b.png","68","68","test","","","","6","",""
"null","249432","pSARL_v2","pSARL_v2dvsvzgwv","58ae37d8e6afe00001d36ac9","fixation","img/fixation.png","null","","test","","","","","",""
"495.8000000715256","249933","pSARL_v2","pSARL_v2dvsvzgwv","58ae37d8e6afe00001d36ac9","freq","img/orange_2bandit_b2.png","70","70","test","1","119","119","6","",""
"null","250243","pSARL_v2","pSARL_v2dvsvzgwv","58ae37d8e6afe00001d36ac9","freq_resp","img/orange_2bandit_b.png","70","70","test","","","","6","",""
"null","250401","pSARL_v2","pSARL_v2dvsvzgwv","58ae37d8e6afe00001d36ac9","fixation","img/fixation.png","null","","test","","","","","",""
"532.8000000715256","250938","pSARL_v2","pSARL_v2dvsvzgwv","58ae37d8e6afe00001d36ac9","freq","img/orange_2bandit_b2.png","70","70","test","1","120","120","6","",""
"null","251210","pSARL_v2","pSARL_v2dvsvzgwv","58ae37d8e6afe00001d36ac9","freq_resp","img/orange_2bandit_b.png","70","70","test","","","","6","",""
"null","251370","pSARL_v2","pSARL_v2dvsvzgwv","58ae37d8e6afe00001d36ac9","fixation","img/fixation.png","null","","test","","","","","",""
"457.60000002384186","251832","pSARL_v2","pSARL_v2dvsvzgwv","58ae37d8e6afe00001d36ac9","freq","img/orange_2bandit_b2.png","70","70","test","1","121","121","6","",""
"null","252192","pSARL_v2","pSARL_v2dvsvzgwv","58ae37d8e6afe00001d36ac9","freq_resp","img/orange_2bandit_b.png","70","70","test","","","","6","",""
"null","252350","pSARL_v2","pSARL_v2dvsvzgwv","58ae37d8e6afe00001d36ac9","fixation","img/fixation.png","null","","test","","","","","",""
"506.2999999523163","252861","pSARL_v2","pSARL_v2dvsvzgwv","58ae37d8e6afe00001d36ac9","freq","img/orange_2bandit_b2.png","70","70","test","1","122","122","6","",""
"null","253167","pSARL_v2","pSARL_v2dvsvzgwv","58ae37d8e6afe00001d36ac9","freq_resp","img/orange_2bandit_b.png","70","70","test","","","","6","",""
"null","253323","pSARL_v2","pSARL_v2dvsvzgwv","58ae37d8e6afe00001d36ac9","fixation","img/fixation.png","null","","test","","","","","",""
"547.8999999761581","253876","pSARL_v2","pSARL_v2dvsvzgwv","58ae37d8e6afe00001d36ac9","freq","img/orange_2bandit_b2.png","70","70","test","1","123","123","6","",""
"null","254132","pSARL_v2","pSARL_v2dvsvzgwv","58ae37d8e6afe00001d36ac9","freq_resp","img/orange_2bandit_b.png","70","70","test","","","","6","",""
"null","254303","pSARL_v2","pSARL_v2dvsvzgwv","58ae37d8e6afe00001d36ac9","fixation","img/fixation.png","null","","test","","","","","",""
"571.5","254879","pSARL_v2","pSARL_v2dvsvzgwv","58ae37d8e6afe00001d36ac9","freq","img/orange_2bandit_b2.png","70","70","test","1","124","124","6","",""
"null","255118","pSARL_v2","pSARL_v2dvsvzgwv","58ae37d8e6afe00001d36ac9","freq_resp","img/orange_2bandit_b.png","70","70","test","","","","6","",""
"null","255287","pSARL_v2","pSARL_v2dvsvzgwv","58ae37d8e6afe00001d36ac9","fixation","img/fixation.png","null","","test","","","","","",""
"338.8000000715256","255631","pSARL_v2","pSARL_v2dvsvzgwv","58ae37d8e6afe00001d36ac9","freq","img/orange_2bandit_b2.png","70","70","test","1","125","125","6","",""
"null","256116","pSARL_v2","pSARL_v2dvsvzgwv","58ae37d8e6afe00001d36ac9","freq_resp","img/orange_2bandit_b.png","70","70","test","","","","6","",""
"null","256280","pSARL_v2","pSARL_v2dvsvzgwv","58ae37d8e6afe00001d36ac9","fixation","img/fixation.png","null","","test","","","","","",""
"329","256614","pSARL_v2","pSARL_v2dvsvzgwv","58ae37d8e6afe00001d36ac9","freq","img/orange_2bandit_b2.png","70","70","test","1","126","126","6","",""
"null","257104","pSARL_v2","pSARL_v2dvsvzgwv","58ae37d8e6afe00001d36ac9","freq_resp","img/orange_2bandit_b.png","70","70","test","","","","6","",""
"null","257260","pSARL_v2","pSARL_v2dvsvzgwv","58ae37d8e6afe00001d36ac9","fixation","img/fixation.png","null","","test","","","","","",""
"301.7000000476837","257566","pSARL_v2","pSARL_v2dvsvzgwv","58ae37d8e6afe00001d36ac9","freq","img/orange_2bandit_b2.png","70","70","test","1","127","127","6","",""
"null","258071","pSARL_v2","pSARL_v2dvsvzgwv","58ae37d8e6afe00001d36ac9","freq_resp","img/orange_2bandit_b.png","70","70","test","","","","6","",""
"null","258229","pSARL_v2","pSARL_v2dvsvzgwv","58ae37d8e6afe00001d36ac9","fixation","img/fixation.png","null","","test","","","","","",""
"330.1999999284744","258565","pSARL_v2","pSARL_v2dvsvzgwv","58ae37d8e6afe00001d36ac9","freq","img/orange_2bandit_b2.png","70","70","test","1","128","128","6","",""
"null","259046","pSARL_v2","pSARL_v2dvsvzgwv","58ae37d8e6afe00001d36ac9","freq_resp","img/orange_2bandit_b.png","70","70","test","","","","6","",""
"null","259205","pSARL_v2","pSARL_v2dvsvzgwv","58ae37d8e6afe00001d36ac9","fixation","img/fixation.png","null","","test","","","","","",""
"334.5","259545","pSARL_v2","pSARL_v2dvsvzgwv","58ae37d8e6afe00001d36ac9","freq","img/orange_2bandit_b2.png","70","70","test","1","129","129","6","",""
"null","260024","pSARL_v2","pSARL_v2dvsvzgwv","58ae37d8e6afe00001d36ac9","freq_resp","img/orange_2bandit_b.png","70","70","test","","","","6","",""
"null","260194","pSARL_v2","pSARL_v2dvsvzgwv","58ae37d8e6afe00001d36ac9","fixation","img/fixation.png","null","","test","","","","","",""
"482.7000000476837","260685","pSARL_v2","pSARL_v2dvsvzgwv","58ae37d8e6afe00001d36ac9","reward","img/slot.png","74","","test","","","","","",""
"null","261445","pSARL_v2","pSARL_v2dvsvzgwv","58ae37d8e6afe00001d36ac9","points","<div class=""verylowPoints""> -7 </div>","null","na","test","","","","6","-7","5"
"455","261904","pSARL_v2","pSARL_v2dvsvzgwv","58ae37d8e6afe00001d36ac9","freq","img/orange_2bandit_b2.png","70","70","test","1","130","130","7","",""
"null","262262","pSARL_v2","pSARL_v2dvsvzgwv","58ae37d8e6afe00001d36ac9","freq_resp","img/orange_2bandit_b.png","70","70","test","","","","7","",""
"null","262420","pSARL_v2","pSARL_v2dvsvzgwv","58ae37d8e6afe00001d36ac9","fixation","img/fixation.png","null","","test","","","","","",""
"357.60000002384186","262782","pSARL_v2","pSARL_v2dvsvzgwv","58ae37d8e6afe00001d36ac9","freq","img/orange_2bandit_b2.png","70","70","test","1","131","131","7","",""
"null","263234","pSARL_v2","pSARL_v2dvsvzgwv","58ae37d8e6afe00001d36ac9","freq_resp","img/orange_2bandit_b.png","70","70","test","","","","7","",""
"null","263405","pSARL_v2","pSARL_v2dvsvzgwv","58ae37d8e6afe00001d36ac9","fixation","img/fixation.png","null","","test","","","","","",""
"288.39999997615814","263697","pSARL_v2","pSARL_v2dvsvzgwv","58ae37d8e6afe00001d36ac9","freq","img/orange_2bandit_b2.png","70","70","test","1","132","132","7","",""
"null","264220","pSARL_v2","pSARL_v2dvsvzgwv","58ae37d8e6afe00001d36ac9","freq_resp","img/orange_2bandit_b.png","70","70","test","","","","7","",""
"null","264378","pSARL_v2","pSARL_v2dvsvzgwv","58ae37d8e6afe00001d36ac9","fixation","img/fixation.png","null","","test","","","","","",""
"308","264691","pSARL_v2","pSARL_v2dvsvzgwv","58ae37d8e6afe00001d36ac9","freq","img/orange_2bandit_b2.png","70","70","test","1","133","133","7","",""
"null","265204","pSARL_v2","pSARL_v2dvsvzgwv","58ae37d8e6afe00001d36ac9","freq_resp","img/orange_2bandit_b.png","70","70","test","","","","7","",""
"null","265376","pSARL_v2","pSARL_v2dvsvzgwv","58ae37d8e6afe00001d36ac9","fixation","img/fixation.png","null","","test","","","","","",""
"288.7999999523163","265670","pSARL_v2","pSARL_v2dvsvzgwv","58ae37d8e6afe00001d36ac9","freq","img/orange_2bandit_b2.png","70","70","test","1","134","134","7","",""
"null","266205","pSARL_v2","pSARL_v2dvsvzgwv","58ae37d8e6afe00001d36ac9","freq_resp","img/orange_2bandit_b.png","70","70","test","","","","7","",""
"null","266371","pSARL_v2","pSARL_v2dvsvzgwv","58ae37d8e6afe00001d36ac9","fixation","img/fixation.png","null","","test","","","","","",""
"258.39999997615814","266634","pSARL_v2","pSARL_v2dvsvzgwv","58ae37d8e6afe00001d36ac9","freq","img/orange_2bandit_b2.png","70","70","test","1","135","135","7","",""
"null","267184","pSARL_v2","pSARL_v2dvsvzgwv","58ae37d8e6afe00001d36ac9","freq_resp","img/orange_2bandit_b.png","70","70","test","","","","7","",""
"null","267340","pSARL_v2","pSARL_v2dvsvzgwv","58ae37d8e6afe00001d36ac9","fixation","img/fixation.png","null","","test","","","","","",""
"337.2999999523163","267682","pSARL_v2","pSARL_v2dvsvzgwv","58ae37d8e6afe00001d36ac9","freq","img/orange_2bandit_b2.png","70","70","test","1","136","136","7","",""
"null","268152","pSARL_v2","pSARL_v2dvsvzgwv","58ae37d8e6afe00001d36ac9","freq_resp","img/orange_2bandit_b.png","70","70","test","","","","7","",""
"null","268312","pSARL_v2","pSARL_v2dvsvzgwv","58ae37d8e6afe00001d36ac9","fixation","img/fixation.png","null","","test","","","","","",""
"263.1999999284744","268580","pSARL_v2","pSARL_v2dvsvzgwv","58ae37d8e6afe00001d36ac9","freq","img/orange_2bandit_b2.png","70","70","test","1","137","137","7","",""
"null","269123","pSARL_v2","pSARL_v2dvsvzgwv","58ae37d8e6afe00001d36ac9","freq_resp","img/orange_2bandit_b.png","70","70","test","","","","7","",""
"null","269282","pSARL_v2","pSARL_v2dvsvzgwv","58ae37d8e6afe00001d36ac9","fixation","img/fixation.png","null","","test","","","","","",""
"406.60000002384186","269699","pSARL_v2","pSARL_v2dvsvzgwv","58ae37d8e6afe00001d36ac9","infreq","img/green_2bandit_b2.png","68","68","test","1","138","138","7","",""
"null","270116","pSARL_v2","pSARL_v2dvsvzgwv","58ae37d8e6afe00001d36ac9","infreq_resp","img/green_2bandit_b.png","68","68","test","","","","7","",""
"null","270285","pSARL_v2","pSARL_v2dvsvzgwv","58ae37d8e6afe00001d36ac9","fixation","img/fixation.png","null","","test","","","","","",""
"383.5","270678","pSARL_v2","pSARL_v2dvsvzgwv","58ae37d8e6afe00001d36ac9","freq","img/orange_2bandit_b2.png","70","70","test","1","139","139","7","",""
"null","271118","pSARL_v2","pSARL_v2dvsvzgwv","58ae37d8e6afe00001d36ac9","freq_resp","img/orange_2bandit_b.png","70","70","test","","","","7","",""
"null","271289","pSARL_v2","pSARL_v2dvsvzgwv","58ae37d8e6afe00001d36ac9","fixation","img/fixation.png","null","","test","","","","","",""
"377.60000002384186","271672","pSARL_v2","pSARL_v2dvsvzgwv","58ae37d8e6afe00001d36ac9","freq","img/orange_2bandit_b2.png","70","70","test","1","140","140","7","",""
"null","272106","pSARL_v2","pSARL_v2dvsvzgwv","58ae37d8e6afe00001d36ac9","freq_resp","img/orange_2bandit_b.png","70","70","test","","","","7","",""
"null","272275","pSARL_v2","pSARL_v2dvsvzgwv","58ae37d8e6afe00001d36ac9","fixation","img/fixation.png","null","","test","","","","","",""
"390.5","272676","pSARL_v2","pSARL_v2dvsvzgwv","58ae37d8e6afe00001d36ac9","freq","img/orange_2bandit_b2.png","70","70","test","1","141","141","7","",""
"null","273108","pSARL_v2","pSARL_v2dvsvzgwv","58ae37d8e6afe00001d36ac9","freq_resp","img/orange_2bandit_b.png","70","70","test","","","","7","",""
"null","273277","pSARL_v2","pSARL_v2dvsvzgwv","58ae37d8e6afe00001d36ac9","fixation","img/fixation.png","null","","test","","","","","",""
"368.1999999284744","273655","pSARL_v2","pSARL_v2dvsvzgwv","58ae37d8e6afe00001d36ac9","freq","img/orange_2bandit_b2.png","70","70","test","1","142","142","7","",""
"null","274111","pSARL_v2","pSARL_v2dvsvzgwv","58ae37d8e6afe00001d36ac9","freq_resp","img/orange_2bandit_b.png","70","70","test","","","","7","",""
"null","274282","pSARL_v2","pSARL_v2dvsvzgwv","58ae37d8e6afe00001d36ac9","fixation","img/fixation.png","null","","test","","","","","",""
"400.5","274692","pSARL_v2","pSARL_v2dvsvzgwv","58ae37d8e6afe00001d36ac9","freq","img/orange_2bandit_b2.png","70","70","test","1","143","143","7","",""
"null","275115","pSARL_v2","pSARL_v2dvsvzgwv","58ae37d8e6afe00001d36ac9","freq_resp","img/orange_2bandit_b.png","70","70","test","","","","7","",""
"null","275285","pSARL_v2","pSARL_v2dvsvzgwv","58ae37d8e6afe00001d36ac9","fixation","img/fixation.png","null","","test","","","","","",""
"334","275629","pSARL_v2","pSARL_v2dvsvzgwv","58ae37d8e6afe00001d36ac9","freq","img/orange_2bandit_b2.png","70","70","test","1","144","144","7","",""
"null","276105","pSARL_v2","pSARL_v2dvsvzgwv","58ae37d8e6afe00001d36ac9","freq_resp","img/orange_2bandit_b.png","70","70","test","","","","7","",""
"null","276276","pSARL_v2","pSARL_v2dvsvzgwv","58ae37d8e6afe00001d36ac9","fixation","img/fixation.png","null","","test","","","","","",""
"367.7000000476837","276654","pSARL_v2","pSARL_v2dvsvzgwv","58ae37d8e6afe00001d36ac9","freq","img/orange_2bandit_b2.png","70","70","test","1","145","145","7","",""
"null","277108","pSARL_v2","pSARL_v2dvsvzgwv","58ae37d8e6afe00001d36ac9","freq_resp","img/orange_2bandit_b.png","70","70","test","","","","7","",""
"null","277281","pSARL_v2","pSARL_v2dvsvzgwv","58ae37d8e6afe00001d36ac9","fixation","img/fixation.png","null","","test","","","","","",""
"383.10000002384186","277673","pSARL_v2","pSARL_v2dvsvzgwv","58ae37d8e6afe00001d36ac9","freq","img/orange_2bandit_b2.png","70","70","test","1","146","146","7","",""
"null","278099","pSARL_v2","pSARL_v2dvsvzgwv","58ae37d8e6afe00001d36ac9","freq_resp","img/orange_2bandit_b.png","70","70","test","","","","7","",""
"null","278270","pSARL_v2","pSARL_v2dvsvzgwv","58ae37d8e6afe00001d36ac9","fixation","img/fixation.png","null","","test","","","","","",""
"377.39999997615814","278657","pSARL_v2","pSARL_v2dvsvzgwv","58ae37d8e6afe00001d36ac9","freq","img/orange_2bandit_b2.png","70","70","test","1","147","147","7","",""
"null","279103","pSARL_v2","pSARL_v2dvsvzgwv","58ae37d8e6afe00001d36ac9","freq_resp","img/orange_2bandit_b.png","70","70","test","","","","7","",""
"null","279273","pSARL_v2","pSARL_v2dvsvzgwv","58ae37d8e6afe00001d36ac9","fixation","img/fixation.png","null","","test","","","","","",""
"312.6999999284744","279595","pSARL_v2","pSARL_v2dvsvzgwv","58ae37d8e6afe00001d36ac9","freq","img/orange_2bandit_b2.png","70","70","test","1","148","148","7","",""
"null","280093","pSARL_v2","pSARL_v2dvsvzgwv","58ae37d8e6afe00001d36ac9","freq_resp","img/orange_2bandit_b.png","70","70","test","","","","7","",""
"null","280263","pSARL_v2","pSARL_v2dvsvzgwv","58ae37d8e6afe00001d36ac9","fixation","img/fixation.png","null","","test","","","","","",""
"391.5","280664","pSARL_v2","pSARL_v2dvsvzgwv","58ae37d8e6afe00001d36ac9","freq","img/orange_2bandit_b2.png","70","70","test","1","149","149","7","",""
"null","281086","pSARL_v2","pSARL_v2dvsvzgwv","58ae37d8e6afe00001d36ac9","freq_resp","img/orange_2bandit_b.png","70","70","test","","","","7","",""
"null","281256","pSARL_v2","pSARL_v2dvsvzgwv","58ae37d8e6afe00001d36ac9","fixation","img/fixation.png","null","","test","","","","","",""
"391.60000002384186","281658","pSARL_v2","pSARL_v2dvsvzgwv","58ae37d8e6afe00001d36ac9","freq","img/orange_2bandit_b2.png","70","70","test","1","150","150","7","",""
"null","282080","pSARL_v2","pSARL_v2dvsvzgwv","58ae37d8e6afe00001d36ac9","freq_resp","img/orange_2bandit_b.png","70","70","test","","","","7","",""
"null","282252","pSARL_v2","pSARL_v2dvsvzgwv","58ae37d8e6afe00001d36ac9","fixation","img/fixation.png","null","","test","","","","","",""
"400.39999997615814","282662","pSARL_v2","pSARL_v2dvsvzgwv","58ae37d8e6afe00001d36ac9","freq","img/orange_2bandit_b2.png","70","70","test","1","151","151","7","",""
"null","283072","pSARL_v2","pSARL_v2dvsvzgwv","58ae37d8e6afe00001d36ac9","freq_resp","img/orange_2bandit_b.png","70","70","test","","","","7","",""
"null","283244","pSARL_v2","pSARL_v2dvsvzgwv","58ae37d8e6afe00001d36ac9","fixation","img/fixation.png","null","","test","","","","","",""
"651.8000000715256","283904","pSARL_v2","pSARL_v2dvsvzgwv","58ae37d8e6afe00001d36ac9","infreq","img/green_2bandit_b2.png","68","68","test","1","152","152","7","",""
"null","284066","pSARL_v2","pSARL_v2dvsvzgwv","58ae37d8e6afe00001d36ac9","infreq_resp","img/green_2bandit_b.png","68","68","test","","","","7","",""
"null","284238","pSARL_v2","pSARL_v2dvsvzgwv","58ae37d8e6afe00001d36ac9","fixation","img/fixation.png","null","","test","","","","","",""
"508.2000000476837","284755","pSARL_v2","pSARL_v2dvsvzgwv","58ae37d8e6afe00001d36ac9","freq","img/orange_2bandit_b2.png","70","70","test","1","153","153","7","",""
"null","285060","pSARL_v2","pSARL_v2dvsvzgwv","58ae37d8e6afe00001d36ac9","freq_resp","img/orange_2bandit_b.png","70","70","test","","","","7","",""
"null","285231","pSARL_v2","pSARL_v2dvsvzgwv","58ae37d8e6afe00001d36ac9","fixation","img/fixation.png","null","","test","","","","","",""
"518.8999999761581","285760","pSARL_v2","pSARL_v2dvsvzgwv","58ae37d8e6afe00001d36ac9","freq","img/orange_2bandit_b2.png","70","70","test","1","154","154","7","",""
"null","286053","pSARL_v2","pSARL_v2dvsvzgwv","58ae37d8e6afe00001d36ac9","freq_resp","img/orange_2bandit_b.png","70","70","test","","","","7","",""
"null","286225","pSARL_v2","pSARL_v2dvsvzgwv","58ae37d8e6afe00001d36ac9","fixation","img/fixation.png","null","","test","","","","","",""
"725.5","286960","pSARL_v2","pSARL_v2dvsvzgwv","58ae37d8e6afe00001d36ac9","freq","img/orange_2bandit_b2.png","70","70","test","1","155","155","7","",""
"null","287057","pSARL_v2","pSARL_v2dvsvzgwv","58ae37d8e6afe00001d36ac9","freq_resp","img/orange_2bandit_b.png","70","70","test","","","","7","",""
"null","287228","pSARL_v2","pSARL_v2dvsvzgwv","58ae37d8e6afe00001d36ac9","fixation","img/fixation.png","null","","test","","","","","",""
"668.5","287907","pSARL_v2","pSARL_v2dvsvzgwv","58ae37d8e6afe00001d36ac9","reward","img/slot.png","74","","test","","","","","",""
"null","288668","pSARL_v2","pSARL_v2dvsvzgwv","58ae37d8e6afe00001d36ac9","points","<div class=""verylowPoints""> -6 </div>","null","na","test","","","","7","-6","6"
"535.2999999523163","289213","pSARL_v2","pSARL_v2dvsvzgwv","58ae37d8e6afe00001d36ac9","freq","img/orange_2bandit_b2.png","70","70","test","1","156","156","8","",""
"null","289488","pSARL_v2","pSARL_v2dvsvzgwv","58ae37d8e6afe00001d36ac9","freq_resp","img/orange_2bandit_b.png","70","70","test","","","","8","",""
"null","289659","pSARL_v2","pSARL_v2dvsvzgwv","58ae37d8e6afe00001d36ac9","fixation","img/fixation.png","null","","test","","","","","",""
"378.90000009536743","290048","pSARL_v2","pSARL_v2dvsvzgwv","58ae37d8e6afe00001d36ac9","freq","img/orange_2bandit_b2.png","70","70","test","1","157","157","8","",""
"null","290490","pSARL_v2","pSARL_v2dvsvzgwv","58ae37d8e6afe00001d36ac9","freq_resp","img/orange_2bandit_b.png","70","70","test","","","","8","",""
"null","290662","pSARL_v2","pSARL_v2dvsvzgwv","58ae37d8e6afe00001d36ac9","fixation","img/fixation.png","null","","test","","","","","",""
"641.0999999046326","291313","pSARL_v2","pSARL_v2dvsvzgwv","58ae37d8e6afe00001d36ac9","freq","img/orange_2bandit_b2.png","70","70","test","1","158","158","8","",""
"null","291496","pSARL_v2","pSARL_v2dvsvzgwv","58ae37d8e6afe00001d36ac9","freq_resp","img/orange_2bandit_b.png","70","70","test","","","","8","",""
"null","291666","pSARL_v2","pSARL_v2dvsvzgwv","58ae37d8e6afe00001d36ac9","fixation","img/fixation.png","null","","test","","","","","",""
"664.2000000476837","292341","pSARL_v2","pSARL_v2dvsvzgwv","58ae37d8e6afe00001d36ac9","freq","img/orange_2bandit_b2.png","70","70","test","1","159","159","8","",""
"null","292494","pSARL_v2","pSARL_v2dvsvzgwv","58ae37d8e6afe00001d36ac9","freq_resp","img/orange_2bandit_b.png","70","70","test","","","","8","",""
"null","292655","pSARL_v2","pSARL_v2dvsvzgwv","58ae37d8e6afe00001d36ac9","fixation","img/fixation.png","null","","test","","","","","",""
"490.2000000476837","293155","pSARL_v2","pSARL_v2dvsvzgwv","58ae37d8e6afe00001d36ac9","freq","img/orange_2bandit_b2.png","70","70","test","1","160","160","8","",""
"null","293476","pSARL_v2","pSARL_v2dvsvzgwv","58ae37d8e6afe00001d36ac9","freq_resp","img/orange_2bandit_b.png","70","70","test","","","","8","",""
"null","293646","pSARL_v2","pSARL_v2dvsvzgwv","58ae37d8e6afe00001d36ac9","fixation","img/fixation.png","null","","test","","","","","",""
"440.60000002384186","294097","pSARL_v2","pSARL_v2dvsvzgwv","58ae37d8e6afe00001d36ac9","freq","img/orange_2bandit_b2.png","70","70","test","1","161","161","8","",""
"null","294478","pSARL_v2","pSARL_v2dvsvzgwv","58ae37d8e6afe00001d36ac9","freq_resp","img/orange_2bandit_b.png","70","70","test","","","","8","",""
"null","294648","pSARL_v2","pSARL_v2dvsvzgwv","58ae37d8e6afe00001d36ac9","fixation","img/fixation.png","null","","test","","","","","",""
"480.7999999523163","295138","pSARL_v2","pSARL_v2dvsvzgwv","58ae37d8e6afe00001d36ac9","freq","img/orange_2bandit_b2.png","70","70","test","1","162","162","8","",""
"null","295482","pSARL_v2","pSARL_v2dvsvzgwv","58ae37d8e6afe00001d36ac9","freq_resp","img/orange_2bandit_b.png","70","70","test","","","","8","",""
"null","295652","pSARL_v2","pSARL_v2dvsvzgwv","58ae37d8e6afe00001d36ac9","fixation","img/fixation.png","null","","test","","","","","",""
"476","296138","pSARL_v2","pSARL_v2dvsvzgwv","58ae37d8e6afe00001d36ac9","freq","img/orange_2bandit_b2.png","70","70","test","1","163","163","8","",""
"null","296486","pSARL_v2","pSARL_v2dvsvzgwv","58ae37d8e6afe00001d36ac9","freq_resp","img/orange_2bandit_b.png","70","70","test","","","","8","",""
"null","296655","pSARL_v2","pSARL_v2dvsvzgwv","58ae37d8e6afe00001d36ac9","fixation","img/fixation.png","null","","test","","","","","",""
"489.5","297154","pSARL_v2","pSARL_v2dvsvzgwv","58ae37d8e6afe00001d36ac9","freq","img/orange_2bandit_b2.png","70","70","test","1","164","164","8","",""
"null","297478","pSARL_v2","pSARL_v2dvsvzgwv","58ae37d8e6afe00001d36ac9","freq_resp","img/orange_2bandit_b.png","70","70","test","","","","8","",""
"null","297648","pSARL_v2","pSARL_v2dvsvzgwv","58ae37d8e6afe00001d36ac9","fixation","img/fixation.png","null","","test","","","","","",""
"470.7000000476837","298129","pSARL_v2","pSARL_v2dvsvzgwv","58ae37d8e6afe00001d36ac9","infreq","img/green_2bandit_b2.png","68","68","test","1","165","165","8","",""
"null","298469","pSARL_v2","pSARL_v2dvsvzgwv","58ae37d8e6afe00001d36ac9","infreq_resp","img/green_2bandit_b.png","68","68","test","","","","8","",""
"null","298640","pSARL_v2","pSARL_v2dvsvzgwv","58ae37d8e6afe00001d36ac9","fixation","img/fixation.png","null","","test","","","","","",""
"466","299117","pSARL_v2","pSARL_v2dvsvzgwv","58ae37d8e6afe00001d36ac9","freq","img/orange_2bandit_b2.png","70","70","test","1","166","166","8","",""
"null","299473","pSARL_v2","pSARL_v2dvsvzgwv","58ae37d8e6afe00001d36ac9","freq_resp","img/orange_2bandit_b.png","70","70","test","","","","8","",""
"null","299642","pSARL_v2","pSARL_v2dvsvzgwv","58ae37d8e6afe00001d36ac9","fixation","img/fixation.png","null","","test","","","","","",""
"504.7000000476837","300157","pSARL_v2","pSARL_v2dvsvzgwv","58ae37d8e6afe00001d36ac9","infreq","img/green_2bandit_b2.png","68","68","test","1","167","167","8","",""
"null","300475","pSARL_v2","pSARL_v2dvsvzgwv","58ae37d8e6afe00001d36ac9","infreq_resp","img/green_2bandit_b.png","68","68","test","","","","8","",""
"null","300646","pSARL_v2","pSARL_v2dvsvzgwv","58ae37d8e6afe00001d36ac9","fixation","img/fixation.png","null","","test","","","","","",""
"414.8000000715256","301071","pSARL_v2","pSARL_v2dvsvzgwv","58ae37d8e6afe00001d36ac9","freq","img/orange_2bandit_b2.png","70","70","test","1","168","168","8","",""
"null","301467","pSARL_v2","pSARL_v2dvsvzgwv","58ae37d8e6afe00001d36ac9","freq_resp","img/orange_2bandit_b.png","70","70","test","","","","8","",""
"null","301636","pSARL_v2","pSARL_v2dvsvzgwv","58ae37d8e6afe00001d36ac9","fixation","img/fixation.png","null","","test","","","","","",""
"479.89999997615814","302126","pSARL_v2","pSARL_v2dvsvzgwv","58ae37d8e6afe00001d36ac9","freq","img/orange_2bandit_b2.png","70","70","test","1","169","169","8","",""
"null","302470","pSARL_v2","pSARL_v2dvsvzgwv","58ae37d8e6afe00001d36ac9","freq_resp","img/orange_2bandit_b.png","70","70","test","","","","8","",""
"null","302641","pSARL_v2","pSARL_v2dvsvzgwv","58ae37d8e6afe00001d36ac9","fixation","img/fixation.png","null","","test","","","","","",""
"480.7999999523163","303132","pSARL_v2","pSARL_v2dvsvzgwv","58ae37d8e6afe00001d36ac9","freq","img/orange_2bandit_b2.png","70","70","test","1","170","170","8","",""
"null","303463","pSARL_v2","pSARL_v2dvsvzgwv","58ae37d8e6afe00001d36ac9","freq_resp","img/orange_2bandit_b.png","70","70","test","","","","8","",""
"null","303635","pSARL_v2","pSARL_v2dvsvzgwv","58ae37d8e6afe00001d36ac9","fixation","img/fixation.png","null","","test","","","","","",""
"528","304173","pSARL_v2","pSARL_v2dvsvzgwv","58ae37d8e6afe00001d36ac9","freq","img/orange_2bandit_b2.png","70","70","test","1","171","171","8","",""
"null","304467","pSARL_v2","pSARL_v2dvsvzgwv","58ae37d8e6afe00001d36ac9","freq_resp","img/orange_2bandit_b.png","70","70","test","","","","8","",""
"null","304637","pSARL_v2","pSARL_v2dvsvzgwv","58ae37d8e6afe00001d36ac9","fixation","img/fixation.png","null","","test","","","","","",""
"534.8999999761581","305183","pSARL_v2","pSARL_v2dvsvzgwv","58ae37d8e6afe00001d36ac9","freq","img/orange_2bandit_b2.png","70","70","test","1","172","172","8","",""
"null","305459","pSARL_v2","pSARL_v2dvsvzgwv","58ae37d8e6afe00001d36ac9","freq_resp","img/orange_2bandit_b.png","70","70","test","","","","8","",""
"null","305630","pSARL_v2","pSARL_v2dvsvzgwv","58ae37d8e6afe00001d36ac9","fixation","img/fixation.png","null","","test","","","","","",""
"595.5","306235","pSARL_v2","pSARL_v2dvsvzgwv","58ae37d8e6afe00001d36ac9","freq","img/orange_2bandit_b2.png","70","70","test","1","173","173","8","",""
"null","306460","pSARL_v2","pSARL_v2dvsvzgwv","58ae37d8e6afe00001d36ac9","freq_resp","img/orange_2bandit_b.png","70","70","test","","","","8","",""
"null","306632","pSARL_v2","pSARL_v2dvsvzgwv","58ae37d8e6afe00001d36ac9","fixation","img/fixation.png","null","","test","","","","","",""
"360","307002","pSARL_v2","pSARL_v2dvsvzgwv","58ae37d8e6afe00001d36ac9","freq","img/orange_2bandit_b2.png","70","70","test","1","174","174","8","",""
"null","307452","pSARL_v2","pSARL_v2dvsvzgwv","58ae37d8e6afe00001d36ac9","freq_resp","img/orange_2bandit_b.png","70","70","test","","","","8","",""
"null","307625","pSARL_v2","pSARL_v2dvsvzgwv","58ae37d8e6afe00001d36ac9","fixation","img/fixation.png","null","","test","","","","","",""
"356.5","307991","pSARL_v2","pSARL_v2dvsvzgwv","58ae37d8e6afe00001d36ac9","freq","img/orange_2bandit_b2.png","70","70","test","1","175","175","8","",""
"null","308445","pSARL_v2","pSARL_v2dvsvzgwv","58ae37d8e6afe00001d36ac9","freq_resp","img/orange_2bandit_b.png","70","70","test","","","","8","",""
"null","308615","pSARL_v2","pSARL_v2dvsvzgwv","58ae37d8e6afe00001d36ac9","fixation","img/fixation.png","null","","test","","","","","",""
"480.2000000476837","309105","pSARL_v2","pSARL_v2dvsvzgwv","58ae37d8e6afe00001d36ac9","reward","img/slot.png","74","","test","","","","","",""
"null","309878","pSARL_v2","pSARL_v2dvsvzgwv","58ae37d8e6afe00001d36ac9","points","<div class=""verylowPoints""> -4 </div>","null","na","test","","","","8","-4","7"
"550.2999999523163","310436","pSARL_v2","pSARL_v2dvsvzgwv","58ae37d8e6afe00001d36ac9","freq","img/orange_2bandit_b2.png","70","70","test","1","176","176","9","",""
"null","310710","pSARL_v2","pSARL_v2dvsvzgwv","58ae37d8e6afe00001d36ac9","freq_resp","img/orange_2bandit_b.png","70","70","test","","","","9","",""
"null","310879","pSARL_v2","pSARL_v2dvsvzgwv","58ae37d8e6afe00001d36ac9","fixation","img/fixation.png","null","","test","","","","","",""
"469.39999997615814","311357","pSARL_v2","pSARL_v2dvsvzgwv","58ae37d8e6afe00001d36ac9","freq","img/orange_2bandit_b2.png","70","70","test","1","177","177","9","",""
"null","311706","pSARL_v2","pSARL_v2dvsvzgwv","58ae37d8e6afe00001d36ac9","freq_resp","img/orange_2bandit_b.png","70","70","test","","","","9","",""
"null","311871","pSARL_v2","pSARL_v2dvsvzgwv","58ae37d8e6afe00001d36ac9","fixation","img/fixation.png","null","","test","","","","","",""
"571.3999999761581","312452","pSARL_v2","pSARL_v2dvsvzgwv","58ae37d8e6afe00001d36ac9","freq","img/orange_2bandit_b2.png","70","70","test","1","178","178","9","",""
"null","312692","pSARL_v2","pSARL_v2dvsvzgwv","58ae37d8e6afe00001d36ac9","freq_resp","img/orange_2bandit_b.png","70","70","test","","","","9","",""
"null","312860","pSARL_v2","pSARL_v2dvsvzgwv","58ae37d8e6afe00001d36ac9","fixation","img/fixation.png","null","","test","","","","","",""
"652.1000000238419","313522","pSARL_v2","pSARL_v2dvsvzgwv","58ae37d8e6afe00001d36ac9","infreq","img/green_2bandit_b2.png","68","68","test","1","179","179","9","",""
"null","313692","pSARL_v2","pSARL_v2dvsvzgwv","58ae37d8e6afe00001d36ac9","infreq_resp","img/green_2bandit_b.png","68","68","test","","","","9","",""
"null","313864","pSARL_v2","pSARL_v2dvsvzgwv","58ae37d8e6afe00001d36ac9","fixation","img/fixation.png","null","","test","","","","","",""
"553.3999999761581","314426","pSARL_v2","pSARL_v2dvsvzgwv","58ae37d8e6afe00001d36ac9","freq","img/orange_2bandit_b2.png","70","70","test","1","180","180","9","",""
"null","314686","pSARL_v2","pSARL_v2dvsvzgwv","58ae37d8e6afe00001d36ac9","freq_resp","img/orange_2bandit_b.png","70","70","test","","","","9","",""
"null","314858","pSARL_v2","pSARL_v2dvsvzgwv","58ae37d8e6afe00001d36ac9","fixation","img/fixation.png","null","","test","","","","","",""
"619.7999999523163","315489","pSARL_v2","pSARL_v2dvsvzgwv","58ae37d8e6afe00001d36ac9","freq","img/orange_2bandit_b2.png","70","70","test","1","181","181","9","",""
"null","315694","pSARL_v2","pSARL_v2dvsvzgwv","58ae37d8e6afe00001d36ac9","freq_resp","img/orange_2bandit_b.png","70","70","test","","","","9","",""
"null","315867","pSARL_v2","pSARL_v2dvsvzgwv","58ae37d8e6afe00001d36ac9","fixation","img/fixation.png","null","","test","","","","","",""
"431","316308","pSARL_v2","pSARL_v2dvsvzgwv","58ae37d8e6afe00001d36ac9","freq","img/orange_2bandit_b2.png","70","70","test","1","182","182","9","",""
"null","316699","pSARL_v2","pSARL_v2dvsvzgwv","58ae37d8e6afe00001d36ac9","freq_resp","img/orange_2bandit_b.png","70","70","test","","","","9","",""
"null","316870","pSARL_v2","pSARL_v2dvsvzgwv","58ae37d8e6afe00001d36ac9","fixation","img/fixation.png","null","","test","","","","","",""
"471.90000009536743","317353","pSARL_v2","pSARL_v2dvsvzgwv","58ae37d8e6afe00001d36ac9","freq","img/orange_2bandit_b2.png","70","70","test","1","183","183","9","",""
"null","317703","pSARL_v2","pSARL_v2dvsvzgwv","58ae37d8e6afe00001d36ac9","freq_resp","img/orange_2bandit_b.png","70","70","test","","","","9","",""
"null","317874","pSARL_v2","pSARL_v2dvsvzgwv","58ae37d8e6afe00001d36ac9","fixation","img/fixation.png","null","","test","","","","","",""
"369.5","318254","pSARL_v2","pSARL_v2dvsvzgwv","58ae37d8e6afe00001d36ac9","freq","img/orange_2bandit_b2.png","70","70","test","1","184","184","9","",""
"null","318698","pSARL_v2","pSARL_v2dvsvzgwv","58ae37d8e6afe00001d36ac9","freq_resp","img/orange_2bandit_b.png","70","70","test","","","","9","",""
"null","318868","pSARL_v2","pSARL_v2dvsvzgwv","58ae37d8e6afe00001d36ac9","fixation","img/fixation.png","null","","test","","","","","",""
"336.7999999523163","319216","pSARL_v2","pSARL_v2dvsvzgwv","58ae37d8e6afe00001d36ac9","freq","img/orange_2bandit_b2.png","70","70","test","1","185","185","9","",""
"null","319689","pSARL_v2","pSARL_v2dvsvzgwv","58ae37d8e6afe00001d36ac9","freq_resp","img/orange_2bandit_b.png","70","70","test","","","","9","",""
"null","319854","pSARL_v2","pSARL_v2dvsvzgwv","58ae37d8e6afe00001d36ac9","fixation","img/fixation.png","null","","test","","","","","",""
"281.60000002384186","320145","pSARL_v2","pSARL_v2dvsvzgwv","58ae37d8e6afe00001d36ac9","freq","img/orange_2bandit_b2.png","70","70","test","1","186","186","9","",""
"null","320689","pSARL_v2","pSARL_v2dvsvzgwv","58ae37d8e6afe00001d36ac9","freq_resp","img/orange_2bandit_b.png","70","70","test","","","","9","",""
"null","320860","pSARL_v2","pSARL_v2dvsvzgwv","58ae37d8e6afe00001d36ac9","fixation","img/fixation.png","null","","test","","","","","",""
"408.10000002384186","321278","pSARL_v2","pSARL_v2dvsvzgwv","58ae37d8e6afe00001d36ac9","freq","img/orange_2bandit_b2.png","70","70","test","1","187","187","9","",""
"null","321693","pSARL_v2","pSARL_v2dvsvzgwv","58ae37d8e6afe00001d36ac9","freq_resp","img/orange_2bandit_b.png","70","70","test","","","","9","",""
"null","321860","pSARL_v2","pSARL_v2dvsvzgwv","58ae37d8e6afe00001d36ac9","fixation","img/fixation.png","null","","test","","","","","",""
"331.8000000715256","322201","pSARL_v2","pSARL_v2dvsvzgwv","58ae37d8e6afe00001d36ac9","freq","img/orange_2bandit_b2.png","70","70","test","1","188","188","9","",""
"null","322685","pSARL_v2","pSARL_v2dvsvzgwv","58ae37d8e6afe00001d36ac9","freq_resp","img/orange_2bandit_b.png","70","70","test","","","","9","",""
"null","322854","pSARL_v2","pSARL_v2dvsvzgwv","58ae37d8e6afe00001d36ac9","fixation","img/fixation.png","null","","test","","","","","",""
"405.60000002384186","323270","pSARL_v2","pSARL_v2dvsvzgwv","58ae37d8e6afe00001d36ac9","freq","img/orange_2bandit_b2.png","70","70","test","1","189","189","9","",""
"null","323688","pSARL_v2","pSARL_v2dvsvzgwv","58ae37d8e6afe00001d36ac9","freq_resp","img/orange_2bandit_b.png","70","70","test","","","","9","",""
"null","323858","pSARL_v2","pSARL_v2dvsvzgwv","58ae37d8e6afe00001d36ac9","fixation","img/fixation.png","null","","test","","","","","",""
"380.7999999523163","324249","pSARL_v2","pSARL_v2dvsvzgwv","58ae37d8e6afe00001d36ac9","infreq","img/green_2bandit_b2.png","68","68","test","1","190","190","9","",""
"null","324681","pSARL_v2","pSARL_v2dvsvzgwv","58ae37d8e6afe00001d36ac9","infreq_resp","img/green_2bandit_b.png","68","68","test","","","","9","",""
"null","324853","pSARL_v2","pSARL_v2dvsvzgwv","58ae37d8e6afe00001d36ac9","fixation","img/fixation.png","null","","test","","","","","",""
"381.60000002384186","325244","pSARL_v2","pSARL_v2dvsvzgwv","58ae37d8e6afe00001d36ac9","freq","img/orange_2bandit_b2.png","70","70","test","1","191","191","9","",""
"null","325672","pSARL_v2","pSARL_v2dvsvzgwv","58ae37d8e6afe00001d36ac9","freq_resp","img/orange_2bandit_b.png","70","70","test","","","","9","",""
"null","325844","pSARL_v2","pSARL_v2dvsvzgwv","58ae37d8e6afe00001d36ac9","fixation","img/fixation.png","null","","test","","","","","",""
"376.2999999523163","326230","pSARL_v2","pSARL_v2dvsvzgwv","58ae37d8e6afe00001d36ac9","freq","img/orange_2bandit_b2.png","70","70","test","1","192","192","9","",""
"null","326668","pSARL_v2","pSARL_v2dvsvzgwv","58ae37d8e6afe00001d36ac9","freq_resp","img/orange_2bandit_b.png","70","70","test","","","","9","",""
"null","326840","pSARL_v2","pSARL_v2dvsvzgwv","58ae37d8e6afe00001d36ac9","fixation","img/fixation.png","null","","test","","","","","",""
"409.39999997615814","327259","pSARL_v2","pSARL_v2dvsvzgwv","58ae37d8e6afe00001d36ac9","infreq","img/green_2bandit_b2.png","68","68","test","1","193","193","9","",""
"null","327672","pSARL_v2","pSARL_v2dvsvzgwv","58ae37d8e6afe00001d36ac9","infreq_resp","img/green_2bandit_b.png","68","68","test","","","","9","",""
"null","327842","pSARL_v2","pSARL_v2dvsvzgwv","58ae37d8e6afe00001d36ac9","fixation","img/fixation.png","null","","test","","","","","",""
"302.8000000715256","328155","pSARL_v2","pSARL_v2dvsvzgwv","58ae37d8e6afe00001d36ac9","freq","img/orange_2bandit_b2.png","70","70","test","1","194","194","9","",""
"null","328664","pSARL_v2","pSARL_v2dvsvzgwv","58ae37d8e6afe00001d36ac9","freq_resp","img/orange_2bandit_b.png","70","70","test","","","","9","",""
"null","328834","pSARL_v2","pSARL_v2dvsvzgwv","58ae37d8e6afe00001d36ac9","fixation","img/fixation.png","null","","test","","","","","",""
"271.2000000476837","329116","pSARL_v2","pSARL_v2dvsvzgwv","58ae37d8e6afe00001d36ac9","freq","img/orange_2bandit_b2.png","70","70","test","1","195","195","9","",""
"null","329656","pSARL_v2","pSARL_v2dvsvzgwv","58ae37d8e6afe00001d36ac9","freq_resp","img/orange_2bandit_b.png","70","70","test","","","","9","",""
"null","329825","pSARL_v2","pSARL_v2dvsvzgwv","58ae37d8e6afe00001d36ac9","fixation","img/fixation.png","null","","test","","","","","",""
"334.89999997615814","330170","pSARL_v2","pSARL_v2dvsvzgwv","58ae37d8e6afe00001d36ac9","freq","img/orange_2bandit_b2.png","70","70","test","1","196","196","9","",""
"null","330656","pSARL_v2","pSARL_v2dvsvzgwv","58ae37d8e6afe00001d36ac9","freq_resp","img/orange_2bandit_b.png","70","70","test","","","","9","",""
"null","330825","pSARL_v2","pSARL_v2dvsvzgwv","58ae37d8e6afe00001d36ac9","fixation","img/fixation.png","null","","test","","","","","",""
"340","331175","pSARL_v2","pSARL_v2dvsvzgwv","58ae37d8e6afe00001d36ac9","freq","img/orange_2bandit_b2.png","70","70","test","1","197","197","9","",""
"null","331659","pSARL_v2","pSARL_v2dvsvzgwv","58ae37d8e6afe00001d36ac9","freq_resp","img/orange_2bandit_b.png","70","70","test","","","","9","",""
"null","331830","pSARL_v2","pSARL_v2dvsvzgwv","58ae37d8e6afe00001d36ac9","fixation","img/fixation.png","null","","test","","","","","",""
"545.1000000238419","332384","pSARL_v2","pSARL_v2dvsvzgwv","58ae37d8e6afe00001d36ac9","reward","img/slot.png","74","","test","","","","","",""
"null","333147","pSARL_v2","pSARL_v2dvsvzgwv","58ae37d8e6afe00001d36ac9","points","<div class=""verylowPoints""> -3 </div>","null","na","test","","","","9","-3","8"
"616.5","333773","pSARL_v2","pSARL_v2dvsvzgwv","58ae37d8e6afe00001d36ac9","freq","img/orange_2bandit_b2.png","70","70","test","1","198","198","10","",""
"null","333967","pSARL_v2","pSARL_v2dvsvzgwv","58ae37d8e6afe00001d36ac9","freq_resp","img/orange_2bandit_b.png","70","70","test","","","","10","",""
"null","334138","pSARL_v2","pSARL_v2dvsvzgwv","58ae37d8e6afe00001d36ac9","fixation","img/fixation.png","null","","test","","","","","",""
"484.2999999523163","334632","pSARL_v2","pSARL_v2dvsvzgwv","58ae37d8e6afe00001d36ac9","freq","img/orange_2bandit_b2.png","70","70","test","1","199","199","10","",""
"null","334960","pSARL_v2","pSARL_v2dvsvzgwv","58ae37d8e6afe00001d36ac9","freq_resp","img/orange_2bandit_b.png","70","70","test","","","","10","",""
"null","335131","pSARL_v2","pSARL_v2dvsvzgwv","58ae37d8e6afe00001d36ac9","fixation","img/fixation.png","null","","test","","","","","",""
"423.7000000476837","335565","pSARL_v2","pSARL_v2dvsvzgwv","58ae37d8e6afe00001d36ac9","freq","img/orange_2bandit_b2.png","70","70","test","1","200","200","10","",""
"null","335951","pSARL_v2","pSARL_v2dvsvzgwv","58ae37d8e6afe00001d36ac9","freq_resp","img/orange_2bandit_b.png","70","70","test","","","","10","",""
"null","336123","pSARL_v2","pSARL_v2dvsvzgwv","58ae37d8e6afe00001d36ac9","fixation","img/fixation.png","null","","test","","","","","",""
"392.3000000715256","336525","pSARL_v2","pSARL_v2dvsvzgwv","58ae37d8e6afe00001d36ac9","freq","img/orange_2bandit_b2.png","70","70","test","1","201","201","10","",""
"null","336947","pSARL_v2","pSARL_v2dvsvzgwv","58ae37d8e6afe00001d36ac9","freq_resp","img/orange_2bandit_b.png","70","70","test","","","","10","",""
"null","337115","pSARL_v2","pSARL_v2dvsvzgwv","58ae37d8e6afe00001d36ac9","fixation","img/fixation.png","null","","test","","","","","",""
"434.5","337559","pSARL_v2","pSARL_v2dvsvzgwv","58ae37d8e6afe00001d36ac9","freq","img/orange_2bandit_b2.png","70","70","test","1","202","202","10","",""
"null","337945","pSARL_v2","pSARL_v2dvsvzgwv","58ae37d8e6afe00001d36ac9","freq_resp","img/orange_2bandit_b.png","70","70","test","","","","10","",""
"null","338116","pSARL_v2","pSARL_v2dvsvzgwv","58ae37d8e6afe00001d36ac9","fixation","img/fixation.png","null","","test","","","","","",""
"530.1000000238419","338657","pSARL_v2","pSARL_v2dvsvzgwv","58ae37d8e6afe00001d36ac9","freq","img/orange_2bandit_b2.png","70","70","test","1","203","203","10","",""
"null","338937","pSARL_v2","pSARL_v2dvsvzgwv","58ae37d8e6afe00001d36ac9","freq_resp","img/orange_2bandit_b.png","70","70","test","","","","10","",""
"null","339102","pSARL_v2","pSARL_v2dvsvzgwv","58ae37d8e6afe00001d36ac9","fixation","img/fixation.png","null","","test","","","","","",""
"389","339500","pSARL_v2","pSARL_v2dvsvzgwv","58ae37d8e6afe00001d36ac9","freq","img/orange_2bandit_b2.png","70","70","test","1","204","204","10","",""
"null","339923","pSARL_v2","pSARL_v2dvsvzgwv","58ae37d8e6afe00001d36ac9","freq_resp","img/orange_2bandit_b.png","70","70","test","","","","10","",""
"null","340094","pSARL_v2","pSARL_v2dvsvzgwv","58ae37d8e6afe00001d36ac9","fixation","img/fixation.png","null","","test","","","","","",""
"427.7000000476837","340527","pSARL_v2","pSARL_v2dvsvzgwv","58ae37d8e6afe00001d36ac9","freq","img/orange_2bandit_b2.png","70","70","test","1","205","205","10","",""
"null","340914","pSARL_v2","pSARL_v2dvsvzgwv","58ae37d8e6afe00001d36ac9","freq_resp","img/orange_2bandit_b.png","70","70","test","","","","10","",""
