"rt","time_elapsed","expId","subject","prolificID","trialType","stimulus","key_press","corrresp","phase","corr","trialNum","attentionRunNum","blockNum","points","rlNum"
"1233805","1233811","pSARL_v2","pSARL_v2fll03svp","5c475608cae0ab000188cb6e","","","","","","","","","","",""
"","1235876","pSARL_v2","pSARL_v2fll03svp","5c475608cae0ab000188cb6e","fullscreen","","","","","","","","","",""
"237324.40000009537","1473204","pSARL_v2","pSARL_v2fll03svp","5c475608cae0ab000188cb6e","","","","","","","","","","",""
"null","1474026","pSARL_v2","pSARL_v2fll03svp","5c475608cae0ab000188cb6e","freqPrac","img/orange_2bandit_a2.png","null","70","prac","0","","","","",""
"null","1475030","pSARL_v2","pSARL_v2fll03svp","5c475608cae0ab000188cb6e","feedback","img/tooSlow.png","null","na","prac","","","","","",""
"null","1475189","pSARL_v2","pSARL_v2fll03svp","5c475608cae0ab000188cb6e","fixation","img/fixation.png","null","","prac","","","","","",""
"485.09999990463257","1475680","pSARL_v2","pSARL_v2fll03svp","5c475608cae0ab000188cb6e","infreqPrac","img/green_2bandit_a2.png","68","68","prac","1","","","","",""
"485.09999990463257","1476010","pSARL_v2","pSARL_v2fll03svp","5c475608cae0ab000188cb6e","infreqPrac_resp","img/green_2bandit_a.png","68","68","prac","","","","","",""
"null","1476165","pSARL_v2","pSARL_v2fll03svp","5c475608cae0ab000188cb6e","fixation","img/fixation.png","null","","prac","","","","","",""
"58.5","1476229","pSARL_v2","pSARL_v2fll03svp","5c475608cae0ab000188cb6e","freqPrac","img/orange_2bandit_a2.png","68","70","prac","0","","","","",""
"58.5","1476988","pSARL_v2","pSARL_v2fll03svp","5c475608cae0ab000188cb6e","freqPrac_resp","img/orange_2bandit_a.png","68","70","prac","","","","","",""
"null","1478003","pSARL_v2","pSARL_v2fll03svp","5c475608cae0ab000188cb6e","feedback","img/wrongKey.png","null","na","prac","","","","","",""
"null","1478174","pSARL_v2","pSARL_v2fll03svp","5c475608cae0ab000188cb6e","fixation","img/fixation.png","null","","prac","","","","","",""
"491.7000000476837","1478673","pSARL_v2","pSARL_v2fll03svp","5c475608cae0ab000188cb6e","infreqPrac","img/green_2bandit_a2.png","68","68","prac","1","","","","",""
"491.7000000476837","1478996","pSARL_v2","pSARL_v2fll03svp","5c475608cae0ab000188cb6e","infreqPrac_resp","img/green_2bandit_a.png","68","68","prac","","","","","",""
"null","1479167","pSARL_v2","pSARL_v2fll03svp","5c475608cae0ab000188cb6e","fixation","img/fixation.png","null","","prac","","","","","",""
"339.2000000476837","1479509","pSARL_v2","pSARL_v2fll03svp","5c475608cae0ab000188cb6e","infreqPrac","img/green_2bandit_a2.png","68","68","prac","1","","","","",""
"339.2000000476837","1479985","pSARL_v2","pSARL_v2fll03svp","5c475608cae0ab000188cb6e","infreqPrac_resp","img/green_2bandit_a.png","68","68","prac","","","","","",""
"null","1480145","pSARL_v2","pSARL_v2fll03svp","5c475608cae0ab000188cb6e","fixation","img/fixation.png","null","","prac","","","","","",""
"269.2999999523163","1480416","pSARL_v2","pSARL_v2fll03svp","5c475608cae0ab000188cb6e","infreqPrac","img/green_2bandit_a2.png","68","68","prac","1","","","","",""
"269.2999999523163","1480966","pSARL_v2","pSARL_v2fll03svp","5c475608cae0ab000188cb6e","infreqPrac_resp","img/green_2bandit_a.png","68","68","prac","","","","","",""
"null","1481134","pSARL_v2","pSARL_v2fll03svp","5c475608cae0ab000188cb6e","fixation","img/fixation.png","null","","prac","","","","","",""
"350.7999999523163","1481491","pSARL_v2","pSARL_v2fll03svp","5c475608cae0ab000188cb6e","freqPrac","img/orange_2bandit_a2.png","70","70","prac","1","","","","",""
"350.7999999523163","1481956","pSARL_v2","pSARL_v2fll03svp","5c475608cae0ab000188cb6e","freqPrac_resp","img/orange_2bandit_a.png","70","70","prac","","","","","",""
"null","1482127","pSARL_v2","pSARL_v2fll03svp","5c475608cae0ab000188cb6e","fixation","img/fixation.png","null","","prac","","","","","",""
"391","1482524","pSARL_v2","pSARL_v2fll03svp","5c475608cae0ab000188cb6e","infreqPrac","img/green_2bandit_a2.png","70","68","prac","0","","","","",""
"391","1482953","pSARL_v2","pSARL_v2fll03svp","5c475608cae0ab000188cb6e","infreqPrac_resp","img/green_2bandit_a.png","70","68","prac","","","","","",""
"null","1483960","pSARL_v2","pSARL_v2fll03svp","5c475608cae0ab000188cb6e","feedback","img/wrongKey.png","null","na","prac","","","","","",""
"null","1484118","pSARL_v2","pSARL_v2fll03svp","5c475608cae0ab000188cb6e","fixation","img/fixation.png","null","","prac","","","","","",""
"410.7999999523163","1484535","pSARL_v2","pSARL_v2fll03svp","5c475608cae0ab000188cb6e","freqPrac","img/orange_2bandit_a2.png","68","70","prac","0","","","","",""
"410.7999999523163","1484939","pSARL_v2","pSARL_v2fll03svp","5c475608cae0ab000188cb6e","freqPrac_resp","img/orange_2bandit_a.png","68","70","prac","","","","","",""
"null","1485954","pSARL_v2","pSARL_v2fll03svp","5c475608cae0ab000188cb6e","feedback","img/wrongKey.png","null","na","prac","","","","","",""
"null","1486112","pSARL_v2","pSARL_v2fll03svp","5c475608cae0ab000188cb6e","fixation","img/fixation.png","null","","prac","","","","","",""
"458.59999990463257","1486577","pSARL_v2","pSARL_v2fll03svp","5c475608cae0ab000188cb6e","freqPrac","img/orange_2bandit_a2.png","70","70","prac","1","","","","",""
"458.59999990463257","1486936","pSARL_v2","pSARL_v2fll03svp","5c475608cae0ab000188cb6e","freqPrac_resp","img/orange_2bandit_a.png","70","70","prac","","","","","",""
"null","1487091","pSARL_v2","pSARL_v2fll03svp","5c475608cae0ab000188cb6e","fixation","img/fixation.png","null","","prac","","","","","",""
"81637.79999995232","1568735","pSARL_v2","pSARL_v2fll03svp","5c475608cae0ab000188cb6e","","","","","prac","","","","","",""
"540.6999998092651","1569283","pSARL_v2","pSARL_v2fll03svp","5c475608cae0ab000188cb6e","rewardPractice","img/slot.png","74","","prac","","","","","",""
"null","1570040","pSARL_v2","pSARL_v2fll03svp","5c475608cae0ab000188cb6e","feedback","<div class=""veryhighPoints""> +15 </div>","null","na","prac","","","","","",""
"null","1570198","pSARL_v2","pSARL_v2fll03svp","5c475608cae0ab000188cb6e","fixation","img/fixation.png","null","","prac","","","","","",""
"53366.799999952316","1623570","pSARL_v2","pSARL_v2fll03svp","5c475608cae0ab000188cb6e","","","","","prac","","","","","",""
"754.7000000476837","1624327","pSARL_v2","pSARL_v2fll03svp","5c475608cae0ab000188cb6e","freq","img/orange_2bandit_a2.png","70","70","test","1","1","1","1","",""
"null","1624377","pSARL_v2","pSARL_v2fll03svp","5c475608cae0ab000188cb6e","freq_resp","img/orange_2bandit_a.png","70","70","test","","","","1","",""
"null","1624536","pSARL_v2","pSARL_v2fll03svp","5c475608cae0ab000188cb6e","fixation","img/fixation.png","null","","test","","","","","",""
"349.40000009536743","1624888","pSARL_v2","pSARL_v2fll03svp","5c475608cae0ab000188cb6e","freq","img/orange_2bandit_a2.png","70","70","test","1","2","2","1","",""
"null","1625346","pSARL_v2","pSARL_v2fll03svp","5c475608cae0ab000188cb6e","freq_resp","img/orange_2bandit_a.png","70","70","test","","","","1","",""
"null","1625510","pSARL_v2","pSARL_v2fll03svp","5c475608cae0ab000188cb6e","fixation","img/fixation.png","null","","test","","","","","",""
"451.30000019073486","1625963","pSARL_v2","pSARL_v2fll03svp","5c475608cae0ab000188cb6e","freq","img/orange_2bandit_a2.png","70","70","test","1","3","3","1","",""
"null","1626331","pSARL_v2","pSARL_v2fll03svp","5c475608cae0ab000188cb6e","freq_resp","img/orange_2bandit_a.png","70","70","test","","","","1","",""
"null","1626487","pSARL_v2","pSARL_v2fll03svp","5c475608cae0ab000188cb6e","fixation","img/fixation.png","null","","test","","","","","",""
"372","1626861","pSARL_v2","pSARL_v2fll03svp","5c475608cae0ab000188cb6e","freq","img/orange_2bandit_a2.png","70","70","test","1","4","4","1","",""
"null","1627300","pSARL_v2","pSARL_v2fll03svp","5c475608cae0ab000188cb6e","freq_resp","img/orange_2bandit_a.png","70","70","test","","","","1","",""
"null","1627469","pSARL_v2","pSARL_v2fll03svp","5c475608cae0ab000188cb6e","fixation","img/fixation.png","null","","test","","","","","",""
"336.40000009536743","1627808","pSARL_v2","pSARL_v2fll03svp","5c475608cae0ab000188cb6e","freq","img/orange_2bandit_a2.png","70","70","test","1","5","5","1","",""
"null","1628283","pSARL_v2","pSARL_v2fll03svp","5c475608cae0ab000188cb6e","freq_resp","img/orange_2bandit_a.png","70","70","test","","","","1","",""
"null","1628446","pSARL_v2","pSARL_v2fll03svp","5c475608cae0ab000188cb6e","fixation","img/fixation.png","null","","test","","","","","",""
"373","1628826","pSARL_v2","pSARL_v2fll03svp","5c475608cae0ab000188cb6e","infreq","img/green_2bandit_a2.png","68","68","test","1","6","6","1","",""
"null","1629272","pSARL_v2","pSARL_v2fll03svp","5c475608cae0ab000188cb6e","infreq_resp","img/green_2bandit_a.png","68","68","test","","","","1","",""
"null","1629443","pSARL_v2","pSARL_v2fll03svp","5c475608cae0ab000188cb6e","fixation","img/fixation.png","null","","test","","","","","",""
"474.90000009536743","1629920","pSARL_v2","pSARL_v2fll03svp","5c475608cae0ab000188cb6e","infreq","img/green_2bandit_a2.png","68","68","test","1","7","7","1","",""
"null","1630251","pSARL_v2","pSARL_v2fll03svp","5c475608cae0ab000188cb6e","infreq_resp","img/green_2bandit_a.png","68","68","test","","","","1","",""
"null","1630421","pSARL_v2","pSARL_v2fll03svp","5c475608cae0ab000188cb6e","fixation","img/fixation.png","null","","test","","","","","",""
"405.7999999523163","1630830","pSARL_v2","pSARL_v2fll03svp","5c475608cae0ab000188cb6e","freq","img/orange_2bandit_a2.png","70","70","test","1","8","8","1","",""
"null","1631241","pSARL_v2","pSARL_v2fll03svp","5c475608cae0ab000188cb6e","freq_resp","img/orange_2bandit_a.png","70","70","test","","","","1","",""
"null","1631401","pSARL_v2","pSARL_v2fll03svp","5c475608cae0ab000188cb6e","fixation","img/fixation.png","null","","test","","","","","",""
"340.7999999523163","1631748","pSARL_v2","pSARL_v2fll03svp","5c475608cae0ab000188cb6e","freq","img/orange_2bandit_a2.png","70","70","test","1","9","9","1","",""
"null","1632220","pSARL_v2","pSARL_v2fll03svp","5c475608cae0ab000188cb6e","freq_resp","img/orange_2bandit_a.png","70","70","test","","","","1","",""
"null","1632380","pSARL_v2","pSARL_v2fll03svp","5c475608cae0ab000188cb6e","fixation","img/fixation.png","null","","test","","","","","",""
"328.59999990463257","1632712","pSARL_v2","pSARL_v2fll03svp","5c475608cae0ab000188cb6e","freq","img/orange_2bandit_a2.png","70","70","test","1","10","10","1","",""
"null","1633203","pSARL_v2","pSARL_v2fll03svp","5c475608cae0ab000188cb6e","freq_resp","img/orange_2bandit_a.png","70","70","test","","","","1","",""
"null","1633375","pSARL_v2","pSARL_v2fll03svp","5c475608cae0ab000188cb6e","fixation","img/fixation.png","null","","test","","","","","",""
"300","1633678","pSARL_v2","pSARL_v2fll03svp","5c475608cae0ab000188cb6e","freq","img/orange_2bandit_a2.png","70","70","test","1","11","11","1","",""
"null","1634193","pSARL_v2","pSARL_v2fll03svp","5c475608cae0ab000188cb6e","freq_resp","img/orange_2bandit_a.png","70","70","test","","","","1","",""
"null","1634364","pSARL_v2","pSARL_v2fll03svp","5c475608cae0ab000188cb6e","fixation","img/fixation.png","null","","test","","","","","",""
"270.2999999523163","1634641","pSARL_v2","pSARL_v2fll03svp","5c475608cae0ab000188cb6e","freq","img/orange_2bandit_a2.png","70","70","test","1","12","12","1","",""
"null","1635182","pSARL_v2","pSARL_v2fll03svp","5c475608cae0ab000188cb6e","freq_resp","img/orange_2bandit_a.png","70","70","test","","","","1","",""
"null","1635337","pSARL_v2","pSARL_v2fll03svp","5c475608cae0ab000188cb6e","fixation","img/fixation.png","null","","test","","","","","",""
"259.90000009536743","1635599","pSARL_v2","pSARL_v2fll03svp","5c475608cae0ab000188cb6e","freq","img/orange_2bandit_a2.png","70","70","test","1","13","13","1","",""
"null","1636149","pSARL_v2","pSARL_v2fll03svp","5c475608cae0ab000188cb6e","freq_resp","img/orange_2bandit_a.png","70","70","test","","","","1","",""
"null","1636305","pSARL_v2","pSARL_v2fll03svp","5c475608cae0ab000188cb6e","fixation","img/fixation.png","null","","test","","","","","",""
"279.7000000476837","1636592","pSARL_v2","pSARL_v2fll03svp","5c475608cae0ab000188cb6e","freq","img/orange_2bandit_a2.png","70","70","test","1","14","14","1","",""
"null","1637128","pSARL_v2","pSARL_v2fll03svp","5c475608cae0ab000188cb6e","freq_resp","img/orange_2bandit_a.png","70","70","test","","","","1","",""
"null","1637294","pSARL_v2","pSARL_v2fll03svp","5c475608cae0ab000188cb6e","fixation","img/fixation.png","null","","test","","","","","",""
"33.10000014305115","1637333","pSARL_v2","pSARL_v2fll03svp","5c475608cae0ab000188cb6e","freq","img/orange_2bandit_a2.png","70","70","test","1","15","15","1","",""
"null","1638117","pSARL_v2","pSARL_v2fll03svp","5c475608cae0ab000188cb6e","freq_resp","img/orange_2bandit_a.png","70","70","test","","","","1","",""
"null","1638288","pSARL_v2","pSARL_v2fll03svp","5c475608cae0ab000188cb6e","fixation","img/fixation.png","null","","test","","","","","",""
"157.60000014305115","1638453","pSARL_v2","pSARL_v2fll03svp","5c475608cae0ab000188cb6e","freq","img/orange_2bandit_a2.png","70","70","test","1","16","16","1","",""
"null","1639116","pSARL_v2","pSARL_v2fll03svp","5c475608cae0ab000188cb6e","freq_resp","img/orange_2bandit_a.png","70","70","test","","","","1","",""
"null","1639287","pSARL_v2","pSARL_v2fll03svp","5c475608cae0ab000188cb6e","fixation","img/fixation.png","null","","test","","","","","",""
"300","1639595","pSARL_v2","pSARL_v2fll03svp","5c475608cae0ab000188cb6e","freq","img/orange_2bandit_a2.png","70","70","test","1","17","17","1","",""
"null","1640114","pSARL_v2","pSARL_v2fll03svp","5c475608cae0ab000188cb6e","freq_resp","img/orange_2bandit_a.png","70","70","test","","","","1","",""
"null","1640272","pSARL_v2","pSARL_v2fll03svp","5c475608cae0ab000188cb6e","fixation","img/fixation.png","null","","test","","","","","",""
"244.5","1640522","pSARL_v2","pSARL_v2fll03svp","5c475608cae0ab000188cb6e","freq","img/orange_2bandit_a2.png","70","70","test","1","18","18","1","",""
"null","1641094","pSARL_v2","pSARL_v2fll03svp","5c475608cae0ab000188cb6e","freq_resp","img/orange_2bandit_a.png","70","70","test","","","","1","",""
"null","1641266","pSARL_v2","pSARL_v2fll03svp","5c475608cae0ab000188cb6e","fixation","img/fixation.png","null","","test","","","","","",""
"219.70000004768372","1641492","pSARL_v2","pSARL_v2fll03svp","5c475608cae0ab000188cb6e","freq","img/orange_2bandit_a2.png","70","70","test","1","19","19","1","",""
"null","1642088","pSARL_v2","pSARL_v2fll03svp","5c475608cae0ab000188cb6e","freq_resp","img/orange_2bandit_a.png","70","70","test","","","","1","",""
"null","1642245","pSARL_v2","pSARL_v2fll03svp","5c475608cae0ab000188cb6e","fixation","img/fixation.png","null","","test","","","","","",""
"208.30000019073486","1642460","pSARL_v2","pSARL_v2fll03svp","5c475608cae0ab000188cb6e","freq","img/orange_2bandit_a2.png","70","70","test","1","20","20","1","",""
"null","1643066","pSARL_v2","pSARL_v2fll03svp","5c475608cae0ab000188cb6e","freq_resp","img/orange_2bandit_a.png","70","70","test","","","","1","",""
"null","1643224","pSARL_v2","pSARL_v2fll03svp","5c475608cae0ab000188cb6e","fixation","img/fixation.png","null","","test","","","","","",""
"220.60000014305115","1643448","pSARL_v2","pSARL_v2fll03svp","5c475608cae0ab000188cb6e","freq","img/orange_2bandit_a2.png","70","70","test","1","21","21","1","",""
"null","1644036","pSARL_v2","pSARL_v2fll03svp","5c475608cae0ab000188cb6e","freq_resp","img/orange_2bandit_a.png","70","70","test","","","","1","",""
"null","1644194","pSARL_v2","pSARL_v2fll03svp","5c475608cae0ab000188cb6e","fixation","img/fixation.png","null","","test","","","","","",""
"570.7999999523163","1644772","pSARL_v2","pSARL_v2fll03svp","5c475608cae0ab000188cb6e","reward","img/slot.png","74","","test","","","","","",""
"null","1645543","pSARL_v2","pSARL_v2fll03svp","5c475608cae0ab000188cb6e","points","<div class=""verylowPoints""> -6 </div>","null","na","test","","","","1","-6","0"
"602.8999998569489","1646152","pSARL_v2","pSARL_v2fll03svp","5c475608cae0ab000188cb6e","freq","img/orange_2bandit_a2.png","68","70","test","0","22","22","2","",""
"null","1646358","pSARL_v2","pSARL_v2fll03svp","5c475608cae0ab000188cb6e","freq_resp","img/orange_2bandit_a.png","68","70","test","","","","2","",""
"null","1646528","pSARL_v2","pSARL_v2fll03svp","5c475608cae0ab000188cb6e","fixation","img/fixation.png","null","","test","","","","","",""
"651.2999999523163","1647186","pSARL_v2","pSARL_v2fll03svp","5c475608cae0ab000188cb6e","infreq","img/green_2bandit_a2.png","68","68","test","1","23","23","2","",""
"null","1647340","pSARL_v2","pSARL_v2fll03svp","5c475608cae0ab000188cb6e","infreq_resp","img/green_2bandit_a.png","68","68","test","","","","2","",""
"null","1647510","pSARL_v2","pSARL_v2fll03svp","5c475608cae0ab000188cb6e","fixation","img/fixation.png","null","","test","","","","","",""
"423.2999999523163","1647937","pSARL_v2","pSARL_v2fll03svp","5c475608cae0ab000188cb6e","freq","img/orange_2bandit_a2.png","70","70","test","1","24","24","2","",""
"null","1648320","pSARL_v2","pSARL_v2fll03svp","5c475608cae0ab000188cb6e","freq_resp","img/orange_2bandit_a.png","70","70","test","","","","2","",""
"null","1648479","pSARL_v2","pSARL_v2fll03svp","5c475608cae0ab000188cb6e","fixation","img/fixation.png","null","","test","","","","","",""
"297.60000014305115","1648779","pSARL_v2","pSARL_v2fll03svp","5c475608cae0ab000188cb6e","freq","img/orange_2bandit_a2.png","70","70","test","1","25","25","2","",""
"null","1649288","pSARL_v2","pSARL_v2fll03svp","5c475608cae0ab000188cb6e","freq_resp","img/orange_2bandit_a.png","70","70","test","","","","2","",""
"null","1649460","pSARL_v2","pSARL_v2fll03svp","5c475608cae0ab000188cb6e","fixation","img/fixation.png","null","","test","","","","","",""
"238.79999995231628","1649706","pSARL_v2","pSARL_v2fll03svp","5c475608cae0ab000188cb6e","freq","img/orange_2bandit_a2.png","70","70","test","1","26","26","2","",""
"null","1650279","pSARL_v2","pSARL_v2fll03svp","5c475608cae0ab000188cb6e","freq_resp","img/orange_2bandit_a.png","70","70","test","","","","2","",""
"null","1650448","pSARL_v2","pSARL_v2fll03svp","5c475608cae0ab000188cb6e","fixation","img/fixation.png","null","","test","","","","","",""
"256.80000019073486","1650712","pSARL_v2","pSARL_v2fll03svp","5c475608cae0ab000188cb6e","freq","img/orange_2bandit_a2.png","70","70","test","1","27","27","2","",""
"null","1651275","pSARL_v2","pSARL_v2fll03svp","5c475608cae0ab000188cb6e","freq_resp","img/orange_2bandit_a.png","70","70","test","","","","2","",""
"null","1651443","pSARL_v2","pSARL_v2fll03svp","5c475608cae0ab000188cb6e","fixation","img/fixation.png","null","","test","","","","","",""
"397.60000014305115","1651845","pSARL_v2","pSARL_v2fll03svp","5c475608cae0ab000188cb6e","freq","img/orange_2bandit_a2.png","70","70","test","1","28","28","2","",""
"null","1652269","pSARL_v2","pSARL_v2fll03svp","5c475608cae0ab000188cb6e","freq_resp","img/orange_2bandit_a.png","70","70","test","","","","2","",""
"null","1652441","pSARL_v2","pSARL_v2fll03svp","5c475608cae0ab000188cb6e","fixation","img/fixation.png","null","","test","","","","","",""
"273.7000000476837","1652721","pSARL_v2","pSARL_v2fll03svp","5c475608cae0ab000188cb6e","freq","img/orange_2bandit_a2.png","70","70","test","1","29","29","2","",""
"null","1653262","pSARL_v2","pSARL_v2fll03svp","5c475608cae0ab000188cb6e","freq_resp","img/orange_2bandit_a.png","70","70","test","","","","2","",""
"null","1653431","pSARL_v2","pSARL_v2fll03svp","5c475608cae0ab000188cb6e","fixation","img/fixation.png","null","","test","","","","","",""
"203.5","1653637","pSARL_v2","pSARL_v2fll03svp","5c475608cae0ab000188cb6e","freq","img/orange_2bandit_a2.png","70","70","test","1","30","30","2","",""
"null","1654246","pSARL_v2","pSARL_v2fll03svp","5c475608cae0ab000188cb6e","freq_resp","img/orange_2bandit_a.png","70","70","test","","","","2","",""
"null","1654416","pSARL_v2","pSARL_v2fll03svp","5c475608cae0ab000188cb6e","fixation","img/fixation.png","null","","test","","","","","",""
"224.70000004768372","1654648","pSARL_v2","pSARL_v2fll03svp","5c475608cae0ab000188cb6e","freq","img/orange_2bandit_a2.png","70","70","test","1","31","31","2","",""
"null","1655237","pSARL_v2","pSARL_v2fll03svp","5c475608cae0ab000188cb6e","freq_resp","img/orange_2bandit_a.png","70","70","test","","","","2","",""
"null","1655407","pSARL_v2","pSARL_v2fll03svp","5c475608cae0ab000188cb6e","fixation","img/fixation.png","null","","test","","","","","",""
"259.2000000476837","1655672","pSARL_v2","pSARL_v2fll03svp","5c475608cae0ab000188cb6e","freq","img/orange_2bandit_a2.png","70","70","test","1","32","32","2","",""
"null","1656232","pSARL_v2","pSARL_v2fll03svp","5c475608cae0ab000188cb6e","freq_resp","img/orange_2bandit_a.png","70","70","test","","","","2","",""
"null","1656385","pSARL_v2","pSARL_v2fll03svp","5c475608cae0ab000188cb6e","fixation","img/fixation.png","null","","test","","","","","",""
"263","1656654","pSARL_v2","pSARL_v2fll03svp","5c475608cae0ab000188cb6e","freq","img/orange_2bandit_a2.png","70","70","test","1","33","33","2","",""
"null","1657210","pSARL_v2","pSARL_v2fll03svp","5c475608cae0ab000188cb6e","freq_resp","img/orange_2bandit_a.png","70","70","test","","","","2","",""
"null","1657367","pSARL_v2","pSARL_v2fll03svp","5c475608cae0ab000188cb6e","fixation","img/fixation.png","null","","test","","","","","",""
"219.09999990463257","1657589","pSARL_v2","pSARL_v2fll03svp","5c475608cae0ab000188cb6e","freq","img/orange_2bandit_a2.png","70","70","test","1","34","34","2","",""
"null","1658181","pSARL_v2","pSARL_v2fll03svp","5c475608cae0ab000188cb6e","freq_resp","img/orange_2bandit_a.png","70","70","test","","","","2","",""
"null","1658338","pSARL_v2","pSARL_v2fll03svp","5c475608cae0ab000188cb6e","fixation","img/fixation.png","null","","test","","","","","",""
"233.10000014305115","1658577","pSARL_v2","pSARL_v2fll03svp","5c475608cae0ab000188cb6e","freq","img/orange_2bandit_a2.png","70","70","test","1","35","35","2","",""
"null","1659149","pSARL_v2","pSARL_v2fll03svp","5c475608cae0ab000188cb6e","freq_resp","img/orange_2bandit_a.png","70","70","test","","","","2","",""
"null","1659318","pSARL_v2","pSARL_v2fll03svp","5c475608cae0ab000188cb6e","fixation","img/fixation.png","null","","test","","","","","",""
"437.90000009536743","1659761","pSARL_v2","pSARL_v2fll03svp","5c475608cae0ab000188cb6e","infreq","img/green_2bandit_a2.png","68","68","test","1","36","36","2","",""
"null","1660143","pSARL_v2","pSARL_v2fll03svp","5c475608cae0ab000188cb6e","infreq_resp","img/green_2bandit_a.png","68","68","test","","","","2","",""
"null","1660312","pSARL_v2","pSARL_v2fll03svp","5c475608cae0ab000188cb6e","fixation","img/fixation.png","null","","test","","","","","",""
"348.90000009536743","1660667","pSARL_v2","pSARL_v2fll03svp","5c475608cae0ab000188cb6e","freq","img/orange_2bandit_a2.png","70","70","test","1","37","37","2","",""
"null","1661134","pSARL_v2","pSARL_v2fll03svp","5c475608cae0ab000188cb6e","freq_resp","img/orange_2bandit_a.png","70","70","test","","","","2","",""
"null","1661293","pSARL_v2","pSARL_v2fll03svp","5c475608cae0ab000188cb6e","fixation","img/fixation.png","null","","test","","","","","",""
"369.80000019073486","1661668","pSARL_v2","pSARL_v2fll03svp","5c475608cae0ab000188cb6e","freq","img/orange_2bandit_a2.png","70","70","test","1","38","38","2","",""
"null","1662111","pSARL_v2","pSARL_v2fll03svp","5c475608cae0ab000188cb6e","freq_resp","img/orange_2bandit_a.png","70","70","test","","","","2","",""
"null","1662269","pSARL_v2","pSARL_v2fll03svp","5c475608cae0ab000188cb6e","fixation","img/fixation.png","null","","test","","","","","",""
"277.60000014305115","1662553","pSARL_v2","pSARL_v2fll03svp","5c475608cae0ab000188cb6e","freq","img/orange_2bandit_a2.png","70","70","test","1","39","39","2","",""
"null","1663091","pSARL_v2","pSARL_v2fll03svp","5c475608cae0ab000188cb6e","freq_resp","img/orange_2bandit_a.png","70","70","test","","","","2","",""
"null","1663249","pSARL_v2","pSARL_v2fll03svp","5c475608cae0ab000188cb6e","fixation","img/fixation.png","null","","test","","","","","",""
"257.2999999523163","1663513","pSARL_v2","pSARL_v2fll03svp","5c475608cae0ab000188cb6e","freq","img/orange_2bandit_a2.png","70","70","test","1","40","40","2","",""
"null","1664071","pSARL_v2","pSARL_v2fll03svp","5c475608cae0ab000188cb6e","freq_resp","img/orange_2bandit_a.png","70","70","test","","","","2","",""
"null","1664245","pSARL_v2","pSARL_v2fll03svp","5c475608cae0ab000188cb6e","fixation","img/fixation.png","null","","test","","","","","",""
"270.2000000476837","1664518","pSARL_v2","pSARL_v2fll03svp","5c475608cae0ab000188cb6e","freq","img/orange_2bandit_a2.png","70","70","test","1","41","41","2","",""
"null","1665055","pSARL_v2","pSARL_v2fll03svp","5c475608cae0ab000188cb6e","freq_resp","img/orange_2bandit_a.png","70","70","test","","","","2","",""
"null","1665225","pSARL_v2","pSARL_v2fll03svp","5c475608cae0ab000188cb6e","fixation","img/fixation.png","null","","test","","","","","",""
"311.2999999523163","1665543","pSARL_v2","pSARL_v2fll03svp","5c475608cae0ab000188cb6e","freq","img/orange_2bandit_a2.png","70","70","test","1","42","42","2","",""
"null","1666050","pSARL_v2","pSARL_v2fll03svp","5c475608cae0ab000188cb6e","freq_resp","img/orange_2bandit_a.png","70","70","test","","","","2","",""
"null","1666221","pSARL_v2","pSARL_v2fll03svp","5c475608cae0ab000188cb6e","fixation","img/fixation.png","null","","test","","","","","",""
"306.7000000476837","1666535","pSARL_v2","pSARL_v2fll03svp","5c475608cae0ab000188cb6e","freq","img/orange_2bandit_a2.png","70","70","test","1","43","43","2","",""
"null","1667036","pSARL_v2","pSARL_v2fll03svp","5c475608cae0ab000188cb6e","freq_resp","img/orange_2bandit_a.png","70","70","test","","","","2","",""
"null","1667208","pSARL_v2","pSARL_v2fll03svp","5c475608cae0ab000188cb6e","fixation","img/fixation.png","null","","test","","","","","",""
"499.5","1667710","pSARL_v2","pSARL_v2fll03svp","5c475608cae0ab000188cb6e","reward","img/slot.png","74","","test","","","","","",""
"null","1668477","pSARL_v2","pSARL_v2fll03svp","5c475608cae0ab000188cb6e","points","<div class=""verylowPoints""> -11 </div>","null","na","test","","","","2","-11","1"
"459","1668943","pSARL_v2","pSARL_v2fll03svp","5c475608cae0ab000188cb6e","freq","img/orange_2bandit_a2.png","70","70","test","1","44","44","3","",""
"null","1669300","pSARL_v2","pSARL_v2fll03svp","5c475608cae0ab000188cb6e","freq_resp","img/orange_2bandit_a.png","70","70","test","","","","3","",""
"null","1669470","pSARL_v2","pSARL_v2fll03svp","5c475608cae0ab000188cb6e","fixation","img/fixation.png","null","","test","","","","","",""
"265.7000000476837","1669741","pSARL_v2","pSARL_v2fll03svp","5c475608cae0ab000188cb6e","freq","img/orange_2bandit_a2.png","70","70","test","1","45","45","3","",""
"null","1670282","pSARL_v2","pSARL_v2fll03svp","5c475608cae0ab000188cb6e","freq_resp","img/orange_2bandit_a.png","70","70","test","","","","3","",""
"null","1670440","pSARL_v2","pSARL_v2fll03svp","5c475608cae0ab000188cb6e","fixation","img/fixation.png","null","","test","","","","","",""
"225.80000019073486","1670672","pSARL_v2","pSARL_v2fll03svp","5c475608cae0ab000188cb6e","freq","img/orange_2bandit_a2.png","70","70","test","1","46","46","3","",""
"null","1671266","pSARL_v2","pSARL_v2fll03svp","5c475608cae0ab000188cb6e","freq_resp","img/orange_2bandit_a.png","70","70","test","","","","3","",""
"null","1671422","pSARL_v2","pSARL_v2fll03svp","5c475608cae0ab000188cb6e","fixation","img/fixation.png","null","","test","","","","","",""
"229.29999995231628","1671655","pSARL_v2","pSARL_v2fll03svp","5c475608cae0ab000188cb6e","freq","img/orange_2bandit_a2.png","70","70","test","1","47","47","3","",""
"null","1672243","pSARL_v2","pSARL_v2fll03svp","5c475608cae0ab000188cb6e","freq_resp","img/orange_2bandit_a.png","70","70","test","","","","3","",""
"null","1672397","pSARL_v2","pSARL_v2fll03svp","5c475608cae0ab000188cb6e","fixation","img/fixation.png","null","","test","","","","","",""
"269.5","1672669","pSARL_v2","pSARL_v2fll03svp","5c475608cae0ab000188cb6e","freq","img/orange_2bandit_a2.png","70","70","test","1","48","48","3","",""
"null","1673210","pSARL_v2","pSARL_v2fll03svp","5c475608cae0ab000188cb6e","freq_resp","img/orange_2bandit_a.png","70","70","test","","","","3","",""
"null","1673375","pSARL_v2","pSARL_v2fll03svp","5c475608cae0ab000188cb6e","fixation","img/fixation.png","null","","test","","","","","",""
"263.7000000476837","1673644","pSARL_v2","pSARL_v2fll03svp","5c475608cae0ab000188cb6e","freq","img/orange_2bandit_a2.png","70","70","test","1","49","49","3","",""
"null","1674200","pSARL_v2","pSARL_v2fll03svp","5c475608cae0ab000188cb6e","freq_resp","img/orange_2bandit_a.png","70","70","test","","","","3","",""
"null","1674370","pSARL_v2","pSARL_v2fll03svp","5c475608cae0ab000188cb6e","fixation","img/fixation.png","null","","test","","","","","",""
"238.39999985694885","1674613","pSARL_v2","pSARL_v2fll03svp","5c475608cae0ab000188cb6e","freq","img/orange_2bandit_a2.png","70","70","test","1","50","50","3","",""
"null","1675188","pSARL_v2","pSARL_v2fll03svp","5c475608cae0ab000188cb6e","freq_resp","img/orange_2bandit_a.png","70","70","test","","","","3","",""
"null","1675359","pSARL_v2","pSARL_v2fll03svp","5c475608cae0ab000188cb6e","fixation","img/fixation.png","null","","test","","","","","",""
"241.09999990463257","1675608","pSARL_v2","pSARL_v2fll03svp","5c475608cae0ab000188cb6e","freq","img/orange_2bandit_a2.png","70","70","test","1","51","51","3","",""
"null","1676179","pSARL_v2","pSARL_v2fll03svp","5c475608cae0ab000188cb6e","freq_resp","img/orange_2bandit_a.png","70","70","test","","","","3","",""
"null","1676351","pSARL_v2","pSARL_v2fll03svp","5c475608cae0ab000188cb6e","fixation","img/fixation.png","null","","test","","","","","",""
"427.5","1676782","pSARL_v2","pSARL_v2fll03svp","5c475608cae0ab000188cb6e","freq","img/orange_2bandit_a2.png","70","70","test","1","52","52","3","",""
"null","1677172","pSARL_v2","pSARL_v2fll03svp","5c475608cae0ab000188cb6e","freq_resp","img/orange_2bandit_a.png","70","70","test","","","","3","",""
"null","1677328","pSARL_v2","pSARL_v2fll03svp","5c475608cae0ab000188cb6e","fixation","img/fixation.png","null","","test","","","","","",""
"730.5","1678065","pSARL_v2","pSARL_v2fll03svp","5c475608cae0ab000188cb6e","freq","img/orange_2bandit_a2.png","70","70","test","1","53","53","3","",""
"null","1678154","pSARL_v2","pSARL_v2fll03svp","5c475608cae0ab000188cb6e","freq_resp","img/orange_2bandit_a.png","70","70","test","","","","3","",""
"null","1678324","pSARL_v2","pSARL_v2fll03svp","5c475608cae0ab000188cb6e","fixation","img/fixation.png","null","","test","","","","","",""
"null","1679130","pSARL_v2","pSARL_v2fll03svp","5c475608cae0ab000188cb6e","freq","img/orange_2bandit_a2.png","null","70","test","0","54","54","3","",""
"null","1679288","pSARL_v2","pSARL_v2fll03svp","5c475608cae0ab000188cb6e","fixation","img/fixation.png","null","","test","","","","","",""
"701.5999999046326","1679993","pSARL_v2","pSARL_v2fll03svp","5c475608cae0ab000188cb6e","freq","img/orange_2bandit_a2.png","70","70","test","1","55","55","3","",""
"null","1680110","pSARL_v2","pSARL_v2fll03svp","5c475608cae0ab000188cb6e","freq_resp","img/orange_2bandit_a.png","70","70","test","","","","3","",""
"null","1680268","pSARL_v2","pSARL_v2fll03svp","5c475608cae0ab000188cb6e","fixation","img/fixation.png","null","","test","","","","","",""
"448.90000009536743","1680723","pSARL_v2","pSARL_v2fll03svp","5c475608cae0ab000188cb6e","freq","img/orange_2bandit_a2.png","70","70","test","1","56","56","3","",""
"null","1681093","pSARL_v2","pSARL_v2fll03svp","5c475608cae0ab000188cb6e","freq_resp","img/orange_2bandit_a.png","70","70","test","","","","3","",""
"null","1681265","pSARL_v2","pSARL_v2fll03svp","5c475608cae0ab000188cb6e","fixation","img/fixation.png","null","","test","","","","","",""
"251.70000004768372","1681526","pSARL_v2","pSARL_v2fll03svp","5c475608cae0ab000188cb6e","freq","img/orange_2bandit_a2.png","70","70","test","1","57","57","3","",""
"null","1682086","pSARL_v2","pSARL_v2fll03svp","5c475608cae0ab000188cb6e","freq_resp","img/orange_2bandit_a.png","70","70","test","","","","3","",""
"null","1682254","pSARL_v2","pSARL_v2fll03svp","5c475608cae0ab000188cb6e","fixation","img/fixation.png","null","","test","","","","","",""
"229.70000004768372","1682490","pSARL_v2","pSARL_v2fll03svp","5c475608cae0ab000188cb6e","infreq","img/green_2bandit_a2.png","70","68","test","0","58","58","3","",""
"null","1683079","pSARL_v2","pSARL_v2fll03svp","5c475608cae0ab000188cb6e","infreq_resp","img/green_2bandit_a.png","70","68","test","","","","3","",""
"null","1683236","pSARL_v2","pSARL_v2fll03svp","5c475608cae0ab000188cb6e","fixation","img/fixation.png","null","","test","","","","","",""
"407.90000009536743","1683648","pSARL_v2","pSARL_v2fll03svp","5c475608cae0ab000188cb6e","freq","img/orange_2bandit_a2.png","70","70","test","1","59","59","3","",""
"null","1684057","pSARL_v2","pSARL_v2fll03svp","5c475608cae0ab000188cb6e","freq_resp","img/orange_2bandit_a.png","70","70","test","","","","3","",""
"null","1684227","pSARL_v2","pSARL_v2fll03svp","5c475608cae0ab000188cb6e","fixation","img/fixation.png","null","","test","","","","","",""
"287.2999999523163","1684517","pSARL_v2","pSARL_v2fll03svp","5c475608cae0ab000188cb6e","freq","img/orange_2bandit_a2.png","70","70","test","1","60","60","3","",""
"null","1685036","pSARL_v2","pSARL_v2fll03svp","5c475608cae0ab000188cb6e","freq_resp","img/orange_2bandit_a.png","70","70","test","","","","3","",""
"null","1685205","pSARL_v2","pSARL_v2fll03svp","5c475608cae0ab000188cb6e","fixation","img/fixation.png","null","","test","","","","","",""
"269.80000019073486","1685481","pSARL_v2","pSARL_v2fll03svp","5c475608cae0ab000188cb6e","freq","img/orange_2bandit_a2.png","70","70","test","1","61","61","3","",""
"null","1686031","pSARL_v2","pSARL_v2fll03svp","5c475608cae0ab000188cb6e","freq_resp","img/orange_2bandit_a.png","70","70","test","","","","3","",""
"null","1686200","pSARL_v2","pSARL_v2fll03svp","5c475608cae0ab000188cb6e","fixation","img/fixation.png","null","","test","","","","","",""
"123.40000009536743","1686329","pSARL_v2","pSARL_v2fll03svp","5c475608cae0ab000188cb6e","freq","img/orange_2bandit_a2.png","70","70","test","1","62","62","3","",""
"null","1687025","pSARL_v2","pSARL_v2fll03svp","5c475608cae0ab000188cb6e","freq_resp","img/orange_2bandit_a.png","70","70","test","","","","3","",""
"null","1687181","pSARL_v2","pSARL_v2fll03svp","5c475608cae0ab000188cb6e","fixation","img/fixation.png","null","","test","","","","","",""
"0.09999990463256836","1687183","pSARL_v2","pSARL_v2fll03svp","5c475608cae0ab000188cb6e","freq","img/orange_2bandit_a2.png","70","70","test","1","63","63","3","",""
"null","1687991","pSARL_v2","pSARL_v2fll03svp","5c475608cae0ab000188cb6e","freq_resp","img/orange_2bandit_a.png","70","70","test","","","","3","",""
"null","1688162","pSARL_v2","pSARL_v2fll03svp","5c475608cae0ab000188cb6e","fixation","img/fixation.png","null","","test","","","","","",""
"0.20000004768371582","1688168","pSARL_v2","pSARL_v2fll03svp","5c475608cae0ab000188cb6e","freq","img/orange_2bandit_a2.png","70","70","test","1","64","64","3","",""
"null","1688987","pSARL_v2","pSARL_v2fll03svp","5c475608cae0ab000188cb6e","freq_resp","img/orange_2bandit_a.png","70","70","test","","","","3","",""
"null","1689160","pSARL_v2","pSARL_v2fll03svp","5c475608cae0ab000188cb6e","fixation","img/fixation.png","null","","test","","","","","",""
"221","1689388","pSARL_v2","pSARL_v2fll03svp","5c475608cae0ab000188cb6e","infreq","img/green_2bandit_a2.png","70","68","test","0","65","65","3","",""
"null","1689984","pSARL_v2","pSARL_v2fll03svp","5c475608cae0ab000188cb6e","infreq_resp","img/green_2bandit_a.png","70","68","test","","","","3","",""
"null","1690141","pSARL_v2","pSARL_v2fll03svp","5c475608cae0ab000188cb6e","fixation","img/fixation.png","null","","test","","","","","",""
"366","1690510","pSARL_v2","pSARL_v2fll03svp","5c475608cae0ab000188cb6e","freq","img/orange_2bandit_a2.png","70","70","test","1","66","66","3","",""
"null","1690951","pSARL_v2","pSARL_v2fll03svp","5c475608cae0ab000188cb6e","freq_resp","img/orange_2bandit_a.png","70","70","test","","","","3","",""
"null","1691122","pSARL_v2","pSARL_v2fll03svp","5c475608cae0ab000188cb6e","fixation","img/fixation.png","null","","test","","","","","",""
"364.2999999523163","1691492","pSARL_v2","pSARL_v2fll03svp","5c475608cae0ab000188cb6e","reward","img/slot.png","74","","test","","","","","",""
"null","1692255","pSARL_v2","pSARL_v2fll03svp","5c475608cae0ab000188cb6e","points","<div class=""verylowPoints""> -7 </div>","null","na","test","","","","3","-7","2"
"535.5","1692797","pSARL_v2","pSARL_v2fll03svp","5c475608cae0ab000188cb6e","freq","img/orange_2bandit_a2.png","70","70","test","1","67","67","4","",""
"null","1693079","pSARL_v2","pSARL_v2fll03svp","5c475608cae0ab000188cb6e","freq_resp","img/orange_2bandit_a.png","70","70","test","","","","4","",""
"null","1693252","pSARL_v2","pSARL_v2fll03svp","5c475608cae0ab000188cb6e","fixation","img/fixation.png","null","","test","","","","","",""
"null","1694060","pSARL_v2","pSARL_v2fll03svp","5c475608cae0ab000188cb6e","freq","img/orange_2bandit_a2.png","null","70","test","0","68","68","4","",""
"null","1694228","pSARL_v2","pSARL_v2fll03svp","5c475608cae0ab000188cb6e","fixation","img/fixation.png","null","","test","","","","","",""
"421.39999985694885","1694655","pSARL_v2","pSARL_v2fll03svp","5c475608cae0ab000188cb6e","freq","img/orange_2bandit_a2.png","70","70","test","1","69","69","4","",""
"null","1695041","pSARL_v2","pSARL_v2fll03svp","5c475608cae0ab000188cb6e","freq_resp","img/orange_2bandit_a.png","70","70","test","","","","4","",""
"null","1695212","pSARL_v2","pSARL_v2fll03svp","5c475608cae0ab000188cb6e","fixation","img/fixation.png","null","","test","","","","","",""
"181.90000009536743","1695401","pSARL_v2","pSARL_v2fll03svp","5c475608cae0ab000188cb6e","freq","img/orange_2bandit_a2.png","70","70","test","1","70","70","4","",""
"null","1696042","pSARL_v2","pSARL_v2fll03svp","5c475608cae0ab000188cb6e","freq_resp","img/orange_2bandit_a.png","70","70","test","","","","4","",""
"null","1696210","pSARL_v2","pSARL_v2fll03svp","5c475608cae0ab000188cb6e","fixation","img/fixation.png","null","","test","","","","","",""
"198.20000004768372","1696411","pSARL_v2","pSARL_v2fll03svp","5c475608cae0ab000188cb6e","freq","img/orange_2bandit_a2.png","70","70","test","1","71","71","4","",""
"null","1697021","pSARL_v2","pSARL_v2fll03svp","5c475608cae0ab000188cb6e","freq_resp","img/orange_2bandit_a.png","70","70","test","","","","4","",""
"null","1697191","pSARL_v2","pSARL_v2fll03svp","5c475608cae0ab000188cb6e","fixation","img/fixation.png","null","","test","","","","","",""
"224.59999990463257","1697422","pSARL_v2","pSARL_v2fll03svp","5c475608cae0ab000188cb6e","freq","img/orange_2bandit_a2.png","70","70","test","1","72","72","4","",""
"null","1698014","pSARL_v2","pSARL_v2fll03svp","5c475608cae0ab000188cb6e","freq_resp","img/orange_2bandit_a.png","70","70","test","","","","4","",""
"null","1698184","pSARL_v2","pSARL_v2fll03svp","5c475608cae0ab000188cb6e","fixation","img/fixation.png","null","","test","","","","","",""
"228.10000014305115","1698415","pSARL_v2","pSARL_v2fll03svp","5c475608cae0ab000188cb6e","freq","img/orange_2bandit_a2.png","70","70","test","1","73","73","4","",""
"null","1699007","pSARL_v2","pSARL_v2fll03svp","5c475608cae0ab000188cb6e","freq_resp","img/orange_2bandit_a.png","70","70","test","","","","4","",""
"null","1699178","pSARL_v2","pSARL_v2fll03svp","5c475608cae0ab000188cb6e","fixation","img/fixation.png","null","","test","","","","","",""
"295.90000009536743","1699477","pSARL_v2","pSARL_v2fll03svp","5c475608cae0ab000188cb6e","infreq","img/green_2bandit_a2.png","70","68","test","0","74","74","4","",""
"null","1700000","pSARL_v2","pSARL_v2fll03svp","5c475608cae0ab000188cb6e","infreq_resp","img/green_2bandit_a.png","70","68","test","","","","4","",""
"null","1700172","pSARL_v2","pSARL_v2fll03svp","5c475608cae0ab000188cb6e","fixation","img/fixation.png","null","","test","","","","","",""
"425.59999990463257","1700605","pSARL_v2","pSARL_v2fll03svp","5c475608cae0ab000188cb6e","freq","img/orange_2bandit_a2.png","70","70","test","1","75","75","4","",""
"null","1700994","pSARL_v2","pSARL_v2fll03svp","5c475608cae0ab000188cb6e","freq_resp","img/orange_2bandit_a.png","70","70","test","","","","4","",""
"null","1701164","pSARL_v2","pSARL_v2fll03svp","5c475608cae0ab000188cb6e","fixation","img/fixation.png","null","","test","","","","","",""
"275.19999980926514","1701446","pSARL_v2","pSARL_v2fll03svp","5c475608cae0ab000188cb6e","freq","img/orange_2bandit_a2.png","70","70","test","1","76","76","4","",""
"null","1701980","pSARL_v2","pSARL_v2fll03svp","5c475608cae0ab000188cb6e","freq_resp","img/orange_2bandit_a.png","70","70","test","","","","4","",""
"null","1702137","pSARL_v2","pSARL_v2fll03svp","5c475608cae0ab000188cb6e","fixation","img/fixation.png","null","","test","","","","","",""
"243.20000004768372","1702386","pSARL_v2","pSARL_v2fll03svp","5c475608cae0ab000188cb6e","freq","img/orange_2bandit_a2.png","70","70","test","1","77","77","4","",""
"null","1702957","pSARL_v2","pSARL_v2fll03svp","5c475608cae0ab000188cb6e","freq_resp","img/orange_2bandit_a.png","70","70","test","","","","4","",""
"null","1703115","pSARL_v2","pSARL_v2fll03svp","5c475608cae0ab000188cb6e","fixation","img/fixation.png","null","","test","","","","","",""
"229.5","1703352","pSARL_v2","pSARL_v2fll03svp","5c475608cae0ab000188cb6e","freq","img/orange_2bandit_a2.png","70","70","test","1","78","78","4","",""
"null","1703934","pSARL_v2","pSARL_v2fll03svp","5c475608cae0ab000188cb6e","freq_resp","img/orange_2bandit_a.png","70","70","test","","","","4","",""
"null","1704090","pSARL_v2","pSARL_v2fll03svp","5c475608cae0ab000188cb6e","fixation","img/fixation.png","null","","test","","","","","",""
"217.69999980926514","1704314","pSARL_v2","pSARL_v2fll03svp","5c475608cae0ab000188cb6e","freq","img/orange_2bandit_a2.png","70","70","test","1","79","79","4","",""
"null","1704910","pSARL_v2","pSARL_v2fll03svp","5c475608cae0ab000188cb6e","freq_resp","img/orange_2bandit_a.png","70","70","test","","","","4","",""
"null","1705069","pSARL_v2","pSARL_v2fll03svp","5c475608cae0ab000188cb6e","fixation","img/fixation.png","null","","test","","","","","",""
"106.60000014305115","1705183","pSARL_v2","pSARL_v2fll03svp","5c475608cae0ab000188cb6e","freq","img/orange_2bandit_a2.png","70","70","test","1","80","80","4","",""
"null","1705888","pSARL_v2","pSARL_v2fll03svp","5c475608cae0ab000188cb6e","freq_resp","img/orange_2bandit_a.png","70","70","test","","","","4","",""
"null","1706057","pSARL_v2","pSARL_v2fll03svp","5c475608cae0ab000188cb6e","fixation","img/fixation.png","null","","test","","","","","",""
"249.5","1706309","pSARL_v2","pSARL_v2fll03svp","5c475608cae0ab000188cb6e","freq","img/orange_2bandit_a2.png","70","70","test","1","81","81","4","",""
"null","1706868","pSARL_v2","pSARL_v2fll03svp","5c475608cae0ab000188cb6e","freq_resp","img/orange_2bandit_a.png","70","70","test","","","","4","",""
"null","1707035","pSARL_v2","pSARL_v2fll03svp","5c475608cae0ab000188cb6e","fixation","img/fixation.png","null","","test","","","","","",""
"210.60000014305115","1707251","pSARL_v2","pSARL_v2fll03svp","5c475608cae0ab000188cb6e","freq","img/orange_2bandit_a2.png","70","70","test","1","82","82","4","",""
"null","1707847","pSARL_v2","pSARL_v2fll03svp","5c475608cae0ab000188cb6e","freq_resp","img/orange_2bandit_a.png","70","70","test","","","","4","",""
"null","1708019","pSARL_v2","pSARL_v2fll03svp","5c475608cae0ab000188cb6e","fixation","img/fixation.png","null","","test","","","","","",""
"246","1708268","pSARL_v2","pSARL_v2fll03svp","5c475608cae0ab000188cb6e","freq","img/orange_2bandit_a2.png","70","70","test","1","83","83","4","",""
"null","1708829","pSARL_v2","pSARL_v2fll03svp","5c475608cae0ab000188cb6e","freq_resp","img/orange_2bandit_a.png","70","70","test","","","","4","",""
"null","1709001","pSARL_v2","pSARL_v2fll03svp","5c475608cae0ab000188cb6e","fixation","img/fixation.png","null","","test","","","","","",""
"199.20000004768372","1709207","pSARL_v2","pSARL_v2fll03svp","5c475608cae0ab000188cb6e","infreq","img/green_2bandit_a2.png","70","68","test","0","84","84","4","",""
"null","1709823","pSARL_v2","pSARL_v2fll03svp","5c475608cae0ab000188cb6e","infreq_resp","img/green_2bandit_a.png","70","68","test","","","","4","",""
"null","1709995","pSARL_v2","pSARL_v2fll03svp","5c475608cae0ab000188cb6e","fixation","img/fixation.png","null","","test","","","","","",""
"230.79999995231628","1710228","pSARL_v2","pSARL_v2fll03svp","5c475608cae0ab000188cb6e","freq","img/orange_2bandit_a2.png","68","70","test","0","85","85","4","",""
"null","1710817","pSARL_v2","pSARL_v2fll03svp","5c475608cae0ab000188cb6e","freq_resp","img/orange_2bandit_a.png","68","70","test","","","","4","",""
"null","1710988","pSARL_v2","pSARL_v2fll03svp","5c475608cae0ab000188cb6e","fixation","img/fixation.png","null","","test","","","","","",""
"213.79999995231628","1711209","pSARL_v2","pSARL_v2fll03svp","5c475608cae0ab000188cb6e","freq","img/orange_2bandit_a2.png","70","70","test","1","86","86","4","",""
"null","1711810","pSARL_v2","pSARL_v2fll03svp","5c475608cae0ab000188cb6e","freq_resp","img/orange_2bandit_a.png","70","70","test","","","","4","",""
"null","1711967","pSARL_v2","pSARL_v2fll03svp","5c475608cae0ab000188cb6e","fixation","img/fixation.png","null","","test","","","","","",""
"148.79999995231628","1712121","pSARL_v2","pSARL_v2fll03svp","5c475608cae0ab000188cb6e","freq","img/orange_2bandit_a2.png","70","70","test","1","87","87","4","",""
"null","1712793","pSARL_v2","pSARL_v2fll03svp","5c475608cae0ab000188cb6e","freq_resp","img/orange_2bandit_a.png","70","70","test","","","","4","",""
"null","1712960","pSARL_v2","pSARL_v2fll03svp","5c475608cae0ab000188cb6e","fixation","img/fixation.png","null","","test","","","","","",""
"347.7999999523163","1713310","pSARL_v2","pSARL_v2fll03svp","5c475608cae0ab000188cb6e","freq","img/orange_2bandit_a2.png","70","70","test","1","88","88","4","",""
"null","1713774","pSARL_v2","pSARL_v2fll03svp","5c475608cae0ab000188cb6e","freq_resp","img/orange_2bandit_a.png","70","70","test","","","","4","",""
"null","1713931","pSARL_v2","pSARL_v2fll03svp","5c475608cae0ab000188cb6e","fixation","img/fixation.png","null","","test","","","","","",""
"217.40000009536743","1714156","pSARL_v2","pSARL_v2fll03svp","5c475608cae0ab000188cb6e","freq","img/orange_2bandit_a2.png","70","70","test","1","89","89","4","",""
"null","1714752","pSARL_v2","pSARL_v2fll03svp","5c475608cae0ab000188cb6e","freq_resp","img/orange_2bandit_a.png","70","70","test","","","","4","",""
"null","1714909","pSARL_v2","pSARL_v2fll03svp","5c475608cae0ab000188cb6e","fixation","img/fixation.png","null","","test","","","","","",""
"190.69999980926514","1715106","pSARL_v2","pSARL_v2fll03svp","5c475608cae0ab000188cb6e","freq","img/orange_2bandit_a2.png","70","70","test","1","90","90","4","",""
"null","1715723","pSARL_v2","pSARL_v2fll03svp","5c475608cae0ab000188cb6e","freq_resp","img/orange_2bandit_a.png","70","70","test","","","","4","",""
"null","1715895","pSARL_v2","pSARL_v2fll03svp","5c475608cae0ab000188cb6e","fixation","img/fixation.png","null","","test","","","","","",""
"66.10000014305115","1715968","pSARL_v2","pSARL_v2fll03svp","5c475608cae0ab000188cb6e","freq","img/orange_2bandit_a2.png","70","70","test","1","91","91","4","",""
"null","1716719","pSARL_v2","pSARL_v2fll03svp","5c475608cae0ab000188cb6e","freq_resp","img/orange_2bandit_a.png","70","70","test","","","","4","",""
"null","1716891","pSARL_v2","pSARL_v2fll03svp","5c475608cae0ab000188cb6e","fixation","img/fixation.png","null","","test","","","","","",""
"347.7999999523163","1717244","pSARL_v2","pSARL_v2fll03svp","5c475608cae0ab000188cb6e","reward","img/slot.png","74","","test","","","","","",""
"null","1718012","pSARL_v2","pSARL_v2fll03svp","5c475608cae0ab000188cb6e","points","<div class=""verylowPoints""> -3 </div>","null","na","test","","","","4","-3","3"
"421.7999999523163","1718441","pSARL_v2","pSARL_v2fll03svp","5c475608cae0ab000188cb6e","freq","img/orange_2bandit_a2.png","70","70","test","1","92","92","5","",""
"null","1718838","pSARL_v2","pSARL_v2fll03svp","5c475608cae0ab000188cb6e","freq_resp","img/orange_2bandit_a.png","70","70","test","","","","5","",""
"null","1719010","pSARL_v2","pSARL_v2fll03svp","5c475608cae0ab000188cb6e","fixation","img/fixation.png","null","","test","","","","","",""
"217.20000004768372","1719233","pSARL_v2","pSARL_v2fll03svp","5c475608cae0ab000188cb6e","freq","img/orange_2bandit_a2.png","70","70","test","1","93","93","5","",""
"null","1719832","pSARL_v2","pSARL_v2fll03svp","5c475608cae0ab000188cb6e","freq_resp","img/orange_2bandit_a.png","70","70","test","","","","5","",""
"null","1720002","pSARL_v2","pSARL_v2fll03svp","5c475608cae0ab000188cb6e","fixation","img/fixation.png","null","","test","","","","","",""
"154.80000019073486","1720163","pSARL_v2","pSARL_v2fll03svp","5c475608cae0ab000188cb6e","freq","img/orange_2bandit_a2.png","70","70","test","1","94","94","5","",""
"null","1720817","pSARL_v2","pSARL_v2fll03svp","5c475608cae0ab000188cb6e","freq_resp","img/orange_2bandit_a.png","70","70","test","","","","5","",""
"null","1720974","pSARL_v2","pSARL_v2fll03svp","5c475608cae0ab000188cb6e","fixation","img/fixation.png","null","","test","","","","","",""
"82.5","1721063","pSARL_v2","pSARL_v2fll03svp","5c475608cae0ab000188cb6e","infreq","img/green_2bandit_a2.png","70","68","test","0","95","95","5","",""
"null","1721789","pSARL_v2","pSARL_v2fll03svp","5c475608cae0ab000188cb6e","infreq_resp","img/green_2bandit_a.png","70","68","test","","","","5","",""
"null","1721954","pSARL_v2","pSARL_v2fll03svp","5c475608cae0ab000188cb6e","fixation","img/fixation.png","null","","test","","","","","",""
"253.09999990463257","1722210","pSARL_v2","pSARL_v2fll03svp","5c475608cae0ab000188cb6e","freq","img/orange_2bandit_a2.png","70","70","test","1","96","96","5","",""
"null","1722768","pSARL_v2","pSARL_v2fll03svp","5c475608cae0ab000188cb6e","freq_resp","img/orange_2bandit_a.png","70","70","test","","","","5","",""
"null","1722939","pSARL_v2","pSARL_v2fll03svp","5c475608cae0ab000188cb6e","fixation","img/fixation.png","null","","test","","","","","",""
"187.20000004768372","1723133","pSARL_v2","pSARL_v2fll03svp","5c475608cae0ab000188cb6e","infreq","img/green_2bandit_a2.png","70","68","test","0","97","97","5","",""
"null","1723762","pSARL_v2","pSARL_v2fll03svp","5c475608cae0ab000188cb6e","infreq_resp","img/green_2bandit_a.png","70","68","test","","","","5","",""
"null","1723917","pSARL_v2","pSARL_v2fll03svp","5c475608cae0ab000188cb6e","fixation","img/fixation.png","null","","test","","","","","",""
"389.40000009536743","1724314","pSARL_v2","pSARL_v2fll03svp","5c475608cae0ab000188cb6e","freq","img/orange_2bandit_a2.png","70","70","test","1","98","98","5","",""
"null","1724734","pSARL_v2","pSARL_v2fll03svp","5c475608cae0ab000188cb6e","freq_resp","img/orange_2bandit_a.png","70","70","test","","","","5","",""
"null","1724904","pSARL_v2","pSARL_v2fll03svp","5c475608cae0ab000188cb6e","fixation","img/fixation.png","null","","test","","","","","",""
"206.70000004768372","1725117","pSARL_v2","pSARL_v2fll03svp","5c475608cae0ab000188cb6e","freq","img/orange_2bandit_a2.png","70","70","test","1","99","99","5","",""
"null","1725728","pSARL_v2","pSARL_v2fll03svp","5c475608cae0ab000188cb6e","freq_resp","img/orange_2bandit_a.png","70","70","test","","","","5","",""
"null","1725898","pSARL_v2","pSARL_v2fll03svp","5c475608cae0ab000188cb6e","fixation","img/fixation.png","null","","test","","","","","",""
"254.5","1726160","pSARL_v2","pSARL_v2fll03svp","5c475608cae0ab000188cb6e","freq","img/orange_2bandit_a2.png","70","70","test","1","100","100","5","",""
"null","1726721","pSARL_v2","pSARL_v2fll03svp","5c475608cae0ab000188cb6e","freq_resp","img/orange_2bandit_a.png","70","70","test","","","","5","",""
"null","1726891","pSARL_v2","pSARL_v2fll03svp","5c475608cae0ab000188cb6e","fixation","img/fixation.png","null","","test","","","","","",""
"233.59999990463257","1727131","pSARL_v2","pSARL_v2fll03svp","5c475608cae0ab000188cb6e","freq","img/orange_2bandit_a2.png","70","70","test","1","101","101","5","",""
"null","1727716","pSARL_v2","pSARL_v2fll03svp","5c475608cae0ab000188cb6e","freq_resp","img/orange_2bandit_a.png","70","70","test","","","","5","",""
"null","1727887","pSARL_v2","pSARL_v2fll03svp","5c475608cae0ab000188cb6e","fixation","img/fixation.png","null","","test","","","","","",""
"234.20000004768372","1728128","pSARL_v2","pSARL_v2fll03svp","5c475608cae0ab000188cb6e","freq","img/orange_2bandit_a2.png","70","70","test","1","102","102","5","",""
"null","1728707","pSARL_v2","pSARL_v2fll03svp","5c475608cae0ab000188cb6e","freq_resp","img/orange_2bandit_a.png","70","70","test","","","","5","",""
"null","1728865","pSARL_v2","pSARL_v2fll03svp","5c475608cae0ab000188cb6e","fixation","img/fixation.png","null","","test","","","","","",""
"256.90000009536743","1729129","pSARL_v2","pSARL_v2fll03svp","5c475608cae0ab000188cb6e","freq","img/orange_2bandit_a2.png","70","70","test","1","103","103","5","",""
"null","1729688","pSARL_v2","pSARL_v2fll03svp","5c475608cae0ab000188cb6e","freq_resp","img/orange_2bandit_a.png","70","70","test","","","","5","",""
"null","1729858","pSARL_v2","pSARL_v2fll03svp","5c475608cae0ab000188cb6e","fixation","img/fixation.png","null","","test","","","","","",""
"163.60000014305115","1730029","pSARL_v2","pSARL_v2fll03svp","5c475608cae0ab000188cb6e","freq","img/orange_2bandit_a2.png","70","70","test","1","104","104","5","",""
"null","1730683","pSARL_v2","pSARL_v2fll03svp","5c475608cae0ab000188cb6e","freq_resp","img/orange_2bandit_a.png","70","70","test","","","","5","",""
"null","1730850","pSARL_v2","pSARL_v2fll03svp","5c475608cae0ab000188cb6e","fixation","img/fixation.png","null","","test","","","","","",""
"193.09999990463257","1731049","pSARL_v2","pSARL_v2fll03svp","5c475608cae0ab000188cb6e","freq","img/orange_2bandit_a2.png","70","70","test","1","105","105","5","",""
"null","1731673","pSARL_v2","pSARL_v2fll03svp","5c475608cae0ab000188cb6e","freq_resp","img/orange_2bandit_a.png","70","70","test","","","","5","",""
"null","1731830","pSARL_v2","pSARL_v2fll03svp","5c475608cae0ab000188cb6e","fixation","img/fixation.png","null","","test","","","","","",""
"248.29999995231628","1732084","pSARL_v2","pSARL_v2fll03svp","5c475608cae0ab000188cb6e","freq","img/orange_2bandit_a2.png","70","70","test","1","106","106","5","",""
"null","1732646","pSARL_v2","pSARL_v2fll03svp","5c475608cae0ab000188cb6e","freq_resp","img/orange_2bandit_a.png","70","70","test","","","","5","",""
"null","1732800","pSARL_v2","pSARL_v2fll03svp","5c475608cae0ab000188cb6e","fixation","img/fixation.png","null","","test","","","","","",""
"229.60000014305115","1733032","pSARL_v2","pSARL_v2fll03svp","5c475608cae0ab000188cb6e","freq","img/orange_2bandit_a2.png","70","70","test","1","107","107","5","",""
"null","1733611","pSARL_v2","pSARL_v2fll03svp","5c475608cae0ab000188cb6e","freq_resp","img/orange_2bandit_a.png","70","70","test","","","","5","",""
"null","1733777","pSARL_v2","pSARL_v2fll03svp","5c475608cae0ab000188cb6e","fixation","img/fixation.png","null","","test","","","","","",""
"131.29999995231628","1733915","pSARL_v2","pSARL_v2fll03svp","5c475608cae0ab000188cb6e","freq","img/orange_2bandit_a2.png","70","70","test","1","108","108","5","",""
"null","1734600","pSARL_v2","pSARL_v2fll03svp","5c475608cae0ab000188cb6e","freq_resp","img/orange_2bandit_a.png","70","70","test","","","","5","",""
"null","1734770","pSARL_v2","pSARL_v2fll03svp","5c475608cae0ab000188cb6e","fixation","img/fixation.png","null","","test","","","","","",""
"149.59999990463257","1734926","pSARL_v2","pSARL_v2fll03svp","5c475608cae0ab000188cb6e","freq","img/orange_2bandit_a2.png","70","70","test","1","109","109","5","",""
"null","1735593","pSARL_v2","pSARL_v2fll03svp","5c475608cae0ab000188cb6e","freq_resp","img/orange_2bandit_a.png","70","70","test","","","","5","",""
"null","1735763","pSARL_v2","pSARL_v2fll03svp","5c475608cae0ab000188cb6e","fixation","img/fixation.png","null","","test","","","","","",""
"78.20000004768372","1735847","pSARL_v2","pSARL_v2fll03svp","5c475608cae0ab000188cb6e","freq","img/orange_2bandit_a2.png","70","70","test","1","110","110","5","",""
"null","1736577","pSARL_v2","pSARL_v2fll03svp","5c475608cae0ab000188cb6e","freq_resp","img/orange_2bandit_a.png","70","70","test","","","","5","",""
"null","1736735","pSARL_v2","pSARL_v2fll03svp","5c475608cae0ab000188cb6e","fixation","img/fixation.png","null","","test","","","","","",""
"255.30000019073486","1736993","pSARL_v2","pSARL_v2fll03svp","5c475608cae0ab000188cb6e","freq","img/orange_2bandit_a2.png","70","70","test","1","111","111","5","",""
"null","1737558","pSARL_v2","pSARL_v2fll03svp","5c475608cae0ab000188cb6e","freq_resp","img/orange_2bandit_a.png","70","70","test","","","","5","",""
"null","1737729","pSARL_v2","pSARL_v2fll03svp","5c475608cae0ab000188cb6e","fixation","img/fixation.png","null","","test","","","","","",""
"226.20000004768372","1737963","pSARL_v2","pSARL_v2fll03svp","5c475608cae0ab000188cb6e","infreq","img/green_2bandit_a2.png","70","68","test","0","112","112","5","",""
"null","1738551","pSARL_v2","pSARL_v2fll03svp","5c475608cae0ab000188cb6e","infreq_resp","img/green_2bandit_a.png","70","68","test","","","","5","",""
"null","1738722","pSARL_v2","pSARL_v2fll03svp","5c475608cae0ab000188cb6e","fixation","img/fixation.png","null","","test","","","","","",""
"245.20000004768372","1738972","pSARL_v2","pSARL_v2fll03svp","5c475608cae0ab000188cb6e","freq","img/orange_2bandit_a2.png","70","70","test","1","113","113","5","",""
"null","1739540","pSARL_v2","pSARL_v2fll03svp","5c475608cae0ab000188cb6e","freq_resp","img/orange_2bandit_a.png","70","70","test","","","","5","",""
"null","1739711","pSARL_v2","pSARL_v2fll03svp","5c475608cae0ab000188cb6e","fixation","img/fixation.png","null","","test","","","","","",""
"237.60000014305115","1739955","pSARL_v2","pSARL_v2fll03svp","5c475608cae0ab000188cb6e","freq","img/orange_2bandit_a2.png","70","70","test","1","114","114","5","",""
"null","1740536","pSARL_v2","pSARL_v2fll03svp","5c475608cae0ab000188cb6e","freq_resp","img/orange_2bandit_a.png","70","70","test","","","","5","",""
"null","1740704","pSARL_v2","pSARL_v2fll03svp","5c475608cae0ab000188cb6e","fixation","img/fixation.png","null","","test","","","","","",""
"440.7999999523163","1741152","pSARL_v2","pSARL_v2fll03svp","5c475608cae0ab000188cb6e","reward","img/slot.png","74","","test","","","","","",""
"null","1741914","pSARL_v2","pSARL_v2fll03svp","5c475608cae0ab000188cb6e","points","<div class=""veryhighPoints""> +1 </div>","null","na","test","","","","5","1","4"
"361.5","1742283","pSARL_v2","pSARL_v2fll03svp","5c475608cae0ab000188cb6e","freq","img/orange_2bandit_a2.png","70","70","test","1","115","115","6","",""
"null","1742737","pSARL_v2","pSARL_v2fll03svp","5c475608cae0ab000188cb6e","freq_resp","img/orange_2bandit_a.png","70","70","test","","","","6","",""
"null","1742892","pSARL_v2","pSARL_v2fll03svp","5c475608cae0ab000188cb6e","fixation","img/fixation.png","null","","test","","","","","",""
"298.40000009536743","1743196","pSARL_v2","pSARL_v2fll03svp","5c475608cae0ab000188cb6e","freq","img/orange_2bandit_a2.png","70","70","test","1","116","116","6","",""
"null","1743706","pSARL_v2","pSARL_v2fll03svp","5c475608cae0ab000188cb6e","freq_resp","img/orange_2bandit_a.png","70","70","test","","","","6","",""
"null","1743872","pSARL_v2","pSARL_v2fll03svp","5c475608cae0ab000188cb6e","fixation","img/fixation.png","null","","test","","","","","",""
"272.89999985694885","1744152","pSARL_v2","pSARL_v2fll03svp","5c475608cae0ab000188cb6e","freq","img/orange_2bandit_a2.png","70","70","test","1","117","117","6","",""
"null","1744687","pSARL_v2","pSARL_v2fll03svp","5c475608cae0ab000188cb6e","freq_resp","img/orange_2bandit_a.png","70","70","test","","","","6","",""
"null","1744856","pSARL_v2","pSARL_v2fll03svp","5c475608cae0ab000188cb6e","fixation","img/fixation.png","null","","test","","","","","",""
"251.40000009536743","1745115","pSARL_v2","pSARL_v2fll03svp","5c475608cae0ab000188cb6e","freq","img/orange_2bandit_a2.png","70","70","test","1","118","118","6","",""
"null","1745679","pSARL_v2","pSARL_v2fll03svp","5c475608cae0ab000188cb6e","freq_resp","img/orange_2bandit_a.png","70","70","test","","","","6","",""
"null","1745849","pSARL_v2","pSARL_v2fll03svp","5c475608cae0ab000188cb6e","fixation","img/fixation.png","null","","test","","","","","",""
"443.5","1746299","pSARL_v2","pSARL_v2fll03svp","5c475608cae0ab000188cb6e","infreq","img/green_2bandit_a2.png","68","68","test","1","119","119","6","",""
"null","1746663","pSARL_v2","pSARL_v2fll03svp","5c475608cae0ab000188cb6e","infreq_resp","img/green_2bandit_a.png","68","68","test","","","","6","",""
"null","1746821","pSARL_v2","pSARL_v2fll03svp","5c475608cae0ab000188cb6e","fixation","img/fixation.png","null","","test","","","","","",""
"384.40000009536743","1747212","pSARL_v2","pSARL_v2fll03svp","5c475608cae0ab000188cb6e","freq","img/orange_2bandit_a2.png","70","70","test","1","120","120","6","",""
"null","1747648","pSARL_v2","pSARL_v2fll03svp","5c475608cae0ab000188cb6e","freq_resp","img/orange_2bandit_a.png","70","70","test","","","","6","",""
"null","1747819","pSARL_v2","pSARL_v2fll03svp","5c475608cae0ab000188cb6e","fixation","img/fixation.png","null","","test","","","","","",""
"390.39999985694885","1748217","pSARL_v2","pSARL_v2fll03svp","5c475608cae0ab000188cb6e","freq","img/orange_2bandit_a2.png","70","70","test","1","121","121","6","",""
"null","1748639","pSARL_v2","pSARL_v2fll03svp","5c475608cae0ab000188cb6e","freq_resp","img/orange_2bandit_a.png","70","70","test","","","","6","",""
"null","1748797","pSARL_v2","pSARL_v2fll03svp","5c475608cae0ab000188cb6e","fixation","img/fixation.png","null","","test","","","","","",""
"329.59999990463257","1749133","pSARL_v2","pSARL_v2fll03svp","5c475608cae0ab000188cb6e","freq","img/orange_2bandit_a2.png","70","70","test","1","122","122","6","",""
"null","1749620","pSARL_v2","pSARL_v2fll03svp","5c475608cae0ab000188cb6e","freq_resp","img/orange_2bandit_a.png","70","70","test","","","","6","",""
"null","1749788","pSARL_v2","pSARL_v2fll03svp","5c475608cae0ab000188cb6e","fixation","img/fixation.png","null","","test","","","","","",""
"361.59999990463257","1750152","pSARL_v2","pSARL_v2fll03svp","5c475608cae0ab000188cb6e","freq","img/orange_2bandit_a2.png","70","70","test","1","123","123","6","",""
"null","1750598","pSARL_v2","pSARL_v2fll03svp","5c475608cae0ab000188cb6e","freq_resp","img/orange_2bandit_a.png","70","70","test","","","","6","",""
"null","1750769","pSARL_v2","pSARL_v2fll03svp","5c475608cae0ab000188cb6e","fixation","img/fixation.png","null","","test","","","","","",""
"355","1751131","pSARL_v2","pSARL_v2fll03svp","5c475608cae0ab000188cb6e","freq","img/orange_2bandit_a2.png","70","70","test","1","124","124","6","",""
"null","1751583","pSARL_v2","pSARL_v2fll03svp","5c475608cae0ab000188cb6e","freq_resp","img/orange_2bandit_a.png","70","70","test","","","","6","",""
"null","1751753","pSARL_v2","pSARL_v2fll03svp","5c475608cae0ab000188cb6e","fixation","img/fixation.png","null","","test","","","","","",""
"398.59999990463257","1752158","pSARL_v2","pSARL_v2fll03svp","5c475608cae0ab000188cb6e","freq","img/orange_2bandit_a2.png","70","70","test","1","125","125","6","",""
"null","1752563","pSARL_v2","pSARL_v2fll03svp","5c475608cae0ab000188cb6e","freq_resp","img/orange_2bandit_a.png","70","70","test","","","","6","",""
"null","1752724","pSARL_v2","pSARL_v2fll03svp","5c475608cae0ab000188cb6e","fixation","img/fixation.png","null","","test","","","","","",""
"373.2999999523163","1753104","pSARL_v2","pSARL_v2fll03svp","5c475608cae0ab000188cb6e","freq","img/orange_2bandit_a2.png","70","70","test","1","126","126","6","",""
"null","1753545","pSARL_v2","pSARL_v2fll03svp","5c475608cae0ab000188cb6e","freq_resp","img/orange_2bandit_a.png","70","70","test","","","","6","",""
"null","1753716","pSARL_v2","pSARL_v2fll03svp","5c475608cae0ab000188cb6e","fixation","img/fixation.png","null","","test","","","","","",""
"272","1753992","pSARL_v2","pSARL_v2fll03svp","5c475608cae0ab000188cb6e","freq","img/orange_2bandit_a2.png","70","70","test","1","127","127","6","",""
"null","1754540","pSARL_v2","pSARL_v2fll03svp","5c475608cae0ab000188cb6e","freq_resp","img/orange_2bandit_a.png","70","70","test","","","","6","",""
"null","1754710","pSARL_v2","pSARL_v2fll03svp","5c475608cae0ab000188cb6e","fixation","img/fixation.png","null","","test","","","","","",""
"237.29999995231628","1754954","pSARL_v2","pSARL_v2fll03svp","5c475608cae0ab000188cb6e","freq","img/orange_2bandit_a2.png","70","70","test","1","128","128","6","",""
"null","1755539","pSARL_v2","pSARL_v2fll03svp","5c475608cae0ab000188cb6e","freq_resp","img/orange_2bandit_a.png","70","70","test","","","","6","",""
"null","1755710","pSARL_v2","pSARL_v2fll03svp","5c475608cae0ab000188cb6e","fixation","img/fixation.png","null","","test","","","","","",""
"299.5","1756013","pSARL_v2","pSARL_v2fll03svp","5c475608cae0ab000188cb6e","freq","img/orange_2bandit_a2.png","70","70","test","1","129","129","6","",""
"null","1756518","pSARL_v2","pSARL_v2fll03svp","5c475608cae0ab000188cb6e","freq_resp","img/orange_2bandit_a.png","70","70","test","","","","6","",""
"null","1756675","pSARL_v2","pSARL_v2fll03svp","5c475608cae0ab000188cb6e","fixation","img/fixation.png","null","","test","","","","","",""
"243.89999985694885","1756925","pSARL_v2","pSARL_v2fll03svp","5c475608cae0ab000188cb6e","freq","img/orange_2bandit_a2.png","70","70","test","1","130","130","6","",""
"null","1757491","pSARL_v2","pSARL_v2fll03svp","5c475608cae0ab000188cb6e","freq_resp","img/orange_2bandit_a.png","70","70","test","","","","6","",""
"null","1757659","pSARL_v2","pSARL_v2fll03svp","5c475608cae0ab000188cb6e","fixation","img/fixation.png","null","","test","","","","","",""
"398.40000009536743","1758064","pSARL_v2","pSARL_v2fll03svp","5c475608cae0ab000188cb6e","infreq","img/green_2bandit_a2.png","68","68","test","1","131","131","6","",""
"null","1758480","pSARL_v2","pSARL_v2fll03svp","5c475608cae0ab000188cb6e","infreq_resp","img/green_2bandit_a.png","68","68","test","","","","6","",""
"null","1758635","pSARL_v2","pSARL_v2fll03svp","5c475608cae0ab000188cb6e","fixation","img/fixation.png","null","","test","","","","","",""
"384.60000014305115","1759022","pSARL_v2","pSARL_v2fll03svp","5c475608cae0ab000188cb6e","freq","img/orange_2bandit_a2.png","70","70","test","1","132","132","6","",""
"null","1759448","pSARL_v2","pSARL_v2fll03svp","5c475608cae0ab000188cb6e","freq_resp","img/orange_2bandit_a.png","70","70","test","","","","6","",""
"null","1759619","pSARL_v2","pSARL_v2fll03svp","5c475608cae0ab000188cb6e","fixation","img/fixation.png","null","","test","","","","","",""
"338.39999985694885","1759964","pSARL_v2","pSARL_v2fll03svp","5c475608cae0ab000188cb6e","freq","img/orange_2bandit_a2.png","70","70","test","1","133","133","6","",""
"null","1760431","pSARL_v2","pSARL_v2fll03svp","5c475608cae0ab000188cb6e","freq_resp","img/orange_2bandit_a.png","70","70","test","","","","6","",""
"null","1760599","pSARL_v2","pSARL_v2fll03svp","5c475608cae0ab000188cb6e","fixation","img/fixation.png","null","","test","","","","","",""
"294.90000009536743","1760900","pSARL_v2","pSARL_v2fll03svp","5c475608cae0ab000188cb6e","freq","img/orange_2bandit_a2.png","70","70","test","1","134","134","6","",""
"null","1761412","pSARL_v2","pSARL_v2fll03svp","5c475608cae0ab000188cb6e","freq_resp","img/orange_2bandit_a.png","70","70","test","","","","6","",""
"null","1761569","pSARL_v2","pSARL_v2fll03svp","5c475608cae0ab000188cb6e","fixation","img/fixation.png","null","","test","","","","","",""
"234.79999995231628","1761811","pSARL_v2","pSARL_v2fll03svp","5c475608cae0ab000188cb6e","freq","img/orange_2bandit_a2.png","70","70","test","1","135","135","6","",""
"null","1762395","pSARL_v2","pSARL_v2fll03svp","5c475608cae0ab000188cb6e","freq_resp","img/orange_2bandit_a.png","70","70","test","","","","6","",""
"null","1762561","pSARL_v2","pSARL_v2fll03svp","5c475608cae0ab000188cb6e","fixation","img/fixation.png","null","","test","","","","","",""
"192.40000009536743","1762759","pSARL_v2","pSARL_v2fll03svp","5c475608cae0ab000188cb6e","freq","img/orange_2bandit_a2.png","70","70","test","1","136","136","6","",""
"null","1763372","pSARL_v2","pSARL_v2fll03svp","5c475608cae0ab000188cb6e","freq_resp","img/orange_2bandit_a.png","70","70","test","","","","6","",""
"null","1763542","pSARL_v2","pSARL_v2fll03svp","5c475608cae0ab000188cb6e","fixation","img/fixation.png","null","","test","","","","","",""
"1666.7999999523163","1765215","pSARL_v2","pSARL_v2fll03svp","5c475608cae0ab000188cb6e","reward","img/slot.png","74","","test","","","","","",""
"null","1765975","pSARL_v2","pSARL_v2fll03svp","5c475608cae0ab000188cb6e","points","<div class=""verylowPoints""> -7 </div>","null","na","test","","","","6","-7","5"
"500.09999990463257","1766481","pSARL_v2","pSARL_v2fll03svp","5c475608cae0ab000188cb6e","freq","img/orange_2bandit_a2.png","70","70","test","1","137","137","7","",""
"null","1766788","pSARL_v2","pSARL_v2fll03svp","5c475608cae0ab000188cb6e","freq_resp","img/orange_2bandit_a.png","70","70","test","","","","7","",""
"null","1766958","pSARL_v2","pSARL_v2fll03svp","5c475608cae0ab000188cb6e","fixation","img/fixation.png","null","","test","","","","","",""
"316.7000000476837","1767277","pSARL_v2","pSARL_v2fll03svp","5c475608cae0ab000188cb6e","freq","img/orange_2bandit_a2.png","70","70","test","1","138","138","7","",""
"null","1767771","pSARL_v2","pSARL_v2fll03svp","5c475608cae0ab000188cb6e","freq_resp","img/orange_2bandit_a.png","70","70","test","","","","7","",""
"null","1767942","pSARL_v2","pSARL_v2fll03svp","5c475608cae0ab000188cb6e","fixation","img/fixation.png","null","","test","","","","","",""
"303.2999999523163","1768249","pSARL_v2","pSARL_v2fll03svp","5c475608cae0ab000188cb6e","freq","img/orange_2bandit_a2.png","70","70","test","1","139","139","7","",""
"null","1768755","pSARL_v2","pSARL_v2fll03svp","5c475608cae0ab000188cb6e","freq_resp","img/orange_2bandit_a.png","70","70","test","","","","7","",""
"null","1768927","pSARL_v2","pSARL_v2fll03svp","5c475608cae0ab000188cb6e","fixation","img/fixation.png","null","","test","","","","","",""
"259","1769191","pSARL_v2","pSARL_v2fll03svp","5c475608cae0ab000188cb6e","freq","img/orange_2bandit_a2.png","70","70","test","1","140","140","7","",""
"null","1769751","pSARL_v2","pSARL_v2fll03svp","5c475608cae0ab000188cb6e","freq_resp","img/orange_2bandit_a.png","70","70","test","","","","7","",""
"null","1769910","pSARL_v2","pSARL_v2fll03svp","5c475608cae0ab000188cb6e","fixation","img/fixation.png","null","","test","","","","","",""
"367.40000009536743","1770284","pSARL_v2","pSARL_v2fll03svp","5c475608cae0ab000188cb6e","freq","img/orange_2bandit_a2.png","70","70","test","1","141","141","7","",""
"null","1770726","pSARL_v2","pSARL_v2fll03svp","5c475608cae0ab000188cb6e","freq_resp","img/orange_2bandit_a.png","70","70","test","","","","7","",""
"null","1770883","pSARL_v2","pSARL_v2fll03svp","5c475608cae0ab000188cb6e","fixation","img/fixation.png","null","","test","","","","","",""
"348.5","1771235","pSARL_v2","pSARL_v2fll03svp","5c475608cae0ab000188cb6e","freq","img/orange_2bandit_a2.png","70","70","test","1","142","142","7","",""
"null","1771704","pSARL_v2","pSARL_v2fll03svp","5c475608cae0ab000188cb6e","freq_resp","img/orange_2bandit_a.png","70","70","test","","","","7","",""
"null","1771874","pSARL_v2","pSARL_v2fll03svp","5c475608cae0ab000188cb6e","fixation","img/fixation.png","null","","test","","","","","",""
"292.5","1772170","pSARL_v2","pSARL_v2fll03svp","5c475608cae0ab000188cb6e","freq","img/orange_2bandit_a2.png","70","70","test","1","143","143","7","",""
"null","1772694","pSARL_v2","pSARL_v2fll03svp","5c475608cae0ab000188cb6e","freq_resp","img/orange_2bandit_a.png","70","70","test","","","","7","",""
"null","1772850","pSARL_v2","pSARL_v2fll03svp","5c475608cae0ab000188cb6e","fixation","img/fixation.png","null","","test","","","","","",""
"445.7000000476837","1773303","pSARL_v2","pSARL_v2fll03svp","5c475608cae0ab000188cb6e","infreq","img/green_2bandit_a2.png","68","68","test","1","144","144","7","",""
"null","1773676","pSARL_v2","pSARL_v2fll03svp","5c475608cae0ab000188cb6e","infreq_resp","img/green_2bandit_a.png","68","68","test","","","","7","",""
"null","1773834","pSARL_v2","pSARL_v2fll03svp","5c475608cae0ab000188cb6e","fixation","img/fixation.png","null","","test","","","","","",""
"518.3999998569489","1774358","pSARL_v2","pSARL_v2fll03svp","5c475608cae0ab000188cb6e","infreq","img/green_2bandit_a2.png","68","68","test","1","145","145","7","",""
"null","1774660","pSARL_v2","pSARL_v2fll03svp","5c475608cae0ab000188cb6e","infreq_resp","img/green_2bandit_a.png","68","68","test","","","","7","",""
"null","1774817","pSARL_v2","pSARL_v2fll03svp","5c475608cae0ab000188cb6e","fixation","img/fixation.png","null","","test","","","","","",""
"697.5","1775520","pSARL_v2","pSARL_v2fll03svp","5c475608cae0ab000188cb6e","freq","img/orange_2bandit_a2.png","70","70","test","1","146","146","7","",""
"null","1775639","pSARL_v2","pSARL_v2fll03svp","5c475608cae0ab000188cb6e","freq_resp","img/orange_2bandit_a.png","70","70","test","","","","7","",""
"null","1775811","pSARL_v2","pSARL_v2fll03svp","5c475608cae0ab000188cb6e","fixation","img/fixation.png","null","","test","","","","","",""
"487.39999985694885","1776301","pSARL_v2","pSARL_v2fll03svp","5c475608cae0ab000188cb6e","freq","img/orange_2bandit_a2.png","70","70","test","1","147","147","7","",""
"null","1776616","pSARL_v2","pSARL_v2fll03svp","5c475608cae0ab000188cb6e","freq_resp","img/orange_2bandit_a.png","70","70","test","","","","7","",""
"null","1776776","pSARL_v2","pSARL_v2fll03svp","5c475608cae0ab000188cb6e","fixation","img/fixation.png","null","","test","","","","","",""
"376.7999999523163","1777155","pSARL_v2","pSARL_v2fll03svp","5c475608cae0ab000188cb6e","freq","img/orange_2bandit_a2.png","70","70","test","1","148","148","7","",""
"null","1777597","pSARL_v2","pSARL_v2fll03svp","5c475608cae0ab000188cb6e","freq_resp","img/orange_2bandit_a.png","70","70","test","","","","7","",""
"null","1777750","pSARL_v2","pSARL_v2fll03svp","5c475608cae0ab000188cb6e","fixation","img/fixation.png","null","","test","","","","","",""
"289.7999999523163","1778047","pSARL_v2","pSARL_v2fll03svp","5c475608cae0ab000188cb6e","freq","img/orange_2bandit_a2.png","70","70","test","1","149","149","7","",""
"null","1778575","pSARL_v2","pSARL_v2fll03svp","5c475608cae0ab000188cb6e","freq_resp","img/orange_2bandit_a.png","70","70","test","","","","7","",""
"null","1778732","pSARL_v2","pSARL_v2fll03svp","5c475608cae0ab000188cb6e","fixation","img/fixation.png","null","","test","","","","","",""
"316.7000000476837","1779056","pSARL_v2","pSARL_v2fll03svp","5c475608cae0ab000188cb6e","freq","img/orange_2bandit_a2.png","70","70","test","1","150","150","7","",""
"null","1779555","pSARL_v2","pSARL_v2fll03svp","5c475608cae0ab000188cb6e","freq_resp","img/orange_2bandit_a.png","70","70","test","","","","7","",""
"null","1779714","pSARL_v2","pSARL_v2fll03svp","5c475608cae0ab000188cb6e","fixation","img/fixation.png","null","","test","","","","","",""
"275.40000009536743","1779996","pSARL_v2","pSARL_v2fll03svp","5c475608cae0ab000188cb6e","freq","img/orange_2bandit_a2.png","70","70","test","1","151","151","7","",""
"null","1780535","pSARL_v2","pSARL_v2fll03svp","5c475608cae0ab000188cb6e","freq_resp","img/orange_2bandit_a.png","70","70","test","","","","7","",""
"null","1780693","pSARL_v2","pSARL_v2fll03svp","5c475608cae0ab000188cb6e","fixation","img/fixation.png","null","","test","","","","","",""
"332.39999985694885","1781033","pSARL_v2","pSARL_v2fll03svp","5c475608cae0ab000188cb6e","freq","img/orange_2bandit_a2.png","70","70","test","1","152","152","7","",""
"null","1781516","pSARL_v2","pSARL_v2fll03svp","5c475608cae0ab000188cb6e","freq_resp","img/orange_2bandit_a.png","70","70","test","","","","7","",""
"null","1781687","pSARL_v2","pSARL_v2fll03svp","5c475608cae0ab000188cb6e","fixation","img/fixation.png","null","","test","","","","","",""
"302.30000019073486","1781996","pSARL_v2","pSARL_v2fll03svp","5c475608cae0ab000188cb6e","freq","img/orange_2bandit_a2.png","70","70","test","1","153","153","7","",""
"null","1782506","pSARL_v2","pSARL_v2fll03svp","5c475608cae0ab000188cb6e","freq_resp","img/orange_2bandit_a.png","70","70","test","","","","7","",""
"null","1782677","pSARL_v2","pSARL_v2fll03svp","5c475608cae0ab000188cb6e","fixation","img/fixation.png","null","","test","","","","","",""
"303","1782987","pSARL_v2","pSARL_v2fll03svp","5c475608cae0ab000188cb6e","freq","img/orange_2bandit_a2.png","70","70","test","1","154","154","7","",""
"null","1783501","pSARL_v2","pSARL_v2fll03svp","5c475608cae0ab000188cb6e","freq_resp","img/orange_2bandit_a.png","70","70","test","","","","7","",""
"null","1783667","pSARL_v2","pSARL_v2fll03svp","5c475608cae0ab000188cb6e","fixation","img/fixation.png","null","","test","","","","","",""
"285.39999985694885","1783956","pSARL_v2","pSARL_v2fll03svp","5c475608cae0ab000188cb6e","freq","img/orange_2bandit_a2.png","70","70","test","1","155","155","7","",""
"null","1784481","pSARL_v2","pSARL_v2fll03svp","5c475608cae0ab000188cb6e","freq_resp","img/orange_2bandit_a.png","70","70","test","","","","7","",""
"null","1784648","pSARL_v2","pSARL_v2fll03svp","5c475608cae0ab000188cb6e","fixation","img/fixation.png","null","","test","","","","","",""
"285.60000014305115","1784937","pSARL_v2","pSARL_v2fll03svp","5c475608cae0ab000188cb6e","freq","img/orange_2bandit_a2.png","70","70","test","1","156","156","7","",""
"null","1785471","pSARL_v2","pSARL_v2fll03svp","5c475608cae0ab000188cb6e","freq_resp","img/orange_2bandit_a.png","70","70","test","","","","7","",""
"null","1785640","pSARL_v2","pSARL_v2fll03svp","5c475608cae0ab000188cb6e","fixation","img/fixation.png","null","","test","","","","","",""
"274.7000000476837","1785920","pSARL_v2","pSARL_v2fll03svp","5c475608cae0ab000188cb6e","freq","img/orange_2bandit_a2.png","70","70","test","1","157","157","7","",""
"null","1786458","pSARL_v2","pSARL_v2fll03svp","5c475608cae0ab000188cb6e","freq_resp","img/orange_2bandit_a.png","70","70","test","","","","7","",""
"null","1786627","pSARL_v2","pSARL_v2fll03svp","5c475608cae0ab000188cb6e","fixation","img/fixation.png","null","","test","","","","","",""
"328","1786962","pSARL_v2","pSARL_v2fll03svp","5c475608cae0ab000188cb6e","freq","img/orange_2bandit_a2.png","70","70","test","1","158","158","7","",""
"null","1787454","pSARL_v2","pSARL_v2fll03svp","5c475608cae0ab000188cb6e","freq_resp","img/orange_2bandit_a.png","70","70","test","","","","7","",""
"null","1787620","pSARL_v2","pSARL_v2fll03svp","5c475608cae0ab000188cb6e","fixation","img/fixation.png","null","","test","","","","","",""
"289.7999999523163","1787912","pSARL_v2","pSARL_v2fll03svp","5c475608cae0ab000188cb6e","freq","img/orange_2bandit_a2.png","70","70","test","1","159","159","7","",""
"null","1788427","pSARL_v2","pSARL_v2fll03svp","5c475608cae0ab000188cb6e","freq_resp","img/orange_2bandit_a.png","70","70","test","","","","7","",""
"null","1788587","pSARL_v2","pSARL_v2fll03svp","5c475608cae0ab000188cb6e","fixation","img/fixation.png","null","","test","","","","","",""
"259.39999985694885","1788851","pSARL_v2","pSARL_v2fll03svp","5c475608cae0ab000188cb6e","freq","img/orange_2bandit_a2.png","70","70","test","1","160","160","7","",""
"null","1789407","pSARL_v2","pSARL_v2fll03svp","5c475608cae0ab000188cb6e","freq_resp","img/orange_2bandit_a.png","70","70","test","","","","7","",""
"null","1789565","pSARL_v2","pSARL_v2fll03svp","5c475608cae0ab000188cb6e","fixation","img/fixation.png","null","","test","","","","","",""
"472.90000009536743","1790041","pSARL_v2","pSARL_v2fll03svp","5c475608cae0ab000188cb6e","reward","img/slot.png","74","","test","","","","","",""
"null","1790804","pSARL_v2","pSARL_v2fll03svp","5c475608cae0ab000188cb6e","points","<div class=""verylowPoints""> -6 </div>","null","na","test","","","","7","-6","6"
"392.7000000476837","1791203","pSARL_v2","pSARL_v2fll03svp","5c475608cae0ab000188cb6e","freq","img/orange_2bandit_a2.png","70","70","test","1","161","161","8","",""
"null","1791627","pSARL_v2","pSARL_v2fll03svp","5c475608cae0ab000188cb6e","freq_resp","img/orange_2bandit_a.png","70","70","test","","","","8","",""
"null","1791785","pSARL_v2","pSARL_v2fll03svp","5c475608cae0ab000188cb6e","fixation","img/fixation.png","null","","test","","","","","",""
"277.2000000476837","1792069","pSARL_v2","pSARL_v2fll03svp","5c475608cae0ab000188cb6e","freq","img/orange_2bandit_a2.png","70","70","test","1","162","162","8","",""
"null","1792613","pSARL_v2","pSARL_v2fll03svp","5c475608cae0ab000188cb6e","freq_resp","img/orange_2bandit_a.png","70","70","test","","","","8","",""
"null","1792784","pSARL_v2","pSARL_v2fll03svp","5c475608cae0ab000188cb6e","fixation","img/fixation.png","null","","test","","","","","",""
"274.5","1793063","pSARL_v2","pSARL_v2fll03svp","5c475608cae0ab000188cb6e","freq","img/orange_2bandit_a2.png","70","70","test","1","163","163","8","",""
"null","1793600","pSARL_v2","pSARL_v2fll03svp","5c475608cae0ab000188cb6e","freq_resp","img/orange_2bandit_a.png","70","70","test","","","","8","",""
"null","1793756","pSARL_v2","pSARL_v2fll03svp","5c475608cae0ab000188cb6e","fixation","img/fixation.png","null","","test","","","","","",""
"348.2999999523163","1794110","pSARL_v2","pSARL_v2fll03svp","5c475608cae0ab000188cb6e","freq","img/orange_2bandit_a2.png","70","70","test","1","164","164","8","",""
"null","1794569","pSARL_v2","pSARL_v2fll03svp","5c475608cae0ab000188cb6e","freq_resp","img/orange_2bandit_a.png","70","70","test","","","","8","",""
"null","1794739","pSARL_v2","pSARL_v2fll03svp","5c475608cae0ab000188cb6e","fixation","img/fixation.png","null","","test","","","","","",""
"245.60000014305115","1794987","pSARL_v2","pSARL_v2fll03svp","5c475608cae0ab000188cb6e","freq","img/orange_2bandit_a2.png","70","70","test","1","165","165","8","",""
"null","1795562","pSARL_v2","pSARL_v2fll03svp","5c475608cae0ab000188cb6e","freq_resp","img/orange_2bandit_a.png","70","70","test","","","","8","",""
"null","1795719","pSARL_v2","pSARL_v2fll03svp","5c475608cae0ab000188cb6e","fixation","img/fixation.png","null","","test","","","","","",""
"431.09999990463257","1796158","pSARL_v2","pSARL_v2fll03svp","5c475608cae0ab000188cb6e","infreq","img/green_2bandit_a2.png","68","68","test","1","166","166","8","",""
"null","1796546","pSARL_v2","pSARL_v2fll03svp","5c475608cae0ab000188cb6e","infreq_resp","img/green_2bandit_a.png","68","68","test","","","","8","",""
"null","1796714","pSARL_v2","pSARL_v2fll03svp","5c475608cae0ab000188cb6e","fixation","img/fixation.png","null","","test","","","","","",""
"350.69999980926514","1797071","pSARL_v2","pSARL_v2fll03svp","5c475608cae0ab000188cb6e","freq","img/orange_2bandit_a2.png","70","70","test","1","167","167","8","",""
"null","1797536","pSARL_v2","pSARL_v2fll03svp","5c475608cae0ab000188cb6e","freq_resp","img/orange_2bandit_a.png","70","70","test","","","","8","",""
"null","1797702","pSARL_v2","pSARL_v2fll03svp","5c475608cae0ab000188cb6e","fixation","img/fixation.png","null","","test","","","","","",""
"275.60000014305115","1797980","pSARL_v2","pSARL_v2fll03svp","5c475608cae0ab000188cb6e","freq","img/orange_2bandit_a2.png","70","70","test","1","168","168","8","",""
"null","1798516","pSARL_v2","pSARL_v2fll03svp","5c475608cae0ab000188cb6e","freq_resp","img/orange_2bandit_a.png","70","70","test","","","","8","",""
"null","1798682","pSARL_v2","pSARL_v2fll03svp","5c475608cae0ab000188cb6e","fixation","img/fixation.png","null","","test","","","","","",""
"255.10000014305115","1798943","pSARL_v2","pSARL_v2fll03svp","5c475608cae0ab000188cb6e","freq","img/orange_2bandit_a2.png","70","70","test","1","169","169","8","",""
"null","1799491","pSARL_v2","pSARL_v2fll03svp","5c475608cae0ab000188cb6e","freq_resp","img/orange_2bandit_a.png","70","70","test","","","","8","",""
"null","1799652","pSARL_v2","pSARL_v2fll03svp","5c475608cae0ab000188cb6e","fixation","img/fixation.png","null","","test","","","","","",""
"269.5","1799928","pSARL_v2","pSARL_v2fll03svp","5c475608cae0ab000188cb6e","freq","img/orange_2bandit_a2.png","70","70","test","1","170","170","8","",""
"null","1800472","pSARL_v2","pSARL_v2fll03svp","5c475608cae0ab000188cb6e","freq_resp","img/orange_2bandit_a.png","70","70","test","","","","8","",""
"null","1800640","pSARL_v2","pSARL_v2fll03svp","5c475608cae0ab000188cb6e","fixation","img/fixation.png","null","","test","","","","","",""
"273.59999990463257","1800916","pSARL_v2","pSARL_v2fll03svp","5c475608cae0ab000188cb6e","freq","img/orange_2bandit_a2.png","70","70","test","1","171","171","8","",""
"null","1801451","pSARL_v2","pSARL_v2fll03svp","5c475608cae0ab000188cb6e","freq_resp","img/orange_2bandit_a.png","70","70","test","","","","8","",""
"null","1801608","pSARL_v2","pSARL_v2fll03svp","5c475608cae0ab000188cb6e","fixation","img/fixation.png","null","","test","","","","","",""
"440.5","1802056","pSARL_v2","pSARL_v2fll03svp","5c475608cae0ab000188cb6e","infreq","img/green_2bandit_a2.png","68","68","test","1","172","172","8","",""
"null","1802429","pSARL_v2","pSARL_v2fll03svp","5c475608cae0ab000188cb6e","infreq_resp","img/green_2bandit_a.png","68","68","test","","","","8","",""
"null","1802588","pSARL_v2","pSARL_v2fll03svp","5c475608cae0ab000188cb6e","fixation","img/fixation.png","null","","test","","","","","",""
"362.7000000476837","1802958","pSARL_v2","pSARL_v2fll03svp","5c475608cae0ab000188cb6e","freq","img/orange_2bandit_a2.png","70","70","test","1","173","173","8","",""
"null","1803411","pSARL_v2","pSARL_v2fll03svp","5c475608cae0ab000188cb6e","freq_resp","img/orange_2bandit_a.png","70","70","test","","","","8","",""
"null","1803580","pSARL_v2","pSARL_v2fll03svp","5c475608cae0ab000188cb6e","fixation","img/fixation.png","null","","test","","","","","",""
"282.2000000476837","1803869","pSARL_v2","pSARL_v2fll03svp","5c475608cae0ab000188cb6e","freq","img/orange_2bandit_a2.png","70","70","test","1","174","174","8","",""
"null","1804409","pSARL_v2","pSARL_v2fll03svp","5c475608cae0ab000188cb6e","freq_resp","img/orange_2bandit_a.png","70","70","test","","","","8","",""
"null","1804577","pSARL_v2","pSARL_v2fll03svp","5c475608cae0ab000188cb6e","fixation","img/fixation.png","null","","test","","","","","",""
"257.2999999523163","1804841","pSARL_v2","pSARL_v2fll03svp","5c475608cae0ab000188cb6e","freq","img/orange_2bandit_a2.png","70","70","test","1","175","175","8","",""
"null","1805401","pSARL_v2","pSARL_v2fll03svp","5c475608cae0ab000188cb6e","freq_resp","img/orange_2bandit_a.png","70","70","test","","","","8","",""
"null","1805557","pSARL_v2","pSARL_v2fll03svp","5c475608cae0ab000188cb6e","fixation","img/fixation.png","null","","test","","","","","",""
"389.7000000476837","1805953","pSARL_v2","pSARL_v2fll03svp","5c475608cae0ab000188cb6e","freq","img/orange_2bandit_a2.png","70","70","test","1","176","176","8","",""
"null","1806382","pSARL_v2","pSARL_v2fll03svp","5c475608cae0ab000188cb6e","freq_resp","img/orange_2bandit_a.png","70","70","test","","","","8","",""
"null","1806539","pSARL_v2","pSARL_v2fll03svp","5c475608cae0ab000188cb6e","fixation","img/fixation.png","null","","test","","","","","",""
"292.7000000476837","1806834","pSARL_v2","pSARL_v2fll03svp","5c475608cae0ab000188cb6e","freq","img/orange_2bandit_a2.png","70","70","test","1","177","177","8","",""
"null","1807344","pSARL_v2","pSARL_v2fll03svp","5c475608cae0ab000188cb6e","freq_resp","img/orange_2bandit_a.png","70","70","test","","","","8","",""
"null","1807499","pSARL_v2","pSARL_v2fll03svp","5c475608cae0ab000188cb6e","fixation","img/fixation.png","null","","test","","","","","",""
"377.40000009536743","1807879","pSARL_v2","pSARL_v2fll03svp","5c475608cae0ab000188cb6e","freq","img/orange_2bandit_a2.png","70","70","test","1","178","178","8","",""
"null","1808308","pSARL_v2","pSARL_v2fll03svp","5c475608cae0ab000188cb6e","freq_resp","img/orange_2bandit_a.png","70","70","test","","","","8","",""
"null","1808473","pSARL_v2","pSARL_v2fll03svp","5c475608cae0ab000188cb6e","fixation","img/fixation.png","null","","test","","","","","",""
"241.29999995231628","1808716","pSARL_v2","pSARL_v2fll03svp","5c475608cae0ab000188cb6e","freq","img/orange_2bandit_a2.png","70","70","test","1","179","179","8","",""
"null","1809283","pSARL_v2","pSARL_v2fll03svp","5c475608cae0ab000188cb6e","freq_resp","img/orange_2bandit_a.png","70","70","test","","","","8","",""
"null","1809439","pSARL_v2","pSARL_v2fll03svp","5c475608cae0ab000188cb6e","fixation","img/fixation.png","null","","test","","","","","",""
"272.09999990463257","1809717","pSARL_v2","pSARL_v2fll03svp","5c475608cae0ab000188cb6e","freq","img/orange_2bandit_a2.png","70","70","test","1","180","180","8","",""
"null","1810262","pSARL_v2","pSARL_v2fll03svp","5c475608cae0ab000188cb6e","freq_resp","img/orange_2bandit_a.png","70","70","test","","","","8","",""
"null","1810433","pSARL_v2","pSARL_v2fll03svp","5c475608cae0ab000188cb6e","fixation","img/fixation.png","null","","test","","","","","",""
"292","1810733","pSARL_v2","pSARL_v2fll03svp","5c475608cae0ab000188cb6e","freq","img/orange_2bandit_a2.png","70","70","test","1","181","181","8","",""
"null","1811263","pSARL_v2","pSARL_v2fll03svp","5c475608cae0ab000188cb6e","freq_resp","img/orange_2bandit_a.png","70","70","test","","","","8","",""
"null","1811432","pSARL_v2","pSARL_v2fll03svp","5c475608cae0ab000188cb6e","fixation","img/fixation.png","null","","test","","","","","",""
"298.89999985694885","1811737","pSARL_v2","pSARL_v2fll03svp","5c475608cae0ab000188cb6e","freq","img/orange_2bandit_a2.png","70","70","test","1","182","182","8","",""
"null","1812252","pSARL_v2","pSARL_v2fll03svp","5c475608cae0ab000188cb6e","freq_resp","img/orange_2bandit_a.png","70","70","test","","","","8","",""
"null","1812410","pSARL_v2","pSARL_v2fll03svp","5c475608cae0ab000188cb6e","fixation","img/fixation.png","null","","test","","","","","",""
"253.79999995231628","1812667","pSARL_v2","pSARL_v2fll03svp","5c475608cae0ab000188cb6e","freq","img/orange_2bandit_a2.png","70","70","test","1","183","183","8","",""
"null","1813235","pSARL_v2","pSARL_v2fll03svp","5c475608cae0ab000188cb6e","freq_resp","img/orange_2bandit_a.png","70","70","test","","","","8","",""
"null","1813405","pSARL_v2","pSARL_v2fll03svp","5c475608cae0ab000188cb6e","fixation","img/fixation.png","null","","test","","","","","",""
"452.09999990463257","1813864","pSARL_v2","pSARL_v2fll03svp","5c475608cae0ab000188cb6e","reward","img/slot.png","74","","test","","","","","",""
"null","1814632","pSARL_v2","pSARL_v2fll03svp","5c475608cae0ab000188cb6e","points","<div class=""verylowPoints""> -4 </div>","null","na","test","","","","8","-4","7"
"607.5","1815246","pSARL_v2","pSARL_v2fll03svp","5c475608cae0ab000188cb6e","freq","img/orange_2bandit_a2.png","70","70","test","1","184","184","9","",""
"null","1815458","pSARL_v2","pSARL_v2fll03svp","5c475608cae0ab000188cb6e","freq_resp","img/orange_2bandit_a.png","70","70","test","","","","9","",""
"null","1815629","pSARL_v2","pSARL_v2fll03svp","5c475608cae0ab000188cb6e","fixation","img/fixation.png","null","","test","","","","","",""
"395.60000014305115","1816032","pSARL_v2","pSARL_v2fll03svp","5c475608cae0ab000188cb6e","freq","img/orange_2bandit_a2.png","70","70","test","1","185","185","9","",""
"null","1816448","pSARL_v2","pSARL_v2fll03svp","5c475608cae0ab000188cb6e","freq_resp","img/orange_2bandit_a.png","70","70","test","","","","9","",""
"null","1816618","pSARL_v2","pSARL_v2fll03svp","5c475608cae0ab000188cb6e","fixation","img/fixation.png","null","","test","","","","","",""
"299.7999999523163","1816924","pSARL_v2","pSARL_v2fll03svp","5c475608cae0ab000188cb6e","freq","img/orange_2bandit_a2.png","70","70","test","1","186","186","9","",""
"null","1817444","pSARL_v2","pSARL_v2fll03svp","5c475608cae0ab000188cb6e","freq_resp","img/orange_2bandit_a.png","70","70","test","","","","9","",""
"null","1817614","pSARL_v2","pSARL_v2fll03svp","5c475608cae0ab000188cb6e","fixation","img/fixation.png","null","","test","","","","","",""
"343.7000000476837","1817965","pSARL_v2","pSARL_v2fll03svp","5c475608cae0ab000188cb6e","freq","img/orange_2bandit_a2.png","70","70","test","1","187","187","9","",""
"null","1818439","pSARL_v2","pSARL_v2fll03svp","5c475608cae0ab000188cb6e","freq_resp","img/orange_2bandit_a.png","70","70","test","","","","9","",""
"null","1818606","pSARL_v2","pSARL_v2fll03svp","5c475608cae0ab000188cb6e","fixation","img/fixation.png","null","","test","","","","","",""
"239.60000014305115","1818852","pSARL_v2","pSARL_v2fll03svp","5c475608cae0ab000188cb6e","freq","img/orange_2bandit_a2.png","70","70","test","1","188","188","9","",""
"null","1819431","pSARL_v2","pSARL_v2fll03svp","5c475608cae0ab000188cb6e","freq_resp","img/orange_2bandit_a.png","70","70","test","","","","9","",""
"null","1819584","pSARL_v2","pSARL_v2fll03svp","5c475608cae0ab000188cb6e","fixation","img/fixation.png","null","","test","","","","","",""
"302","1819892","pSARL_v2","pSARL_v2fll03svp","5c475608cae0ab000188cb6e","freq","img/orange_2bandit_a2.png","70","70","test","1","189","189","9","",""
"null","1820394","pSARL_v2","pSARL_v2fll03svp","5c475608cae0ab000188cb6e","freq_resp","img/orange_2bandit_a.png","70","70","test","","","","9","",""
"null","1820553","pSARL_v2","pSARL_v2fll03svp","5c475608cae0ab000188cb6e","fixation","img/fixation.png","null","","test","","","","","",""
"373.59999990463257","1820929","pSARL_v2","pSARL_v2fll03svp","5c475608cae0ab000188cb6e","freq","img/orange_2bandit_a2.png","70","70","test","1","190","190","9","",""
"null","1821362","pSARL_v2","pSARL_v2fll03svp","5c475608cae0ab000188cb6e","freq_resp","img/orange_2bandit_a.png","70","70","test","","","","9","",""
"null","1821533","pSARL_v2","pSARL_v2fll03svp","5c475608cae0ab000188cb6e","fixation","img/fixation.png","null","","test","","","","","",""
"332.80000019073486","1821873","pSARL_v2","pSARL_v2fll03svp","5c475608cae0ab000188cb6e","infreq","img/green_2bandit_a2.png","70","68","test","0","191","191","9","",""
"null","1822361","pSARL_v2","pSARL_v2fll03svp","5c475608cae0ab000188cb6e","infreq_resp","img/green_2bandit_a.png","70","68","test","","","","9","",""
"null","1822531","pSARL_v2","pSARL_v2fll03svp","5c475608cae0ab000188cb6e","fixation","img/fixation.png","null","","test","","","","","",""
"434.90000009536743","1822970","pSARL_v2","pSARL_v2fll03svp","5c475608cae0ab000188cb6e","freq","img/orange_2bandit_a2.png","70","70","test","1","192","192","9","",""
"null","1823356","pSARL_v2","pSARL_v2fll03svp","5c475608cae0ab000188cb6e","freq_resp","img/orange_2bandit_a.png","70","70","test","","","","9","",""
"null","1823527","pSARL_v2","pSARL_v2fll03svp","5c475608cae0ab000188cb6e","fixation","img/fixation.png","null","","test","","","","","",""
"355.2999999523163","1823889","pSARL_v2","pSARL_v2fll03svp","5c475608cae0ab000188cb6e","freq","img/orange_2bandit_a2.png","70","70","test","1","193","193","9","",""
"null","1824353","pSARL_v2","pSARL_v2fll03svp","5c475608cae0ab000188cb6e","freq_resp","img/orange_2bandit_a.png","70","70","test","","","","9","",""
"null","1824525","pSARL_v2","pSARL_v2fll03svp","5c475608cae0ab000188cb6e","fixation","img/fixation.png","null","","test","","","","","",""
"273.39999985694885","1824802","pSARL_v2","pSARL_v2fll03svp","5c475608cae0ab000188cb6e","infreq","img/green_2bandit_a2.png","70","68","test","0","194","194","9","",""
"null","1825347","pSARL_v2","pSARL_v2fll03svp","5c475608cae0ab000188cb6e","infreq_resp","img/green_2bandit_a.png","70","68","test","","","","9","",""
"null","1825505","pSARL_v2","pSARL_v2fll03svp","5c475608cae0ab000188cb6e","fixation","img/fixation.png","null","","test","","","","","",""
"300.80000019073486","1825813","pSARL_v2","pSARL_v2fll03svp","5c475608cae0ab000188cb6e","infreq","img/green_2bandit_a2.png","70","68","test","0","195","195","9","",""
"null","1826327","pSARL_v2","pSARL_v2fll03svp","5c475608cae0ab000188cb6e","infreq_resp","img/green_2bandit_a.png","70","68","test","","","","9","",""
"null","1826498","pSARL_v2","pSARL_v2fll03svp","5c475608cae0ab000188cb6e","fixation","img/fixation.png","null","","test","","","","","",""
"433.39999985694885","1826937","pSARL_v2","pSARL_v2fll03svp","5c475608cae0ab000188cb6e","freq","img/orange_2bandit_a2.png","70","70","test","1","196","196","9","",""
"null","1827318","pSARL_v2","pSARL_v2fll03svp","5c475608cae0ab000188cb6e","freq_resp","img/orange_2bandit_a.png","70","70","test","","","","9","",""
"null","1827484","pSARL_v2","pSARL_v2fll03svp","5c475608cae0ab000188cb6e","fixation","img/fixation.png","null","","test","","","","","",""
"386.59999990463257","1827877","pSARL_v2","pSARL_v2fll03svp","5c475608cae0ab000188cb6e","freq","img/orange_2bandit_a2.png","70","70","test","1","197","197","9","",""
"null","1828295","pSARL_v2","pSARL_v2fll03svp","5c475608cae0ab000188cb6e","freq_resp","img/orange_2bandit_a.png","70","70","test","","","","9","",""
"null","1828450","pSARL_v2","pSARL_v2fll03svp","5c475608cae0ab000188cb6e","fixation","img/fixation.png","null","","test","","","","","",""
"264.80000019073486","1828717","pSARL_v2","pSARL_v2fll03svp","5c475608cae0ab000188cb6e","freq","img/orange_2bandit_a2.png","70","70","test","1","198","198","9","",""
"null","1829260","pSARL_v2","pSARL_v2fll03svp","5c475608cae0ab000188cb6e","freq_resp","img/orange_2bandit_a.png","70","70","test","","","","9","",""
"null","1829428","pSARL_v2","pSARL_v2fll03svp","5c475608cae0ab000188cb6e","fixation","img/fixation.png","null","","test","","","","","",""
"220.39999985694885","1829655","pSARL_v2","pSARL_v2fll03svp","5c475608cae0ab000188cb6e","freq","img/orange_2bandit_a2.png","70","70","test","1","199","199","9","",""
"null","1830256","pSARL_v2","pSARL_v2fll03svp","5c475608cae0ab000188cb6e","freq_resp","img/orange_2bandit_a.png","70","70","test","","","","9","",""
"null","1830429","pSARL_v2","pSARL_v2fll03svp","5c475608cae0ab000188cb6e","fixation","img/fixation.png","null","","test","","","","","",""
"355.59999990463257","1830788","pSARL_v2","pSARL_v2fll03svp","5c475608cae0ab000188cb6e","freq","img/orange_2bandit_a2.png","70","70","test","1","200","200","9","",""
"null","1831247","pSARL_v2","pSARL_v2fll03svp","5c475608cae0ab000188cb6e","freq_resp","img/orange_2bandit_a.png","70","70","test","","","","9","",""
"null","1831415","pSARL_v2","pSARL_v2fll03svp","5c475608cae0ab000188cb6e","fixation","img/fixation.png","null","","test","","","","","",""
"431.90000009536743","1831851","pSARL_v2","pSARL_v2fll03svp","5c475608cae0ab000188cb6e","freq","img/orange_2bandit_a2.png","70","70","test","1","201","201","9","",""
"null","1832237","pSARL_v2","pSARL_v2fll03svp","5c475608cae0ab000188cb6e","freq_resp","img/orange_2bandit_a.png","70","70","test","","","","9","",""
"null","1832395","pSARL_v2","pSARL_v2fll03svp","5c475608cae0ab000188cb6e","fixation","img/fixation.png","null","","test","","","","","",""
"463.5","1832865","pSARL_v2","pSARL_v2fll03svp","5c475608cae0ab000188cb6e","freq","img/orange_2bandit_a2.png","70","70","test","1","202","202","9","",""
"null","1833215","pSARL_v2","pSARL_v2fll03svp","5c475608cae0ab000188cb6e","freq_resp","img/orange_2bandit_a.png","70","70","test","","","","9","",""
"null","1833369","pSARL_v2","pSARL_v2fll03svp","5c475608cae0ab000188cb6e","fixation","img/fixation.png","null","","test","","","","","",""
"360.09999990463257","1833731","pSARL_v2","pSARL_v2fll03svp","5c475608cae0ab000188cb6e","freq","img/orange_2bandit_a2.png","70","70","test","1","203","203","9","",""
"null","1834179","pSARL_v2","pSARL_v2fll03svp","5c475608cae0ab000188cb6e","freq_resp","img/orange_2bandit_a.png","70","70","test","","","","9","",""
"null","1834335","pSARL_v2","pSARL_v2fll03svp","5c475608cae0ab000188cb6e","fixation","img/fixation.png","null","","test","","","","","",""
"332.2000000476837","1834670","pSARL_v2","pSARL_v2fll03svp","5c475608cae0ab000188cb6e","freq","img/orange_2bandit_a2.png","70","70","test","1","204","204","9","",""
