"rt","time_elapsed","expId","subject","prolificID","trialType","stimulus","key_press","corrresp","phase","corr","trialNum","attentionRunNum","blockNum","points","rlNum"
"5061.399999976158","5069","pSARL_v2","pSARL_v2hlf6929s","60c7c096903b9b083aa00c4f","","","","","","","","","","",""
"","7352","pSARL_v2","pSARL_v2hlf6929s","60c7c096903b9b083aa00c4f","fullscreen","","","","","","","","","",""
"25039.299999952316","32396","pSARL_v2","pSARL_v2hlf6929s","60c7c096903b9b083aa00c4f","","","","","","","","","","",""
"null","33204","pSARL_v2","pSARL_v2hlf6929s","60c7c096903b9b083aa00c4f","freqPrac","img/orange_2bandit_b2.png","null","70","prac","0","","","","",""
"null","34213","pSARL_v2","pSARL_v2hlf6929s","60c7c096903b9b083aa00c4f","feedback","img/tooSlow.png","null","na","prac","","","","","",""
"92.29999995231628","34384","pSARL_v2","pSARL_v2hlf6929s","60c7c096903b9b083aa00c4f","fixation","img/fixation.png","70","","prac","","","","","",""
"533.2000000476837","34923","pSARL_v2","pSARL_v2hlf6929s","60c7c096903b9b083aa00c4f","infreqPrac","img/green_2bandit_b2.png","68","68","prac","1","","","","",""
"533.2000000476837","35206","pSARL_v2","pSARL_v2hlf6929s","60c7c096903b9b083aa00c4f","infreqPrac_resp","img/green_2bandit_b.png","68","68","prac","","","","","",""
"null","35364","pSARL_v2","pSARL_v2hlf6929s","60c7c096903b9b083aa00c4f","fixation","img/fixation.png","null","","prac","","","","","",""
"389.89999997615814","35759","pSARL_v2","pSARL_v2hlf6929s","60c7c096903b9b083aa00c4f","freqPrac","img/orange_2bandit_b2.png","70","70","prac","1","","","","",""
"389.89999997615814","36176","pSARL_v2","pSARL_v2hlf6929s","60c7c096903b9b083aa00c4f","freqPrac_resp","img/orange_2bandit_b.png","70","70","prac","","","","","",""
"null","36344","pSARL_v2","pSARL_v2hlf6929s","60c7c096903b9b083aa00c4f","fixation","img/fixation.png","null","","prac","","","","","",""
"289.10000002384186","36638","pSARL_v2","pSARL_v2hlf6929s","60c7c096903b9b083aa00c4f","infreqPrac","img/green_2bandit_b2.png","68","68","prac","1","","","","",""
"289.10000002384186","37153","pSARL_v2","pSARL_v2hlf6929s","60c7c096903b9b083aa00c4f","infreqPrac_resp","img/green_2bandit_b.png","68","68","prac","","","","","",""
"null","37309","pSARL_v2","pSARL_v2hlf6929s","60c7c096903b9b083aa00c4f","fixation","img/fixation.png","null","","prac","","","","","",""
"412.89999997615814","37727","pSARL_v2","pSARL_v2hlf6929s","60c7c096903b9b083aa00c4f","infreqPrac","img/green_2bandit_b2.png","68","68","prac","1","","","","",""
"412.89999997615814","38120","pSARL_v2","pSARL_v2hlf6929s","60c7c096903b9b083aa00c4f","infreqPrac_resp","img/green_2bandit_b.png","68","68","prac","","","","","",""
"null","38275","pSARL_v2","pSARL_v2hlf6929s","60c7c096903b9b083aa00c4f","fixation","img/fixation.png","null","","prac","","","","","",""
"318.3000000715256","38599","pSARL_v2","pSARL_v2hlf6929s","60c7c096903b9b083aa00c4f","infreqPrac","img/green_2bandit_b2.png","68","68","prac","1","","","","",""
"318.3000000715256","39086","pSARL_v2","pSARL_v2hlf6929s","60c7c096903b9b083aa00c4f","infreqPrac_resp","img/green_2bandit_b.png","68","68","prac","","","","","",""
"null","39255","pSARL_v2","pSARL_v2hlf6929s","60c7c096903b9b083aa00c4f","fixation","img/fixation.png","null","","prac","","","","","",""
"488.8000000715256","39749","pSARL_v2","pSARL_v2hlf6929s","60c7c096903b9b083aa00c4f","freqPrac","img/orange_2bandit_b2.png","70","70","prac","1","","","","",""
"488.8000000715256","40071","pSARL_v2","pSARL_v2hlf6929s","60c7c096903b9b083aa00c4f","freqPrac_resp","img/orange_2bandit_b.png","70","70","prac","","","","","",""
"null","40226","pSARL_v2","pSARL_v2hlf6929s","60c7c096903b9b083aa00c4f","fixation","img/fixation.png","null","","prac","","","","","",""
"439","40670","pSARL_v2","pSARL_v2hlf6929s","60c7c096903b9b083aa00c4f","infreqPrac","img/green_2bandit_b2.png","68","68","prac","1","","","","",""
"439","41043","pSARL_v2","pSARL_v2hlf6929s","60c7c096903b9b083aa00c4f","infreqPrac_resp","img/green_2bandit_b.png","68","68","prac","","","","","",""
"null","41200","pSARL_v2","pSARL_v2hlf6929s","60c7c096903b9b083aa00c4f","fixation","img/fixation.png","null","","prac","","","","","",""
"397.60000002384186","41603","pSARL_v2","pSARL_v2hlf6929s","60c7c096903b9b083aa00c4f","freqPrac","img/orange_2bandit_b2.png","70","70","prac","1","","","","",""
"397.60000002384186","42016","pSARL_v2","pSARL_v2hlf6929s","60c7c096903b9b083aa00c4f","freqPrac_resp","img/orange_2bandit_b.png","70","70","prac","","","","","",""
"null","42186","pSARL_v2","pSARL_v2hlf6929s","60c7c096903b9b083aa00c4f","fixation","img/fixation.png","null","","prac","","","","","",""
"416.39999997615814","42607","pSARL_v2","pSARL_v2hlf6929s","60c7c096903b9b083aa00c4f","freqPrac","img/orange_2bandit_b2.png","70","70","prac","1","","","","",""
"416.39999997615814","42996","pSARL_v2","pSARL_v2hlf6929s","60c7c096903b9b083aa00c4f","freqPrac_resp","img/orange_2bandit_b.png","70","70","prac","","","","","",""
"null","43153","pSARL_v2","pSARL_v2hlf6929s","60c7c096903b9b083aa00c4f","fixation","img/fixation.png","null","","prac","","","","","",""
"20425.100000023842","63583","pSARL_v2","pSARL_v2hlf6929s","60c7c096903b9b083aa00c4f","","","","","prac","","","","","",""
"2178.3000000715256","65764","pSARL_v2","pSARL_v2hlf6929s","60c7c096903b9b083aa00c4f","rewardPractice","img/slot.png","74","","prac","","","","","",""
"null","66523","pSARL_v2","pSARL_v2hlf6929s","60c7c096903b9b083aa00c4f","feedback","<div class=""veryhighPoints""> +15 </div>","null","na","prac","","","","","",""
"null","66691","pSARL_v2","pSARL_v2hlf6929s","60c7c096903b9b083aa00c4f","fixation","img/fixation.png","null","","prac","","","","","",""
"2600.7999999523163","69295","pSARL_v2","pSARL_v2hlf6929s","60c7c096903b9b083aa00c4f","","","","","prac","","","","","",""
"576.3999999761581","69877","pSARL_v2","pSARL_v2hlf6929s","60c7c096903b9b083aa00c4f","freq","img/orange_2bandit_b2.png","70","70","test","1","1","1","1","",""
"null","70113","pSARL_v2","pSARL_v2hlf6929s","60c7c096903b9b083aa00c4f","freq_resp","img/orange_2bandit_b.png","70","70","test","","","","1","",""
"null","70283","pSARL_v2","pSARL_v2hlf6929s","60c7c096903b9b083aa00c4f","fixation","img/fixation.png","null","","test","","","","","",""
"344.2999999523163","70633","pSARL_v2","pSARL_v2hlf6929s","60c7c096903b9b083aa00c4f","freq","img/orange_2bandit_b2.png","70","70","test","1","2","2","1","",""
"null","71093","pSARL_v2","pSARL_v2hlf6929s","60c7c096903b9b083aa00c4f","freq_resp","img/orange_2bandit_b.png","70","70","test","","","","1","",""
"null","71265","pSARL_v2","pSARL_v2hlf6929s","60c7c096903b9b083aa00c4f","fixation","img/fixation.png","null","","test","","","","","",""
"263.7000000476837","71535","pSARL_v2","pSARL_v2hlf6929s","60c7c096903b9b083aa00c4f","freq","img/orange_2bandit_b2.png","70","70","test","1","3","3","1","",""
"null","72075","pSARL_v2","pSARL_v2hlf6929s","60c7c096903b9b083aa00c4f","freq_resp","img/orange_2bandit_b.png","70","70","test","","","","1","",""
"null","72232","pSARL_v2","pSARL_v2hlf6929s","60c7c096903b9b083aa00c4f","fixation","img/fixation.png","null","","test","","","","","",""
"102.60000002384186","72338","pSARL_v2","pSARL_v2hlf6929s","60c7c096903b9b083aa00c4f","freq","img/orange_2bandit_b2.png","70","70","test","1","4","4","1","",""
"null","73041","pSARL_v2","pSARL_v2hlf6929s","60c7c096903b9b083aa00c4f","freq_resp","img/orange_2bandit_b.png","70","70","test","","","","1","",""
"null","73211","pSARL_v2","pSARL_v2hlf6929s","60c7c096903b9b083aa00c4f","fixation","img/fixation.png","null","","test","","","","","",""
"458.7999999523163","73676","pSARL_v2","pSARL_v2hlf6929s","60c7c096903b9b083aa00c4f","freq","img/orange_2bandit_b2.png","70","70","test","1","5","5","1","",""
"null","74034","pSARL_v2","pSARL_v2hlf6929s","60c7c096903b9b083aa00c4f","freq_resp","img/orange_2bandit_b.png","70","70","test","","","","1","",""
"null","74205","pSARL_v2","pSARL_v2hlf6929s","60c7c096903b9b083aa00c4f","fixation","img/fixation.png","null","","test","","","","","",""
"282.2999999523163","74493","pSARL_v2","pSARL_v2hlf6929s","60c7c096903b9b083aa00c4f","infreq","img/green_2bandit_b2.png","70","68","test","0","6","6","1","",""
"null","75029","pSARL_v2","pSARL_v2hlf6929s","60c7c096903b9b083aa00c4f","infreq_resp","img/green_2bandit_b.png","70","68","test","","","","1","",""
"null","75199","pSARL_v2","pSARL_v2hlf6929s","60c7c096903b9b083aa00c4f","fixation","img/fixation.png","null","","test","","","","","",""
"459.7000000476837","75665","pSARL_v2","pSARL_v2hlf6929s","60c7c096903b9b083aa00c4f","infreq","img/green_2bandit_b2.png","68","68","test","1","7","7","1","",""
"null","76022","pSARL_v2","pSARL_v2hlf6929s","60c7c096903b9b083aa00c4f","infreq_resp","img/green_2bandit_b.png","68","68","test","","","","1","",""
"null","76179","pSARL_v2","pSARL_v2hlf6929s","60c7c096903b9b083aa00c4f","fixation","img/fixation.png","null","","test","","","","","",""
"405","76590","pSARL_v2","pSARL_v2hlf6929s","60c7c096903b9b083aa00c4f","freq","img/orange_2bandit_b2.png","70","70","test","1","8","8","1","",""
"null","77002","pSARL_v2","pSARL_v2hlf6929s","60c7c096903b9b083aa00c4f","freq_resp","img/orange_2bandit_b.png","70","70","test","","","","1","",""
"null","77172","pSARL_v2","pSARL_v2hlf6929s","60c7c096903b9b083aa00c4f","fixation","img/fixation.png","null","","test","","","","","",""
"357.7999999523163","77534","pSARL_v2","pSARL_v2hlf6929s","60c7c096903b9b083aa00c4f","freq","img/orange_2bandit_b2.png","68","70","test","0","9","9","1","",""
"null","77991","pSARL_v2","pSARL_v2hlf6929s","60c7c096903b9b083aa00c4f","freq_resp","img/orange_2bandit_b.png","68","70","test","","","","1","",""
"null","78148","pSARL_v2","pSARL_v2hlf6929s","60c7c096903b9b083aa00c4f","fixation","img/fixation.png","null","","test","","","","","",""
"286.89999997615814","78439","pSARL_v2","pSARL_v2hlf6929s","60c7c096903b9b083aa00c4f","freq","img/orange_2bandit_b2.png","70","70","test","1","10","10","1","",""
"null","78970","pSARL_v2","pSARL_v2hlf6929s","60c7c096903b9b083aa00c4f","freq_resp","img/orange_2bandit_b.png","70","70","test","","","","1","",""
"null","79131","pSARL_v2","pSARL_v2hlf6929s","60c7c096903b9b083aa00c4f","fixation","img/fixation.png","null","","test","","","","","",""
"510.5","79648","pSARL_v2","pSARL_v2hlf6929s","60c7c096903b9b083aa00c4f","freq","img/orange_2bandit_b2.png","70","70","test","1","11","11","1","",""
"null","79945","pSARL_v2","pSARL_v2hlf6929s","60c7c096903b9b083aa00c4f","freq_resp","img/orange_2bandit_b.png","70","70","test","","","","1","",""
"null","80116","pSARL_v2","pSARL_v2hlf6929s","60c7c096903b9b083aa00c4f","fixation","img/fixation.png","null","","test","","","","","",""
"495.60000002384186","80616","pSARL_v2","pSARL_v2hlf6929s","60c7c096903b9b083aa00c4f","freq","img/orange_2bandit_b2.png","70","70","test","1","12","12","1","",""
"null","80938","pSARL_v2","pSARL_v2hlf6929s","60c7c096903b9b083aa00c4f","freq_resp","img/orange_2bandit_b.png","70","70","test","","","","1","",""
"null","81108","pSARL_v2","pSARL_v2hlf6929s","60c7c096903b9b083aa00c4f","fixation","img/fixation.png","null","","test","","","","","",""
"null","81914","pSARL_v2","pSARL_v2hlf6929s","60c7c096903b9b083aa00c4f","freq","img/orange_2bandit_b2.png","null","70","test","0","13","13","1","",""
"null","82071","pSARL_v2","pSARL_v2hlf6929s","60c7c096903b9b083aa00c4f","fixation","img/fixation.png","null","","test","","","","","",""
"582.3999999761581","82661","pSARL_v2","pSARL_v2hlf6929s","60c7c096903b9b083aa00c4f","freq","img/orange_2bandit_b2.png","70","70","test","1","14","14","1","",""
"null","82895","pSARL_v2","pSARL_v2hlf6929s","60c7c096903b9b083aa00c4f","freq_resp","img/orange_2bandit_b.png","70","70","test","","","","1","",""
"null","83052","pSARL_v2","pSARL_v2hlf6929s","60c7c096903b9b083aa00c4f","fixation","img/fixation.png","null","","test","","","","","",""
"308.10000002384186","83366","pSARL_v2","pSARL_v2hlf6929s","60c7c096903b9b083aa00c4f","freq","img/orange_2bandit_b2.png","70","70","test","1","15","15","1","",""
"null","83862","pSARL_v2","pSARL_v2hlf6929s","60c7c096903b9b083aa00c4f","freq_resp","img/orange_2bandit_b.png","70","70","test","","","","1","",""
"null","84016","pSARL_v2","pSARL_v2hlf6929s","60c7c096903b9b083aa00c4f","fixation","img/fixation.png","null","","test","","","","","",""
"201.29999995231628","84222","pSARL_v2","pSARL_v2hlf6929s","60c7c096903b9b083aa00c4f","freq","img/orange_2bandit_b2.png","70","70","test","1","16","16","1","",""
"null","84826","pSARL_v2","pSARL_v2hlf6929s","60c7c096903b9b083aa00c4f","freq_resp","img/orange_2bandit_b.png","70","70","test","","","","1","",""
"null","84995","pSARL_v2","pSARL_v2hlf6929s","60c7c096903b9b083aa00c4f","fixation","img/fixation.png","null","","test","","","","","",""
"null","85805","pSARL_v2","pSARL_v2hlf6929s","60c7c096903b9b083aa00c4f","freq","img/orange_2bandit_b2.png","null","70","test","0","17","17","1","",""
"null","85960","pSARL_v2","pSARL_v2hlf6929s","60c7c096903b9b083aa00c4f","fixation","img/fixation.png","null","","test","","","","","",""
"755.6000000238419","86719","pSARL_v2","pSARL_v2hlf6929s","60c7c096903b9b083aa00c4f","freq","img/orange_2bandit_b2.png","70","70","test","1","18","18","1","",""
"null","86767","pSARL_v2","pSARL_v2hlf6929s","60c7c096903b9b083aa00c4f","freq_resp","img/orange_2bandit_b.png","70","70","test","","","","1","",""
"null","86930","pSARL_v2","pSARL_v2hlf6929s","60c7c096903b9b083aa00c4f","fixation","img/fixation.png","null","","test","","","","","",""
"408.3000000715256","87342","pSARL_v2","pSARL_v2hlf6929s","60c7c096903b9b083aa00c4f","freq","img/orange_2bandit_b2.png","70","70","test","1","19","19","1","",""
"null","87738","pSARL_v2","pSARL_v2hlf6929s","60c7c096903b9b083aa00c4f","freq_resp","img/orange_2bandit_b.png","70","70","test","","","","1","",""
"null","87897","pSARL_v2","pSARL_v2hlf6929s","60c7c096903b9b083aa00c4f","fixation","img/fixation.png","null","","test","","","","","",""
"293.60000002384186","88196","pSARL_v2","pSARL_v2hlf6929s","60c7c096903b9b083aa00c4f","freq","img/orange_2bandit_b2.png","70","70","test","1","20","20","1","",""
"null","88718","pSARL_v2","pSARL_v2hlf6929s","60c7c096903b9b083aa00c4f","freq_resp","img/orange_2bandit_b.png","70","70","test","","","","1","",""
"null","88875","pSARL_v2","pSARL_v2hlf6929s","60c7c096903b9b083aa00c4f","fixation","img/fixation.png","null","","test","","","","","",""
"368.89999997615814","89248","pSARL_v2","pSARL_v2hlf6929s","60c7c096903b9b083aa00c4f","freq","img/orange_2bandit_b2.png","70","70","test","1","21","21","1","",""
"null","89696","pSARL_v2","pSARL_v2hlf6929s","60c7c096903b9b083aa00c4f","freq_resp","img/orange_2bandit_b.png","70","70","test","","","","1","",""
"null","89852","pSARL_v2","pSARL_v2hlf6929s","60c7c096903b9b083aa00c4f","fixation","img/fixation.png","null","","test","","","","","",""
"565.0999999046326","90421","pSARL_v2","pSARL_v2hlf6929s","60c7c096903b9b083aa00c4f","reward","img/slot.png","74","","test","","","","","",""
"null","91178","pSARL_v2","pSARL_v2hlf6929s","60c7c096903b9b083aa00c4f","points","<div class=""verylowPoints""> -6 </div>","null","na","test","","","","1","-6","0"
"507.60000002384186","91691","pSARL_v2","pSARL_v2hlf6929s","60c7c096903b9b083aa00c4f","freq","img/orange_2bandit_b2.png","70","70","test","1","22","22","2","",""
"null","91992","pSARL_v2","pSARL_v2hlf6929s","60c7c096903b9b083aa00c4f","freq_resp","img/orange_2bandit_b.png","70","70","test","","","","2","",""
"null","92149","pSARL_v2","pSARL_v2hlf6929s","60c7c096903b9b083aa00c4f","fixation","img/fixation.png","null","","test","","","","","",""
"482.6999999284744","92637","pSARL_v2","pSARL_v2hlf6929s","60c7c096903b9b083aa00c4f","infreq","img/green_2bandit_b2.png","68","68","test","1","23","23","2","",""
"null","92961","pSARL_v2","pSARL_v2hlf6929s","60c7c096903b9b083aa00c4f","infreq_resp","img/green_2bandit_b.png","68","68","test","","","","2","",""
"null","93132","pSARL_v2","pSARL_v2hlf6929s","60c7c096903b9b083aa00c4f","fixation","img/fixation.png","null","","test","","","","","",""
"404.10000002384186","93541","pSARL_v2","pSARL_v2hlf6929s","60c7c096903b9b083aa00c4f","freq","img/orange_2bandit_b2.png","70","70","test","1","24","24","2","",""
"null","93957","pSARL_v2","pSARL_v2hlf6929s","60c7c096903b9b083aa00c4f","freq_resp","img/orange_2bandit_b.png","70","70","test","","","","2","",""
"null","94115","pSARL_v2","pSARL_v2hlf6929s","60c7c096903b9b083aa00c4f","fixation","img/fixation.png","null","","test","","","","","",""
"564.2000000476837","94683","pSARL_v2","pSARL_v2hlf6929s","60c7c096903b9b083aa00c4f","freq","img/orange_2bandit_b2.png","70","70","test","1","25","25","2","",""
"null","94939","pSARL_v2","pSARL_v2hlf6929s","60c7c096903b9b083aa00c4f","freq_resp","img/orange_2bandit_b.png","70","70","test","","","","2","",""
"null","95110","pSARL_v2","pSARL_v2hlf6929s","60c7c096903b9b083aa00c4f","fixation","img/fixation.png","null","","test","","","","","",""
"322.6999999284744","95437","pSARL_v2","pSARL_v2hlf6929s","60c7c096903b9b083aa00c4f","freq","img/orange_2bandit_b2.png","70","70","test","1","26","26","2","",""
"null","95920","pSARL_v2","pSARL_v2hlf6929s","60c7c096903b9b083aa00c4f","freq_resp","img/orange_2bandit_b.png","70","70","test","","","","2","",""
"null","96089","pSARL_v2","pSARL_v2hlf6929s","60c7c096903b9b083aa00c4f","fixation","img/fixation.png","null","","test","","","","","",""
"331","96425","pSARL_v2","pSARL_v2hlf6929s","60c7c096903b9b083aa00c4f","freq","img/orange_2bandit_b2.png","70","70","test","1","27","27","2","",""
"null","96903","pSARL_v2","pSARL_v2hlf6929s","60c7c096903b9b083aa00c4f","freq_resp","img/orange_2bandit_b.png","70","70","test","","","","2","",""
"null","97060","pSARL_v2","pSARL_v2hlf6929s","60c7c096903b9b083aa00c4f","fixation","img/fixation.png","null","","test","","","","","",""
"363.6999999284744","97429","pSARL_v2","pSARL_v2hlf6929s","60c7c096903b9b083aa00c4f","freq","img/orange_2bandit_b2.png","70","70","test","1","28","28","2","",""
"null","97884","pSARL_v2","pSARL_v2hlf6929s","60c7c096903b9b083aa00c4f","freq_resp","img/orange_2bandit_b.png","70","70","test","","","","2","",""
"null","98053","pSARL_v2","pSARL_v2hlf6929s","60c7c096903b9b083aa00c4f","fixation","img/fixation.png","null","","test","","","","","",""
"353.09999990463257","98411","pSARL_v2","pSARL_v2hlf6929s","60c7c096903b9b083aa00c4f","freq","img/orange_2bandit_b2.png","70","70","test","1","29","29","2","",""
"null","98872","pSARL_v2","pSARL_v2hlf6929s","60c7c096903b9b083aa00c4f","freq_resp","img/orange_2bandit_b.png","70","70","test","","","","2","",""
"null","99028","pSARL_v2","pSARL_v2hlf6929s","60c7c096903b9b083aa00c4f","fixation","img/fixation.png","null","","test","","","","","",""
"307.2000000476837","99339","pSARL_v2","pSARL_v2hlf6929s","60c7c096903b9b083aa00c4f","freq","img/orange_2bandit_b2.png","70","70","test","1","30","30","2","",""
"null","99836","pSARL_v2","pSARL_v2hlf6929s","60c7c096903b9b083aa00c4f","freq_resp","img/orange_2bandit_b.png","70","70","test","","","","2","",""
"null","99992","pSARL_v2","pSARL_v2hlf6929s","60c7c096903b9b083aa00c4f","fixation","img/fixation.png","null","","test","","","","","",""
"352.1999999284744","100349","pSARL_v2","pSARL_v2hlf6929s","60c7c096903b9b083aa00c4f","freq","img/orange_2bandit_b2.png","70","70","test","1","31","31","2","",""
"null","100813","pSARL_v2","pSARL_v2hlf6929s","60c7c096903b9b083aa00c4f","freq_resp","img/orange_2bandit_b.png","70","70","test","","","","2","",""
"null","100969","pSARL_v2","pSARL_v2hlf6929s","60c7c096903b9b083aa00c4f","fixation","img/fixation.png","null","","test","","","","","",""
"282.89999997615814","101255","pSARL_v2","pSARL_v2hlf6929s","60c7c096903b9b083aa00c4f","freq","img/orange_2bandit_b2.png","70","70","test","1","32","32","2","",""
"null","101784","pSARL_v2","pSARL_v2hlf6929s","60c7c096903b9b083aa00c4f","freq_resp","img/orange_2bandit_b.png","70","70","test","","","","2","",""
"null","101943","pSARL_v2","pSARL_v2hlf6929s","60c7c096903b9b083aa00c4f","fixation","img/fixation.png","null","","test","","","","","",""
"540.1000000238419","102488","pSARL_v2","pSARL_v2hlf6929s","60c7c096903b9b083aa00c4f","freq","img/orange_2bandit_b2.png","70","70","test","1","33","33","2","",""
"null","102757","pSARL_v2","pSARL_v2hlf6929s","60c7c096903b9b083aa00c4f","freq_resp","img/orange_2bandit_b.png","70","70","test","","","","2","",""
"null","102928","pSARL_v2","pSARL_v2hlf6929s","60c7c096903b9b083aa00c4f","fixation","img/fixation.png","null","","test","","","","","",""
"312.10000002384186","103245","pSARL_v2","pSARL_v2hlf6929s","60c7c096903b9b083aa00c4f","freq","img/orange_2bandit_b2.png","70","70","test","1","34","34","2","",""
"null","103740","pSARL_v2","pSARL_v2hlf6929s","60c7c096903b9b083aa00c4f","freq_resp","img/orange_2bandit_b.png","70","70","test","","","","2","",""
"null","103897","pSARL_v2","pSARL_v2hlf6929s","60c7c096903b9b083aa00c4f","fixation","img/fixation.png","null","","test","","","","","",""
"286.89999997615814","104188","pSARL_v2","pSARL_v2hlf6929s","60c7c096903b9b083aa00c4f","freq","img/orange_2bandit_b2.png","70","70","test","1","35","35","2","",""
"null","104719","pSARL_v2","pSARL_v2hlf6929s","60c7c096903b9b083aa00c4f","freq_resp","img/orange_2bandit_b.png","70","70","test","","","","2","",""
"null","104891","pSARL_v2","pSARL_v2hlf6929s","60c7c096903b9b083aa00c4f","fixation","img/fixation.png","null","","test","","","","","",""
"359","105254","pSARL_v2","pSARL_v2hlf6929s","60c7c096903b9b083aa00c4f","infreq","img/green_2bandit_b2.png","68","68","test","1","36","36","2","",""
"null","105702","pSARL_v2","pSARL_v2hlf6929s","60c7c096903b9b083aa00c4f","infreq_resp","img/green_2bandit_b.png","68","68","test","","","","2","",""
"null","105860","pSARL_v2","pSARL_v2hlf6929s","60c7c096903b9b083aa00c4f","fixation","img/fixation.png","null","","test","","","","","",""
"446.7999999523163","106311","pSARL_v2","pSARL_v2hlf6929s","60c7c096903b9b083aa00c4f","freq","img/orange_2bandit_b2.png","70","70","test","1","37","37","2","",""
"null","106669","pSARL_v2","pSARL_v2hlf6929s","60c7c096903b9b083aa00c4f","freq_resp","img/orange_2bandit_b.png","70","70","test","","","","2","",""
"null","106826","pSARL_v2","pSARL_v2hlf6929s","60c7c096903b9b083aa00c4f","fixation","img/fixation.png","null","","test","","","","","",""
"359.2999999523163","107190","pSARL_v2","pSARL_v2hlf6929s","60c7c096903b9b083aa00c4f","freq","img/orange_2bandit_b2.png","70","70","test","1","38","38","2","",""
"null","107637","pSARL_v2","pSARL_v2hlf6929s","60c7c096903b9b083aa00c4f","freq_resp","img/orange_2bandit_b.png","70","70","test","","","","2","",""
"null","107793","pSARL_v2","pSARL_v2hlf6929s","60c7c096903b9b083aa00c4f","fixation","img/fixation.png","null","","test","","","","","",""
"404.1999999284744","108202","pSARL_v2","pSARL_v2hlf6929s","60c7c096903b9b083aa00c4f","freq","img/orange_2bandit_b2.png","70","70","test","1","39","39","2","",""
"null","108605","pSARL_v2","pSARL_v2hlf6929s","60c7c096903b9b083aa00c4f","freq_resp","img/orange_2bandit_b.png","70","70","test","","","","2","",""
"null","108762","pSARL_v2","pSARL_v2hlf6929s","60c7c096903b9b083aa00c4f","fixation","img/fixation.png","null","","test","","","","","",""
"347.59999990463257","109114","pSARL_v2","pSARL_v2hlf6929s","60c7c096903b9b083aa00c4f","freq","img/orange_2bandit_b2.png","70","70","test","1","40","40","2","",""
"null","109573","pSARL_v2","pSARL_v2hlf6929s","60c7c096903b9b083aa00c4f","freq_resp","img/orange_2bandit_b.png","70","70","test","","","","2","",""
"null","109729","pSARL_v2","pSARL_v2hlf6929s","60c7c096903b9b083aa00c4f","fixation","img/fixation.png","null","","test","","","","","",""
"291.39999997615814","110025","pSARL_v2","pSARL_v2hlf6929s","60c7c096903b9b083aa00c4f","freq","img/orange_2bandit_b2.png","70","70","test","1","41","41","2","",""
"null","110538","pSARL_v2","pSARL_v2hlf6929s","60c7c096903b9b083aa00c4f","freq_resp","img/orange_2bandit_b.png","70","70","test","","","","2","",""
"null","110709","pSARL_v2","pSARL_v2hlf6929s","60c7c096903b9b083aa00c4f","fixation","img/fixation.png","null","","test","","","","","",""
"300.2999999523163","111012","pSARL_v2","pSARL_v2hlf6929s","60c7c096903b9b083aa00c4f","freq","img/orange_2bandit_b2.png","70","70","test","1","42","42","2","",""
"null","111518","pSARL_v2","pSARL_v2hlf6929s","60c7c096903b9b083aa00c4f","freq_resp","img/orange_2bandit_b.png","70","70","test","","","","2","",""
"null","111674","pSARL_v2","pSARL_v2hlf6929s","60c7c096903b9b083aa00c4f","fixation","img/fixation.png","null","","test","","","","","",""
"275.5","111955","pSARL_v2","pSARL_v2hlf6929s","60c7c096903b9b083aa00c4f","freq","img/orange_2bandit_b2.png","70","70","test","1","43","43","2","",""
"null","112484","pSARL_v2","pSARL_v2hlf6929s","60c7c096903b9b083aa00c4f","freq_resp","img/orange_2bandit_b.png","70","70","test","","","","2","",""
"null","112642","pSARL_v2","pSARL_v2hlf6929s","60c7c096903b9b083aa00c4f","fixation","img/fixation.png","null","","test","","","","","",""
"590.3000000715256","113238","pSARL_v2","pSARL_v2hlf6929s","60c7c096903b9b083aa00c4f","reward","img/slot.png","74","","test","","","","","",""
"null","113999","pSARL_v2","pSARL_v2hlf6929s","60c7c096903b9b083aa00c4f","points","<div class=""verylowPoints""> -11 </div>","null","na","test","","","","2","-11","1"
"null","114810","pSARL_v2","pSARL_v2hlf6929s","60c7c096903b9b083aa00c4f","freq","img/orange_2bandit_b2.png","null","70","test","0","44","44","3","",""
"null","114968","pSARL_v2","pSARL_v2hlf6929s","60c7c096903b9b083aa00c4f","fixation","img/fixation.png","null","","test","","","","","",""
"302.5","115275","pSARL_v2","pSARL_v2hlf6929s","60c7c096903b9b083aa00c4f","freq","img/orange_2bandit_b2.png","70","70","test","1","45","45","3","",""
"null","115788","pSARL_v2","pSARL_v2hlf6929s","60c7c096903b9b083aa00c4f","freq_resp","img/orange_2bandit_b.png","70","70","test","","","","3","",""
"null","115957","pSARL_v2","pSARL_v2hlf6929s","60c7c096903b9b083aa00c4f","fixation","img/fixation.png","null","","test","","","","","",""
"203.39999997615814","116164","pSARL_v2","pSARL_v2hlf6929s","60c7c096903b9b083aa00c4f","freq","img/orange_2bandit_b2.png","70","70","test","1","46","46","3","",""
"null","116779","pSARL_v2","pSARL_v2hlf6929s","60c7c096903b9b083aa00c4f","freq_resp","img/orange_2bandit_b.png","70","70","test","","","","3","",""
"null","116935","pSARL_v2","pSARL_v2hlf6929s","60c7c096903b9b083aa00c4f","fixation","img/fixation.png","null","","test","","","","","",""
"141.90000009536743","117081","pSARL_v2","pSARL_v2hlf6929s","60c7c096903b9b083aa00c4f","freq","img/orange_2bandit_b2.png","70","70","test","1","47","47","3","",""
"null","117744","pSARL_v2","pSARL_v2hlf6929s","60c7c096903b9b083aa00c4f","freq_resp","img/orange_2bandit_b.png","70","70","test","","","","3","",""
"null","117903","pSARL_v2","pSARL_v2hlf6929s","60c7c096903b9b083aa00c4f","fixation","img/fixation.png","null","","test","","","","","",""
"218.39999997615814","118126","pSARL_v2","pSARL_v2hlf6929s","60c7c096903b9b083aa00c4f","freq","img/orange_2bandit_b2.png","70","70","test","1","48","48","3","",""
"null","118715","pSARL_v2","pSARL_v2hlf6929s","60c7c096903b9b083aa00c4f","freq_resp","img/orange_2bandit_b.png","70","70","test","","","","3","",""
"null","118872","pSARL_v2","pSARL_v2hlf6929s","60c7c096903b9b083aa00c4f","fixation","img/fixation.png","null","","test","","","","","",""
"220.20000004768372","119096","pSARL_v2","pSARL_v2hlf6929s","60c7c096903b9b083aa00c4f","freq","img/orange_2bandit_b2.png","70","70","test","1","49","49","3","",""
"null","119692","pSARL_v2","pSARL_v2hlf6929s","60c7c096903b9b083aa00c4f","freq_resp","img/orange_2bandit_b.png","70","70","test","","","","3","",""
"null","119848","pSARL_v2","pSARL_v2hlf6929s","60c7c096903b9b083aa00c4f","fixation","img/fixation.png","null","","test","","","","","",""
"110.89999997615814","119963","pSARL_v2","pSARL_v2hlf6929s","60c7c096903b9b083aa00c4f","freq","img/orange_2bandit_b2.png","70","70","test","1","50","50","3","",""
"null","120660","pSARL_v2","pSARL_v2hlf6929s","60c7c096903b9b083aa00c4f","freq_resp","img/orange_2bandit_b.png","70","70","test","","","","3","",""
"null","120816","pSARL_v2","pSARL_v2hlf6929s","60c7c096903b9b083aa00c4f","fixation","img/fixation.png","null","","test","","","","","",""
"497.10000002384186","121318","pSARL_v2","pSARL_v2hlf6929s","60c7c096903b9b083aa00c4f","freq","img/orange_2bandit_b2.png","70","70","test","1","51","51","3","",""
"null","121640","pSARL_v2","pSARL_v2hlf6929s","60c7c096903b9b083aa00c4f","freq_resp","img/orange_2bandit_b.png","70","70","test","","","","3","",""
"null","121810","pSARL_v2","pSARL_v2hlf6929s","60c7c096903b9b083aa00c4f","fixation","img/fixation.png","null","","test","","","","","",""
"252.5","122067","pSARL_v2","pSARL_v2hlf6929s","60c7c096903b9b083aa00c4f","freq","img/orange_2bandit_b2.png","70","70","test","1","52","52","3","",""
"null","122634","pSARL_v2","pSARL_v2hlf6929s","60c7c096903b9b083aa00c4f","freq_resp","img/orange_2bandit_b.png","70","70","test","","","","3","",""
"null","122806","pSARL_v2","pSARL_v2hlf6929s","60c7c096903b9b083aa00c4f","fixation","img/fixation.png","null","","test","","","","","",""
"156.39999997615814","122968","pSARL_v2","pSARL_v2hlf6929s","60c7c096903b9b083aa00c4f","freq","img/orange_2bandit_b2.png","70","70","test","1","53","53","3","",""
"null","123633","pSARL_v2","pSARL_v2hlf6929s","60c7c096903b9b083aa00c4f","freq_resp","img/orange_2bandit_b.png","70","70","test","","","","3","",""
"null","123803","pSARL_v2","pSARL_v2hlf6929s","60c7c096903b9b083aa00c4f","fixation","img/fixation.png","null","","test","","","","","",""
"95.20000004768372","123904","pSARL_v2","pSARL_v2hlf6929s","60c7c096903b9b083aa00c4f","freq","img/orange_2bandit_b2.png","70","70","test","1","54","54","3","",""
"null","124624","pSARL_v2","pSARL_v2hlf6929s","60c7c096903b9b083aa00c4f","freq_resp","img/orange_2bandit_b.png","70","70","test","","","","3","",""
"null","124780","pSARL_v2","pSARL_v2hlf6929s","60c7c096903b9b083aa00c4f","fixation","img/fixation.png","null","","test","","","","","",""
"217","125003","pSARL_v2","pSARL_v2hlf6929s","60c7c096903b9b083aa00c4f","freq","img/orange_2bandit_b2.png","70","70","test","1","55","55","3","",""
"null","125603","pSARL_v2","pSARL_v2hlf6929s","60c7c096903b9b083aa00c4f","freq_resp","img/orange_2bandit_b.png","70","70","test","","","","3","",""
"null","125759","pSARL_v2","pSARL_v2hlf6929s","60c7c096903b9b083aa00c4f","fixation","img/fixation.png","null","","test","","","","","",""
"13.400000095367432","125776","pSARL_v2","pSARL_v2hlf6929s","60c7c096903b9b083aa00c4f","freq","img/orange_2bandit_b2.png","70","70","test","1","56","56","3","",""
"null","126567","pSARL_v2","pSARL_v2hlf6929s","60c7c096903b9b083aa00c4f","freq_resp","img/orange_2bandit_b.png","70","70","test","","","","3","",""
"null","126722","pSARL_v2","pSARL_v2hlf6929s","60c7c096903b9b083aa00c4f","fixation","img/fixation.png","null","","test","","","","","",""
"133.5","126859","pSARL_v2","pSARL_v2hlf6929s","60c7c096903b9b083aa00c4f","freq","img/orange_2bandit_b2.png","70","70","test","1","57","57","3","",""
"null","127537","pSARL_v2","pSARL_v2hlf6929s","60c7c096903b9b083aa00c4f","freq_resp","img/orange_2bandit_b.png","70","70","test","","","","3","",""
"null","127691","pSARL_v2","pSARL_v2hlf6929s","60c7c096903b9b083aa00c4f","fixation","img/fixation.png","null","","test","","","","","",""
"67.29999995231628","127762","pSARL_v2","pSARL_v2hlf6929s","60c7c096903b9b083aa00c4f","infreq","img/green_2bandit_b2.png","70","68","test","0","58","58","3","",""
"null","128514","pSARL_v2","pSARL_v2hlf6929s","60c7c096903b9b083aa00c4f","infreq_resp","img/green_2bandit_b.png","70","68","test","","","","3","",""
"null","128684","pSARL_v2","pSARL_v2hlf6929s","60c7c096903b9b083aa00c4f","fixation","img/fixation.png","null","","test","","","","","",""
"368","129056","pSARL_v2","pSARL_v2hlf6929s","60c7c096903b9b083aa00c4f","freq","img/orange_2bandit_b2.png","70","70","test","1","59","59","3","",""
"null","129495","pSARL_v2","pSARL_v2hlf6929s","60c7c096903b9b083aa00c4f","freq_resp","img/orange_2bandit_b.png","70","70","test","","","","3","",""
"null","129651","pSARL_v2","pSARL_v2hlf6929s","60c7c096903b9b083aa00c4f","fixation","img/fixation.png","null","","test","","","","","",""
"328.1999999284744","129985","pSARL_v2","pSARL_v2hlf6929s","60c7c096903b9b083aa00c4f","freq","img/orange_2bandit_b2.png","70","70","test","1","60","60","3","",""
"null","130462","pSARL_v2","pSARL_v2hlf6929s","60c7c096903b9b083aa00c4f","freq_resp","img/orange_2bandit_b.png","70","70","test","","","","3","",""
"null","130619","pSARL_v2","pSARL_v2hlf6929s","60c7c096903b9b083aa00c4f","fixation","img/fixation.png","null","","test","","","","","",""
"232","130855","pSARL_v2","pSARL_v2hlf6929s","60c7c096903b9b083aa00c4f","freq","img/orange_2bandit_b2.png","70","70","test","1","61","61","3","",""
"null","131429","pSARL_v2","pSARL_v2hlf6929s","60c7c096903b9b083aa00c4f","freq_resp","img/orange_2bandit_b.png","70","70","test","","","","3","",""
"null","131600","pSARL_v2","pSARL_v2hlf6929s","60c7c096903b9b083aa00c4f","fixation","img/fixation.png","null","","test","","","","","",""
"264.90000009536743","131870","pSARL_v2","pSARL_v2hlf6929s","60c7c096903b9b083aa00c4f","freq","img/orange_2bandit_b2.png","70","70","test","1","62","62","3","",""
"null","132424","pSARL_v2","pSARL_v2hlf6929s","60c7c096903b9b083aa00c4f","freq_resp","img/orange_2bandit_b.png","70","70","test","","","","3","",""
"null","132582","pSARL_v2","pSARL_v2hlf6929s","60c7c096903b9b083aa00c4f","fixation","img/fixation.png","null","","test","","","","","",""
"261.7999999523163","132849","pSARL_v2","pSARL_v2hlf6929s","60c7c096903b9b083aa00c4f","freq","img/orange_2bandit_b2.png","70","70","test","1","63","63","3","",""
"null","133406","pSARL_v2","pSARL_v2hlf6929s","60c7c096903b9b083aa00c4f","freq_resp","img/orange_2bandit_b.png","70","70","test","","","","3","",""
"null","133561","pSARL_v2","pSARL_v2hlf6929s","60c7c096903b9b083aa00c4f","fixation","img/fixation.png","null","","test","","","","","",""
"285.60000002384186","133852","pSARL_v2","pSARL_v2hlf6929s","60c7c096903b9b083aa00c4f","freq","img/orange_2bandit_b2.png","70","70","test","1","64","64","3","",""
"null","134381","pSARL_v2","pSARL_v2hlf6929s","60c7c096903b9b083aa00c4f","freq_resp","img/orange_2bandit_b.png","70","70","test","","","","3","",""
"null","134537","pSARL_v2","pSARL_v2hlf6929s","60c7c096903b9b083aa00c4f","fixation","img/fixation.png","null","","test","","","","","",""
"472.6999999284744","135016","pSARL_v2","pSARL_v2hlf6929s","60c7c096903b9b083aa00c4f","infreq","img/green_2bandit_b2.png","68","68","test","1","65","65","3","",""
"null","135364","pSARL_v2","pSARL_v2hlf6929s","60c7c096903b9b083aa00c4f","infreq_resp","img/green_2bandit_b.png","68","68","test","","","","3","",""
"null","135522","pSARL_v2","pSARL_v2hlf6929s","60c7c096903b9b083aa00c4f","fixation","img/fixation.png","null","","test","","","","","",""
"449.3000000715256","135976","pSARL_v2","pSARL_v2hlf6929s","60c7c096903b9b083aa00c4f","freq","img/orange_2bandit_b2.png","70","70","test","1","66","66","3","",""
"null","136343","pSARL_v2","pSARL_v2hlf6929s","60c7c096903b9b083aa00c4f","freq_resp","img/orange_2bandit_b.png","70","70","test","","","","3","",""
"null","136500","pSARL_v2","pSARL_v2hlf6929s","60c7c096903b9b083aa00c4f","fixation","img/fixation.png","null","","test","","","","","",""
"555.2999999523163","137060","pSARL_v2","pSARL_v2hlf6929s","60c7c096903b9b083aa00c4f","reward","img/slot.png","74","","test","","","","","",""
"null","137822","pSARL_v2","pSARL_v2hlf6929s","60c7c096903b9b083aa00c4f","points","<div class=""verylowPoints""> -7 </div>","null","na","test","","","","3","-7","2"
"517","138344","pSARL_v2","pSARL_v2hlf6929s","60c7c096903b9b083aa00c4f","freq","img/orange_2bandit_b2.png","70","70","test","1","67","67","4","",""
"null","138638","pSARL_v2","pSARL_v2hlf6929s","60c7c096903b9b083aa00c4f","freq_resp","img/orange_2bandit_b.png","70","70","test","","","","4","",""
"null","138793","pSARL_v2","pSARL_v2hlf6929s","60c7c096903b9b083aa00c4f","fixation","img/fixation.png","null","","test","","","","","",""
"228.19999992847443","139025","pSARL_v2","pSARL_v2hlf6929s","60c7c096903b9b083aa00c4f","freq","img/orange_2bandit_b2.png","70","70","test","1","68","68","4","",""
"null","139606","pSARL_v2","pSARL_v2hlf6929s","60c7c096903b9b083aa00c4f","freq_resp","img/orange_2bandit_b.png","70","70","test","","","","4","",""
"null","139765","pSARL_v2","pSARL_v2hlf6929s","60c7c096903b9b083aa00c4f","fixation","img/fixation.png","null","","test","","","","","",""
"202.39999997615814","139972","pSARL_v2","pSARL_v2hlf6929s","60c7c096903b9b083aa00c4f","freq","img/orange_2bandit_b2.png","70","70","test","1","69","69","4","",""
"null","140574","pSARL_v2","pSARL_v2hlf6929s","60c7c096903b9b083aa00c4f","freq_resp","img/orange_2bandit_b.png","70","70","test","","","","4","",""
"null","140731","pSARL_v2","pSARL_v2hlf6929s","60c7c096903b9b083aa00c4f","fixation","img/fixation.png","null","","test","","","","","",""
"129.79999995231628","140866","pSARL_v2","pSARL_v2hlf6929s","60c7c096903b9b083aa00c4f","freq","img/orange_2bandit_b2.png","70","70","test","1","70","70","4","",""
"null","141545","pSARL_v2","pSARL_v2hlf6929s","60c7c096903b9b083aa00c4f","freq_resp","img/orange_2bandit_b.png","70","70","test","","","","4","",""
"null","141716","pSARL_v2","pSARL_v2hlf6929s","60c7c096903b9b083aa00c4f","fixation","img/fixation.png","null","","test","","","","","",""
"354.2999999523163","142075","pSARL_v2","pSARL_v2hlf6929s","60c7c096903b9b083aa00c4f","freq","img/orange_2bandit_b2.png","70","70","test","1","71","71","4","",""
"null","142539","pSARL_v2","pSARL_v2hlf6929s","60c7c096903b9b083aa00c4f","freq_resp","img/orange_2bandit_b.png","70","70","test","","","","4","",""
"null","142697","pSARL_v2","pSARL_v2hlf6929s","60c7c096903b9b083aa00c4f","fixation","img/fixation.png","null","","test","","","","","",""
"168.69999992847443","142871","pSARL_v2","pSARL_v2hlf6929s","60c7c096903b9b083aa00c4f","freq","img/orange_2bandit_b2.png","70","70","test","1","72","72","4","",""
"null","143517","pSARL_v2","pSARL_v2hlf6929s","60c7c096903b9b083aa00c4f","freq_resp","img/orange_2bandit_b.png","70","70","test","","","","4","",""
"null","143676","pSARL_v2","pSARL_v2hlf6929s","60c7c096903b9b083aa00c4f","fixation","img/fixation.png","null","","test","","","","","",""
"255.80000007152557","143937","pSARL_v2","pSARL_v2hlf6929s","60c7c096903b9b083aa00c4f","freq","img/orange_2bandit_b2.png","70","70","test","1","73","73","4","",""
"null","144486","pSARL_v2","pSARL_v2hlf6929s","60c7c096903b9b083aa00c4f","freq_resp","img/orange_2bandit_b.png","70","70","test","","","","4","",""
"null","144655","pSARL_v2","pSARL_v2hlf6929s","60c7c096903b9b083aa00c4f","fixation","img/fixation.png","null","","test","","","","","",""
"462","145123","pSARL_v2","pSARL_v2hlf6929s","60c7c096903b9b083aa00c4f","infreq","img/green_2bandit_b2.png","68","68","test","1","74","74","4","",""
"null","145469","pSARL_v2","pSARL_v2hlf6929s","60c7c096903b9b083aa00c4f","infreq_resp","img/green_2bandit_b.png","68","68","test","","","","4","",""
"null","145624","pSARL_v2","pSARL_v2hlf6929s","60c7c096903b9b083aa00c4f","fixation","img/fixation.png","null","","test","","","","","",""
"537.5999999046326","146167","pSARL_v2","pSARL_v2hlf6929s","60c7c096903b9b083aa00c4f","freq","img/orange_2bandit_b2.png","70","70","test","1","75","75","4","",""
"null","146449","pSARL_v2","pSARL_v2hlf6929s","60c7c096903b9b083aa00c4f","freq_resp","img/orange_2bandit_b.png","70","70","test","","","","4","",""
"null","146604","pSARL_v2","pSARL_v2hlf6929s","60c7c096903b9b083aa00c4f","fixation","img/fixation.png","null","","test","","","","","",""
"287.2999999523163","146896","pSARL_v2","pSARL_v2hlf6929s","60c7c096903b9b083aa00c4f","freq","img/orange_2bandit_b2.png","70","70","test","1","76","76","4","",""
"null","147413","pSARL_v2","pSARL_v2hlf6929s","60c7c096903b9b083aa00c4f","freq_resp","img/orange_2bandit_b.png","70","70","test","","","","4","",""
"null","147571","pSARL_v2","pSARL_v2hlf6929s","60c7c096903b9b083aa00c4f","fixation","img/fixation.png","null","","test","","","","","",""
"232.09999990463257","147807","pSARL_v2","pSARL_v2hlf6929s","60c7c096903b9b083aa00c4f","freq","img/orange_2bandit_b2.png","70","70","test","1","77","77","4","",""
"null","148384","pSARL_v2","pSARL_v2hlf6929s","60c7c096903b9b083aa00c4f","freq_resp","img/orange_2bandit_b.png","70","70","test","","","","4","",""
"null","148541","pSARL_v2","pSARL_v2hlf6929s","60c7c096903b9b083aa00c4f","fixation","img/fixation.png","null","","test","","","","","",""
"220","148766","pSARL_v2","pSARL_v2hlf6929s","60c7c096903b9b083aa00c4f","freq","img/orange_2bandit_b2.png","70","70","test","1","78","78","4","",""
"null","149366","pSARL_v2","pSARL_v2hlf6929s","60c7c096903b9b083aa00c4f","freq_resp","img/orange_2bandit_b.png","70","70","test","","","","4","",""
"null","149523","pSARL_v2","pSARL_v2hlf6929s","60c7c096903b9b083aa00c4f","fixation","img/fixation.png","null","","test","","","","","",""
"162.20000004768372","149691","pSARL_v2","pSARL_v2hlf6929s","60c7c096903b9b083aa00c4f","freq","img/orange_2bandit_b2.png","70","70","test","1","79","79","4","",""
"null","150347","pSARL_v2","pSARL_v2hlf6929s","60c7c096903b9b083aa00c4f","freq_resp","img/orange_2bandit_b.png","70","70","test","","","","4","",""
"null","150517","pSARL_v2","pSARL_v2hlf6929s","60c7c096903b9b083aa00c4f","fixation","img/fixation.png","null","","test","","","","","",""
"339.7999999523163","150862","pSARL_v2","pSARL_v2hlf6929s","60c7c096903b9b083aa00c4f","freq","img/orange_2bandit_b2.png","70","70","test","1","80","80","4","",""
"null","151344","pSARL_v2","pSARL_v2hlf6929s","60c7c096903b9b083aa00c4f","freq_resp","img/orange_2bandit_b.png","70","70","test","","","","4","",""
"null","151515","pSARL_v2","pSARL_v2hlf6929s","60c7c096903b9b083aa00c4f","fixation","img/fixation.png","null","","test","","","","","",""
"350.10000002384186","151871","pSARL_v2","pSARL_v2hlf6929s","60c7c096903b9b083aa00c4f","freq","img/orange_2bandit_b2.png","70","70","test","1","81","81","4","",""
"null","152328","pSARL_v2","pSARL_v2hlf6929s","60c7c096903b9b083aa00c4f","freq_resp","img/orange_2bandit_b.png","70","70","test","","","","4","",""
"null","152498","pSARL_v2","pSARL_v2hlf6929s","60c7c096903b9b083aa00c4f","fixation","img/fixation.png","null","","test","","","","","",""
"307.39999997615814","152811","pSARL_v2","pSARL_v2hlf6929s","60c7c096903b9b083aa00c4f","freq","img/orange_2bandit_b2.png","70","70","test","1","82","82","4","",""
"null","153319","pSARL_v2","pSARL_v2hlf6929s","60c7c096903b9b083aa00c4f","freq_resp","img/orange_2bandit_b.png","70","70","test","","","","4","",""
"null","153476","pSARL_v2","pSARL_v2hlf6929s","60c7c096903b9b083aa00c4f","fixation","img/fixation.png","null","","test","","","","","",""
"319.5","153801","pSARL_v2","pSARL_v2hlf6929s","60c7c096903b9b083aa00c4f","freq","img/orange_2bandit_b2.png","70","70","test","1","83","83","4","",""
"null","154301","pSARL_v2","pSARL_v2hlf6929s","60c7c096903b9b083aa00c4f","freq_resp","img/orange_2bandit_b.png","70","70","test","","","","4","",""
"null","154474","pSARL_v2","pSARL_v2hlf6929s","60c7c096903b9b083aa00c4f","fixation","img/fixation.png","null","","test","","","","","",""
"153.89999997615814","154634","pSARL_v2","pSARL_v2hlf6929s","60c7c096903b9b083aa00c4f","infreq","img/green_2bandit_b2.png","70","68","test","0","84","84","4","",""
"null","155289","pSARL_v2","pSARL_v2hlf6929s","60c7c096903b9b083aa00c4f","infreq_resp","img/green_2bandit_b.png","70","68","test","","","","4","",""
"null","155447","pSARL_v2","pSARL_v2hlf6929s","60c7c096903b9b083aa00c4f","fixation","img/fixation.png","null","","test","","","","","",""
"null","156254","pSARL_v2","pSARL_v2hlf6929s","60c7c096903b9b083aa00c4f","freq","img/orange_2bandit_b2.png","null","70","test","0","85","85","4","",""
"null","156424","pSARL_v2","pSARL_v2hlf6929s","60c7c096903b9b083aa00c4f","fixation","img/fixation.png","null","","test","","","","","",""
"690.3999999761581","157118","pSARL_v2","pSARL_v2hlf6929s","60c7c096903b9b083aa00c4f","freq","img/orange_2bandit_b2.png","70","70","test","1","86","86","4","",""
"null","157246","pSARL_v2","pSARL_v2hlf6929s","60c7c096903b9b083aa00c4f","freq_resp","img/orange_2bandit_b.png","70","70","test","","","","4","",""
"null","157416","pSARL_v2","pSARL_v2hlf6929s","60c7c096903b9b083aa00c4f","fixation","img/fixation.png","null","","test","","","","","",""
"444.2999999523163","157865","pSARL_v2","pSARL_v2hlf6929s","60c7c096903b9b083aa00c4f","freq","img/orange_2bandit_b2.png","70","70","test","1","87","87","4","",""
"null","158227","pSARL_v2","pSARL_v2hlf6929s","60c7c096903b9b083aa00c4f","freq_resp","img/orange_2bandit_b.png","70","70","test","","","","4","",""
"null","158394","pSARL_v2","pSARL_v2hlf6929s","60c7c096903b9b083aa00c4f","fixation","img/fixation.png","null","","test","","","","","",""
"371.5","158769","pSARL_v2","pSARL_v2hlf6929s","60c7c096903b9b083aa00c4f","freq","img/orange_2bandit_b2.png","70","70","test","1","88","88","4","",""
"null","159207","pSARL_v2","pSARL_v2hlf6929s","60c7c096903b9b083aa00c4f","freq_resp","img/orange_2bandit_b.png","70","70","test","","","","4","",""
"null","159377","pSARL_v2","pSARL_v2hlf6929s","60c7c096903b9b083aa00c4f","fixation","img/fixation.png","null","","test","","","","","",""
"325.2000000476837","159707","pSARL_v2","pSARL_v2hlf6929s","60c7c096903b9b083aa00c4f","freq","img/orange_2bandit_b2.png","70","70","test","1","89","89","4","",""
"null","160186","pSARL_v2","pSARL_v2hlf6929s","60c7c096903b9b083aa00c4f","freq_resp","img/orange_2bandit_b.png","70","70","test","","","","4","",""
"null","160343","pSARL_v2","pSARL_v2hlf6929s","60c7c096903b9b083aa00c4f","fixation","img/fixation.png","null","","test","","","","","",""
"172.60000002384186","160521","pSARL_v2","pSARL_v2hlf6929s","60c7c096903b9b083aa00c4f","freq","img/orange_2bandit_b2.png","70","70","test","1","90","90","4","",""
"null","161166","pSARL_v2","pSARL_v2hlf6929s","60c7c096903b9b083aa00c4f","freq_resp","img/orange_2bandit_b.png","70","70","test","","","","4","",""
"null","161324","pSARL_v2","pSARL_v2hlf6929s","60c7c096903b9b083aa00c4f","fixation","img/fixation.png","null","","test","","","","","",""
"436.7000000476837","161765","pSARL_v2","pSARL_v2hlf6929s","60c7c096903b9b083aa00c4f","freq","img/orange_2bandit_b2.png","70","70","test","1","91","91","4","",""
"null","162146","pSARL_v2","pSARL_v2hlf6929s","60c7c096903b9b083aa00c4f","freq_resp","img/orange_2bandit_b.png","70","70","test","","","","4","",""
"null","162306","pSARL_v2","pSARL_v2hlf6929s","60c7c096903b9b083aa00c4f","fixation","img/fixation.png","null","","test","","","","","",""
"557.2000000476837","162868","pSARL_v2","pSARL_v2hlf6929s","60c7c096903b9b083aa00c4f","reward","img/slot.png","74","","test","","","","","",""
"null","163631","pSARL_v2","pSARL_v2hlf6929s","60c7c096903b9b083aa00c4f","points","<div class=""verylowPoints""> -3 </div>","null","na","test","","","","4","-3","3"
"616.5999999046326","164253","pSARL_v2","pSARL_v2hlf6929s","60c7c096903b9b083aa00c4f","freq","img/orange_2bandit_b2.png","70","70","test","1","92","92","5","",""
"null","164444","pSARL_v2","pSARL_v2hlf6929s","60c7c096903b9b083aa00c4f","freq_resp","img/orange_2bandit_b.png","70","70","test","","","","5","",""
"null","164602","pSARL_v2","pSARL_v2hlf6929s","60c7c096903b9b083aa00c4f","fixation","img/fixation.png","null","","test","","","","","",""
"340.5","164947","pSARL_v2","pSARL_v2hlf6929s","60c7c096903b9b083aa00c4f","freq","img/orange_2bandit_b2.png","70","70","test","1","93","93","5","",""
"null","165423","pSARL_v2","pSARL_v2hlf6929s","60c7c096903b9b083aa00c4f","freq_resp","img/orange_2bandit_b.png","70","70","test","","","","5","",""
"null","165592","pSARL_v2","pSARL_v2hlf6929s","60c7c096903b9b083aa00c4f","fixation","img/fixation.png","null","","test","","","","","",""
"315.6999999284744","165912","pSARL_v2","pSARL_v2hlf6929s","60c7c096903b9b083aa00c4f","freq","img/orange_2bandit_b2.png","70","70","test","1","94","94","5","",""
"null","166400","pSARL_v2","pSARL_v2hlf6929s","60c7c096903b9b083aa00c4f","freq_resp","img/orange_2bandit_b.png","70","70","test","","","","5","",""
"null","166557","pSARL_v2","pSARL_v2hlf6929s","60c7c096903b9b083aa00c4f","fixation","img/fixation.png","null","","test","","","","","",""
"514.8999999761581","167077","pSARL_v2","pSARL_v2hlf6929s","60c7c096903b9b083aa00c4f","infreq","img/green_2bandit_b2.png","68","68","test","1","95","95","5","",""
"null","167367","pSARL_v2","pSARL_v2hlf6929s","60c7c096903b9b083aa00c4f","infreq_resp","img/green_2bandit_b.png","68","68","test","","","","5","",""
"null","167524","pSARL_v2","pSARL_v2hlf6929s","60c7c096903b9b083aa00c4f","fixation","img/fixation.png","null","","test","","","","","",""
"360.7999999523163","167890","pSARL_v2","pSARL_v2hlf6929s","60c7c096903b9b083aa00c4f","freq","img/orange_2bandit_b2.png","70","70","test","1","96","96","5","",""
"null","168346","pSARL_v2","pSARL_v2hlf6929s","60c7c096903b9b083aa00c4f","freq_resp","img/orange_2bandit_b.png","70","70","test","","","","5","",""
"null","168515","pSARL_v2","pSARL_v2hlf6929s","60c7c096903b9b083aa00c4f","fixation","img/fixation.png","null","","test","","","","","",""
"726","169246","pSARL_v2","pSARL_v2hlf6929s","60c7c096903b9b083aa00c4f","infreq","img/green_2bandit_b2.png","68","68","test","1","97","97","5","",""
"null","169325","pSARL_v2","pSARL_v2hlf6929s","60c7c096903b9b083aa00c4f","infreq_resp","img/green_2bandit_b.png","68","68","test","","","","5","",""
"null","169494","pSARL_v2","pSARL_v2hlf6929s","60c7c096903b9b083aa00c4f","fixation","img/fixation.png","null","","test","","","","","",""
"467","169965","pSARL_v2","pSARL_v2hlf6929s","60c7c096903b9b083aa00c4f","freq","img/orange_2bandit_b2.png","70","70","test","1","98","98","5","",""
"null","170316","pSARL_v2","pSARL_v2hlf6929s","60c7c096903b9b083aa00c4f","freq_resp","img/orange_2bandit_b.png","70","70","test","","","","5","",""
"null","170473","pSARL_v2","pSARL_v2hlf6929s","60c7c096903b9b083aa00c4f","fixation","img/fixation.png","null","","test","","","","","",""
"337.5","170815","pSARL_v2","pSARL_v2hlf6929s","60c7c096903b9b083aa00c4f","freq","img/orange_2bandit_b2.png","70","70","test","1","99","99","5","",""
"null","171296","pSARL_v2","pSARL_v2hlf6929s","60c7c096903b9b083aa00c4f","freq_resp","img/orange_2bandit_b.png","70","70","test","","","","5","",""
"null","171452","pSARL_v2","pSARL_v2hlf6929s","60c7c096903b9b083aa00c4f","fixation","img/fixation.png","null","","test","","","","","",""
"408.3000000715256","171865","pSARL_v2","pSARL_v2hlf6929s","60c7c096903b9b083aa00c4f","freq","img/orange_2bandit_b2.png","70","70","test","1","100","100","5","",""
"null","172278","pSARL_v2","pSARL_v2hlf6929s","60c7c096903b9b083aa00c4f","freq_resp","img/orange_2bandit_b.png","70","70","test","","","","5","",""
"null","172435","pSARL_v2","pSARL_v2hlf6929s","60c7c096903b9b083aa00c4f","fixation","img/fixation.png","null","","test","","","","","",""
"396.6999999284744","172837","pSARL_v2","pSARL_v2hlf6929s","60c7c096903b9b083aa00c4f","freq","img/orange_2bandit_b2.png","70","70","test","1","101","101","5","",""
"null","173247","pSARL_v2","pSARL_v2hlf6929s","60c7c096903b9b083aa00c4f","freq_resp","img/orange_2bandit_b.png","70","70","test","","","","5","",""
"null","173405","pSARL_v2","pSARL_v2hlf6929s","60c7c096903b9b083aa00c4f","fixation","img/fixation.png","null","","test","","","","","",""
"251.79999995231628","173662","pSARL_v2","pSARL_v2hlf6929s","60c7c096903b9b083aa00c4f","freq","img/orange_2bandit_b2.png","70","70","test","1","102","102","5","",""
"null","174215","pSARL_v2","pSARL_v2hlf6929s","60c7c096903b9b083aa00c4f","freq_resp","img/orange_2bandit_b.png","70","70","test","","","","5","",""
"null","174371","pSARL_v2","pSARL_v2hlf6929s","60c7c096903b9b083aa00c4f","fixation","img/fixation.png","null","","test","","","","","",""
"275.3000000715256","174651","pSARL_v2","pSARL_v2hlf6929s","60c7c096903b9b083aa00c4f","freq","img/orange_2bandit_b2.png","70","70","test","1","103","103","5","",""
"null","175184","pSARL_v2","pSARL_v2hlf6929s","60c7c096903b9b083aa00c4f","freq_resp","img/orange_2bandit_b.png","70","70","test","","","","5","",""
"null","175354","pSARL_v2","pSARL_v2hlf6929s","60c7c096903b9b083aa00c4f","fixation","img/fixation.png","null","","test","","","","","",""
"278.1999999284744","175638","pSARL_v2","pSARL_v2hlf6929s","60c7c096903b9b083aa00c4f","freq","img/orange_2bandit_b2.png","70","70","test","1","104","104","5","",""
"null","176177","pSARL_v2","pSARL_v2hlf6929s","60c7c096903b9b083aa00c4f","freq_resp","img/orange_2bandit_b.png","70","70","test","","","","5","",""
"null","176349","pSARL_v2","pSARL_v2hlf6929s","60c7c096903b9b083aa00c4f","fixation","img/fixation.png","null","","test","","","","","",""
"261.5","176615","pSARL_v2","pSARL_v2hlf6929s","60c7c096903b9b083aa00c4f","freq","img/orange_2bandit_b2.png","70","70","test","1","105","105","5","",""
"null","177160","pSARL_v2","pSARL_v2hlf6929s","60c7c096903b9b083aa00c4f","freq_resp","img/orange_2bandit_b.png","70","70","test","","","","5","",""
"null","177317","pSARL_v2","pSARL_v2hlf6929s","60c7c096903b9b083aa00c4f","fixation","img/fixation.png","null","","test","","","","","",""
"234","177556","pSARL_v2","pSARL_v2hlf6929s","60c7c096903b9b083aa00c4f","freq","img/orange_2bandit_b2.png","70","70","test","1","106","106","5","",""
"null","178126","pSARL_v2","pSARL_v2hlf6929s","60c7c096903b9b083aa00c4f","freq_resp","img/orange_2bandit_b.png","70","70","test","","","","5","",""
"null","178282","pSARL_v2","pSARL_v2hlf6929s","60c7c096903b9b083aa00c4f","fixation","img/fixation.png","null","","test","","","","","",""
"286.2000000476837","178573","pSARL_v2","pSARL_v2hlf6929s","60c7c096903b9b083aa00c4f","freq","img/orange_2bandit_b2.png","70","70","test","1","107","107","5","",""
"null","179091","pSARL_v2","pSARL_v2hlf6929s","60c7c096903b9b083aa00c4f","freq_resp","img/orange_2bandit_b.png","70","70","test","","","","5","",""
"null","179250","pSARL_v2","pSARL_v2hlf6929s","60c7c096903b9b083aa00c4f","fixation","img/fixation.png","null","","test","","","","","",""
"274.09999990463257","179528","pSARL_v2","pSARL_v2hlf6929s","60c7c096903b9b083aa00c4f","freq","img/orange_2bandit_b2.png","70","70","test","1","108","108","5","",""
"null","180073","pSARL_v2","pSARL_v2hlf6929s","60c7c096903b9b083aa00c4f","freq_resp","img/orange_2bandit_b.png","70","70","test","","","","5","",""
"null","180228","pSARL_v2","pSARL_v2hlf6929s","60c7c096903b9b083aa00c4f","fixation","img/fixation.png","null","","test","","","","","",""
"302.60000002384186","180535","pSARL_v2","pSARL_v2hlf6929s","60c7c096903b9b083aa00c4f","freq","img/orange_2bandit_b2.png","70","70","test","1","109","109","5","",""
"null","181039","pSARL_v2","pSARL_v2hlf6929s","60c7c096903b9b083aa00c4f","freq_resp","img/orange_2bandit_b.png","70","70","test","","","","5","",""
"null","181193","pSARL_v2","pSARL_v2hlf6929s","60c7c096903b9b083aa00c4f","fixation","img/fixation.png","null","","test","","","","","",""
"169.20000004768372","181368","pSARL_v2","pSARL_v2hlf6929s","60c7c096903b9b083aa00c4f","freq","img/orange_2bandit_b2.png","70","70","test","1","110","110","5","",""
"null","182004","pSARL_v2","pSARL_v2hlf6929s","60c7c096903b9b083aa00c4f","freq_resp","img/orange_2bandit_b.png","70","70","test","","","","5","",""
"null","182162","pSARL_v2","pSARL_v2hlf6929s","60c7c096903b9b083aa00c4f","fixation","img/fixation.png","null","","test","","","","","",""
"238.10000002384186","182405","pSARL_v2","pSARL_v2hlf6929s","60c7c096903b9b083aa00c4f","freq","img/orange_2bandit_b2.png","70","70","test","1","111","111","5","",""
"null","182984","pSARL_v2","pSARL_v2hlf6929s","60c7c096903b9b083aa00c4f","freq_resp","img/orange_2bandit_b.png","70","70","test","","","","5","",""
"null","183153","pSARL_v2","pSARL_v2hlf6929s","60c7c096903b9b083aa00c4f","fixation","img/fixation.png","null","","test","","","","","",""
"91.30000007152557","183250","pSARL_v2","pSARL_v2hlf6929s","60c7c096903b9b083aa00c4f","infreq","img/green_2bandit_b2.png","70","68","test","0","112","112","5","",""
"null","183979","pSARL_v2","pSARL_v2hlf6929s","60c7c096903b9b083aa00c4f","infreq_resp","img/green_2bandit_b.png","70","68","test","","","","5","",""
"null","184150","pSARL_v2","pSARL_v2hlf6929s","60c7c096903b9b083aa00c4f","fixation","img/fixation.png","null","","test","","","","","",""
"318.60000002384186","184473","pSARL_v2","pSARL_v2hlf6929s","60c7c096903b9b083aa00c4f","freq","img/orange_2bandit_b2.png","70","70","test","1","113","113","5","",""
"null","184960","pSARL_v2","pSARL_v2hlf6929s","60c7c096903b9b083aa00c4f","freq_resp","img/orange_2bandit_b.png","70","70","test","","","","5","",""
"null","185118","pSARL_v2","pSARL_v2hlf6929s","60c7c096903b9b083aa00c4f","fixation","img/fixation.png","null","","test","","","","","",""
"267","185390","pSARL_v2","pSARL_v2hlf6929s","60c7c096903b9b083aa00c4f","freq","img/orange_2bandit_b2.png","70","70","test","1","114","114","5","",""
"null","185943","pSARL_v2","pSARL_v2hlf6929s","60c7c096903b9b083aa00c4f","freq_resp","img/orange_2bandit_b.png","70","70","test","","","","5","",""
"null","186114","pSARL_v2","pSARL_v2hlf6929s","60c7c096903b9b083aa00c4f","fixation","img/fixation.png","null","","test","","","","","",""
"529.5","186649","pSARL_v2","pSARL_v2hlf6929s","60c7c096903b9b083aa00c4f","reward","img/slot.png","74","","test","","","","","",""
"null","187406","pSARL_v2","pSARL_v2hlf6929s","60c7c096903b9b083aa00c4f","points","<div class=""veryhighPoints""> +1 </div>","null","na","test","","","","5","1","4"
"481.2999999523163","187891","pSARL_v2","pSARL_v2hlf6929s","60c7c096903b9b083aa00c4f","freq","img/orange_2bandit_b2.png","70","70","test","1","115","115","6","",""
"null","188229","pSARL_v2","pSARL_v2hlf6929s","60c7c096903b9b083aa00c4f","freq_resp","img/orange_2bandit_b.png","70","70","test","","","","6","",""
"null","188399","pSARL_v2","pSARL_v2hlf6929s","60c7c096903b9b083aa00c4f","fixation","img/fixation.png","null","","test","","","","","",""
"467.5","188871","pSARL_v2","pSARL_v2hlf6929s","60c7c096903b9b083aa00c4f","freq","img/orange_2bandit_b2.png","70","70","test","1","116","116","6","",""
"null","189212","pSARL_v2","pSARL_v2hlf6929s","60c7c096903b9b083aa00c4f","freq_resp","img/orange_2bandit_b.png","70","70","test","","","","6","",""
"null","189368","pSARL_v2","pSARL_v2hlf6929s","60c7c096903b9b083aa00c4f","fixation","img/fixation.png","null","","test","","","","","",""
"224.60000002384186","189598","pSARL_v2","pSARL_v2hlf6929s","60c7c096903b9b083aa00c4f","freq","img/orange_2bandit_b2.png","70","70","test","1","117","117","6","",""
"null","190192","pSARL_v2","pSARL_v2hlf6929s","60c7c096903b9b083aa00c4f","freq_resp","img/orange_2bandit_b.png","70","70","test","","","","6","",""
"null","190349","pSARL_v2","pSARL_v2hlf6929s","60c7c096903b9b083aa00c4f","fixation","img/fixation.png","null","","test","","","","","",""
"266.3000000715256","190619","pSARL_v2","pSARL_v2hlf6929s","60c7c096903b9b083aa00c4f","freq","img/orange_2bandit_b2.png","70","70","test","1","118","118","6","",""
"null","191163","pSARL_v2","pSARL_v2hlf6929s","60c7c096903b9b083aa00c4f","freq_resp","img/orange_2bandit_b.png","70","70","test","","","","6","",""
"null","191318","pSARL_v2","pSARL_v2hlf6929s","60c7c096903b9b083aa00c4f","fixation","img/fixation.png","null","","test","","","","","",""
"260.2000000476837","191583","pSARL_v2","pSARL_v2hlf6929s","60c7c096903b9b083aa00c4f","infreq","img/green_2bandit_b2.png","70","68","test","0","119","119","6","",""
"null","192132","pSARL_v2","pSARL_v2hlf6929s","60c7c096903b9b083aa00c4f","infreq_resp","img/green_2bandit_b.png","70","68","test","","","","6","",""
"null","192288","pSARL_v2","pSARL_v2hlf6929s","60c7c096903b9b083aa00c4f","fixation","img/fixation.png","null","","test","","","","","",""
"236.70000004768372","192530","pSARL_v2","pSARL_v2hlf6929s","60c7c096903b9b083aa00c4f","freq","img/orange_2bandit_b2.png","70","70","test","1","120","120","6","",""
"null","193112","pSARL_v2","pSARL_v2hlf6929s","60c7c096903b9b083aa00c4f","freq_resp","img/orange_2bandit_b.png","70","70","test","","","","6","",""
"null","193280","pSARL_v2","pSARL_v2hlf6929s","60c7c096903b9b083aa00c4f","fixation","img/fixation.png","null","","test","","","","","",""
"271.5","193555","pSARL_v2","pSARL_v2hlf6929s","60c7c096903b9b083aa00c4f","freq","img/orange_2bandit_b2.png","70","70","test","1","121","121","6","",""
"null","194090","pSARL_v2","pSARL_v2hlf6929s","60c7c096903b9b083aa00c4f","freq_resp","img/orange_2bandit_b.png","70","70","test","","","","6","",""
"null","194247","pSARL_v2","pSARL_v2hlf6929s","60c7c096903b9b083aa00c4f","fixation","img/fixation.png","null","","test","","","","","",""
"70.39999997615814","194322","pSARL_v2","pSARL_v2hlf6929s","60c7c096903b9b083aa00c4f","freq","img/orange_2bandit_b2.png","70","70","test","1","122","122","6","",""
"null","195059","pSARL_v2","pSARL_v2hlf6929s","60c7c096903b9b083aa00c4f","freq_resp","img/orange_2bandit_b.png","70","70","test","","","","6","",""
"null","195217","pSARL_v2","pSARL_v2hlf6929s","60c7c096903b9b083aa00c4f","fixation","img/fixation.png","null","","test","","","","","",""
"280.5","195502","pSARL_v2","pSARL_v2hlf6929s","60c7c096903b9b083aa00c4f","freq","img/orange_2bandit_b2.png","70","70","test","1","123","123","6","",""
"null","196041","pSARL_v2","pSARL_v2hlf6929s","60c7c096903b9b083aa00c4f","freq_resp","img/orange_2bandit_b.png","70","70","test","","","","6","",""
"null","196211","pSARL_v2","pSARL_v2hlf6929s","60c7c096903b9b083aa00c4f","fixation","img/fixation.png","null","","test","","","","","",""
"46.89999997615814","196264","pSARL_v2","pSARL_v2hlf6929s","60c7c096903b9b083aa00c4f","freq","img/orange_2bandit_b2.png","70","70","test","1","124","124","6","",""
"null","197036","pSARL_v2","pSARL_v2hlf6929s","60c7c096903b9b083aa00c4f","freq_resp","img/orange_2bandit_b.png","70","70","test","","","","6","",""
"null","197192","pSARL_v2","pSARL_v2hlf6929s","60c7c096903b9b083aa00c4f","fixation","img/fixation.png","null","","test","","","","","",""
"422.90000009536743","197620","pSARL_v2","pSARL_v2hlf6929s","60c7c096903b9b083aa00c4f","freq","img/orange_2bandit_b2.png","70","70","test","1","125","125","6","",""
"null","198003","pSARL_v2","pSARL_v2hlf6929s","60c7c096903b9b083aa00c4f","freq_resp","img/orange_2bandit_b.png","70","70","test","","","","6","",""
"null","198158","pSARL_v2","pSARL_v2hlf6929s","60c7c096903b9b083aa00c4f","fixation","img/fixation.png","null","","test","","","","","",""
"280.60000002384186","198443","pSARL_v2","pSARL_v2hlf6929s","60c7c096903b9b083aa00c4f","freq","img/orange_2bandit_b2.png","70","70","test","1","126","126","6","",""
"null","198971","pSARL_v2","pSARL_v2hlf6929s","60c7c096903b9b083aa00c4f","freq_resp","img/orange_2bandit_b.png","70","70","test","","","","6","",""
"null","199126","pSARL_v2","pSARL_v2hlf6929s","60c7c096903b9b083aa00c4f","fixation","img/fixation.png","null","","test","","","","","",""
"114.20000004768372","199246","pSARL_v2","pSARL_v2hlf6929s","60c7c096903b9b083aa00c4f","freq","img/orange_2bandit_b2.png","70","70","test","1","127","127","6","",""
"null","199949","pSARL_v2","pSARL_v2hlf6929s","60c7c096903b9b083aa00c4f","freq_resp","img/orange_2bandit_b.png","70","70","test","","","","6","",""
"null","200106","pSARL_v2","pSARL_v2hlf6929s","60c7c096903b9b083aa00c4f","fixation","img/fixation.png","null","","test","","","","","",""
"53.89999997615814","200165","pSARL_v2","pSARL_v2hlf6929s","60c7c096903b9b083aa00c4f","freq","img/orange_2bandit_b2.png","70","70","test","1","128","128","6","",""
"null","200930","pSARL_v2","pSARL_v2hlf6929s","60c7c096903b9b083aa00c4f","freq_resp","img/orange_2bandit_b.png","70","70","test","","","","6","",""
"null","201086","pSARL_v2","pSARL_v2hlf6929s","60c7c096903b9b083aa00c4f","fixation","img/fixation.png","null","","test","","","","","",""
"125.89999997615814","201217","pSARL_v2","pSARL_v2hlf6929s","60c7c096903b9b083aa00c4f","freq","img/orange_2bandit_b2.png","70","70","test","1","129","129","6","",""
"null","201904","pSARL_v2","pSARL_v2hlf6929s","60c7c096903b9b083aa00c4f","freq_resp","img/orange_2bandit_b.png","70","70","test","","","","6","",""
"null","202061","pSARL_v2","pSARL_v2hlf6929s","60c7c096903b9b083aa00c4f","fixation","img/fixation.png","null","","test","","","","","",""
"233.40000009536743","202301","pSARL_v2","pSARL_v2hlf6929s","60c7c096903b9b083aa00c4f","freq","img/orange_2bandit_b2.png","70","70","test","1","130","130","6","",""
"null","202886","pSARL_v2","pSARL_v2hlf6929s","60c7c096903b9b083aa00c4f","freq_resp","img/orange_2bandit_b.png","70","70","test","","","","6","",""
"null","203045","pSARL_v2","pSARL_v2hlf6929s","60c7c096903b9b083aa00c4f","fixation","img/fixation.png","null","","test","","","","","",""
"88.20000004768372","203137","pSARL_v2","pSARL_v2hlf6929s","60c7c096903b9b083aa00c4f","infreq","img/green_2bandit_b2.png","70","68","test","0","131","131","6","",""
"null","203854","pSARL_v2","pSARL_v2hlf6929s","60c7c096903b9b083aa00c4f","infreq_resp","img/green_2bandit_b.png","70","68","test","","","","6","",""
"null","204012","pSARL_v2","pSARL_v2hlf6929s","60c7c096903b9b083aa00c4f","fixation","img/fixation.png","null","","test","","","","","",""
"124.30000007152557","204142","pSARL_v2","pSARL_v2hlf6929s","60c7c096903b9b083aa00c4f","freq","img/orange_2bandit_b2.png","70","70","test","1","132","132","6","",""
"null","204825","pSARL_v2","pSARL_v2hlf6929s","60c7c096903b9b083aa00c4f","freq_resp","img/orange_2bandit_b.png","70","70","test","","","","6","",""
"null","204980","pSARL_v2","pSARL_v2hlf6929s","60c7c096903b9b083aa00c4f","fixation","img/fixation.png","null","","test","","","","","",""
"267.90000009536743","205252","pSARL_v2","pSARL_v2hlf6929s","60c7c096903b9b083aa00c4f","freq","img/orange_2bandit_b2.png","70","70","test","1","133","133","6","",""
"null","205791","pSARL_v2","pSARL_v2hlf6929s","60c7c096903b9b083aa00c4f","freq_resp","img/orange_2bandit_b.png","70","70","test","","","","6","",""
"null","205962","pSARL_v2","pSARL_v2hlf6929s","60c7c096903b9b083aa00c4f","fixation","img/fixation.png","null","","test","","","","","",""
"30.399999976158142","205997","pSARL_v2","pSARL_v2hlf6929s","60c7c096903b9b083aa00c4f","freq","img/orange_2bandit_b2.png","70","70","test","1","134","134","6","",""
"null","206773","pSARL_v2","pSARL_v2hlf6929s","60c7c096903b9b083aa00c4f","freq_resp","img/orange_2bandit_b.png","70","70","test","","","","6","",""
"null","206944","pSARL_v2","pSARL_v2hlf6929s","60c7c096903b9b083aa00c4f","fixation","img/fixation.png","null","","test","","","","","",""
"274.2999999523163","207224","pSARL_v2","pSARL_v2hlf6929s","60c7c096903b9b083aa00c4f","freq","img/orange_2bandit_b2.png","70","70","test","1","135","135","6","",""
"null","207754","pSARL_v2","pSARL_v2hlf6929s","60c7c096903b9b083aa00c4f","freq_resp","img/orange_2bandit_b.png","70","70","test","","","","6","",""
"null","207912","pSARL_v2","pSARL_v2hlf6929s","60c7c096903b9b083aa00c4f","fixation","img/fixation.png","null","","test","","","","","",""
"203.39999997615814","208120","pSARL_v2","pSARL_v2hlf6929s","60c7c096903b9b083aa00c4f","freq","img/orange_2bandit_b2.png","70","70","test","1","136","136","6","",""
"null","208726","pSARL_v2","pSARL_v2hlf6929s","60c7c096903b9b083aa00c4f","freq_resp","img/orange_2bandit_b.png","70","70","test","","","","6","",""
"null","208881","pSARL_v2","pSARL_v2hlf6929s","60c7c096903b9b083aa00c4f","fixation","img/fixation.png","null","","test","","","","","",""
"611.6000000238419","209497","pSARL_v2","pSARL_v2hlf6929s","60c7c096903b9b083aa00c4f","reward","img/slot.png","74","","test","","","","","",""
"null","210252","pSARL_v2","pSARL_v2hlf6929s","60c7c096903b9b083aa00c4f","points","<div class=""verylowPoints""> -7 </div>","null","na","test","","","","6","-7","5"
"613.2999999523163","210868","pSARL_v2","pSARL_v2hlf6929s","60c7c096903b9b083aa00c4f","freq","img/orange_2bandit_b2.png","70","70","test","1","137","137","7","",""
"null","211061","pSARL_v2","pSARL_v2hlf6929s","60c7c096903b9b083aa00c4f","freq_resp","img/orange_2bandit_b.png","70","70","test","","","","7","",""
"null","211217","pSARL_v2","pSARL_v2hlf6929s","60c7c096903b9b083aa00c4f","fixation","img/fixation.png","null","","test","","","","","",""
"326.8000000715256","211547","pSARL_v2","pSARL_v2hlf6929s","60c7c096903b9b083aa00c4f","freq","img/orange_2bandit_b2.png","70","70","test","1","138","138","7","",""
"null","212030","pSARL_v2","pSARL_v2hlf6929s","60c7c096903b9b083aa00c4f","freq_resp","img/orange_2bandit_b.png","70","70","test","","","","7","",""
"null","212188","pSARL_v2","pSARL_v2hlf6929s","60c7c096903b9b083aa00c4f","fixation","img/fixation.png","null","","test","","","","","",""
"141.80000007152557","212335","pSARL_v2","pSARL_v2hlf6929s","60c7c096903b9b083aa00c4f","freq","img/orange_2bandit_b2.png","70","70","test","1","139","139","7","",""
"null","213009","pSARL_v2","pSARL_v2hlf6929s","60c7c096903b9b083aa00c4f","freq_resp","img/orange_2bandit_b.png","70","70","test","","","","7","",""
"null","213165","pSARL_v2","pSARL_v2hlf6929s","60c7c096903b9b083aa00c4f","fixation","img/fixation.png","null","","test","","","","","",""
"269.59999990463257","213441","pSARL_v2","pSARL_v2hlf6929s","60c7c096903b9b083aa00c4f","freq","img/orange_2bandit_b2.png","70","70","test","1","140","140","7","",""
"null","213977","pSARL_v2","pSARL_v2hlf6929s","60c7c096903b9b083aa00c4f","freq_resp","img/orange_2bandit_b.png","70","70","test","","","","7","",""
"null","214149","pSARL_v2","pSARL_v2hlf6929s","60c7c096903b9b083aa00c4f","fixation","img/fixation.png","null","","test","","","","","",""
"160.20000004768372","214313","pSARL_v2","pSARL_v2hlf6929s","60c7c096903b9b083aa00c4f","freq","img/orange_2bandit_b2.png","70","70","test","1","141","141","7","",""
"null","214958","pSARL_v2","pSARL_v2hlf6929s","60c7c096903b9b083aa00c4f","freq_resp","img/orange_2bandit_b.png","70","70","test","","","","7","",""
"null","215115","pSARL_v2","pSARL_v2hlf6929s","60c7c096903b9b083aa00c4f","fixation","img/fixation.png","null","","test","","","","","",""
"327.5","215448","pSARL_v2","pSARL_v2hlf6929s","60c7c096903b9b083aa00c4f","freq","img/orange_2bandit_b2.png","70","70","test","1","142","142","7","",""
"null","215941","pSARL_v2","pSARL_v2hlf6929s","60c7c096903b9b083aa00c4f","freq_resp","img/orange_2bandit_b.png","70","70","test","","","","7","",""
"null","216112","pSARL_v2","pSARL_v2hlf6929s","60c7c096903b9b083aa00c4f","fixation","img/fixation.png","null","","test","","","","","",""
"330.5","216447","pSARL_v2","pSARL_v2hlf6929s","60c7c096903b9b083aa00c4f","freq","img/orange_2bandit_b2.png","68","70","test","0","143","143","7","",""
"null","216922","pSARL_v2","pSARL_v2hlf6929s","60c7c096903b9b083aa00c4f","freq_resp","img/orange_2bandit_b.png","68","70","test","","","","7","",""
"null","217077","pSARL_v2","pSARL_v2hlf6929s","60c7c096903b9b083aa00c4f","fixation","img/fixation.png","null","","test","","","","","",""
"225.5","217308","pSARL_v2","pSARL_v2hlf6929s","60c7c096903b9b083aa00c4f","infreq","img/green_2bandit_b2.png","68","68","test","1","144","144","7","",""
"null","217892","pSARL_v2","pSARL_v2hlf6929s","60c7c096903b9b083aa00c4f","infreq_resp","img/green_2bandit_b.png","68","68","test","","","","7","",""
"null","218048","pSARL_v2","pSARL_v2hlf6929s","60c7c096903b9b083aa00c4f","fixation","img/fixation.png","null","","test","","","","","",""
"446.5","218499","pSARL_v2","pSARL_v2hlf6929s","60c7c096903b9b083aa00c4f","infreq","img/green_2bandit_b2.png","70","68","test","0","145","145","7","",""
"null","218860","pSARL_v2","pSARL_v2hlf6929s","60c7c096903b9b083aa00c4f","infreq_resp","img/green_2bandit_b.png","70","68","test","","","","7","",""
"null","219015","pSARL_v2","pSARL_v2hlf6929s","60c7c096903b9b083aa00c4f","fixation","img/fixation.png","null","","test","","","","","",""
"345.5","219365","pSARL_v2","pSARL_v2hlf6929s","60c7c096903b9b083aa00c4f","freq","img/orange_2bandit_b2.png","68","70","test","0","146","146","7","",""
"null","219825","pSARL_v2","pSARL_v2hlf6929s","60c7c096903b9b083aa00c4f","freq_resp","img/orange_2bandit_b.png","68","70","test","","","","7","",""
"null","219981","pSARL_v2","pSARL_v2hlf6929s","60c7c096903b9b083aa00c4f","fixation","img/fixation.png","null","","test","","","","","",""
"121.39999997615814","220107","pSARL_v2","pSARL_v2hlf6929s","60c7c096903b9b083aa00c4f","freq","img/orange_2bandit_b2.png","70","70","test","1","147","147","7","",""
"null","220792","pSARL_v2","pSARL_v2hlf6929s","60c7c096903b9b083aa00c4f","freq_resp","img/orange_2bandit_b.png","70","70","test","","","","7","",""
"null","220960","pSARL_v2","pSARL_v2hlf6929s","60c7c096903b9b083aa00c4f","fixation","img/fixation.png","null","","test","","","","","",""
"98.79999995231628","221062","pSARL_v2","pSARL_v2hlf6929s","60c7c096903b9b083aa00c4f","freq","img/orange_2bandit_b2.png","70","70","test","1","148","148","7","",""
"null","221770","pSARL_v2","pSARL_v2hlf6929s","60c7c096903b9b083aa00c4f","freq_resp","img/orange_2bandit_b.png","70","70","test","","","","7","",""
"null","221940","pSARL_v2","pSARL_v2hlf6929s","60c7c096903b9b083aa00c4f","fixation","img/fixation.png","null","","test","","","","","",""
"394.1999999284744","222339","pSARL_v2","pSARL_v2hlf6929s","60c7c096903b9b083aa00c4f","freq","img/orange_2bandit_b2.png","70","70","test","1","149","149","7","",""
"null","222753","pSARL_v2","pSARL_v2hlf6929s","60c7c096903b9b083aa00c4f","freq_resp","img/orange_2bandit_b.png","70","70","test","","","","7","",""
"null","222921","pSARL_v2","pSARL_v2hlf6929s","60c7c096903b9b083aa00c4f","fixation","img/fixation.png","null","","test","","","","","",""
"252.19999992847443","223178","pSARL_v2","pSARL_v2hlf6929s","60c7c096903b9b083aa00c4f","freq","img/orange_2bandit_b2.png","70","70","test","1","150","150","7","",""
"null","223745","pSARL_v2","pSARL_v2hlf6929s","60c7c096903b9b083aa00c4f","freq_resp","img/orange_2bandit_b.png","70","70","test","","","","7","",""
"null","223903","pSARL_v2","pSARL_v2hlf6929s","60c7c096903b9b083aa00c4f","fixation","img/fixation.png","null","","test","","","","","",""
"75.20000004768372","223983","pSARL_v2","pSARL_v2hlf6929s","60c7c096903b9b083aa00c4f","freq","img/orange_2bandit_b2.png","70","70","test","1","151","151","7","",""
"null","224726","pSARL_v2","pSARL_v2hlf6929s","60c7c096903b9b083aa00c4f","freq_resp","img/orange_2bandit_b.png","70","70","test","","","","7","",""
"null","224882","pSARL_v2","pSARL_v2hlf6929s","60c7c096903b9b083aa00c4f","fixation","img/fixation.png","null","","test","","","","","",""
"237.29999995231628","225126","pSARL_v2","pSARL_v2hlf6929s","60c7c096903b9b083aa00c4f","freq","img/orange_2bandit_b2.png","70","70","test","1","152","152","7","",""
"null","225695","pSARL_v2","pSARL_v2hlf6929s","60c7c096903b9b083aa00c4f","freq_resp","img/orange_2bandit_b.png","70","70","test","","","","7","",""
"null","225849","pSARL_v2","pSARL_v2hlf6929s","60c7c096903b9b083aa00c4f","fixation","img/fixation.png","null","","test","","","","","",""
"76.19999992847443","225930","pSARL_v2","pSARL_v2hlf6929s","60c7c096903b9b083aa00c4f","freq","img/orange_2bandit_b2.png","70","70","test","1","153","153","7","",""
"null","226661","pSARL_v2","pSARL_v2hlf6929s","60c7c096903b9b083aa00c4f","freq_resp","img/orange_2bandit_b.png","70","70","test","","","","7","",""
"null","226819","pSARL_v2","pSARL_v2hlf6929s","60c7c096903b9b083aa00c4f","fixation","img/fixation.png","null","","test","","","","","",""
"214.39999997615814","227038","pSARL_v2","pSARL_v2hlf6929s","60c7c096903b9b083aa00c4f","freq","img/orange_2bandit_b2.png","70","70","test","1","154","154","7","",""
"null","227640","pSARL_v2","pSARL_v2hlf6929s","60c7c096903b9b083aa00c4f","freq_resp","img/orange_2bandit_b.png","70","70","test","","","","7","",""
"null","227796","pSARL_v2","pSARL_v2hlf6929s","60c7c096903b9b083aa00c4f","fixation","img/fixation.png","null","","test","","","","","",""
"147.70000004768372","227948","pSARL_v2","pSARL_v2hlf6929s","60c7c096903b9b083aa00c4f","freq","img/orange_2bandit_b2.png","70","70","test","1","155","155","7","",""
"null","228611","pSARL_v2","pSARL_v2hlf6929s","60c7c096903b9b083aa00c4f","freq_resp","img/orange_2bandit_b.png","70","70","test","","","","7","",""
"null","228769","pSARL_v2","pSARL_v2hlf6929s","60c7c096903b9b083aa00c4f","fixation","img/fixation.png","null","","test","","","","","",""
"122.80000007152557","228896","pSARL_v2","pSARL_v2hlf6929s","60c7c096903b9b083aa00c4f","freq","img/orange_2bandit_b2.png","70","70","test","1","156","156","7","",""
"null","229578","pSARL_v2","pSARL_v2hlf6929s","60c7c096903b9b083aa00c4f","freq_resp","img/orange_2bandit_b.png","70","70","test","","","","7","",""
"null","229736","pSARL_v2","pSARL_v2hlf6929s","60c7c096903b9b083aa00c4f","fixation","img/fixation.png","null","","test","","","","","",""
"494.60000002384186","230236","pSARL_v2","pSARL_v2hlf6929s","60c7c096903b9b083aa00c4f","freq","img/orange_2bandit_b2.png","70","70","test","1","157","157","7","",""
"null","230559","pSARL_v2","pSARL_v2hlf6929s","60c7c096903b9b083aa00c4f","freq_resp","img/orange_2bandit_b.png","70","70","test","","","","7","",""
"null","230715","pSARL_v2","pSARL_v2hlf6929s","60c7c096903b9b083aa00c4f","fixation","img/fixation.png","null","","test","","","","","",""
"261.60000002384186","230981","pSARL_v2","pSARL_v2hlf6929s","60c7c096903b9b083aa00c4f","freq","img/orange_2bandit_b2.png","70","70","test","1","158","158","7","",""
"null","231528","pSARL_v2","pSARL_v2hlf6929s","60c7c096903b9b083aa00c4f","freq_resp","img/orange_2bandit_b.png","70","70","test","","","","7","",""
"null","231698","pSARL_v2","pSARL_v2hlf6929s","60c7c096903b9b083aa00c4f","fixation","img/fixation.png","null","","test","","","","","",""
"145.5","231848","pSARL_v2","pSARL_v2hlf6929s","60c7c096903b9b083aa00c4f","freq","img/orange_2bandit_b2.png","70","70","test","1","159","159","7","",""
"null","232523","pSARL_v2","pSARL_v2hlf6929s","60c7c096903b9b083aa00c4f","freq_resp","img/orange_2bandit_b.png","70","70","test","","","","7","",""
"null","232694","pSARL_v2","pSARL_v2hlf6929s","60c7c096903b9b083aa00c4f","fixation","img/fixation.png","null","","test","","","","","",""
"78.30000007152557","232777","pSARL_v2","pSARL_v2hlf6929s","60c7c096903b9b083aa00c4f","freq","img/orange_2bandit_b2.png","70","70","test","1","160","160","7","",""
"null","233504","pSARL_v2","pSARL_v2hlf6929s","60c7c096903b9b083aa00c4f","freq_resp","img/orange_2bandit_b.png","70","70","test","","","","7","",""
"null","233676","pSARL_v2","pSARL_v2hlf6929s","60c7c096903b9b083aa00c4f","fixation","img/fixation.png","null","","test","","","","","",""
"577.1000000238419","234257","pSARL_v2","pSARL_v2hlf6929s","60c7c096903b9b083aa00c4f","reward","img/slot.png","74","","test","","","","","",""
"null","235013","pSARL_v2","pSARL_v2hlf6929s","60c7c096903b9b083aa00c4f","points","<div class=""verylowPoints""> -6 </div>","null","na","test","","","","7","-6","6"
"273.39999997615814","235290","pSARL_v2","pSARL_v2hlf6929s","60c7c096903b9b083aa00c4f","freq","img/orange_2bandit_b2.png","70","70","test","1","161","161","8","",""
"null","235827","pSARL_v2","pSARL_v2hlf6929s","60c7c096903b9b083aa00c4f","freq_resp","img/orange_2bandit_b.png","70","70","test","","","","8","",""
"null","235982","pSARL_v2","pSARL_v2hlf6929s","60c7c096903b9b083aa00c4f","fixation","img/fixation.png","null","","test","","","","","",""
"157.80000007152557","236144","pSARL_v2","pSARL_v2hlf6929s","60c7c096903b9b083aa00c4f","freq","img/orange_2bandit_b2.png","70","70","test","1","162","162","8","",""
"null","236795","pSARL_v2","pSARL_v2hlf6929s","60c7c096903b9b083aa00c4f","freq_resp","img/orange_2bandit_b.png","70","70","test","","","","8","",""
"null","236950","pSARL_v2","pSARL_v2hlf6929s","60c7c096903b9b083aa00c4f","fixation","img/fixation.png","null","","test","","","","","",""
"584.5","237539","pSARL_v2","pSARL_v2hlf6929s","60c7c096903b9b083aa00c4f","freq","img/orange_2bandit_b2.png","70","70","test","1","163","163","8","",""
"null","237759","pSARL_v2","pSARL_v2hlf6929s","60c7c096903b9b083aa00c4f","freq_resp","img/orange_2bandit_b.png","70","70","test","","","","8","",""
"null","237917","pSARL_v2","pSARL_v2hlf6929s","60c7c096903b9b083aa00c4f","fixation","img/fixation.png","null","","test","","","","","",""
"160.09999990463257","238083","pSARL_v2","pSARL_v2hlf6929s","60c7c096903b9b083aa00c4f","freq","img/orange_2bandit_b2.png","70","70","test","1","164","164","8","",""
"null","238737","pSARL_v2","pSARL_v2hlf6929s","60c7c096903b9b083aa00c4f","freq_resp","img/orange_2bandit_b.png","70","70","test","","","","8","",""
"null","238895","pSARL_v2","pSARL_v2hlf6929s","60c7c096903b9b083aa00c4f","fixation","img/fixation.png","null","","test","","","","","",""
"235.20000004768372","239135","pSARL_v2","pSARL_v2hlf6929s","60c7c096903b9b083aa00c4f","freq","img/orange_2bandit_b2.png","70","70","test","1","165","165","8","",""
"null","239705","pSARL_v2","pSARL_v2hlf6929s","60c7c096903b9b083aa00c4f","freq_resp","img/orange_2bandit_b.png","70","70","test","","","","8","",""
"null","239864","pSARL_v2","pSARL_v2hlf6929s","60c7c096903b9b083aa00c4f","fixation","img/fixation.png","null","","test","","","","","",""
"101","239970","pSARL_v2","pSARL_v2hlf6929s","60c7c096903b9b083aa00c4f","infreq","img/green_2bandit_b2.png","70","68","test","0","166","166","8","",""
"null","240687","pSARL_v2","pSARL_v2hlf6929s","60c7c096903b9b083aa00c4f","infreq_resp","img/green_2bandit_b.png","70","68","test","","","","8","",""
"null","240843","pSARL_v2","pSARL_v2hlf6929s","60c7c096903b9b083aa00c4f","fixation","img/fixation.png","null","","test","","","","","",""
"84.80000007152557","240933","pSARL_v2","pSARL_v2hlf6929s","60c7c096903b9b083aa00c4f","freq","img/orange_2bandit_b2.png","68","70","test","0","167","167","8","",""
"null","241654","pSARL_v2","pSARL_v2hlf6929s","60c7c096903b9b083aa00c4f","freq_resp","img/orange_2bandit_b.png","68","70","test","","","","8","",""
"null","241810","pSARL_v2","pSARL_v2hlf6929s","60c7c096903b9b083aa00c4f","fixation","img/fixation.png","null","","test","","","","","",""
"55.799999952316284","241871","pSARL_v2","pSARL_v2hlf6929s","60c7c096903b9b083aa00c4f","freq","img/orange_2bandit_b2.png","68","70","test","0","168","168","8","",""
"null","242622","pSARL_v2","pSARL_v2hlf6929s","60c7c096903b9b083aa00c4f","freq_resp","img/orange_2bandit_b.png","68","70","test","","","","8","",""
"null","242779","pSARL_v2","pSARL_v2hlf6929s","60c7c096903b9b083aa00c4f","fixation","img/fixation.png","null","","test","","","","","",""
"191.10000002384186","242975","pSARL_v2","pSARL_v2hlf6929s","60c7c096903b9b083aa00c4f","freq","img/orange_2bandit_b2.png","68","70","test","0","169","169","8","",""
"null","243594","pSARL_v2","pSARL_v2hlf6929s","60c7c096903b9b083aa00c4f","freq_resp","img/orange_2bandit_b.png","68","70","test","","","","8","",""
"null","243764","pSARL_v2","pSARL_v2hlf6929s","60c7c096903b9b083aa00c4f","fixation","img/fixation.png","null","","test","","","","","",""
"192.90000009536743","243964","pSARL_v2","pSARL_v2hlf6929s","60c7c096903b9b083aa00c4f","freq","img/orange_2bandit_b2.png","68","70","test","0","170","170","8","",""
"null","244591","pSARL_v2","pSARL_v2hlf6929s","60c7c096903b9b083aa00c4f","freq_resp","img/orange_2bandit_b.png","68","70","test","","","","8","",""
"null","244762","pSARL_v2","pSARL_v2hlf6929s","60c7c096903b9b083aa00c4f","fixation","img/fixation.png","null","","test","","","","","",""
"71.29999995231628","244838","pSARL_v2","pSARL_v2hlf6929s","60c7c096903b9b083aa00c4f","freq","img/orange_2bandit_b2.png","68","70","test","0","171","171","8","",""
"null","245587","pSARL_v2","pSARL_v2hlf6929s","60c7c096903b9b083aa00c4f","freq_resp","img/orange_2bandit_b.png","68","70","test","","","","8","",""
"null","245757","pSARL_v2","pSARL_v2hlf6929s","60c7c096903b9b083aa00c4f","fixation","img/fixation.png","null","","test","","","","","",""
"50.10000002384186","245814","pSARL_v2","pSARL_v2hlf6929s","60c7c096903b9b083aa00c4f","infreq","img/green_2bandit_b2.png","68","68","test","1","172","172","8","",""
"null","246583","pSARL_v2","pSARL_v2hlf6929s","60c7c096903b9b083aa00c4f","infreq_resp","img/green_2bandit_b.png","68","68","test","","","","8","",""
"null","246754","pSARL_v2","pSARL_v2hlf6929s","60c7c096903b9b083aa00c4f","fixation","img/fixation.png","null","","test","","","","","",""
"150.70000004768372","246911","pSARL_v2","pSARL_v2hlf6929s","60c7c096903b9b083aa00c4f","freq","img/orange_2bandit_b2.png","70","70","test","1","173","173","8","",""
"null","247576","pSARL_v2","pSARL_v2hlf6929s","60c7c096903b9b083aa00c4f","freq_resp","img/orange_2bandit_b.png","70","70","test","","","","8","",""
"null","247746","pSARL_v2","pSARL_v2hlf6929s","60c7c096903b9b083aa00c4f","fixation","img/fixation.png","null","","test","","","","","",""
"171.19999992847443","247921","pSARL_v2","pSARL_v2hlf6929s","60c7c096903b9b083aa00c4f","freq","img/orange_2bandit_b2.png","70","70","test","1","174","174","8","",""
"null","248570","pSARL_v2","pSARL_v2hlf6929s","60c7c096903b9b083aa00c4f","freq_resp","img/orange_2bandit_b.png","70","70","test","","","","8","",""
"null","248728","pSARL_v2","pSARL_v2hlf6929s","60c7c096903b9b083aa00c4f","fixation","img/fixation.png","null","","test","","","","","",""
"44","248777","pSARL_v2","pSARL_v2hlf6929s","60c7c096903b9b083aa00c4f","freq","img/orange_2bandit_b2.png","70","70","test","1","175","175","8","",""
"null","249538","pSARL_v2","pSARL_v2hlf6929s","60c7c096903b9b083aa00c4f","freq_resp","img/orange_2bandit_b.png","70","70","test","","","","8","",""
"null","249696","pSARL_v2","pSARL_v2hlf6929s","60c7c096903b9b083aa00c4f","fixation","img/fixation.png","null","","test","","","","","",""
"764.2000000476837","250465","pSARL_v2","pSARL_v2hlf6929s","60c7c096903b9b083aa00c4f","freq","img/orange_2bandit_b2.png","70","70","test","1","176","176","8","",""
"null","250504","pSARL_v2","pSARL_v2hlf6929s","60c7c096903b9b083aa00c4f","freq_resp","img/orange_2bandit_b.png","70","70","test","","","","8","",""
"null","250662","pSARL_v2","pSARL_v2hlf6929s","60c7c096903b9b083aa00c4f","fixation","img/fixation.png","null","","test","","","","","",""
"779","251447","pSARL_v2","pSARL_v2hlf6929s","60c7c096903b9b083aa00c4f","freq","img/orange_2bandit_b2.png","70","70","test","1","177","177","8","",""
"null","251472","pSARL_v2","pSARL_v2hlf6929s","60c7c096903b9b083aa00c4f","freq_resp","img/orange_2bandit_b.png","70","70","test","","","","8","",""
"null","251640","pSARL_v2","pSARL_v2hlf6929s","60c7c096903b9b083aa00c4f","fixation","img/fixation.png","null","","test","","","","","",""
"616.1000000238419","252262","pSARL_v2","pSARL_v2hlf6929s","60c7c096903b9b083aa00c4f","freq","img/orange_2bandit_b2.png","70","70","test","1","178","178","8","",""
"null","252453","pSARL_v2","pSARL_v2hlf6929s","60c7c096903b9b083aa00c4f","freq_resp","img/orange_2bandit_b.png","70","70","test","","","","8","",""
"null","252621","pSARL_v2","pSARL_v2hlf6929s","60c7c096903b9b083aa00c4f","fixation","img/fixation.png","null","","test","","","","","",""
"346.89999997615814","252973","pSARL_v2","pSARL_v2hlf6929s","60c7c096903b9b083aa00c4f","freq","img/orange_2bandit_b2.png","70","70","test","1","179","179","8","",""
"null","253446","pSARL_v2","pSARL_v2hlf6929s","60c7c096903b9b083aa00c4f","freq_resp","img/orange_2bandit_b.png","70","70","test","","","","8","",""
"null","253615","pSARL_v2","pSARL_v2hlf6929s","60c7c096903b9b083aa00c4f","fixation","img/fixation.png","null","","test","","","","","",""
"118.30000007152557","253737","pSARL_v2","pSARL_v2hlf6929s","60c7c096903b9b083aa00c4f","freq","img/orange_2bandit_b2.png","70","70","test","1","180","180","8","",""
"null","254432","pSARL_v2","pSARL_v2hlf6929s","60c7c096903b9b083aa00c4f","freq_resp","img/orange_2bandit_b.png","70","70","test","","","","8","",""
"null","254587","pSARL_v2","pSARL_v2hlf6929s","60c7c096903b9b083aa00c4f","fixation","img/fixation.png","null","","test","","","","","",""
"197.39999997615814","254791","pSARL_v2","pSARL_v2hlf6929s","60c7c096903b9b083aa00c4f","freq","img/orange_2bandit_b2.png","70","70","test","1","181","181","8","",""
"null","255400","pSARL_v2","pSARL_v2hlf6929s","60c7c096903b9b083aa00c4f","freq_resp","img/orange_2bandit_b.png","70","70","test","","","","8","",""
"null","255558","pSARL_v2","pSARL_v2hlf6929s","60c7c096903b9b083aa00c4f","fixation","img/fixation.png","null","","test","","","","","",""
"1","255563","pSARL_v2","pSARL_v2hlf6929s","60c7c096903b9b083aa00c4f","freq","img/orange_2bandit_b2.png","68","70","test","0","182","182","8","",""
"null","256368","pSARL_v2","pSARL_v2hlf6929s","60c7c096903b9b083aa00c4f","freq_resp","img/orange_2bandit_b.png","68","70","test","","","","8","",""
"null","256539","pSARL_v2","pSARL_v2hlf6929s","60c7c096903b9b083aa00c4f","fixation","img/fixation.png","null","","test","","","","","",""
"253.89999997615814","256798","pSARL_v2","pSARL_v2hlf6929s","60c7c096903b9b083aa00c4f","freq","img/orange_2bandit_b2.png","70","70","test","1","183","183","8","",""
"null","257351","pSARL_v2","pSARL_v2hlf6929s","60c7c096903b9b083aa00c4f","freq_resp","img/orange_2bandit_b.png","70","70","test","","","","8","",""
"null","257509","pSARL_v2","pSARL_v2hlf6929s","60c7c096903b9b083aa00c4f","fixation","img/fixation.png","null","","test","","","","","",""
"968.7000000476837","258482","pSARL_v2","pSARL_v2hlf6929s","60c7c096903b9b083aa00c4f","reward","img/slot.png","74","","test","","","","","",""
"null","259237","pSARL_v2","pSARL_v2hlf6929s","60c7c096903b9b083aa00c4f","points","<div class=""verylowPoints""> -4 </div>","null","na","test","","","","8","-4","7"
"518.1000000238419","259759","pSARL_v2","pSARL_v2hlf6929s","60c7c096903b9b083aa00c4f","freq","img/orange_2bandit_b2.png","70","70","test","1","184","184","9","",""
"null","260046","pSARL_v2","pSARL_v2hlf6929s","60c7c096903b9b083aa00c4f","freq_resp","img/orange_2bandit_b.png","70","70","test","","","","9","",""
"null","260202","pSARL_v2","pSARL_v2hlf6929s","60c7c096903b9b083aa00c4f","fixation","img/fixation.png","null","","test","","","","","",""
"108.30000007152557","260314","pSARL_v2","pSARL_v2hlf6929s","60c7c096903b9b083aa00c4f","freq","img/orange_2bandit_b2.png","70","70","test","1","185","185","9","",""
"null","261014","pSARL_v2","pSARL_v2hlf6929s","60c7c096903b9b083aa00c4f","freq_resp","img/orange_2bandit_b.png","70","70","test","","","","9","",""
"null","261172","pSARL_v2","pSARL_v2hlf6929s","60c7c096903b9b083aa00c4f","fixation","img/fixation.png","null","","test","","","","","",""
"44.299999952316284","261220","pSARL_v2","pSARL_v2hlf6929s","60c7c096903b9b083aa00c4f","freq","img/orange_2bandit_b2.png","70","70","test","1","186","186","9","",""
"null","261982","pSARL_v2","pSARL_v2hlf6929s","60c7c096903b9b083aa00c4f","freq_resp","img/orange_2bandit_b.png","70","70","test","","","","9","",""
"null","262138","pSARL_v2","pSARL_v2hlf6929s","60c7c096903b9b083aa00c4f","fixation","img/fixation.png","null","","test","","","","","",""
"270.2000000476837","262413","pSARL_v2","pSARL_v2hlf6929s","60c7c096903b9b083aa00c4f","freq","img/orange_2bandit_b2.png","70","70","test","1","187","187","9","",""
"null","262953","pSARL_v2","pSARL_v2hlf6929s","60c7c096903b9b083aa00c4f","freq_resp","img/orange_2bandit_b.png","70","70","test","","","","9","",""
"null","263124","pSARL_v2","pSARL_v2hlf6929s","60c7c096903b9b083aa00c4f","fixation","img/fixation.png","null","","test","","","","","",""
"139.10000002384186","263268","pSARL_v2","pSARL_v2hlf6929s","60c7c096903b9b083aa00c4f","freq","img/orange_2bandit_b2.png","68","70","test","0","188","188","9","",""
"null","263935","pSARL_v2","pSARL_v2hlf6929s","60c7c096903b9b083aa00c4f","freq_resp","img/orange_2bandit_b.png","68","70","test","","","","9","",""
"null","264092","pSARL_v2","pSARL_v2hlf6929s","60c7c096903b9b083aa00c4f","fixation","img/fixation.png","null","","test","","","","","",""
"15.5","264111","pSARL_v2","pSARL_v2hlf6929s","60c7c096903b9b083aa00c4f","freq","img/orange_2bandit_b2.png","70","70","test","1","189","189","9","",""
"null","264908","pSARL_v2","pSARL_v2hlf6929s","60c7c096903b9b083aa00c4f","freq_resp","img/orange_2bandit_b.png","70","70","test","","","","9","",""
"null","265063","pSARL_v2","pSARL_v2hlf6929s","60c7c096903b9b083aa00c4f","fixation","img/fixation.png","null","","test","","","","","",""
"7.700000047683716","265073","pSARL_v2","pSARL_v2hlf6929s","60c7c096903b9b083aa00c4f","freq","img/orange_2bandit_b2.png","68","70","test","0","190","190","9","",""
"null","265875","pSARL_v2","pSARL_v2hlf6929s","60c7c096903b9b083aa00c4f","freq_resp","img/orange_2bandit_b.png","68","70","test","","","","9","",""
"null","266045","pSARL_v2","pSARL_v2hlf6929s","60c7c096903b9b083aa00c4f","fixation","img/fixation.png","null","","test","","","","","",""
"158.29999995231628","266210","pSARL_v2","pSARL_v2hlf6929s","60c7c096903b9b083aa00c4f","infreq","img/green_2bandit_b2.png","68","68","test","1","191","191","9","",""
"null","266872","pSARL_v2","pSARL_v2hlf6929s","60c7c096903b9b083aa00c4f","infreq_resp","img/green_2bandit_b.png","68","68","test","","","","9","",""
"null","267041","pSARL_v2","pSARL_v2hlf6929s","60c7c096903b9b083aa00c4f","fixation","img/fixation.png","null","","test","","","","","",""
"51.10000002384186","267095","pSARL_v2","pSARL_v2hlf6929s","60c7c096903b9b083aa00c4f","freq","img/orange_2bandit_b2.png","68","70","test","0","192","192","9","",""
"null","267850","pSARL_v2","pSARL_v2hlf6929s","60c7c096903b9b083aa00c4f","freq_resp","img/orange_2bandit_b.png","68","70","test","","","","9","",""
"null","268008","pSARL_v2","pSARL_v2hlf6929s","60c7c096903b9b083aa00c4f","fixation","img/fixation.png","null","","test","","","","","",""
"383.3000000715256","268396","pSARL_v2","pSARL_v2hlf6929s","60c7c096903b9b083aa00c4f","freq","img/orange_2bandit_b2.png","70","70","test","1","193","193","9","",""
"null","268830","pSARL_v2","pSARL_v2hlf6929s","60c7c096903b9b083aa00c4f","freq_resp","img/orange_2bandit_b.png","70","70","test","","","","9","",""
"null","268988","pSARL_v2","pSARL_v2hlf6929s","60c7c096903b9b083aa00c4f","fixation","img/fixation.png","null","","test","","","","","",""
"254.39999997615814","269247","pSARL_v2","pSARL_v2hlf6929s","60c7c096903b9b083aa00c4f","infreq","img/green_2bandit_b2.png","70","68","test","0","194","194","9","",""
"null","269799","pSARL_v2","pSARL_v2hlf6929s","60c7c096903b9b083aa00c4f","infreq_resp","img/green_2bandit_b.png","70","68","test","","","","9","",""
"null","269955","pSARL_v2","pSARL_v2hlf6929s","60c7c096903b9b083aa00c4f","fixation","img/fixation.png","null","","test","","","","","",""
"71.5","270031","pSARL_v2","pSARL_v2hlf6929s","60c7c096903b9b083aa00c4f","infreq","img/green_2bandit_b2.png","68","68","test","1","195","195","9","",""
"null","270768","pSARL_v2","pSARL_v2hlf6929s","60c7c096903b9b083aa00c4f","infreq_resp","img/green_2bandit_b.png","68","68","test","","","","9","",""
"null","270925","pSARL_v2","pSARL_v2hlf6929s","60c7c096903b9b083aa00c4f","fixation","img/fixation.png","null","","test","","","","","",""
"30.90000009536743","270960","pSARL_v2","pSARL_v2hlf6929s","60c7c096903b9b083aa00c4f","freq","img/orange_2bandit_b2.png","68","70","test","0","196","196","9","",""
"null","271749","pSARL_v2","pSARL_v2hlf6929s","60c7c096903b9b083aa00c4f","freq_resp","img/orange_2bandit_b.png","68","70","test","","","","9","",""
"null","271907","pSARL_v2","pSARL_v2hlf6929s","60c7c096903b9b083aa00c4f","fixation","img/fixation.png","null","","test","","","","","",""
"250.60000002384186","272162","pSARL_v2","pSARL_v2hlf6929s","60c7c096903b9b083aa00c4f","freq","img/orange_2bandit_b2.png","70","70","test","1","197","197","9","",""
"null","272720","pSARL_v2","pSARL_v2hlf6929s","60c7c096903b9b083aa00c4f","freq_resp","img/orange_2bandit_b.png","70","70","test","","","","9","",""
"null","272890","pSARL_v2","pSARL_v2hlf6929s","60c7c096903b9b083aa00c4f","fixation","img/fixation.png","null","","test","","","","","",""
"94","272990","pSARL_v2","pSARL_v2hlf6929s","60c7c096903b9b083aa00c4f","freq","img/orange_2bandit_b2.png","70","70","test","1","198","198","9","",""
"null","273718","pSARL_v2","pSARL_v2hlf6929s","60c7c096903b9b083aa00c4f","freq_resp","img/orange_2bandit_b.png","70","70","test","","","","9","",""
"null","273874","pSARL_v2","pSARL_v2hlf6929s","60c7c096903b9b083aa00c4f","fixation","img/fixation.png","null","","test","","","","","",""
"293.5","274172","pSARL_v2","pSARL_v2hlf6929s","60c7c096903b9b083aa00c4f","freq","img/orange_2bandit_b2.png","70","70","test","1","199","199","9","",""
"null","274696","pSARL_v2","pSARL_v2hlf6929s","60c7c096903b9b083aa00c4f","freq_resp","img/orange_2bandit_b.png","70","70","test","","","","9","",""
"null","274854","pSARL_v2","pSARL_v2hlf6929s","60c7c096903b9b083aa00c4f","fixation","img/fixation.png","null","","test","","","","","",""
"101.79999995231628","274961","pSARL_v2","pSARL_v2hlf6929s","60c7c096903b9b083aa00c4f","freq","img/orange_2bandit_b2.png","70","70","test","1","200","200","9","",""
"null","275665","pSARL_v2","pSARL_v2hlf6929s","60c7c096903b9b083aa00c4f","freq_resp","img/orange_2bandit_b.png","70","70","test","","","","9","",""
"null","275824","pSARL_v2","pSARL_v2hlf6929s","60c7c096903b9b083aa00c4f","fixation","img/fixation.png","null","","test","","","","","",""
"265.89999997615814","276095","pSARL_v2","pSARL_v2hlf6929s","60c7c096903b9b083aa00c4f","freq","img/orange_2bandit_b2.png","70","70","test","1","201","201","9","",""
"null","276649","pSARL_v2","pSARL_v2hlf6929s","60c7c096903b9b083aa00c4f","freq_resp","img/orange_2bandit_b.png","70","70","test","","","","9","",""
"null","276806","pSARL_v2","pSARL_v2hlf6929s","60c7c096903b9b083aa00c4f","fixation","img/fixation.png","null","","test","","","","","",""
"92.60000002384186","276904","pSARL_v2","pSARL_v2hlf6929s","60c7c096903b9b083aa00c4f","freq","img/orange_2bandit_b2.png","70","70","test","1","202","202","9","",""
"null","277628","pSARL_v2","pSARL_v2hlf6929s","60c7c096903b9b083aa00c4f","freq_resp","img/orange_2bandit_b.png","70","70","test","","","","9","",""
"null","277785","pSARL_v2","pSARL_v2hlf6929s","60c7c096903b9b083aa00c4f","fixation","img/fixation.png","null","","test","","","","","",""
"219.70000004768372","278009","pSARL_v2","pSARL_v2hlf6929s","60c7c096903b9b083aa00c4f","freq","img/orange_2bandit_b2.png","70","70","test","1","203","203","9","",""
"null","278598","pSARL_v2","pSARL_v2hlf6929s","60c7c096903b9b083aa00c4f","freq_resp","img/orange_2bandit_b.png","70","70","test","","","","9","",""
"null","278756","pSARL_v2","pSARL_v2hlf6929s","60c7c096903b9b083aa00c4f","fixation","img/fixation.png","null","","test","","","","","",""
"66.39999997615814","278826","pSARL_v2","pSARL_v2hlf6929s","60c7c096903b9b083aa00c4f","freq","img/orange_2bandit_b2.png","70","70","test","1","204","204","9","",""
"null","279567","pSARL_v2","pSARL_v2hlf6929s","60c7c096903b9b083aa00c4f","freq_resp","img/orange_2bandit_b.png","70","70","test","","","","9","",""
"null","279723","pSARL_v2","pSARL_v2hlf6929s","60c7c096903b9b083aa00c4f","fixation","img/fixation.png","null","","test","","","","","",""
"305.5","280032","pSARL_v2","pSARL_v2hlf6929s","60c7c096903b9b083aa00c4f","freq","img/orange_2bandit_b2.png","70","70","test","1","205","205","9","",""
"null","280534","pSARL_v2","pSARL_v2hlf6929s","60c7c096903b9b083aa00c4f","freq_resp","img/orange_2bandit_b.png","70","70","test","","","","9","",""
"null","280690","pSARL_v2","pSARL_v2hlf6929s","60c7c096903b9b083aa00c4f","fixation","img/fixation.png","null","","test","","","","","",""
"104.90000009536743","280799","pSARL_v2","pSARL_v2hlf6929s","60c7c096903b9b083aa00c4f","freq","img/orange_2bandit_b2.png","70","70","test","1","206","206","9","",""
"null","281502","pSARL_v2","pSARL_v2hlf6929s","60c7c096903b9b083aa00c4f","freq_resp","img/orange_2bandit_b.png","70","70","test","","","","9","",""
"null","281657","pSARL_v2","pSARL_v2hlf6929s","60c7c096903b9b083aa00c4f","fixation","img/fixation.png","null","","test","","","","","",""
"78.80000007152557","281741","pSARL_v2","pSARL_v2hlf6929s","60c7c096903b9b083aa00c4f","freq","img/orange_2bandit_b2.png","70","70","test","1","207","207","9","",""
"null","282471","pSARL_v2","pSARL_v2hlf6929s","60c7c096903b9b083aa00c4f","freq_resp","img/orange_2bandit_b.png","70","70","test","","","","9","",""
