"rt","time_elapsed","expId","subject","prolificID","trialType","stimulus","key_press","corrresp","phase","corr","trialNum","attentionRunNum","blockNum","points","rlNum"
"13412.699999988079","13416","pSARL_v2","pSARL_v27zaa7k4r","601f5a82dc8ed94a9da4461e","","","","","","","","","","",""
"","16971","pSARL_v2","pSARL_v27zaa7k4r","601f5a82dc8ed94a9da4461e","fullscreen","","","","","","","","","",""
"57289.69999998808","74264","pSARL_v2","pSARL_v27zaa7k4r","601f5a82dc8ed94a9da4461e","","","","","","","","","","",""
"null","75073","pSARL_v2","pSARL_v27zaa7k4r","601f5a82dc8ed94a9da4461e","freqPrac","img/orange_2bandit_a2.png","null","70","prac","0","","","","",""
"null","76076","pSARL_v2","pSARL_v27zaa7k4r","601f5a82dc8ed94a9da4461e","feedback","img/tooSlow.png","null","na","prac","","","","","",""
"null","76231","pSARL_v2","pSARL_v27zaa7k4r","601f5a82dc8ed94a9da4461e","fixation","img/fixation.png","null","","prac","","","","","",""
"441.89999997615814","76676","pSARL_v2","pSARL_v27zaa7k4r","601f5a82dc8ed94a9da4461e","infreqPrac","img/green_2bandit_a2.png","70","68","prac","0","","","","",""
"441.89999997615814","77037","pSARL_v2","pSARL_v27zaa7k4r","601f5a82dc8ed94a9da4461e","infreqPrac_resp","img/green_2bandit_a.png","70","68","prac","","","","","",""
"null","78041","pSARL_v2","pSARL_v27zaa7k4r","601f5a82dc8ed94a9da4461e","feedback","img/wrongKey.png","null","na","prac","","","","","",""
"null","78196","pSARL_v2","pSARL_v27zaa7k4r","601f5a82dc8ed94a9da4461e","fixation","img/fixation.png","null","","prac","","","","","",""
"348.59999999403954","78549","pSARL_v2","pSARL_v27zaa7k4r","601f5a82dc8ed94a9da4461e","freqPrac","img/orange_2bandit_a2.png","70","70","prac","1","","","","",""
"348.59999999403954","79006","pSARL_v2","pSARL_v27zaa7k4r","601f5a82dc8ed94a9da4461e","freqPrac_resp","img/orange_2bandit_a.png","70","70","prac","","","","","",""
"null","79162","pSARL_v2","pSARL_v27zaa7k4r","601f5a82dc8ed94a9da4461e","fixation","img/fixation.png","null","","prac","","","","","",""
"486.5","79653","pSARL_v2","pSARL_v27zaa7k4r","601f5a82dc8ed94a9da4461e","infreqPrac","img/green_2bandit_a2.png","68","68","prac","1","","","","",""
"486.5","79972","pSARL_v2","pSARL_v27zaa7k4r","601f5a82dc8ed94a9da4461e","infreqPrac_resp","img/green_2bandit_a.png","68","68","prac","","","","","",""
"null","80126","pSARL_v2","pSARL_v27zaa7k4r","601f5a82dc8ed94a9da4461e","fixation","img/fixation.png","null","","prac","","","","","",""
"348.10000002384186","80477","pSARL_v2","pSARL_v27zaa7k4r","601f5a82dc8ed94a9da4461e","infreqPrac","img/green_2bandit_a2.png","68","68","prac","1","","","","",""
"348.10000002384186","80932","pSARL_v2","pSARL_v27zaa7k4r","601f5a82dc8ed94a9da4461e","infreqPrac_resp","img/green_2bandit_a.png","68","68","prac","","","","","",""
"null","81085","pSARL_v2","pSARL_v27zaa7k4r","601f5a82dc8ed94a9da4461e","fixation","img/fixation.png","null","","prac","","","","","",""
"307.80000001192093","81396","pSARL_v2","pSARL_v27zaa7k4r","601f5a82dc8ed94a9da4461e","infreqPrac","img/green_2bandit_a2.png","68","68","prac","1","","","","",""
"307.80000001192093","81892","pSARL_v2","pSARL_v27zaa7k4r","601f5a82dc8ed94a9da4461e","infreqPrac_resp","img/green_2bandit_a.png","68","68","prac","","","","","",""
"null","82047","pSARL_v2","pSARL_v27zaa7k4r","601f5a82dc8ed94a9da4461e","fixation","img/fixation.png","null","","prac","","","","","",""
"209.10000002384186","82260","pSARL_v2","pSARL_v27zaa7k4r","601f5a82dc8ed94a9da4461e","freqPrac","img/orange_2bandit_a2.png","68","70","prac","0","","","","",""
"209.10000002384186","82854","pSARL_v2","pSARL_v27zaa7k4r","601f5a82dc8ed94a9da4461e","freqPrac_resp","img/orange_2bandit_a.png","68","70","prac","","","","","",""
"null","83859","pSARL_v2","pSARL_v27zaa7k4r","601f5a82dc8ed94a9da4461e","feedback","img/wrongKey.png","null","na","prac","","","","","",""
"null","84014","pSARL_v2","pSARL_v27zaa7k4r","601f5a82dc8ed94a9da4461e","fixation","img/fixation.png","null","","prac","","","","","",""
"380.69999998807907","84397","pSARL_v2","pSARL_v27zaa7k4r","601f5a82dc8ed94a9da4461e","infreqPrac","img/green_2bandit_a2.png","68","68","prac","1","","","","",""
"380.69999998807907","84822","pSARL_v2","pSARL_v27zaa7k4r","601f5a82dc8ed94a9da4461e","infreqPrac_resp","img/green_2bandit_a.png","68","68","prac","","","","","",""
"null","84977","pSARL_v2","pSARL_v27zaa7k4r","601f5a82dc8ed94a9da4461e","fixation","img/fixation.png","null","","prac","","","","","",""
"313.2999999821186","85293","pSARL_v2","pSARL_v27zaa7k4r","601f5a82dc8ed94a9da4461e","freqPrac","img/orange_2bandit_a2.png","70","70","prac","1","","","","",""
"313.2999999821186","85785","pSARL_v2","pSARL_v27zaa7k4r","601f5a82dc8ed94a9da4461e","freqPrac_resp","img/orange_2bandit_a.png","70","70","prac","","","","","",""
"null","85938","pSARL_v2","pSARL_v27zaa7k4r","601f5a82dc8ed94a9da4461e","fixation","img/fixation.png","null","","prac","","","","","",""
"294.59999999403954","86236","pSARL_v2","pSARL_v27zaa7k4r","601f5a82dc8ed94a9da4461e","freqPrac","img/orange_2bandit_a2.png","70","70","prac","1","","","","",""
"294.59999999403954","86744","pSARL_v2","pSARL_v27zaa7k4r","601f5a82dc8ed94a9da4461e","freqPrac_resp","img/orange_2bandit_a.png","70","70","prac","","","","","",""
"null","86899","pSARL_v2","pSARL_v27zaa7k4r","601f5a82dc8ed94a9da4461e","fixation","img/fixation.png","null","","prac","","","","","",""
"27607.79999998212","114510","pSARL_v2","pSARL_v27zaa7k4r","601f5a82dc8ed94a9da4461e","","","","","prac","","","","","",""
"1218.2000000178814","115733","pSARL_v2","pSARL_v27zaa7k4r","601f5a82dc8ed94a9da4461e","rewardPractice","img/slot.png","74","","prac","","","","","",""
"null","116488","pSARL_v2","pSARL_v27zaa7k4r","601f5a82dc8ed94a9da4461e","feedback","<div class=""veryhighPoints""> +15 </div>","null","na","prac","","","","","",""
"null","116643","pSARL_v2","pSARL_v27zaa7k4r","601f5a82dc8ed94a9da4461e","fixation","img/fixation.png","null","","prac","","","","","",""
"127244.40000000596","243890","pSARL_v2","pSARL_v27zaa7k4r","601f5a82dc8ed94a9da4461e","","","","","prac","","","","","",""
"598.3000000119209","244491","pSARL_v2","pSARL_v27zaa7k4r","601f5a82dc8ed94a9da4461e","freq","img/orange_2bandit_a2.png","70","70","test","1","1","1","1","",""
"null","244698","pSARL_v2","pSARL_v27zaa7k4r","601f5a82dc8ed94a9da4461e","freq_resp","img/orange_2bandit_a.png","70","70","test","","","","1","",""
"null","244853","pSARL_v2","pSARL_v27zaa7k4r","601f5a82dc8ed94a9da4461e","fixation","img/fixation.png","null","","test","","","","","",""
"372.7999999821186","245230","pSARL_v2","pSARL_v27zaa7k4r","601f5a82dc8ed94a9da4461e","freq","img/orange_2bandit_a2.png","70","70","test","1","2","2","1","",""
"null","245661","pSARL_v2","pSARL_v27zaa7k4r","601f5a82dc8ed94a9da4461e","freq_resp","img/orange_2bandit_a.png","70","70","test","","","","1","",""
"null","245814","pSARL_v2","pSARL_v27zaa7k4r","601f5a82dc8ed94a9da4461e","fixation","img/fixation.png","null","","test","","","","","",""
"114.2999999821186","245932","pSARL_v2","pSARL_v27zaa7k4r","601f5a82dc8ed94a9da4461e","freq","img/orange_2bandit_a2.png","70","70","test","1","3","3","1","",""
"null","246622","pSARL_v2","pSARL_v27zaa7k4r","601f5a82dc8ed94a9da4461e","freq_resp","img/orange_2bandit_a.png","70","70","test","","","","1","",""
"null","246776","pSARL_v2","pSARL_v27zaa7k4r","601f5a82dc8ed94a9da4461e","fixation","img/fixation.png","null","","test","","","","","",""
"240.90000000596046","247022","pSARL_v2","pSARL_v27zaa7k4r","601f5a82dc8ed94a9da4461e","freq","img/orange_2bandit_a2.png","70","70","test","1","4","4","1","",""
"null","247586","pSARL_v2","pSARL_v27zaa7k4r","601f5a82dc8ed94a9da4461e","freq_resp","img/orange_2bandit_a.png","70","70","test","","","","1","",""
"null","247742","pSARL_v2","pSARL_v27zaa7k4r","601f5a82dc8ed94a9da4461e","fixation","img/fixation.png","null","","test","","","","","",""
"115.19999998807907","247860","pSARL_v2","pSARL_v27zaa7k4r","601f5a82dc8ed94a9da4461e","freq","img/orange_2bandit_a2.png","70","70","test","1","5","5","1","",""
"null","248549","pSARL_v2","pSARL_v27zaa7k4r","601f5a82dc8ed94a9da4461e","freq_resp","img/orange_2bandit_a.png","70","70","test","","","","1","",""
"null","248703","pSARL_v2","pSARL_v27zaa7k4r","601f5a82dc8ed94a9da4461e","fixation","img/fixation.png","null","","test","","","","","",""
"386.19999998807907","249093","pSARL_v2","pSARL_v27zaa7k4r","601f5a82dc8ed94a9da4461e","freq","img/orange_2bandit_a2.png","70","70","test","1","6","6","1","",""
"null","249511","pSARL_v2","pSARL_v27zaa7k4r","601f5a82dc8ed94a9da4461e","freq_resp","img/orange_2bandit_a.png","70","70","test","","","","1","",""
"null","249666","pSARL_v2","pSARL_v27zaa7k4r","601f5a82dc8ed94a9da4461e","fixation","img/fixation.png","null","","test","","","","","",""
"382.5","250052","pSARL_v2","pSARL_v27zaa7k4r","601f5a82dc8ed94a9da4461e","freq","img/orange_2bandit_a2.png","70","70","test","1","7","7","1","",""
"null","250474","pSARL_v2","pSARL_v27zaa7k4r","601f5a82dc8ed94a9da4461e","freq_resp","img/orange_2bandit_a.png","70","70","test","","","","1","",""
"null","250630","pSARL_v2","pSARL_v27zaa7k4r","601f5a82dc8ed94a9da4461e","fixation","img/fixation.png","null","","test","","","","","",""
"330.59999999403954","250964","pSARL_v2","pSARL_v27zaa7k4r","601f5a82dc8ed94a9da4461e","freq","img/orange_2bandit_a2.png","70","70","test","1","8","8","1","",""
"null","251438","pSARL_v2","pSARL_v27zaa7k4r","601f5a82dc8ed94a9da4461e","freq_resp","img/orange_2bandit_a.png","70","70","test","","","","1","",""
"null","251592","pSARL_v2","pSARL_v27zaa7k4r","601f5a82dc8ed94a9da4461e","fixation","img/fixation.png","null","","test","","","","","",""
"297.80000001192093","251893","pSARL_v2","pSARL_v27zaa7k4r","601f5a82dc8ed94a9da4461e","freq","img/orange_2bandit_a2.png","70","70","test","1","9","9","1","",""
"null","252401","pSARL_v2","pSARL_v27zaa7k4r","601f5a82dc8ed94a9da4461e","freq_resp","img/orange_2bandit_a.png","70","70","test","","","","1","",""
"null","252555","pSARL_v2","pSARL_v27zaa7k4r","601f5a82dc8ed94a9da4461e","fixation","img/fixation.png","null","","test","","","","","",""
"118.19999998807907","252677","pSARL_v2","pSARL_v27zaa7k4r","601f5a82dc8ed94a9da4461e","freq","img/orange_2bandit_a2.png","70","70","test","1","10","10","1","",""
"null","253363","pSARL_v2","pSARL_v27zaa7k4r","601f5a82dc8ed94a9da4461e","freq_resp","img/orange_2bandit_a.png","70","70","test","","","","1","",""
"null","253519","pSARL_v2","pSARL_v27zaa7k4r","601f5a82dc8ed94a9da4461e","fixation","img/fixation.png","null","","test","","","","","",""
"49.5","253574","pSARL_v2","pSARL_v27zaa7k4r","601f5a82dc8ed94a9da4461e","freq","img/orange_2bandit_a2.png","70","70","test","1","11","11","1","",""
"null","254328","pSARL_v2","pSARL_v27zaa7k4r","601f5a82dc8ed94a9da4461e","freq_resp","img/orange_2bandit_a.png","70","70","test","","","","1","",""
"null","254483","pSARL_v2","pSARL_v27zaa7k4r","601f5a82dc8ed94a9da4461e","fixation","img/fixation.png","null","","test","","","","","",""
"44.69999998807907","254533","pSARL_v2","pSARL_v27zaa7k4r","601f5a82dc8ed94a9da4461e","freq","img/orange_2bandit_a2.png","70","70","test","1","12","12","1","",""
"null","255293","pSARL_v2","pSARL_v27zaa7k4r","601f5a82dc8ed94a9da4461e","freq_resp","img/orange_2bandit_a.png","70","70","test","","","","1","",""
"null","255448","pSARL_v2","pSARL_v27zaa7k4r","601f5a82dc8ed94a9da4461e","fixation","img/fixation.png","null","","test","","","","","",""
"64.5","255517","pSARL_v2","pSARL_v27zaa7k4r","601f5a82dc8ed94a9da4461e","freq","img/orange_2bandit_a2.png","70","70","test","1","13","13","1","",""
"null","256259","pSARL_v2","pSARL_v27zaa7k4r","601f5a82dc8ed94a9da4461e","freq_resp","img/orange_2bandit_a.png","70","70","test","","","","1","",""
"null","256413","pSARL_v2","pSARL_v27zaa7k4r","601f5a82dc8ed94a9da4461e","fixation","img/fixation.png","null","","test","","","","","",""
"739","257156","pSARL_v2","pSARL_v27zaa7k4r","601f5a82dc8ed94a9da4461e","freq","img/orange_2bandit_a2.png","70","70","test","1","14","14","1","",""
"null","257221","pSARL_v2","pSARL_v27zaa7k4r","601f5a82dc8ed94a9da4461e","freq_resp","img/orange_2bandit_a.png","70","70","test","","","","1","",""
"null","257376","pSARL_v2","pSARL_v27zaa7k4r","601f5a82dc8ed94a9da4461e","fixation","img/fixation.png","null","","test","","","","","",""
"610.0999999940395","257989","pSARL_v2","pSARL_v27zaa7k4r","601f5a82dc8ed94a9da4461e","freq","img/orange_2bandit_a2.png","70","70","test","1","15","15","1","",""
"null","258183","pSARL_v2","pSARL_v27zaa7k4r","601f5a82dc8ed94a9da4461e","freq_resp","img/orange_2bandit_a.png","70","70","test","","","","1","",""
"null","258338","pSARL_v2","pSARL_v27zaa7k4r","601f5a82dc8ed94a9da4461e","fixation","img/fixation.png","null","","test","","","","","",""
"5.699999988079071","258347","pSARL_v2","pSARL_v27zaa7k4r","601f5a82dc8ed94a9da4461e","freq","img/orange_2bandit_a2.png","70","70","test","1","16","16","1","",""
"null","259146","pSARL_v2","pSARL_v27zaa7k4r","601f5a82dc8ed94a9da4461e","freq_resp","img/orange_2bandit_a.png","70","70","test","","","","1","",""
"null","259302","pSARL_v2","pSARL_v27zaa7k4r","601f5a82dc8ed94a9da4461e","fixation","img/fixation.png","null","","test","","","","","",""
"112.90000000596046","259418","pSARL_v2","pSARL_v27zaa7k4r","601f5a82dc8ed94a9da4461e","infreq","img/green_2bandit_a2.png","70","68","test","0","17","17","1","",""
"null","260109","pSARL_v2","pSARL_v27zaa7k4r","601f5a82dc8ed94a9da4461e","infreq_resp","img/green_2bandit_a.png","70","68","test","","","","1","",""
"null","260264","pSARL_v2","pSARL_v27zaa7k4r","601f5a82dc8ed94a9da4461e","fixation","img/fixation.png","null","","test","","","","","",""
"23.399999976158142","260290","pSARL_v2","pSARL_v27zaa7k4r","601f5a82dc8ed94a9da4461e","infreq","img/green_2bandit_a2.png","68","68","test","1","18","18","1","",""
"null","261070","pSARL_v2","pSARL_v27zaa7k4r","601f5a82dc8ed94a9da4461e","infreq_resp","img/green_2bandit_a.png","68","68","test","","","","1","",""
"null","261222","pSARL_v2","pSARL_v27zaa7k4r","601f5a82dc8ed94a9da4461e","fixation","img/fixation.png","null","","test","","","","","",""
"441","261665","pSARL_v2","pSARL_v27zaa7k4r","601f5a82dc8ed94a9da4461e","freq","img/orange_2bandit_a2.png","70","70","test","1","19","19","1","",""
"null","262027","pSARL_v2","pSARL_v27zaa7k4r","601f5a82dc8ed94a9da4461e","freq_resp","img/orange_2bandit_a.png","70","70","test","","","","1","",""
"null","262183","pSARL_v2","pSARL_v27zaa7k4r","601f5a82dc8ed94a9da4461e","fixation","img/fixation.png","null","","test","","","","","",""
"1072.9000000059605","263261","pSARL_v2","pSARL_v27zaa7k4r","601f5a82dc8ed94a9da4461e","reward","img/slot.png","74","","test","","","","","",""
"null","264016","pSARL_v2","pSARL_v27zaa7k4r","601f5a82dc8ed94a9da4461e","points","<div class=""verylowPoints""> -6 </div>","null","na","test","","","","1","-6","0"
"552","264570","pSARL_v2","pSARL_v27zaa7k4r","601f5a82dc8ed94a9da4461e","freq","img/orange_2bandit_a2.png","70","70","test","1","20","20","2","",""
"null","264823","pSARL_v2","pSARL_v27zaa7k4r","601f5a82dc8ed94a9da4461e","freq_resp","img/orange_2bandit_a.png","70","70","test","","","","2","",""
"null","264978","pSARL_v2","pSARL_v27zaa7k4r","601f5a82dc8ed94a9da4461e","fixation","img/fixation.png","null","","test","","","","","",""
"335.19999998807907","265317","pSARL_v2","pSARL_v27zaa7k4r","601f5a82dc8ed94a9da4461e","freq","img/orange_2bandit_a2.png","70","70","test","1","21","21","2","",""
"null","265788","pSARL_v2","pSARL_v27zaa7k4r","601f5a82dc8ed94a9da4461e","freq_resp","img/orange_2bandit_a.png","70","70","test","","","","2","",""
"null","265944","pSARL_v2","pSARL_v27zaa7k4r","601f5a82dc8ed94a9da4461e","fixation","img/fixation.png","null","","test","","","","","",""
"170","266118","pSARL_v2","pSARL_v27zaa7k4r","601f5a82dc8ed94a9da4461e","freq","img/orange_2bandit_a2.png","70","70","test","1","22","22","2","",""
"null","266753","pSARL_v2","pSARL_v27zaa7k4r","601f5a82dc8ed94a9da4461e","freq_resp","img/orange_2bandit_a.png","70","70","test","","","","2","",""
"null","266909","pSARL_v2","pSARL_v27zaa7k4r","601f5a82dc8ed94a9da4461e","fixation","img/fixation.png","null","","test","","","","","",""
"250","267161","pSARL_v2","pSARL_v27zaa7k4r","601f5a82dc8ed94a9da4461e","freq","img/orange_2bandit_a2.png","70","70","test","1","23","23","2","",""
"null","267715","pSARL_v2","pSARL_v27zaa7k4r","601f5a82dc8ed94a9da4461e","freq_resp","img/orange_2bandit_a.png","70","70","test","","","","2","",""
"null","267869","pSARL_v2","pSARL_v27zaa7k4r","601f5a82dc8ed94a9da4461e","fixation","img/fixation.png","null","","test","","","","","",""
"99.69999998807907","267973","pSARL_v2","pSARL_v27zaa7k4r","601f5a82dc8ed94a9da4461e","freq","img/orange_2bandit_a2.png","70","70","test","1","24","24","2","",""
"null","268679","pSARL_v2","pSARL_v27zaa7k4r","601f5a82dc8ed94a9da4461e","freq_resp","img/orange_2bandit_a.png","70","70","test","","","","2","",""
"null","268832","pSARL_v2","pSARL_v27zaa7k4r","601f5a82dc8ed94a9da4461e","fixation","img/fixation.png","null","","test","","","","","",""
"648.3999999761581","269484","pSARL_v2","pSARL_v27zaa7k4r","601f5a82dc8ed94a9da4461e","freq","img/orange_2bandit_a2.png","70","70","test","1","25","25","2","",""
"null","269640","pSARL_v2","pSARL_v27zaa7k4r","601f5a82dc8ed94a9da4461e","freq_resp","img/orange_2bandit_a.png","70","70","test","","","","2","",""
"null","269795","pSARL_v2","pSARL_v27zaa7k4r","601f5a82dc8ed94a9da4461e","fixation","img/fixation.png","null","","test","","","","","",""
"319.40000000596046","270118","pSARL_v2","pSARL_v27zaa7k4r","601f5a82dc8ed94a9da4461e","freq","img/orange_2bandit_a2.png","70","70","test","1","26","26","2","",""
"null","270603","pSARL_v2","pSARL_v27zaa7k4r","601f5a82dc8ed94a9da4461e","freq_resp","img/orange_2bandit_a.png","70","70","test","","","","2","",""
"null","270757","pSARL_v2","pSARL_v27zaa7k4r","601f5a82dc8ed94a9da4461e","fixation","img/fixation.png","null","","test","","","","","",""
"51.599999994039536","270810","pSARL_v2","pSARL_v27zaa7k4r","601f5a82dc8ed94a9da4461e","freq","img/orange_2bandit_a2.png","70","70","test","1","27","27","2","",""
"null","271564","pSARL_v2","pSARL_v27zaa7k4r","601f5a82dc8ed94a9da4461e","freq_resp","img/orange_2bandit_a.png","70","70","test","","","","2","",""
"null","271720","pSARL_v2","pSARL_v27zaa7k4r","601f5a82dc8ed94a9da4461e","fixation","img/fixation.png","null","","test","","","","","",""
"665.1999999880791","272388","pSARL_v2","pSARL_v27zaa7k4r","601f5a82dc8ed94a9da4461e","freq","img/orange_2bandit_a2.png","70","70","test","1","28","28","2","",""
"null","272527","pSARL_v2","pSARL_v27zaa7k4r","601f5a82dc8ed94a9da4461e","freq_resp","img/orange_2bandit_a.png","70","70","test","","","","2","",""
"null","272683","pSARL_v2","pSARL_v27zaa7k4r","601f5a82dc8ed94a9da4461e","fixation","img/fixation.png","null","","test","","","","","",""
"253.7999999821186","272941","pSARL_v2","pSARL_v27zaa7k4r","601f5a82dc8ed94a9da4461e","infreq","img/green_2bandit_a2.png","70","68","test","0","29","29","2","",""
"null","273492","pSARL_v2","pSARL_v27zaa7k4r","601f5a82dc8ed94a9da4461e","infreq_resp","img/green_2bandit_a.png","70","68","test","","","","2","",""
"null","273646","pSARL_v2","pSARL_v27zaa7k4r","601f5a82dc8ed94a9da4461e","fixation","img/fixation.png","null","","test","","","","","",""
"339.69999998807907","273989","pSARL_v2","pSARL_v27zaa7k4r","601f5a82dc8ed94a9da4461e","infreq","img/green_2bandit_a2.png","68","68","test","1","30","30","2","",""
"null","274455","pSARL_v2","pSARL_v27zaa7k4r","601f5a82dc8ed94a9da4461e","infreq_resp","img/green_2bandit_a.png","68","68","test","","","","2","",""
"null","274609","pSARL_v2","pSARL_v27zaa7k4r","601f5a82dc8ed94a9da4461e","fixation","img/fixation.png","null","","test","","","","","",""
"487.5","275100","pSARL_v2","pSARL_v27zaa7k4r","601f5a82dc8ed94a9da4461e","freq","img/orange_2bandit_a2.png","68","70","test","0","31","31","2","",""
"null","275418","pSARL_v2","pSARL_v27zaa7k4r","601f5a82dc8ed94a9da4461e","freq_resp","img/orange_2bandit_a.png","68","70","test","","","","2","",""
"null","275571","pSARL_v2","pSARL_v27zaa7k4r","601f5a82dc8ed94a9da4461e","fixation","img/fixation.png","null","","test","","","","","",""
"415.5","275989","pSARL_v2","pSARL_v27zaa7k4r","601f5a82dc8ed94a9da4461e","freq","img/orange_2bandit_a2.png","70","70","test","1","32","32","2","",""
"null","276377","pSARL_v2","pSARL_v27zaa7k4r","601f5a82dc8ed94a9da4461e","freq_resp","img/orange_2bandit_a.png","70","70","test","","","","2","",""
"null","276533","pSARL_v2","pSARL_v27zaa7k4r","601f5a82dc8ed94a9da4461e","fixation","img/fixation.png","null","","test","","","","","",""
"314.80000001192093","276852","pSARL_v2","pSARL_v27zaa7k4r","601f5a82dc8ed94a9da4461e","freq","img/orange_2bandit_a2.png","70","70","test","1","33","33","2","",""
"null","277343","pSARL_v2","pSARL_v27zaa7k4r","601f5a82dc8ed94a9da4461e","freq_resp","img/orange_2bandit_a.png","70","70","test","","","","2","",""
"null","277497","pSARL_v2","pSARL_v27zaa7k4r","601f5a82dc8ed94a9da4461e","fixation","img/fixation.png","null","","test","","","","","",""
"176.7000000178814","277678","pSARL_v2","pSARL_v27zaa7k4r","601f5a82dc8ed94a9da4461e","infreq","img/green_2bandit_a2.png","70","68","test","0","34","34","2","",""
"null","278305","pSARL_v2","pSARL_v27zaa7k4r","601f5a82dc8ed94a9da4461e","infreq_resp","img/green_2bandit_a.png","70","68","test","","","","2","",""
"null","278461","pSARL_v2","pSARL_v27zaa7k4r","601f5a82dc8ed94a9da4461e","fixation","img/fixation.png","null","","test","","","","","",""
"386.09999999403954","278849","pSARL_v2","pSARL_v27zaa7k4r","601f5a82dc8ed94a9da4461e","freq","img/orange_2bandit_a2.png","70","70","test","1","35","35","2","",""
"null","279268","pSARL_v2","pSARL_v27zaa7k4r","601f5a82dc8ed94a9da4461e","freq_resp","img/orange_2bandit_a.png","70","70","test","","","","2","",""
"null","279422","pSARL_v2","pSARL_v27zaa7k4r","601f5a82dc8ed94a9da4461e","fixation","img/fixation.png","null","","test","","","","","",""
"262.90000000596046","279688","pSARL_v2","pSARL_v27zaa7k4r","601f5a82dc8ed94a9da4461e","freq","img/orange_2bandit_a2.png","70","70","test","1","36","36","2","",""
"null","280229","pSARL_v2","pSARL_v27zaa7k4r","601f5a82dc8ed94a9da4461e","freq_resp","img/orange_2bandit_a.png","70","70","test","","","","2","",""
"null","280385","pSARL_v2","pSARL_v27zaa7k4r","601f5a82dc8ed94a9da4461e","fixation","img/fixation.png","null","","test","","","","","",""
"119.40000000596046","280508","pSARL_v2","pSARL_v27zaa7k4r","601f5a82dc8ed94a9da4461e","freq","img/orange_2bandit_a2.png","70","70","test","1","37","37","2","",""
"null","281193","pSARL_v2","pSARL_v27zaa7k4r","601f5a82dc8ed94a9da4461e","freq_resp","img/orange_2bandit_a.png","70","70","test","","","","2","",""
"null","281348","pSARL_v2","pSARL_v27zaa7k4r","601f5a82dc8ed94a9da4461e","fixation","img/fixation.png","null","","test","","","","","",""
"253.09999999403954","281605","pSARL_v2","pSARL_v27zaa7k4r","601f5a82dc8ed94a9da4461e","freq","img/orange_2bandit_a2.png","70","70","test","1","38","38","2","",""
"null","282156","pSARL_v2","pSARL_v27zaa7k4r","601f5a82dc8ed94a9da4461e","freq_resp","img/orange_2bandit_a.png","70","70","test","","","","2","",""
"null","282312","pSARL_v2","pSARL_v27zaa7k4r","601f5a82dc8ed94a9da4461e","fixation","img/fixation.png","null","","test","","","","","",""
"102.40000000596046","282417","pSARL_v2","pSARL_v27zaa7k4r","601f5a82dc8ed94a9da4461e","freq","img/orange_2bandit_a2.png","70","70","test","1","39","39","2","",""
"null","283118","pSARL_v2","pSARL_v27zaa7k4r","601f5a82dc8ed94a9da4461e","freq_resp","img/orange_2bandit_a.png","70","70","test","","","","2","",""
"null","283271","pSARL_v2","pSARL_v27zaa7k4r","601f5a82dc8ed94a9da4461e","fixation","img/fixation.png","null","","test","","","","","",""
"55.599999994039536","283329","pSARL_v2","pSARL_v27zaa7k4r","601f5a82dc8ed94a9da4461e","freq","img/orange_2bandit_a2.png","70","70","test","1","40","40","2","",""
"null","284079","pSARL_v2","pSARL_v27zaa7k4r","601f5a82dc8ed94a9da4461e","freq_resp","img/orange_2bandit_a.png","70","70","test","","","","2","",""
"null","284233","pSARL_v2","pSARL_v27zaa7k4r","601f5a82dc8ed94a9da4461e","fixation","img/fixation.png","null","","test","","","","","",""
"60.70000001788139","284297","pSARL_v2","pSARL_v27zaa7k4r","601f5a82dc8ed94a9da4461e","freq","img/orange_2bandit_a2.png","70","70","test","1","41","41","2","",""
"null","285040","pSARL_v2","pSARL_v27zaa7k4r","601f5a82dc8ed94a9da4461e","freq_resp","img/orange_2bandit_a.png","70","70","test","","","","2","",""
"null","285196","pSARL_v2","pSARL_v27zaa7k4r","601f5a82dc8ed94a9da4461e","fixation","img/fixation.png","null","","test","","","","","",""
"533.6999999880791","285731","pSARL_v2","pSARL_v27zaa7k4r","601f5a82dc8ed94a9da4461e","reward","img/slot.png","74","","test","","","","","",""
"null","286487","pSARL_v2","pSARL_v27zaa7k4r","601f5a82dc8ed94a9da4461e","points","<div class=""verylowPoints""> -11 </div>","null","na","test","","","","2","-11","1"
"460.30000001192093","286952","pSARL_v2","pSARL_v27zaa7k4r","601f5a82dc8ed94a9da4461e","freq","img/orange_2bandit_a2.png","70","70","test","1","42","42","3","",""
"null","287296","pSARL_v2","pSARL_v27zaa7k4r","601f5a82dc8ed94a9da4461e","freq_resp","img/orange_2bandit_a.png","70","70","test","","","","3","",""
"null","287449","pSARL_v2","pSARL_v27zaa7k4r","601f5a82dc8ed94a9da4461e","fixation","img/fixation.png","null","","test","","","","","",""
"6.5999999940395355","287457","pSARL_v2","pSARL_v27zaa7k4r","601f5a82dc8ed94a9da4461e","freq","img/orange_2bandit_a2.png","70","70","test","1","43","43","3","",""
"null","288256","pSARL_v2","pSARL_v27zaa7k4r","601f5a82dc8ed94a9da4461e","freq_resp","img/orange_2bandit_a.png","70","70","test","","","","3","",""
"null","288411","pSARL_v2","pSARL_v27zaa7k4r","601f5a82dc8ed94a9da4461e","fixation","img/fixation.png","null","","test","","","","","",""
"197.19999998807907","288613","pSARL_v2","pSARL_v27zaa7k4r","601f5a82dc8ed94a9da4461e","freq","img/orange_2bandit_a2.png","70","70","test","1","44","44","3","",""
"null","289220","pSARL_v2","pSARL_v27zaa7k4r","601f5a82dc8ed94a9da4461e","freq_resp","img/orange_2bandit_a.png","70","70","test","","","","3","",""
"null","289374","pSARL_v2","pSARL_v27zaa7k4r","601f5a82dc8ed94a9da4461e","fixation","img/fixation.png","null","","test","","","","","",""
"16.900000005960464","289394","pSARL_v2","pSARL_v27zaa7k4r","601f5a82dc8ed94a9da4461e","freq","img/orange_2bandit_a2.png","70","70","test","1","45","45","3","",""
"null","290181","pSARL_v2","pSARL_v27zaa7k4r","601f5a82dc8ed94a9da4461e","freq_resp","img/orange_2bandit_a.png","70","70","test","","","","3","",""
"null","290337","pSARL_v2","pSARL_v27zaa7k4r","601f5a82dc8ed94a9da4461e","fixation","img/fixation.png","null","","test","","","","","",""
"80.09999999403954","290421","pSARL_v2","pSARL_v27zaa7k4r","601f5a82dc8ed94a9da4461e","freq","img/orange_2bandit_a2.png","70","70","test","1","46","46","3","",""
"null","291145","pSARL_v2","pSARL_v27zaa7k4r","601f5a82dc8ed94a9da4461e","freq_resp","img/orange_2bandit_a.png","70","70","test","","","","3","",""
"null","291300","pSARL_v2","pSARL_v27zaa7k4r","601f5a82dc8ed94a9da4461e","fixation","img/fixation.png","null","","test","","","","","",""
"34.900000005960464","291339","pSARL_v2","pSARL_v27zaa7k4r","601f5a82dc8ed94a9da4461e","freq","img/orange_2bandit_a2.png","70","70","test","1","47","47","3","",""
"null","292106","pSARL_v2","pSARL_v27zaa7k4r","601f5a82dc8ed94a9da4461e","freq_resp","img/orange_2bandit_a.png","70","70","test","","","","3","",""
"null","292261","pSARL_v2","pSARL_v27zaa7k4r","601f5a82dc8ed94a9da4461e","fixation","img/fixation.png","null","","test","","","","","",""
"92.39999997615814","292356","pSARL_v2","pSARL_v27zaa7k4r","601f5a82dc8ed94a9da4461e","freq","img/orange_2bandit_a2.png","70","70","test","1","48","48","3","",""
"null","293065","pSARL_v2","pSARL_v27zaa7k4r","601f5a82dc8ed94a9da4461e","freq_resp","img/orange_2bandit_a.png","70","70","test","","","","3","",""
"null","293219","pSARL_v2","pSARL_v27zaa7k4r","601f5a82dc8ed94a9da4461e","fixation","img/fixation.png","null","","test","","","","","",""
"199.19999998807907","293423","pSARL_v2","pSARL_v27zaa7k4r","601f5a82dc8ed94a9da4461e","freq","img/orange_2bandit_a2.png","70","70","test","1","49","49","3","",""
"null","294027","pSARL_v2","pSARL_v27zaa7k4r","601f5a82dc8ed94a9da4461e","freq_resp","img/orange_2bandit_a.png","70","70","test","","","","3","",""
"null","294183","pSARL_v2","pSARL_v27zaa7k4r","601f5a82dc8ed94a9da4461e","fixation","img/fixation.png","null","","test","","","","","",""
"57.69999998807907","294245","pSARL_v2","pSARL_v27zaa7k4r","601f5a82dc8ed94a9da4461e","freq","img/orange_2bandit_a2.png","70","70","test","1","50","50","3","",""
"null","294991","pSARL_v2","pSARL_v27zaa7k4r","601f5a82dc8ed94a9da4461e","freq_resp","img/orange_2bandit_a.png","70","70","test","","","","3","",""
"null","295148","pSARL_v2","pSARL_v27zaa7k4r","601f5a82dc8ed94a9da4461e","fixation","img/fixation.png","null","","test","","","","","",""
"179.60000002384186","295331","pSARL_v2","pSARL_v27zaa7k4r","601f5a82dc8ed94a9da4461e","freq","img/orange_2bandit_a2.png","70","70","test","1","51","51","3","",""
"null","295957","pSARL_v2","pSARL_v27zaa7k4r","601f5a82dc8ed94a9da4461e","freq_resp","img/orange_2bandit_a.png","70","70","test","","","","3","",""
"null","296111","pSARL_v2","pSARL_v27zaa7k4r","601f5a82dc8ed94a9da4461e","fixation","img/fixation.png","null","","test","","","","","",""
"177.7999999821186","296291","pSARL_v2","pSARL_v27zaa7k4r","601f5a82dc8ed94a9da4461e","freq","img/orange_2bandit_a2.png","70","70","test","1","52","52","3","",""
"null","296918","pSARL_v2","pSARL_v27zaa7k4r","601f5a82dc8ed94a9da4461e","freq_resp","img/orange_2bandit_a.png","70","70","test","","","","3","",""
"null","297073","pSARL_v2","pSARL_v27zaa7k4r","601f5a82dc8ed94a9da4461e","fixation","img/fixation.png","null","","test","","","","","",""
"206.09999999403954","297282","pSARL_v2","pSARL_v27zaa7k4r","601f5a82dc8ed94a9da4461e","freq","img/orange_2bandit_a2.png","70","70","test","1","53","53","3","",""
"null","297879","pSARL_v2","pSARL_v27zaa7k4r","601f5a82dc8ed94a9da4461e","freq_resp","img/orange_2bandit_a.png","70","70","test","","","","3","",""
"null","298034","pSARL_v2","pSARL_v27zaa7k4r","601f5a82dc8ed94a9da4461e","fixation","img/fixation.png","null","","test","","","","","",""
"70.7999999821186","298108","pSARL_v2","pSARL_v27zaa7k4r","601f5a82dc8ed94a9da4461e","infreq","img/green_2bandit_a2.png","70","68","test","0","54","54","3","",""
"null","298841","pSARL_v2","pSARL_v27zaa7k4r","601f5a82dc8ed94a9da4461e","infreq_resp","img/green_2bandit_a.png","70","68","test","","","","3","",""
"null","298995","pSARL_v2","pSARL_v27zaa7k4r","601f5a82dc8ed94a9da4461e","fixation","img/fixation.png","null","","test","","","","","",""
"221.30000001192093","299220","pSARL_v2","pSARL_v27zaa7k4r","601f5a82dc8ed94a9da4461e","infreq","img/green_2bandit_a2.png","68","68","test","1","55","55","3","",""
"null","299804","pSARL_v2","pSARL_v27zaa7k4r","601f5a82dc8ed94a9da4461e","infreq_resp","img/green_2bandit_a.png","68","68","test","","","","3","",""
"null","299959","pSARL_v2","pSARL_v27zaa7k4r","601f5a82dc8ed94a9da4461e","fixation","img/fixation.png","null","","test","","","","","",""
"256.90000000596046","300219","pSARL_v2","pSARL_v27zaa7k4r","601f5a82dc8ed94a9da4461e","freq","img/orange_2bandit_a2.png","68","70","test","0","56","56","3","",""
"null","300769","pSARL_v2","pSARL_v27zaa7k4r","601f5a82dc8ed94a9da4461e","freq_resp","img/orange_2bandit_a.png","68","70","test","","","","3","",""
"null","300924","pSARL_v2","pSARL_v27zaa7k4r","601f5a82dc8ed94a9da4461e","fixation","img/fixation.png","null","","test","","","","","",""
"110.30000001192093","301039","pSARL_v2","pSARL_v27zaa7k4r","601f5a82dc8ed94a9da4461e","freq","img/orange_2bandit_a2.png","70","70","test","1","57","57","3","",""
"null","301735","pSARL_v2","pSARL_v27zaa7k4r","601f5a82dc8ed94a9da4461e","freq_resp","img/orange_2bandit_a.png","70","70","test","","","","3","",""
"null","301890","pSARL_v2","pSARL_v27zaa7k4r","601f5a82dc8ed94a9da4461e","fixation","img/fixation.png","null","","test","","","","","",""
"120","302015","pSARL_v2","pSARL_v27zaa7k4r","601f5a82dc8ed94a9da4461e","infreq","img/green_2bandit_a2.png","70","68","test","0","58","58","3","",""
"null","302700","pSARL_v2","pSARL_v27zaa7k4r","601f5a82dc8ed94a9da4461e","infreq_resp","img/green_2bandit_a.png","70","68","test","","","","3","",""
"null","302854","pSARL_v2","pSARL_v27zaa7k4r","601f5a82dc8ed94a9da4461e","fixation","img/fixation.png","null","","test","","","","","",""
"457.59999999403954","303314","pSARL_v2","pSARL_v27zaa7k4r","601f5a82dc8ed94a9da4461e","freq","img/orange_2bandit_a2.png","70","70","test","1","59","59","3","",""
"null","303661","pSARL_v2","pSARL_v27zaa7k4r","601f5a82dc8ed94a9da4461e","freq_resp","img/orange_2bandit_a.png","70","70","test","","","","3","",""
"null","303816","pSARL_v2","pSARL_v27zaa7k4r","601f5a82dc8ed94a9da4461e","fixation","img/fixation.png","null","","test","","","","","",""
"47.400000005960464","303869","pSARL_v2","pSARL_v27zaa7k4r","601f5a82dc8ed94a9da4461e","freq","img/orange_2bandit_a2.png","70","70","test","1","60","60","3","",""
"null","304625","pSARL_v2","pSARL_v27zaa7k4r","601f5a82dc8ed94a9da4461e","freq_resp","img/orange_2bandit_a.png","70","70","test","","","","3","",""
"null","304781","pSARL_v2","pSARL_v27zaa7k4r","601f5a82dc8ed94a9da4461e","fixation","img/fixation.png","null","","test","","","","","",""
"241.39999997615814","305025","pSARL_v2","pSARL_v27zaa7k4r","601f5a82dc8ed94a9da4461e","freq","img/orange_2bandit_a2.png","70","70","test","1","61","61","3","",""
"null","305586","pSARL_v2","pSARL_v27zaa7k4r","601f5a82dc8ed94a9da4461e","freq_resp","img/orange_2bandit_a.png","70","70","test","","","","3","",""
"null","305741","pSARL_v2","pSARL_v27zaa7k4r","601f5a82dc8ed94a9da4461e","fixation","img/fixation.png","null","","test","","","","","",""
"282.7999999821186","306027","pSARL_v2","pSARL_v27zaa7k4r","601f5a82dc8ed94a9da4461e","freq","img/orange_2bandit_a2.png","70","70","test","1","62","62","3","",""
"null","306550","pSARL_v2","pSARL_v27zaa7k4r","601f5a82dc8ed94a9da4461e","freq_resp","img/orange_2bandit_a.png","70","70","test","","","","3","",""
"null","306705","pSARL_v2","pSARL_v27zaa7k4r","601f5a82dc8ed94a9da4461e","fixation","img/fixation.png","null","","test","","","","","",""
"527.9000000059605","307238","pSARL_v2","pSARL_v27zaa7k4r","601f5a82dc8ed94a9da4461e","reward","img/slot.png","74","","test","","","","","",""
"null","307993","pSARL_v2","pSARL_v27zaa7k4r","601f5a82dc8ed94a9da4461e","points","<div class=""verylowPoints""> -7 </div>","null","na","test","","","","3","-7","2"
"544.1999999880791","308541","pSARL_v2","pSARL_v27zaa7k4r","601f5a82dc8ed94a9da4461e","freq","img/orange_2bandit_a2.png","70","70","test","1","63","63","4","",""
"null","308802","pSARL_v2","pSARL_v27zaa7k4r","601f5a82dc8ed94a9da4461e","freq_resp","img/orange_2bandit_a.png","70","70","test","","","","4","",""
"null","308957","pSARL_v2","pSARL_v27zaa7k4r","601f5a82dc8ed94a9da4461e","fixation","img/fixation.png","null","","test","","","","","",""
"262.59999999403954","309224","pSARL_v2","pSARL_v27zaa7k4r","601f5a82dc8ed94a9da4461e","freq","img/orange_2bandit_a2.png","70","70","test","1","64","64","4","",""
"null","309767","pSARL_v2","pSARL_v27zaa7k4r","601f5a82dc8ed94a9da4461e","freq_resp","img/orange_2bandit_a.png","70","70","test","","","","4","",""
"null","309921","pSARL_v2","pSARL_v27zaa7k4r","601f5a82dc8ed94a9da4461e","fixation","img/fixation.png","null","","test","","","","","",""
"128.19999998807907","310054","pSARL_v2","pSARL_v27zaa7k4r","601f5a82dc8ed94a9da4461e","freq","img/orange_2bandit_a2.png","70","70","test","1","65","65","4","",""
"null","310729","pSARL_v2","pSARL_v27zaa7k4r","601f5a82dc8ed94a9da4461e","freq_resp","img/orange_2bandit_a.png","70","70","test","","","","4","",""
"null","310883","pSARL_v2","pSARL_v27zaa7k4r","601f5a82dc8ed94a9da4461e","fixation","img/fixation.png","null","","test","","","","","",""
"116","311002","pSARL_v2","pSARL_v27zaa7k4r","601f5a82dc8ed94a9da4461e","freq","img/orange_2bandit_a2.png","70","70","test","1","66","66","4","",""
"null","311691","pSARL_v2","pSARL_v27zaa7k4r","601f5a82dc8ed94a9da4461e","freq_resp","img/orange_2bandit_a.png","70","70","test","","","","4","",""
"null","311844","pSARL_v2","pSARL_v27zaa7k4r","601f5a82dc8ed94a9da4461e","fixation","img/fixation.png","null","","test","","","","","",""
"76.30000001192093","311924","pSARL_v2","pSARL_v27zaa7k4r","601f5a82dc8ed94a9da4461e","freq","img/orange_2bandit_a2.png","70","70","test","1","67","67","4","",""
"null","312653","pSARL_v2","pSARL_v27zaa7k4r","601f5a82dc8ed94a9da4461e","freq_resp","img/orange_2bandit_a.png","70","70","test","","","","4","",""
"null","312805","pSARL_v2","pSARL_v27zaa7k4r","601f5a82dc8ed94a9da4461e","fixation","img/fixation.png","null","","test","","","","","",""
"59.80000001192093","312870","pSARL_v2","pSARL_v27zaa7k4r","601f5a82dc8ed94a9da4461e","freq","img/orange_2bandit_a2.png","70","70","test","1","68","68","4","",""
"null","313616","pSARL_v2","pSARL_v27zaa7k4r","601f5a82dc8ed94a9da4461e","freq_resp","img/orange_2bandit_a.png","70","70","test","","","","4","",""
"null","313768","pSARL_v2","pSARL_v27zaa7k4r","601f5a82dc8ed94a9da4461e","fixation","img/fixation.png","null","","test","","","","","",""
"475.5","314248","pSARL_v2","pSARL_v27zaa7k4r","601f5a82dc8ed94a9da4461e","infreq","img/green_2bandit_a2.png","68","68","test","1","69","69","4","",""
"null","314579","pSARL_v2","pSARL_v27zaa7k4r","601f5a82dc8ed94a9da4461e","infreq_resp","img/green_2bandit_a.png","68","68","test","","","","4","",""
"null","314732","pSARL_v2","pSARL_v27zaa7k4r","601f5a82dc8ed94a9da4461e","fixation","img/fixation.png","null","","test","","","","","",""
"36.70000001788139","314771","pSARL_v2","pSARL_v27zaa7k4r","601f5a82dc8ed94a9da4461e","freq","img/orange_2bandit_a2.png","68","70","test","0","70","70","4","",""
"null","315539","pSARL_v2","pSARL_v27zaa7k4r","601f5a82dc8ed94a9da4461e","freq_resp","img/orange_2bandit_a.png","68","70","test","","","","4","",""
"null","315695","pSARL_v2","pSARL_v27zaa7k4r","601f5a82dc8ed94a9da4461e","fixation","img/fixation.png","null","","test","","","","","",""
"299.30000001192093","315997","pSARL_v2","pSARL_v27zaa7k4r","601f5a82dc8ed94a9da4461e","infreq","img/green_2bandit_a2.png","70","68","test","0","71","71","4","",""
"null","316503","pSARL_v2","pSARL_v27zaa7k4r","601f5a82dc8ed94a9da4461e","infreq_resp","img/green_2bandit_a.png","70","68","test","","","","4","",""
"null","316660","pSARL_v2","pSARL_v27zaa7k4r","601f5a82dc8ed94a9da4461e","fixation","img/fixation.png","null","","test","","","","","",""
"0.30000001192092896","316664","pSARL_v2","pSARL_v27zaa7k4r","601f5a82dc8ed94a9da4461e","freq","img/orange_2bandit_a2.png","68","70","test","0","72","72","4","",""
"null","317466","pSARL_v2","pSARL_v27zaa7k4r","601f5a82dc8ed94a9da4461e","freq_resp","img/orange_2bandit_a.png","68","70","test","","","","4","",""
"null","317621","pSARL_v2","pSARL_v27zaa7k4r","601f5a82dc8ed94a9da4461e","fixation","img/fixation.png","null","","test","","","","","",""
"114.7999999821186","317740","pSARL_v2","pSARL_v27zaa7k4r","601f5a82dc8ed94a9da4461e","freq","img/orange_2bandit_a2.png","70","70","test","1","73","73","4","",""
"null","318430","pSARL_v2","pSARL_v27zaa7k4r","601f5a82dc8ed94a9da4461e","freq_resp","img/orange_2bandit_a.png","70","70","test","","","","4","",""
"null","318586","pSARL_v2","pSARL_v27zaa7k4r","601f5a82dc8ed94a9da4461e","fixation","img/fixation.png","null","","test","","","","","",""
"86.19999998807907","318677","pSARL_v2","pSARL_v27zaa7k4r","601f5a82dc8ed94a9da4461e","freq","img/orange_2bandit_a2.png","70","70","test","1","74","74","4","",""
"null","319395","pSARL_v2","pSARL_v27zaa7k4r","601f5a82dc8ed94a9da4461e","freq_resp","img/orange_2bandit_a.png","70","70","test","","","","4","",""
"null","319550","pSARL_v2","pSARL_v27zaa7k4r","601f5a82dc8ed94a9da4461e","fixation","img/fixation.png","null","","test","","","","","",""
"49.900000005960464","319603","pSARL_v2","pSARL_v27zaa7k4r","601f5a82dc8ed94a9da4461e","freq","img/orange_2bandit_a2.png","70","70","test","1","75","75","4","",""
"null","320358","pSARL_v2","pSARL_v27zaa7k4r","601f5a82dc8ed94a9da4461e","freq_resp","img/orange_2bandit_a.png","70","70","test","","","","4","",""
"null","320512","pSARL_v2","pSARL_v27zaa7k4r","601f5a82dc8ed94a9da4461e","fixation","img/fixation.png","null","","test","","","","","",""
"55.099999994039536","320570","pSARL_v2","pSARL_v27zaa7k4r","601f5a82dc8ed94a9da4461e","freq","img/orange_2bandit_a2.png","70","70","test","1","76","76","4","",""
"null","321318","pSARL_v2","pSARL_v27zaa7k4r","601f5a82dc8ed94a9da4461e","freq_resp","img/orange_2bandit_a.png","70","70","test","","","","4","",""
"null","321471","pSARL_v2","pSARL_v27zaa7k4r","601f5a82dc8ed94a9da4461e","fixation","img/fixation.png","null","","test","","","","","",""
"266.59999999403954","321741","pSARL_v2","pSARL_v27zaa7k4r","601f5a82dc8ed94a9da4461e","freq","img/orange_2bandit_a2.png","70","70","test","1","77","77","4","",""
"null","322280","pSARL_v2","pSARL_v27zaa7k4r","601f5a82dc8ed94a9da4461e","freq_resp","img/orange_2bandit_a.png","70","70","test","","","","4","",""
"null","322436","pSARL_v2","pSARL_v27zaa7k4r","601f5a82dc8ed94a9da4461e","fixation","img/fixation.png","null","","test","","","","","",""
"187.90000000596046","322629","pSARL_v2","pSARL_v27zaa7k4r","601f5a82dc8ed94a9da4461e","freq","img/orange_2bandit_a2.png","70","70","test","1","78","78","4","",""
"null","323244","pSARL_v2","pSARL_v27zaa7k4r","601f5a82dc8ed94a9da4461e","freq_resp","img/orange_2bandit_a.png","70","70","test","","","","4","",""
"null","323400","pSARL_v2","pSARL_v27zaa7k4r","601f5a82dc8ed94a9da4461e","fixation","img/fixation.png","null","","test","","","","","",""
"88.2000000178814","323494","pSARL_v2","pSARL_v27zaa7k4r","601f5a82dc8ed94a9da4461e","freq","img/orange_2bandit_a2.png","70","70","test","1","79","79","4","",""
"null","324209","pSARL_v2","pSARL_v27zaa7k4r","601f5a82dc8ed94a9da4461e","freq_resp","img/orange_2bandit_a.png","70","70","test","","","","4","",""
"null","324364","pSARL_v2","pSARL_v27zaa7k4r","601f5a82dc8ed94a9da4461e","fixation","img/fixation.png","null","","test","","","","","",""
"92.30000001192093","324458","pSARL_v2","pSARL_v27zaa7k4r","601f5a82dc8ed94a9da4461e","freq","img/orange_2bandit_a2.png","70","70","test","1","80","80","4","",""
"null","325170","pSARL_v2","pSARL_v27zaa7k4r","601f5a82dc8ed94a9da4461e","freq_resp","img/orange_2bandit_a.png","70","70","test","","","","4","",""
"null","325326","pSARL_v2","pSARL_v27zaa7k4r","601f5a82dc8ed94a9da4461e","fixation","img/fixation.png","null","","test","","","","","",""
"25.700000017881393","325355","pSARL_v2","pSARL_v27zaa7k4r","601f5a82dc8ed94a9da4461e","freq","img/orange_2bandit_a2.png","70","70","test","1","81","81","4","",""
"null","326133","pSARL_v2","pSARL_v27zaa7k4r","601f5a82dc8ed94a9da4461e","freq_resp","img/orange_2bandit_a.png","70","70","test","","","","4","",""
"null","326288","pSARL_v2","pSARL_v27zaa7k4r","601f5a82dc8ed94a9da4461e","fixation","img/fixation.png","null","","test","","","","","",""
"143.90000000596046","326437","pSARL_v2","pSARL_v27zaa7k4r","601f5a82dc8ed94a9da4461e","freq","img/orange_2bandit_a2.png","70","70","test","1","82","82","4","",""
"null","327097","pSARL_v2","pSARL_v27zaa7k4r","601f5a82dc8ed94a9da4461e","freq_resp","img/orange_2bandit_a.png","70","70","test","","","","4","",""
"null","327253","pSARL_v2","pSARL_v27zaa7k4r","601f5a82dc8ed94a9da4461e","fixation","img/fixation.png","null","","test","","","","","",""
"154.69999998807907","327412","pSARL_v2","pSARL_v27zaa7k4r","601f5a82dc8ed94a9da4461e","freq","img/orange_2bandit_a2.png","70","70","test","1","83","83","4","",""
"null","328061","pSARL_v2","pSARL_v27zaa7k4r","601f5a82dc8ed94a9da4461e","freq_resp","img/orange_2bandit_a.png","70","70","test","","","","4","",""
"null","328217","pSARL_v2","pSARL_v27zaa7k4r","601f5a82dc8ed94a9da4461e","fixation","img/fixation.png","null","","test","","","","","",""
"39","328260","pSARL_v2","pSARL_v27zaa7k4r","601f5a82dc8ed94a9da4461e","infreq","img/green_2bandit_a2.png","70","68","test","0","84","84","4","",""
"null","329025","pSARL_v2","pSARL_v27zaa7k4r","601f5a82dc8ed94a9da4461e","infreq_resp","img/green_2bandit_a.png","70","68","test","","","","4","",""
"null","329180","pSARL_v2","pSARL_v27zaa7k4r","601f5a82dc8ed94a9da4461e","fixation","img/fixation.png","null","","test","","","","","",""
"26.80000001192093","329210","pSARL_v2","pSARL_v27zaa7k4r","601f5a82dc8ed94a9da4461e","freq","img/orange_2bandit_a2.png","68","70","test","0","85","85","4","",""
"null","329988","pSARL_v2","pSARL_v27zaa7k4r","601f5a82dc8ed94a9da4461e","freq_resp","img/orange_2bandit_a.png","68","70","test","","","","4","",""
"null","330144","pSARL_v2","pSARL_v27zaa7k4r","601f5a82dc8ed94a9da4461e","fixation","img/fixation.png","null","","test","","","","","",""
"272.80000001192093","330421","pSARL_v2","pSARL_v27zaa7k4r","601f5a82dc8ed94a9da4461e","freq","img/orange_2bandit_a2.png","70","70","test","1","86","86","4","",""
"null","330954","pSARL_v2","pSARL_v27zaa7k4r","601f5a82dc8ed94a9da4461e","freq_resp","img/orange_2bandit_a.png","70","70","test","","","","4","",""
"null","331109","pSARL_v2","pSARL_v27zaa7k4r","601f5a82dc8ed94a9da4461e","fixation","img/fixation.png","null","","test","","","","","",""
"227.5","331340","pSARL_v2","pSARL_v27zaa7k4r","601f5a82dc8ed94a9da4461e","freq","img/orange_2bandit_a2.png","70","70","test","1","87","87","4","",""
"null","331916","pSARL_v2","pSARL_v27zaa7k4r","601f5a82dc8ed94a9da4461e","freq_resp","img/orange_2bandit_a.png","70","70","test","","","","4","",""
"null","332072","pSARL_v2","pSARL_v27zaa7k4r","601f5a82dc8ed94a9da4461e","fixation","img/fixation.png","null","","test","","","","","",""
"96.40000000596046","332171","pSARL_v2","pSARL_v27zaa7k4r","601f5a82dc8ed94a9da4461e","freq","img/orange_2bandit_a2.png","70","70","test","1","88","88","4","",""
"null","332881","pSARL_v2","pSARL_v27zaa7k4r","601f5a82dc8ed94a9da4461e","freq_resp","img/orange_2bandit_a.png","70","70","test","","","","4","",""
"null","333037","pSARL_v2","pSARL_v27zaa7k4r","601f5a82dc8ed94a9da4461e","fixation","img/fixation.png","null","","test","","","","","",""
"106.2999999821186","333147","pSARL_v2","pSARL_v27zaa7k4r","601f5a82dc8ed94a9da4461e","freq","img/orange_2bandit_a2.png","70","70","test","1","89","89","4","",""
"null","333844","pSARL_v2","pSARL_v27zaa7k4r","601f5a82dc8ed94a9da4461e","freq_resp","img/orange_2bandit_a.png","70","70","test","","","","4","",""
"null","333999","pSARL_v2","pSARL_v27zaa7k4r","601f5a82dc8ed94a9da4461e","fixation","img/fixation.png","null","","test","","","","","",""
"471.39999997615814","334475","pSARL_v2","pSARL_v27zaa7k4r","601f5a82dc8ed94a9da4461e","reward","img/slot.png","74","","test","","","","","",""
"null","335229","pSARL_v2","pSARL_v27zaa7k4r","601f5a82dc8ed94a9da4461e","points","<div class=""verylowPoints""> -3 </div>","null","na","test","","","","4","-3","3"
"500.69999998807907","335733","pSARL_v2","pSARL_v27zaa7k4r","601f5a82dc8ed94a9da4461e","freq","img/orange_2bandit_a2.png","70","70","test","1","90","90","5","",""
"null","336035","pSARL_v2","pSARL_v27zaa7k4r","601f5a82dc8ed94a9da4461e","freq_resp","img/orange_2bandit_a.png","70","70","test","","","","5","",""
"null","336191","pSARL_v2","pSARL_v27zaa7k4r","601f5a82dc8ed94a9da4461e","fixation","img/fixation.png","null","","test","","","","","",""
"289.7000000178814","336484","pSARL_v2","pSARL_v27zaa7k4r","601f5a82dc8ed94a9da4461e","freq","img/orange_2bandit_a2.png","70","70","test","1","91","91","5","",""
"null","336999","pSARL_v2","pSARL_v27zaa7k4r","601f5a82dc8ed94a9da4461e","freq_resp","img/orange_2bandit_a.png","70","70","test","","","","5","",""
"null","337154","pSARL_v2","pSARL_v27zaa7k4r","601f5a82dc8ed94a9da4461e","fixation","img/fixation.png","null","","test","","","","","",""
"327.40000000596046","337487","pSARL_v2","pSARL_v27zaa7k4r","601f5a82dc8ed94a9da4461e","freq","img/orange_2bandit_a2.png","70","70","test","1","92","92","5","",""
"null","337963","pSARL_v2","pSARL_v27zaa7k4r","601f5a82dc8ed94a9da4461e","freq_resp","img/orange_2bandit_a.png","70","70","test","","","","5","",""
"null","338119","pSARL_v2","pSARL_v27zaa7k4r","601f5a82dc8ed94a9da4461e","fixation","img/fixation.png","null","","test","","","","","",""
"156","338278","pSARL_v2","pSARL_v27zaa7k4r","601f5a82dc8ed94a9da4461e","freq","img/orange_2bandit_a2.png","70","70","test","1","93","93","5","",""
"null","338928","pSARL_v2","pSARL_v27zaa7k4r","601f5a82dc8ed94a9da4461e","freq_resp","img/orange_2bandit_a.png","70","70","test","","","","5","",""
"null","339083","pSARL_v2","pSARL_v27zaa7k4r","601f5a82dc8ed94a9da4461e","fixation","img/fixation.png","null","","test","","","","","",""
"271.30000001192093","339358","pSARL_v2","pSARL_v27zaa7k4r","601f5a82dc8ed94a9da4461e","freq","img/orange_2bandit_a2.png","70","70","test","1","94","94","5","",""
"null","339892","pSARL_v2","pSARL_v27zaa7k4r","601f5a82dc8ed94a9da4461e","freq_resp","img/orange_2bandit_a.png","70","70","test","","","","5","",""
"null","340048","pSARL_v2","pSARL_v27zaa7k4r","601f5a82dc8ed94a9da4461e","fixation","img/fixation.png","null","","test","","","","","",""
"0.19999998807907104","340052","pSARL_v2","pSARL_v27zaa7k4r","601f5a82dc8ed94a9da4461e","infreq","img/green_2bandit_a2.png","70","68","test","0","95","95","5","",""
"null","340858","pSARL_v2","pSARL_v27zaa7k4r","601f5a82dc8ed94a9da4461e","infreq_resp","img/green_2bandit_a.png","70","68","test","","","","5","",""
"null","341013","pSARL_v2","pSARL_v27zaa7k4r","601f5a82dc8ed94a9da4461e","fixation","img/fixation.png","null","","test","","","","","",""
"267.69999998807907","341285","pSARL_v2","pSARL_v27zaa7k4r","601f5a82dc8ed94a9da4461e","freq","img/orange_2bandit_a2.png","70","70","test","1","96","96","5","",""
"null","341820","pSARL_v2","pSARL_v27zaa7k4r","601f5a82dc8ed94a9da4461e","freq_resp","img/orange_2bandit_a.png","70","70","test","","","","5","",""
"null","341975","pSARL_v2","pSARL_v27zaa7k4r","601f5a82dc8ed94a9da4461e","fixation","img/fixation.png","null","","test","","","","","",""
"361.80000001192093","342340","pSARL_v2","pSARL_v27zaa7k4r","601f5a82dc8ed94a9da4461e","freq","img/orange_2bandit_a2.png","70","70","test","1","97","97","5","",""
"null","342782","pSARL_v2","pSARL_v27zaa7k4r","601f5a82dc8ed94a9da4461e","freq_resp","img/orange_2bandit_a.png","70","70","test","","","","5","",""
"null","342937","pSARL_v2","pSARL_v27zaa7k4r","601f5a82dc8ed94a9da4461e","fixation","img/fixation.png","null","","test","","","","","",""
"255.09999999403954","343195","pSARL_v2","pSARL_v27zaa7k4r","601f5a82dc8ed94a9da4461e","freq","img/orange_2bandit_a2.png","70","70","test","1","98","98","5","",""
"null","343744","pSARL_v2","pSARL_v27zaa7k4r","601f5a82dc8ed94a9da4461e","freq_resp","img/orange_2bandit_a.png","70","70","test","","","","5","",""
"null","343899","pSARL_v2","pSARL_v27zaa7k4r","601f5a82dc8ed94a9da4461e","fixation","img/fixation.png","null","","test","","","","","",""
"134","344039","pSARL_v2","pSARL_v27zaa7k4r","601f5a82dc8ed94a9da4461e","freq","img/orange_2bandit_a2.png","70","70","test","1","99","99","5","",""
"null","344710","pSARL_v2","pSARL_v27zaa7k4r","601f5a82dc8ed94a9da4461e","freq_resp","img/orange_2bandit_a.png","70","70","test","","","","5","",""
"null","344862","pSARL_v2","pSARL_v27zaa7k4r","601f5a82dc8ed94a9da4461e","fixation","img/fixation.png","null","","test","","","","","",""
"188.40000000596046","345053","pSARL_v2","pSARL_v27zaa7k4r","601f5a82dc8ed94a9da4461e","freq","img/orange_2bandit_a2.png","70","70","test","1","100","100","5","",""
"null","345669","pSARL_v2","pSARL_v27zaa7k4r","601f5a82dc8ed94a9da4461e","freq_resp","img/orange_2bandit_a.png","70","70","test","","","","5","",""
"null","345824","pSARL_v2","pSARL_v27zaa7k4r","601f5a82dc8ed94a9da4461e","fixation","img/fixation.png","null","","test","","","","","",""
"151.89999997615814","345979","pSARL_v2","pSARL_v27zaa7k4r","601f5a82dc8ed94a9da4461e","freq","img/orange_2bandit_a2.png","70","70","test","1","101","101","5","",""
"null","346632","pSARL_v2","pSARL_v27zaa7k4r","601f5a82dc8ed94a9da4461e","freq_resp","img/orange_2bandit_a.png","70","70","test","","","","5","",""
"null","346788","pSARL_v2","pSARL_v27zaa7k4r","601f5a82dc8ed94a9da4461e","fixation","img/fixation.png","null","","test","","","","","",""
"35.69999998807907","346827","pSARL_v2","pSARL_v27zaa7k4r","601f5a82dc8ed94a9da4461e","freq","img/orange_2bandit_a2.png","70","70","test","1","102","102","5","",""
"null","347597","pSARL_v2","pSARL_v27zaa7k4r","601f5a82dc8ed94a9da4461e","freq_resp","img/orange_2bandit_a.png","70","70","test","","","","5","",""
"null","347752","pSARL_v2","pSARL_v27zaa7k4r","601f5a82dc8ed94a9da4461e","fixation","img/fixation.png","null","","test","","","","","",""
"201.2999999821186","347956","pSARL_v2","pSARL_v27zaa7k4r","601f5a82dc8ed94a9da4461e","infreq","img/green_2bandit_a2.png","70","68","test","0","103","103","5","",""
"null","348557","pSARL_v2","pSARL_v27zaa7k4r","601f5a82dc8ed94a9da4461e","infreq_resp","img/green_2bandit_a.png","70","68","test","","","","5","",""
"null","348712","pSARL_v2","pSARL_v27zaa7k4r","601f5a82dc8ed94a9da4461e","fixation","img/fixation.png","null","","test","","","","","",""
"495.7000000178814","349212","pSARL_v2","pSARL_v27zaa7k4r","601f5a82dc8ed94a9da4461e","freq","img/orange_2bandit_a2.png","70","70","test","1","104","104","5","",""
"null","349521","pSARL_v2","pSARL_v27zaa7k4r","601f5a82dc8ed94a9da4461e","freq_resp","img/orange_2bandit_a.png","70","70","test","","","","5","",""
"null","349676","pSARL_v2","pSARL_v27zaa7k4r","601f5a82dc8ed94a9da4461e","fixation","img/fixation.png","null","","test","","","","","",""
"270.09999999403954","349951","pSARL_v2","pSARL_v27zaa7k4r","601f5a82dc8ed94a9da4461e","freq","img/orange_2bandit_a2.png","70","70","test","1","105","105","5","",""
"null","350486","pSARL_v2","pSARL_v27zaa7k4r","601f5a82dc8ed94a9da4461e","freq_resp","img/orange_2bandit_a.png","70","70","test","","","","5","",""
"null","350640","pSARL_v2","pSARL_v27zaa7k4r","601f5a82dc8ed94a9da4461e","fixation","img/fixation.png","null","","test","","","","","",""
"112.90000000596046","350756","pSARL_v2","pSARL_v27zaa7k4r","601f5a82dc8ed94a9da4461e","freq","img/orange_2bandit_a2.png","70","70","test","1","106","106","5","",""
"null","351448","pSARL_v2","pSARL_v27zaa7k4r","601f5a82dc8ed94a9da4461e","freq_resp","img/orange_2bandit_a.png","70","70","test","","","","5","",""
"null","351602","pSARL_v2","pSARL_v27zaa7k4r","601f5a82dc8ed94a9da4461e","fixation","img/fixation.png","null","","test","","","","","",""
"310.30000001192093","351918","pSARL_v2","pSARL_v27zaa7k4r","601f5a82dc8ed94a9da4461e","freq","img/orange_2bandit_a2.png","70","70","test","1","107","107","5","",""
"null","352412","pSARL_v2","pSARL_v27zaa7k4r","601f5a82dc8ed94a9da4461e","freq_resp","img/orange_2bandit_a.png","70","70","test","","","","5","",""
"null","352567","pSARL_v2","pSARL_v27zaa7k4r","601f5a82dc8ed94a9da4461e","fixation","img/fixation.png","null","","test","","","","","",""
"24.799999982118607","352595","pSARL_v2","pSARL_v27zaa7k4r","601f5a82dc8ed94a9da4461e","freq","img/orange_2bandit_a2.png","70","70","test","1","108","108","5","",""
"null","353373","pSARL_v2","pSARL_v27zaa7k4r","601f5a82dc8ed94a9da4461e","freq_resp","img/orange_2bandit_a.png","70","70","test","","","","5","",""
"null","353528","pSARL_v2","pSARL_v27zaa7k4r","601f5a82dc8ed94a9da4461e","fixation","img/fixation.png","null","","test","","","","","",""
"279.09999999403954","353811","pSARL_v2","pSARL_v27zaa7k4r","601f5a82dc8ed94a9da4461e","freq","img/orange_2bandit_a2.png","70","70","test","1","109","109","5","",""
"null","354337","pSARL_v2","pSARL_v27zaa7k4r","601f5a82dc8ed94a9da4461e","freq_resp","img/orange_2bandit_a.png","70","70","test","","","","5","",""
"null","354493","pSARL_v2","pSARL_v27zaa7k4r","601f5a82dc8ed94a9da4461e","fixation","img/fixation.png","null","","test","","","","","",""
"62.80000001192093","354559","pSARL_v2","pSARL_v27zaa7k4r","601f5a82dc8ed94a9da4461e","freq","img/orange_2bandit_a2.png","70","70","test","1","110","110","5","",""
"null","355300","pSARL_v2","pSARL_v27zaa7k4r","601f5a82dc8ed94a9da4461e","freq_resp","img/orange_2bandit_a.png","70","70","test","","","","5","",""
"null","355454","pSARL_v2","pSARL_v27zaa7k4r","601f5a82dc8ed94a9da4461e","fixation","img/fixation.png","null","","test","","","","","",""
"233.2999999821186","355690","pSARL_v2","pSARL_v27zaa7k4r","601f5a82dc8ed94a9da4461e","freq","img/orange_2bandit_a2.png","70","70","test","1","111","111","5","",""
"null","356260","pSARL_v2","pSARL_v27zaa7k4r","601f5a82dc8ed94a9da4461e","freq_resp","img/orange_2bandit_a.png","70","70","test","","","","5","",""
"null","356414","pSARL_v2","pSARL_v27zaa7k4r","601f5a82dc8ed94a9da4461e","fixation","img/fixation.png","null","","test","","","","","",""
"215.90000000596046","356632","pSARL_v2","pSARL_v27zaa7k4r","601f5a82dc8ed94a9da4461e","freq","img/orange_2bandit_a2.png","70","70","test","1","112","112","5","",""
"null","357222","pSARL_v2","pSARL_v27zaa7k4r","601f5a82dc8ed94a9da4461e","freq_resp","img/orange_2bandit_a.png","70","70","test","","","","5","",""
"null","357375","pSARL_v2","pSARL_v27zaa7k4r","601f5a82dc8ed94a9da4461e","fixation","img/fixation.png","null","","test","","","","","",""
"129.2000000178814","357508","pSARL_v2","pSARL_v27zaa7k4r","601f5a82dc8ed94a9da4461e","freq","img/orange_2bandit_a2.png","70","70","test","1","113","113","5","",""
"null","358183","pSARL_v2","pSARL_v27zaa7k4r","601f5a82dc8ed94a9da4461e","freq_resp","img/orange_2bandit_a.png","70","70","test","","","","5","",""
"null","358338","pSARL_v2","pSARL_v27zaa7k4r","601f5a82dc8ed94a9da4461e","fixation","img/fixation.png","null","","test","","","","","",""
"166","358508","pSARL_v2","pSARL_v27zaa7k4r","601f5a82dc8ed94a9da4461e","freq","img/orange_2bandit_a2.png","70","70","test","1","114","114","5","",""
"null","359146","pSARL_v2","pSARL_v27zaa7k4r","601f5a82dc8ed94a9da4461e","freq_resp","img/orange_2bandit_a.png","70","70","test","","","","5","",""
"null","359302","pSARL_v2","pSARL_v27zaa7k4r","601f5a82dc8ed94a9da4461e","fixation","img/fixation.png","null","","test","","","","","",""
"163","359469","pSARL_v2","pSARL_v27zaa7k4r","601f5a82dc8ed94a9da4461e","freq","img/orange_2bandit_a2.png","70","70","test","1","115","115","5","",""
"null","360110","pSARL_v2","pSARL_v27zaa7k4r","601f5a82dc8ed94a9da4461e","freq_resp","img/orange_2bandit_a.png","70","70","test","","","","5","",""
"null","360264","pSARL_v2","pSARL_v27zaa7k4r","601f5a82dc8ed94a9da4461e","fixation","img/fixation.png","null","","test","","","","","",""
"663.4000000059605","360932","pSARL_v2","pSARL_v27zaa7k4r","601f5a82dc8ed94a9da4461e","reward","img/slot.png","74","","test","","","","","",""
"null","361688","pSARL_v2","pSARL_v27zaa7k4r","601f5a82dc8ed94a9da4461e","points","<div class=""veryhighPoints""> +1 </div>","null","na","test","","","","5","1","4"
"391.2000000178814","362083","pSARL_v2","pSARL_v27zaa7k4r","601f5a82dc8ed94a9da4461e","freq","img/orange_2bandit_a2.png","70","70","test","1","116","116","6","",""
"null","362495","pSARL_v2","pSARL_v27zaa7k4r","601f5a82dc8ed94a9da4461e","freq_resp","img/orange_2bandit_a.png","70","70","test","","","","6","",""
"null","362650","pSARL_v2","pSARL_v27zaa7k4r","601f5a82dc8ed94a9da4461e","fixation","img/fixation.png","null","","test","","","","","",""
"351","363005","pSARL_v2","pSARL_v27zaa7k4r","601f5a82dc8ed94a9da4461e","freq","img/orange_2bandit_a2.png","70","70","test","1","117","117","6","",""
"null","363456","pSARL_v2","pSARL_v27zaa7k4r","601f5a82dc8ed94a9da4461e","freq_resp","img/orange_2bandit_a.png","70","70","test","","","","6","",""
"null","363611","pSARL_v2","pSARL_v27zaa7k4r","601f5a82dc8ed94a9da4461e","fixation","img/fixation.png","null","","test","","","","","",""
"568.7000000178814","364184","pSARL_v2","pSARL_v27zaa7k4r","601f5a82dc8ed94a9da4461e","infreq","img/green_2bandit_a2.png","68","68","test","1","118","118","6","",""
"null","364419","pSARL_v2","pSARL_v27zaa7k4r","601f5a82dc8ed94a9da4461e","infreq_resp","img/green_2bandit_a.png","68","68","test","","","","6","",""
"null","364573","pSARL_v2","pSARL_v27zaa7k4r","601f5a82dc8ed94a9da4461e","fixation","img/fixation.png","null","","test","","","","","",""
"12.700000017881393","364589","pSARL_v2","pSARL_v27zaa7k4r","601f5a82dc8ed94a9da4461e","freq","img/orange_2bandit_a2.png","68","70","test","0","119","119","6","",""
"null","365381","pSARL_v2","pSARL_v27zaa7k4r","601f5a82dc8ed94a9da4461e","freq_resp","img/orange_2bandit_a.png","68","70","test","","","","6","",""
"null","365537","pSARL_v2","pSARL_v27zaa7k4r","601f5a82dc8ed94a9da4461e","fixation","img/fixation.png","null","","test","","","","","",""
"199.2999999821186","365741","pSARL_v2","pSARL_v27zaa7k4r","601f5a82dc8ed94a9da4461e","freq","img/orange_2bandit_a2.png","70","70","test","1","120","120","6","",""
"null","366344","pSARL_v2","pSARL_v27zaa7k4r","601f5a82dc8ed94a9da4461e","freq_resp","img/orange_2bandit_a.png","70","70","test","","","","6","",""
"null","366499","pSARL_v2","pSARL_v27zaa7k4r","601f5a82dc8ed94a9da4461e","fixation","img/fixation.png","null","","test","","","","","",""
"148.7999999821186","366650","pSARL_v2","pSARL_v27zaa7k4r","601f5a82dc8ed94a9da4461e","freq","img/orange_2bandit_a2.png","70","70","test","1","121","121","6","",""
"null","367303","pSARL_v2","pSARL_v27zaa7k4r","601f5a82dc8ed94a9da4461e","freq_resp","img/orange_2bandit_a.png","70","70","test","","","","6","",""
"null","367459","pSARL_v2","pSARL_v27zaa7k4r","601f5a82dc8ed94a9da4461e","fixation","img/fixation.png","null","","test","","","","","",""
"116.5","367579","pSARL_v2","pSARL_v27zaa7k4r","601f5a82dc8ed94a9da4461e","freq","img/orange_2bandit_a2.png","70","70","test","1","122","122","6","",""
"null","368266","pSARL_v2","pSARL_v27zaa7k4r","601f5a82dc8ed94a9da4461e","freq_resp","img/orange_2bandit_a.png","70","70","test","","","","6","",""
"null","368421","pSARL_v2","pSARL_v27zaa7k4r","601f5a82dc8ed94a9da4461e","fixation","img/fixation.png","null","","test","","","","","",""
"58.5","368483","pSARL_v2","pSARL_v27zaa7k4r","601f5a82dc8ed94a9da4461e","freq","img/orange_2bandit_a2.png","70","70","test","1","123","123","6","",""
"null","369226","pSARL_v2","pSARL_v27zaa7k4r","601f5a82dc8ed94a9da4461e","freq_resp","img/orange_2bandit_a.png","70","70","test","","","","6","",""
"null","369381","pSARL_v2","pSARL_v27zaa7k4r","601f5a82dc8ed94a9da4461e","fixation","img/fixation.png","null","","test","","","","","",""
"257.69999998807907","369643","pSARL_v2","pSARL_v27zaa7k4r","601f5a82dc8ed94a9da4461e","infreq","img/green_2bandit_a2.png","70","68","test","0","124","124","6","",""
"null","370190","pSARL_v2","pSARL_v27zaa7k4r","601f5a82dc8ed94a9da4461e","infreq_resp","img/green_2bandit_a.png","70","68","test","","","","6","",""
"null","370346","pSARL_v2","pSARL_v27zaa7k4r","601f5a82dc8ed94a9da4461e","fixation","img/fixation.png","null","","test","","","","","",""
"317.90000000596046","370668","pSARL_v2","pSARL_v27zaa7k4r","601f5a82dc8ed94a9da4461e","freq","img/orange_2bandit_a2.png","70","70","test","1","125","125","6","",""
"null","371156","pSARL_v2","pSARL_v27zaa7k4r","601f5a82dc8ed94a9da4461e","freq_resp","img/orange_2bandit_a.png","70","70","test","","","","6","",""
"null","371309","pSARL_v2","pSARL_v27zaa7k4r","601f5a82dc8ed94a9da4461e","fixation","img/fixation.png","null","","test","","","","","",""
"291.59999999403954","371603","pSARL_v2","pSARL_v27zaa7k4r","601f5a82dc8ed94a9da4461e","freq","img/orange_2bandit_a2.png","70","70","test","1","126","126","6","",""
"null","372116","pSARL_v2","pSARL_v27zaa7k4r","601f5a82dc8ed94a9da4461e","freq_resp","img/orange_2bandit_a.png","70","70","test","","","","6","",""
"null","372270","pSARL_v2","pSARL_v27zaa7k4r","601f5a82dc8ed94a9da4461e","fixation","img/fixation.png","null","","test","","","","","",""
"49.400000005960464","372322","pSARL_v2","pSARL_v27zaa7k4r","601f5a82dc8ed94a9da4461e","freq","img/orange_2bandit_a2.png","70","70","test","1","127","127","6","",""
"null","373079","pSARL_v2","pSARL_v27zaa7k4r","601f5a82dc8ed94a9da4461e","freq_resp","img/orange_2bandit_a.png","70","70","test","","","","6","",""
"null","373234","pSARL_v2","pSARL_v27zaa7k4r","601f5a82dc8ed94a9da4461e","fixation","img/fixation.png","null","","test","","","","","",""
"71.2999999821186","373309","pSARL_v2","pSARL_v27zaa7k4r","601f5a82dc8ed94a9da4461e","freq","img/orange_2bandit_a2.png","70","70","test","1","128","128","6","",""
"null","374042","pSARL_v2","pSARL_v27zaa7k4r","601f5a82dc8ed94a9da4461e","freq_resp","img/orange_2bandit_a.png","70","70","test","","","","6","",""
"null","374197","pSARL_v2","pSARL_v27zaa7k4r","601f5a82dc8ed94a9da4461e","fixation","img/fixation.png","null","","test","","","","","",""
"1.5","374201","pSARL_v2","pSARL_v27zaa7k4r","601f5a82dc8ed94a9da4461e","freq","img/orange_2bandit_a2.png","70","70","test","1","129","129","6","",""
"null","375004","pSARL_v2","pSARL_v27zaa7k4r","601f5a82dc8ed94a9da4461e","freq_resp","img/orange_2bandit_a.png","70","70","test","","","","6","",""
"null","375159","pSARL_v2","pSARL_v27zaa7k4r","601f5a82dc8ed94a9da4461e","fixation","img/fixation.png","null","","test","","","","","",""
"249","375412","pSARL_v2","pSARL_v27zaa7k4r","601f5a82dc8ed94a9da4461e","freq","img/orange_2bandit_a2.png","70","70","test","1","130","130","6","",""
"null","375969","pSARL_v2","pSARL_v27zaa7k4r","601f5a82dc8ed94a9da4461e","freq_resp","img/orange_2bandit_a.png","70","70","test","","","","6","",""
"null","376122","pSARL_v2","pSARL_v27zaa7k4r","601f5a82dc8ed94a9da4461e","fixation","img/fixation.png","null","","test","","","","","",""
"13.300000011920929","376138","pSARL_v2","pSARL_v27zaa7k4r","601f5a82dc8ed94a9da4461e","freq","img/orange_2bandit_a2.png","70","70","test","1","131","131","6","",""
"null","376928","pSARL_v2","pSARL_v27zaa7k4r","601f5a82dc8ed94a9da4461e","freq_resp","img/orange_2bandit_a.png","70","70","test","","","","6","",""
"null","377083","pSARL_v2","pSARL_v27zaa7k4r","601f5a82dc8ed94a9da4461e","fixation","img/fixation.png","null","","test","","","","","",""
"28.19999998807907","377116","pSARL_v2","pSARL_v27zaa7k4r","601f5a82dc8ed94a9da4461e","freq","img/orange_2bandit_a2.png","70","70","test","1","132","132","6","",""
"null","377892","pSARL_v2","pSARL_v27zaa7k4r","601f5a82dc8ed94a9da4461e","freq_resp","img/orange_2bandit_a.png","70","70","test","","","","6","",""
"null","378048","pSARL_v2","pSARL_v27zaa7k4r","601f5a82dc8ed94a9da4461e","fixation","img/fixation.png","null","","test","","","","","",""
"0.19999998807907104","378052","pSARL_v2","pSARL_v27zaa7k4r","601f5a82dc8ed94a9da4461e","freq","img/orange_2bandit_a2.png","70","70","test","1","133","133","6","",""
"null","378855","pSARL_v2","pSARL_v27zaa7k4r","601f5a82dc8ed94a9da4461e","freq_resp","img/orange_2bandit_a.png","70","70","test","","","","6","",""
"null","379010","pSARL_v2","pSARL_v27zaa7k4r","601f5a82dc8ed94a9da4461e","fixation","img/fixation.png","null","","test","","","","","",""
"252.19999998807907","379265","pSARL_v2","pSARL_v27zaa7k4r","601f5a82dc8ed94a9da4461e","freq","img/orange_2bandit_a2.png","70","70","test","1","134","134","6","",""
"null","379817","pSARL_v2","pSARL_v27zaa7k4r","601f5a82dc8ed94a9da4461e","freq_resp","img/orange_2bandit_a.png","70","70","test","","","","6","",""
"null","379972","pSARL_v2","pSARL_v27zaa7k4r","601f5a82dc8ed94a9da4461e","fixation","img/fixation.png","null","","test","","","","","",""
"76.5","380053","pSARL_v2","pSARL_v27zaa7k4r","601f5a82dc8ed94a9da4461e","freq","img/orange_2bandit_a2.png","70","70","test","1","135","135","6","",""
"null","380781","pSARL_v2","pSARL_v27zaa7k4r","601f5a82dc8ed94a9da4461e","freq_resp","img/orange_2bandit_a.png","70","70","test","","","","6","",""
"null","380935","pSARL_v2","pSARL_v27zaa7k4r","601f5a82dc8ed94a9da4461e","fixation","img/fixation.png","null","","test","","","","","",""
"67.80000001192093","381006","pSARL_v2","pSARL_v27zaa7k4r","601f5a82dc8ed94a9da4461e","freq","img/orange_2bandit_a2.png","70","70","test","1","136","136","6","",""
"null","381741","pSARL_v2","pSARL_v27zaa7k4r","601f5a82dc8ed94a9da4461e","freq_resp","img/orange_2bandit_a.png","70","70","test","","","","6","",""
"null","381896","pSARL_v2","pSARL_v27zaa7k4r","601f5a82dc8ed94a9da4461e","fixation","img/fixation.png","null","","test","","","","","",""
"407.60000002384186","382307","pSARL_v2","pSARL_v27zaa7k4r","601f5a82dc8ed94a9da4461e","freq","img/orange_2bandit_a2.png","70","70","test","1","137","137","6","",""
"null","382702","pSARL_v2","pSARL_v27zaa7k4r","601f5a82dc8ed94a9da4461e","freq_resp","img/orange_2bandit_a.png","70","70","test","","","","6","",""
"null","382857","pSARL_v2","pSARL_v27zaa7k4r","601f5a82dc8ed94a9da4461e","fixation","img/fixation.png","null","","test","","","","","",""
"277.69999998807907","383137","pSARL_v2","pSARL_v27zaa7k4r","601f5a82dc8ed94a9da4461e","freq","img/orange_2bandit_a2.png","70","70","test","1","138","138","6","",""
"null","383662","pSARL_v2","pSARL_v27zaa7k4r","601f5a82dc8ed94a9da4461e","freq_resp","img/orange_2bandit_a.png","70","70","test","","","","6","",""
"null","383818","pSARL_v2","pSARL_v27zaa7k4r","601f5a82dc8ed94a9da4461e","fixation","img/fixation.png","null","","test","","","","","",""
"182.5","384005","pSARL_v2","pSARL_v27zaa7k4r","601f5a82dc8ed94a9da4461e","freq","img/orange_2bandit_a2.png","70","70","test","1","139","139","6","",""
"null","384626","pSARL_v2","pSARL_v27zaa7k4r","601f5a82dc8ed94a9da4461e","freq_resp","img/orange_2bandit_a.png","70","70","test","","","","6","",""
"null","384780","pSARL_v2","pSARL_v27zaa7k4r","601f5a82dc8ed94a9da4461e","fixation","img/fixation.png","null","","test","","","","","",""
"443.2000000178814","385225","pSARL_v2","pSARL_v27zaa7k4r","601f5a82dc8ed94a9da4461e","reward","img/slot.png","74","","test","","","","","",""
"null","385978","pSARL_v2","pSARL_v27zaa7k4r","601f5a82dc8ed94a9da4461e","points","<div class=""verylowPoints""> -7 </div>","null","na","test","","","","6","-7","5"
"374","386354","pSARL_v2","pSARL_v27zaa7k4r","601f5a82dc8ed94a9da4461e","freq","img/orange_2bandit_a2.png","70","70","test","1","140","140","7","",""
"null","386785","pSARL_v2","pSARL_v27zaa7k4r","601f5a82dc8ed94a9da4461e","freq_resp","img/orange_2bandit_a.png","70","70","test","","","","7","",""
"null","386939","pSARL_v2","pSARL_v27zaa7k4r","601f5a82dc8ed94a9da4461e","fixation","img/fixation.png","null","","test","","","","","",""
"53.400000005960464","386996","pSARL_v2","pSARL_v27zaa7k4r","601f5a82dc8ed94a9da4461e","freq","img/orange_2bandit_a2.png","70","70","test","1","141","141","7","",""
"null","387746","pSARL_v2","pSARL_v27zaa7k4r","601f5a82dc8ed94a9da4461e","freq_resp","img/orange_2bandit_a.png","70","70","test","","","","7","",""
"null","387900","pSARL_v2","pSARL_v27zaa7k4r","601f5a82dc8ed94a9da4461e","fixation","img/fixation.png","null","","test","","","","","",""
"268.2000000178814","388172","pSARL_v2","pSARL_v27zaa7k4r","601f5a82dc8ed94a9da4461e","freq","img/orange_2bandit_a2.png","70","70","test","1","142","142","7","",""
"null","388707","pSARL_v2","pSARL_v27zaa7k4r","601f5a82dc8ed94a9da4461e","freq_resp","img/orange_2bandit_a.png","70","70","test","","","","7","",""
"null","388862","pSARL_v2","pSARL_v27zaa7k4r","601f5a82dc8ed94a9da4461e","fixation","img/fixation.png","null","","test","","","","","",""
"40","388905","pSARL_v2","pSARL_v27zaa7k4r","601f5a82dc8ed94a9da4461e","infreq","img/green_2bandit_a2.png","70","68","test","0","143","143","7","",""
"null","389670","pSARL_v2","pSARL_v27zaa7k4r","601f5a82dc8ed94a9da4461e","infreq_resp","img/green_2bandit_a.png","70","68","test","","","","7","",""
"null","389826","pSARL_v2","pSARL_v27zaa7k4r","601f5a82dc8ed94a9da4461e","fixation","img/fixation.png","null","","test","","","","","",""
"478.69999998807907","390308","pSARL_v2","pSARL_v27zaa7k4r","601f5a82dc8ed94a9da4461e","freq","img/orange_2bandit_a2.png","70","70","test","1","144","144","7","",""
"null","390635","pSARL_v2","pSARL_v27zaa7k4r","601f5a82dc8ed94a9da4461e","freq_resp","img/orange_2bandit_a.png","70","70","test","","","","7","",""
"null","390790","pSARL_v2","pSARL_v27zaa7k4r","601f5a82dc8ed94a9da4461e","fixation","img/fixation.png","null","","test","","","","","",""
"262.69999998807907","391057","pSARL_v2","pSARL_v27zaa7k4r","601f5a82dc8ed94a9da4461e","freq","img/orange_2bandit_a2.png","70","70","test","1","145","145","7","",""
"null","391599","pSARL_v2","pSARL_v27zaa7k4r","601f5a82dc8ed94a9da4461e","freq_resp","img/orange_2bandit_a.png","70","70","test","","","","7","",""
"null","391754","pSARL_v2","pSARL_v27zaa7k4r","601f5a82dc8ed94a9da4461e","fixation","img/fixation.png","null","","test","","","","","",""
"525.9000000059605","392284","pSARL_v2","pSARL_v27zaa7k4r","601f5a82dc8ed94a9da4461e","freq","img/orange_2bandit_a2.png","70","70","test","1","146","146","7","",""
"null","392563","pSARL_v2","pSARL_v27zaa7k4r","601f5a82dc8ed94a9da4461e","freq_resp","img/orange_2bandit_a.png","70","70","test","","","","7","",""
"null","392716","pSARL_v2","pSARL_v27zaa7k4r","601f5a82dc8ed94a9da4461e","fixation","img/fixation.png","null","","test","","","","","",""
"454","393174","pSARL_v2","pSARL_v27zaa7k4r","601f5a82dc8ed94a9da4461e","infreq","img/green_2bandit_a2.png","68","68","test","1","147","147","7","",""
"null","393524","pSARL_v2","pSARL_v27zaa7k4r","601f5a82dc8ed94a9da4461e","infreq_resp","img/green_2bandit_a.png","68","68","test","","","","7","",""
"null","393679","pSARL_v2","pSARL_v27zaa7k4r","601f5a82dc8ed94a9da4461e","fixation","img/fixation.png","null","","test","","","","","",""
"321.2999999821186","394004","pSARL_v2","pSARL_v27zaa7k4r","601f5a82dc8ed94a9da4461e","freq","img/orange_2bandit_a2.png","70","70","test","1","148","148","7","",""
"null","394488","pSARL_v2","pSARL_v27zaa7k4r","601f5a82dc8ed94a9da4461e","freq_resp","img/orange_2bandit_a.png","70","70","test","","","","7","",""
"null","394641","pSARL_v2","pSARL_v27zaa7k4r","601f5a82dc8ed94a9da4461e","fixation","img/fixation.png","null","","test","","","","","",""
"280.60000002384186","394925","pSARL_v2","pSARL_v27zaa7k4r","601f5a82dc8ed94a9da4461e","freq","img/orange_2bandit_a2.png","70","70","test","1","149","149","7","",""
"null","395451","pSARL_v2","pSARL_v27zaa7k4r","601f5a82dc8ed94a9da4461e","freq_resp","img/orange_2bandit_a.png","70","70","test","","","","7","",""
"null","395607","pSARL_v2","pSARL_v27zaa7k4r","601f5a82dc8ed94a9da4461e","fixation","img/fixation.png","null","","test","","","","","",""
"219.10000002384186","395830","pSARL_v2","pSARL_v27zaa7k4r","601f5a82dc8ed94a9da4461e","freq","img/orange_2bandit_a2.png","70","70","test","1","150","150","7","",""
"null","396414","pSARL_v2","pSARL_v27zaa7k4r","601f5a82dc8ed94a9da4461e","freq_resp","img/orange_2bandit_a.png","70","70","test","","","","7","",""
"null","396570","pSARL_v2","pSARL_v27zaa7k4r","601f5a82dc8ed94a9da4461e","fixation","img/fixation.png","null","","test","","","","","",""
"132.60000002384186","396704","pSARL_v2","pSARL_v27zaa7k4r","601f5a82dc8ed94a9da4461e","freq","img/orange_2bandit_a2.png","70","70","test","1","151","151","7","",""
"null","397376","pSARL_v2","pSARL_v27zaa7k4r","601f5a82dc8ed94a9da4461e","freq_resp","img/orange_2bandit_a.png","70","70","test","","","","7","",""
"null","397531","pSARL_v2","pSARL_v27zaa7k4r","601f5a82dc8ed94a9da4461e","fixation","img/fixation.png","null","","test","","","","","",""
"111","397646","pSARL_v2","pSARL_v27zaa7k4r","601f5a82dc8ed94a9da4461e","freq","img/orange_2bandit_a2.png","70","70","test","1","152","152","7","",""
"null","398340","pSARL_v2","pSARL_v27zaa7k4r","601f5a82dc8ed94a9da4461e","freq_resp","img/orange_2bandit_a.png","70","70","test","","","","7","",""
"null","398495","pSARL_v2","pSARL_v27zaa7k4r","601f5a82dc8ed94a9da4461e","fixation","img/fixation.png","null","","test","","","","","",""
"104.19999998807907","398602","pSARL_v2","pSARL_v27zaa7k4r","601f5a82dc8ed94a9da4461e","freq","img/orange_2bandit_a2.png","70","70","test","1","153","153","7","",""
"null","399302","pSARL_v2","pSARL_v27zaa7k4r","601f5a82dc8ed94a9da4461e","freq_resp","img/orange_2bandit_a.png","70","70","test","","","","7","",""
"null","399457","pSARL_v2","pSARL_v27zaa7k4r","601f5a82dc8ed94a9da4461e","fixation","img/fixation.png","null","","test","","","","","",""
"79.40000000596046","399541","pSARL_v2","pSARL_v27zaa7k4r","601f5a82dc8ed94a9da4461e","freq","img/orange_2bandit_a2.png","70","70","test","1","154","154","7","",""
"null","400266","pSARL_v2","pSARL_v27zaa7k4r","601f5a82dc8ed94a9da4461e","freq_resp","img/orange_2bandit_a.png","70","70","test","","","","7","",""
"null","400421","pSARL_v2","pSARL_v27zaa7k4r","601f5a82dc8ed94a9da4461e","fixation","img/fixation.png","null","","test","","","","","",""
"98.69999998807907","400525","pSARL_v2","pSARL_v27zaa7k4r","601f5a82dc8ed94a9da4461e","freq","img/orange_2bandit_a2.png","70","70","test","1","155","155","7","",""
"null","401229","pSARL_v2","pSARL_v27zaa7k4r","601f5a82dc8ed94a9da4461e","freq_resp","img/orange_2bandit_a.png","70","70","test","","","","7","",""
"null","401384","pSARL_v2","pSARL_v27zaa7k4r","601f5a82dc8ed94a9da4461e","fixation","img/fixation.png","null","","test","","","","","",""
"95.80000001192093","401485","pSARL_v2","pSARL_v27zaa7k4r","601f5a82dc8ed94a9da4461e","freq","img/orange_2bandit_a2.png","70","70","test","1","156","156","7","",""
"null","402193","pSARL_v2","pSARL_v27zaa7k4r","601f5a82dc8ed94a9da4461e","freq_resp","img/orange_2bandit_a.png","70","70","test","","","","7","",""
"null","402347","pSARL_v2","pSARL_v27zaa7k4r","601f5a82dc8ed94a9da4461e","fixation","img/fixation.png","null","","test","","","","","",""
"142.40000000596046","402492","pSARL_v2","pSARL_v27zaa7k4r","601f5a82dc8ed94a9da4461e","freq","img/orange_2bandit_a2.png","70","70","test","1","157","157","7","",""
"null","403152","pSARL_v2","pSARL_v27zaa7k4r","601f5a82dc8ed94a9da4461e","freq_resp","img/orange_2bandit_a.png","70","70","test","","","","7","",""
"null","403307","pSARL_v2","pSARL_v27zaa7k4r","601f5a82dc8ed94a9da4461e","fixation","img/fixation.png","null","","test","","","","","",""
"110.19999998807907","403420","pSARL_v2","pSARL_v27zaa7k4r","601f5a82dc8ed94a9da4461e","infreq","img/green_2bandit_a2.png","70","68","test","0","158","158","7","",""
"null","404114","pSARL_v2","pSARL_v27zaa7k4r","601f5a82dc8ed94a9da4461e","infreq_resp","img/green_2bandit_a.png","70","68","test","","","","7","",""
"null","404269","pSARL_v2","pSARL_v27zaa7k4r","601f5a82dc8ed94a9da4461e","fixation","img/fixation.png","null","","test","","","","","",""
"371.09999999403954","404643","pSARL_v2","pSARL_v27zaa7k4r","601f5a82dc8ed94a9da4461e","freq","img/orange_2bandit_a2.png","70","70","test","1","159","159","7","",""
"null","405076","pSARL_v2","pSARL_v27zaa7k4r","601f5a82dc8ed94a9da4461e","freq_resp","img/orange_2bandit_a.png","70","70","test","","","","7","",""
"null","405231","pSARL_v2","pSARL_v27zaa7k4r","601f5a82dc8ed94a9da4461e","fixation","img/fixation.png","null","","test","","","","","",""
"296.59999999403954","405532","pSARL_v2","pSARL_v27zaa7k4r","601f5a82dc8ed94a9da4461e","freq","img/orange_2bandit_a2.png","70","70","test","1","160","160","7","",""
"null","406041","pSARL_v2","pSARL_v27zaa7k4r","601f5a82dc8ed94a9da4461e","freq_resp","img/orange_2bandit_a.png","70","70","test","","","","7","",""
"null","406195","pSARL_v2","pSARL_v27zaa7k4r","601f5a82dc8ed94a9da4461e","fixation","img/fixation.png","null","","test","","","","","",""
"204.89999997615814","406403","pSARL_v2","pSARL_v27zaa7k4r","601f5a82dc8ed94a9da4461e","freq","img/orange_2bandit_a2.png","70","70","test","1","161","161","7","",""
"null","407003","pSARL_v2","pSARL_v27zaa7k4r","601f5a82dc8ed94a9da4461e","freq_resp","img/orange_2bandit_a.png","70","70","test","","","","7","",""
"null","407157","pSARL_v2","pSARL_v27zaa7k4r","601f5a82dc8ed94a9da4461e","fixation","img/fixation.png","null","","test","","","","","",""
"171.30000001192093","407331","pSARL_v2","pSARL_v27zaa7k4r","601f5a82dc8ed94a9da4461e","freq","img/orange_2bandit_a2.png","70","70","test","1","162","162","7","",""
"null","407964","pSARL_v2","pSARL_v27zaa7k4r","601f5a82dc8ed94a9da4461e","freq_resp","img/orange_2bandit_a.png","70","70","test","","","","7","",""
"null","408119","pSARL_v2","pSARL_v27zaa7k4r","601f5a82dc8ed94a9da4461e","fixation","img/fixation.png","null","","test","","","","","",""
"568.0999999940395","408690","pSARL_v2","pSARL_v27zaa7k4r","601f5a82dc8ed94a9da4461e","reward","img/slot.png","74","","test","","","","","",""
"null","409444","pSARL_v2","pSARL_v27zaa7k4r","601f5a82dc8ed94a9da4461e","points","<div class=""verylowPoints""> -6 </div>","null","na","test","","","","7","-6","6"
"507.39999997615814","409956","pSARL_v2","pSARL_v27zaa7k4r","601f5a82dc8ed94a9da4461e","freq","img/orange_2bandit_a2.png","70","70","test","1","163","163","8","",""
"null","410253","pSARL_v2","pSARL_v27zaa7k4r","601f5a82dc8ed94a9da4461e","freq_resp","img/orange_2bandit_a.png","70","70","test","","","","8","",""
"null","410409","pSARL_v2","pSARL_v27zaa7k4r","601f5a82dc8ed94a9da4461e","fixation","img/fixation.png","null","","test","","","","","",""
"312.5","410725","pSARL_v2","pSARL_v27zaa7k4r","601f5a82dc8ed94a9da4461e","freq","img/orange_2bandit_a2.png","70","70","test","1","164","164","8","",""
"null","411215","pSARL_v2","pSARL_v27zaa7k4r","601f5a82dc8ed94a9da4461e","freq_resp","img/orange_2bandit_a.png","70","70","test","","","","8","",""
"null","411370","pSARL_v2","pSARL_v27zaa7k4r","601f5a82dc8ed94a9da4461e","fixation","img/fixation.png","null","","test","","","","","",""
"237.69999998807907","411611","pSARL_v2","pSARL_v27zaa7k4r","601f5a82dc8ed94a9da4461e","freq","img/orange_2bandit_a2.png","70","70","test","1","165","165","8","",""
"null","412178","pSARL_v2","pSARL_v27zaa7k4r","601f5a82dc8ed94a9da4461e","freq_resp","img/orange_2bandit_a.png","70","70","test","","","","8","",""
"null","412335","pSARL_v2","pSARL_v27zaa7k4r","601f5a82dc8ed94a9da4461e","fixation","img/fixation.png","null","","test","","","","","",""
"131.40000000596046","412470","pSARL_v2","pSARL_v27zaa7k4r","601f5a82dc8ed94a9da4461e","freq","img/orange_2bandit_a2.png","70","70","test","1","166","166","8","",""
"null","413143","pSARL_v2","pSARL_v27zaa7k4r","601f5a82dc8ed94a9da4461e","freq_resp","img/orange_2bandit_a.png","70","70","test","","","","8","",""
"null","413298","pSARL_v2","pSARL_v27zaa7k4r","601f5a82dc8ed94a9da4461e","fixation","img/fixation.png","null","","test","","","","","",""
"107.7000000178814","413413","pSARL_v2","pSARL_v27zaa7k4r","601f5a82dc8ed94a9da4461e","freq","img/orange_2bandit_a2.png","70","70","test","1","167","167","8","",""
"null","414111","pSARL_v2","pSARL_v27zaa7k4r","601f5a82dc8ed94a9da4461e","freq_resp","img/orange_2bandit_a.png","70","70","test","","","","8","",""
"null","414266","pSARL_v2","pSARL_v27zaa7k4r","601f5a82dc8ed94a9da4461e","fixation","img/fixation.png","null","","test","","","","","",""
"319.30000001192093","414590","pSARL_v2","pSARL_v27zaa7k4r","601f5a82dc8ed94a9da4461e","freq","img/orange_2bandit_a2.png","70","70","test","1","168","168","8","",""
"null","415074","pSARL_v2","pSARL_v27zaa7k4r","601f5a82dc8ed94a9da4461e","freq_resp","img/orange_2bandit_a.png","70","70","test","","","","8","",""
"null","415228","pSARL_v2","pSARL_v27zaa7k4r","601f5a82dc8ed94a9da4461e","fixation","img/fixation.png","null","","test","","","","","",""
"241.5","415472","pSARL_v2","pSARL_v27zaa7k4r","601f5a82dc8ed94a9da4461e","freq","img/orange_2bandit_a2.png","70","70","test","1","169","169","8","",""
"null","416037","pSARL_v2","pSARL_v27zaa7k4r","601f5a82dc8ed94a9da4461e","freq_resp","img/orange_2bandit_a.png","70","70","test","","","","8","",""
"null","416192","pSARL_v2","pSARL_v27zaa7k4r","601f5a82dc8ed94a9da4461e","fixation","img/fixation.png","null","","test","","","","","",""
"43.69999998807907","416239","pSARL_v2","pSARL_v27zaa7k4r","601f5a82dc8ed94a9da4461e","freq","img/orange_2bandit_a2.png","70","70","test","1","170","170","8","",""
"null","417000","pSARL_v2","pSARL_v27zaa7k4r","601f5a82dc8ed94a9da4461e","freq_resp","img/orange_2bandit_a.png","70","70","test","","","","8","",""
"null","417156","pSARL_v2","pSARL_v27zaa7k4r","601f5a82dc8ed94a9da4461e","fixation","img/fixation.png","null","","test","","","","","",""
"60.5","417221","pSARL_v2","pSARL_v27zaa7k4r","601f5a82dc8ed94a9da4461e","freq","img/orange_2bandit_a2.png","70","70","test","1","171","171","8","",""
"null","417965","pSARL_v2","pSARL_v27zaa7k4r","601f5a82dc8ed94a9da4461e","freq_resp","img/orange_2bandit_a.png","70","70","test","","","","8","",""
"null","418120","pSARL_v2","pSARL_v27zaa7k4r","601f5a82dc8ed94a9da4461e","fixation","img/fixation.png","null","","test","","","","","",""
"42","418166","pSARL_v2","pSARL_v27zaa7k4r","601f5a82dc8ed94a9da4461e","freq","img/orange_2bandit_a2.png","70","70","test","1","172","172","8","",""
"null","418929","pSARL_v2","pSARL_v27zaa7k4r","601f5a82dc8ed94a9da4461e","freq_resp","img/orange_2bandit_a.png","70","70","test","","","","8","",""
"null","419085","pSARL_v2","pSARL_v27zaa7k4r","601f5a82dc8ed94a9da4461e","fixation","img/fixation.png","null","","test","","","","","",""
"411.90000000596046","419502","pSARL_v2","pSARL_v27zaa7k4r","601f5a82dc8ed94a9da4461e","infreq","img/green_2bandit_a2.png","68","68","test","1","173","173","8","",""
"null","419894","pSARL_v2","pSARL_v27zaa7k4r","601f5a82dc8ed94a9da4461e","infreq_resp","img/green_2bandit_a.png","68","68","test","","","","8","",""
"null","420048","pSARL_v2","pSARL_v27zaa7k4r","601f5a82dc8ed94a9da4461e","fixation","img/fixation.png","null","","test","","","","","",""
"521.8000000119209","420575","pSARL_v2","pSARL_v27zaa7k4r","601f5a82dc8ed94a9da4461e","freq","img/orange_2bandit_a2.png","70","70","test","1","174","174","8","",""
"null","420857","pSARL_v2","pSARL_v27zaa7k4r","601f5a82dc8ed94a9da4461e","freq_resp","img/orange_2bandit_a.png","70","70","test","","","","8","",""
"null","421013","pSARL_v2","pSARL_v27zaa7k4r","601f5a82dc8ed94a9da4461e","fixation","img/fixation.png","null","","test","","","","","",""
"514.2000000178814","421531","pSARL_v2","pSARL_v27zaa7k4r","601f5a82dc8ed94a9da4461e","freq","img/orange_2bandit_a2.png","70","70","test","1","175","175","8","",""
"null","421821","pSARL_v2","pSARL_v27zaa7k4r","601f5a82dc8ed94a9da4461e","freq_resp","img/orange_2bandit_a.png","70","70","test","","","","8","",""
"null","421977","pSARL_v2","pSARL_v27zaa7k4r","601f5a82dc8ed94a9da4461e","fixation","img/fixation.png","null","","test","","","","","",""
"447.09999999403954","422428","pSARL_v2","pSARL_v27zaa7k4r","601f5a82dc8ed94a9da4461e","freq","img/orange_2bandit_a2.png","70","70","test","1","176","176","8","",""
"null","422785","pSARL_v2","pSARL_v27zaa7k4r","601f5a82dc8ed94a9da4461e","freq_resp","img/orange_2bandit_a.png","70","70","test","","","","8","",""
"null","422941","pSARL_v2","pSARL_v27zaa7k4r","601f5a82dc8ed94a9da4461e","fixation","img/fixation.png","null","","test","","","","","",""
"395.90000000596046","423340","pSARL_v2","pSARL_v27zaa7k4r","601f5a82dc8ed94a9da4461e","freq","img/orange_2bandit_a2.png","70","70","test","1","177","177","8","",""
"null","423748","pSARL_v2","pSARL_v27zaa7k4r","601f5a82dc8ed94a9da4461e","freq_resp","img/orange_2bandit_a.png","70","70","test","","","","8","",""
"null","423903","pSARL_v2","pSARL_v27zaa7k4r","601f5a82dc8ed94a9da4461e","fixation","img/fixation.png","null","","test","","","","","",""
"233.2999999821186","424140","pSARL_v2","pSARL_v27zaa7k4r","601f5a82dc8ed94a9da4461e","infreq","img/green_2bandit_a2.png","70","68","test","0","178","178","8","",""
"null","424712","pSARL_v2","pSARL_v27zaa7k4r","601f5a82dc8ed94a9da4461e","infreq_resp","img/green_2bandit_a.png","70","68","test","","","","8","",""
"null","424868","pSARL_v2","pSARL_v27zaa7k4r","601f5a82dc8ed94a9da4461e","fixation","img/fixation.png","null","","test","","","","","",""
"523.0999999940395","425394","pSARL_v2","pSARL_v27zaa7k4r","601f5a82dc8ed94a9da4461e","freq","img/orange_2bandit_a2.png","70","70","test","1","179","179","8","",""
"null","425675","pSARL_v2","pSARL_v27zaa7k4r","601f5a82dc8ed94a9da4461e","freq_resp","img/orange_2bandit_a.png","70","70","test","","","","8","",""
"null","425831","pSARL_v2","pSARL_v27zaa7k4r","601f5a82dc8ed94a9da4461e","fixation","img/fixation.png","null","","test","","","","","",""
"295.69999998807907","426129","pSARL_v2","pSARL_v27zaa7k4r","601f5a82dc8ed94a9da4461e","freq","img/orange_2bandit_a2.png","70","70","test","1","180","180","8","",""
"null","426639","pSARL_v2","pSARL_v27zaa7k4r","601f5a82dc8ed94a9da4461e","freq_resp","img/orange_2bandit_a.png","70","70","test","","","","8","",""
"null","426794","pSARL_v2","pSARL_v27zaa7k4r","601f5a82dc8ed94a9da4461e","fixation","img/fixation.png","null","","test","","","","","",""
"252.59999999403954","427049","pSARL_v2","pSARL_v27zaa7k4r","601f5a82dc8ed94a9da4461e","freq","img/orange_2bandit_a2.png","70","70","test","1","181","181","8","",""
"null","427601","pSARL_v2","pSARL_v27zaa7k4r","601f5a82dc8ed94a9da4461e","freq_resp","img/orange_2bandit_a.png","70","70","test","","","","8","",""
"null","427755","pSARL_v2","pSARL_v27zaa7k4r","601f5a82dc8ed94a9da4461e","fixation","img/fixation.png","null","","test","","","","","",""
"214.7000000178814","427973","pSARL_v2","pSARL_v27zaa7k4r","601f5a82dc8ed94a9da4461e","freq","img/orange_2bandit_a2.png","70","70","test","1","182","182","8","",""
"null","428561","pSARL_v2","pSARL_v27zaa7k4r","601f5a82dc8ed94a9da4461e","freq_resp","img/orange_2bandit_a.png","70","70","test","","","","8","",""
"null","428715","pSARL_v2","pSARL_v27zaa7k4r","601f5a82dc8ed94a9da4461e","fixation","img/fixation.png","null","","test","","","","","",""
"288.5","429007","pSARL_v2","pSARL_v27zaa7k4r","601f5a82dc8ed94a9da4461e","freq","img/orange_2bandit_a2.png","70","70","test","1","183","183","8","",""
"null","429524","pSARL_v2","pSARL_v27zaa7k4r","601f5a82dc8ed94a9da4461e","freq_resp","img/orange_2bandit_a.png","70","70","test","","","","8","",""
"null","429678","pSARL_v2","pSARL_v27zaa7k4r","601f5a82dc8ed94a9da4461e","fixation","img/fixation.png","null","","test","","","","","",""
"82.69999998807907","429764","pSARL_v2","pSARL_v27zaa7k4r","601f5a82dc8ed94a9da4461e","freq","img/orange_2bandit_a2.png","70","70","test","1","184","184","8","",""
"null","430487","pSARL_v2","pSARL_v27zaa7k4r","601f5a82dc8ed94a9da4461e","freq_resp","img/orange_2bandit_a.png","70","70","test","","","","8","",""
"null","430641","pSARL_v2","pSARL_v27zaa7k4r","601f5a82dc8ed94a9da4461e","fixation","img/fixation.png","null","","test","","","","","",""
"511.60000002384186","431156","pSARL_v2","pSARL_v27zaa7k4r","601f5a82dc8ed94a9da4461e","freq","img/orange_2bandit_a2.png","70","70","test","1","185","185","8","",""
"null","431449","pSARL_v2","pSARL_v27zaa7k4r","601f5a82dc8ed94a9da4461e","freq_resp","img/orange_2bandit_a.png","70","70","test","","","","8","",""
"null","431605","pSARL_v2","pSARL_v27zaa7k4r","601f5a82dc8ed94a9da4461e","fixation","img/fixation.png","null","","test","","","","","",""
"451.09999999403954","432059","pSARL_v2","pSARL_v27zaa7k4r","601f5a82dc8ed94a9da4461e","freq","img/orange_2bandit_a2.png","70","70","test","1","186","186","8","",""
"null","432412","pSARL_v2","pSARL_v27zaa7k4r","601f5a82dc8ed94a9da4461e","freq_resp","img/orange_2bandit_a.png","70","70","test","","","","8","",""
"null","432566","pSARL_v2","pSARL_v27zaa7k4r","601f5a82dc8ed94a9da4461e","fixation","img/fixation.png","null","","test","","","","","",""
"58.099999994039536","432628","pSARL_v2","pSARL_v27zaa7k4r","601f5a82dc8ed94a9da4461e","freq","img/orange_2bandit_a2.png","70","70","test","1","187","187","8","",""
"null","433373","pSARL_v2","pSARL_v27zaa7k4r","601f5a82dc8ed94a9da4461e","freq_resp","img/orange_2bandit_a.png","70","70","test","","","","8","",""
"null","433528","pSARL_v2","pSARL_v27zaa7k4r","601f5a82dc8ed94a9da4461e","fixation","img/fixation.png","null","","test","","","","","",""
"849.0999999940395","434382","pSARL_v2","pSARL_v27zaa7k4r","601f5a82dc8ed94a9da4461e","reward","img/slot.png","74","","test","","","","","",""
"null","435138","pSARL_v2","pSARL_v27zaa7k4r","601f5a82dc8ed94a9da4461e","points","<div class=""verylowPoints""> -4 </div>","null","na","test","","","","8","-4","7"
"630.5","435773","pSARL_v2","pSARL_v27zaa7k4r","601f5a82dc8ed94a9da4461e","freq","img/orange_2bandit_a2.png","70","70","test","1","188","188","9","",""
"null","435947","pSARL_v2","pSARL_v27zaa7k4r","601f5a82dc8ed94a9da4461e","freq_resp","img/orange_2bandit_a.png","70","70","test","","","","9","",""
"null","436103","pSARL_v2","pSARL_v27zaa7k4r","601f5a82dc8ed94a9da4461e","fixation","img/fixation.png","null","","test","","","","","",""
"425.2999999821186","436532","pSARL_v2","pSARL_v27zaa7k4r","601f5a82dc8ed94a9da4461e","freq","img/orange_2bandit_a2.png","70","70","test","1","189","189","9","",""
"null","436912","pSARL_v2","pSARL_v27zaa7k4r","601f5a82dc8ed94a9da4461e","freq_resp","img/orange_2bandit_a.png","70","70","test","","","","9","",""
"null","437066","pSARL_v2","pSARL_v27zaa7k4r","601f5a82dc8ed94a9da4461e","fixation","img/fixation.png","null","","test","","","","","",""
"20","437090","pSARL_v2","pSARL_v27zaa7k4r","601f5a82dc8ed94a9da4461e","freq","img/orange_2bandit_a2.png","70","70","test","1","190","190","9","",""
"null","437875","pSARL_v2","pSARL_v27zaa7k4r","601f5a82dc8ed94a9da4461e","freq_resp","img/orange_2bandit_a.png","70","70","test","","","","9","",""
"null","438030","pSARL_v2","pSARL_v27zaa7k4r","601f5a82dc8ed94a9da4461e","fixation","img/fixation.png","null","","test","","","","","",""
"587","438621","pSARL_v2","pSARL_v27zaa7k4r","601f5a82dc8ed94a9da4461e","freq","img/orange_2bandit_a2.png","70","70","test","1","191","191","9","",""
"null","438837","pSARL_v2","pSARL_v27zaa7k4r","601f5a82dc8ed94a9da4461e","freq_resp","img/orange_2bandit_a.png","70","70","test","","","","9","",""
"null","438992","pSARL_v2","pSARL_v27zaa7k4r","601f5a82dc8ed94a9da4461e","fixation","img/fixation.png","null","","test","","","","","",""
"545.5999999940395","439542","pSARL_v2","pSARL_v27zaa7k4r","601f5a82dc8ed94a9da4461e","freq","img/orange_2bandit_a2.png","70","70","test","1","192","192","9","",""
"null","439802","pSARL_v2","pSARL_v27zaa7k4r","601f5a82dc8ed94a9da4461e","freq_resp","img/orange_2bandit_a.png","70","70","test","","","","9","",""
"null","439959","pSARL_v2","pSARL_v27zaa7k4r","601f5a82dc8ed94a9da4461e","fixation","img/fixation.png","null","","test","","","","","",""
"362.40000000596046","440325","pSARL_v2","pSARL_v27zaa7k4r","601f5a82dc8ed94a9da4461e","freq","img/orange_2bandit_a2.png","70","70","test","1","193","193","9","",""
"null","440765","pSARL_v2","pSARL_v27zaa7k4r","601f5a82dc8ed94a9da4461e","freq_resp","img/orange_2bandit_a.png","70","70","test","","","","9","",""
"null","440920","pSARL_v2","pSARL_v27zaa7k4r","601f5a82dc8ed94a9da4461e","fixation","img/fixation.png","null","","test","","","","","",""
"166.5","441090","pSARL_v2","pSARL_v27zaa7k4r","601f5a82dc8ed94a9da4461e","freq","img/orange_2bandit_a2.png","70","70","test","1","194","194","9","",""
"null","441728","pSARL_v2","pSARL_v27zaa7k4r","601f5a82dc8ed94a9da4461e","freq_resp","img/orange_2bandit_a.png","70","70","test","","","","9","",""
"null","441883","pSARL_v2","pSARL_v27zaa7k4r","601f5a82dc8ed94a9da4461e","fixation","img/fixation.png","null","","test","","","","","",""
"387.90000000596046","442274","pSARL_v2","pSARL_v27zaa7k4r","601f5a82dc8ed94a9da4461e","freq","img/orange_2bandit_a2.png","70","70","test","1","195","195","9","",""
"null","442689","pSARL_v2","pSARL_v27zaa7k4r","601f5a82dc8ed94a9da4461e","freq_resp","img/orange_2bandit_a.png","70","70","test","","","","9","",""
"null","442844","pSARL_v2","pSARL_v27zaa7k4r","601f5a82dc8ed94a9da4461e","fixation","img/fixation.png","null","","test","","","","","",""
"658.6999999880791","443507","pSARL_v2","pSARL_v27zaa7k4r","601f5a82dc8ed94a9da4461e","freq","img/orange_2bandit_a2.png","70","70","test","1","196","196","9","",""
"null","443653","pSARL_v2","pSARL_v27zaa7k4r","601f5a82dc8ed94a9da4461e","freq_resp","img/orange_2bandit_a.png","70","70","test","","","","9","",""
"null","443806","pSARL_v2","pSARL_v27zaa7k4r","601f5a82dc8ed94a9da4461e","fixation","img/fixation.png","null","","test","","","","","",""
"432.5","444241","pSARL_v2","pSARL_v27zaa7k4r","601f5a82dc8ed94a9da4461e","freq","img/orange_2bandit_a2.png","70","70","test","1","197","197","9","",""
"null","444613","pSARL_v2","pSARL_v27zaa7k4r","601f5a82dc8ed94a9da4461e","freq_resp","img/orange_2bandit_a.png","70","70","test","","","","9","",""
"null","444768","pSARL_v2","pSARL_v27zaa7k4r","601f5a82dc8ed94a9da4461e","fixation","img/fixation.png","null","","test","","","","","",""
"486.09999999403954","445258","pSARL_v2","pSARL_v27zaa7k4r","601f5a82dc8ed94a9da4461e","freq","img/orange_2bandit_a2.png","70","70","test","1","198","198","9","",""
"null","445576","pSARL_v2","pSARL_v27zaa7k4r","601f5a82dc8ed94a9da4461e","freq_resp","img/orange_2bandit_a.png","70","70","test","","","","9","",""
"null","445730","pSARL_v2","pSARL_v27zaa7k4r","601f5a82dc8ed94a9da4461e","fixation","img/fixation.png","null","","test","","","","","",""
"392","446125","pSARL_v2","pSARL_v27zaa7k4r","601f5a82dc8ed94a9da4461e","infreq","img/green_2bandit_a2.png","68","68","test","1","199","199","9","",""
"null","446538","pSARL_v2","pSARL_v27zaa7k4r","601f5a82dc8ed94a9da4461e","infreq_resp","img/green_2bandit_a.png","68","68","test","","","","9","",""
"null","446693","pSARL_v2","pSARL_v27zaa7k4r","601f5a82dc8ed94a9da4461e","fixation","img/fixation.png","null","","test","","","","","",""
"394.80000001192093","447093","pSARL_v2","pSARL_v27zaa7k4r","601f5a82dc8ed94a9da4461e","freq","img/orange_2bandit_a2.png","70","70","test","1","200","200","9","",""
"null","447503","pSARL_v2","pSARL_v27zaa7k4r","601f5a82dc8ed94a9da4461e","freq_resp","img/orange_2bandit_a.png","70","70","test","","","","9","",""
"null","447657","pSARL_v2","pSARL_v27zaa7k4r","601f5a82dc8ed94a9da4461e","fixation","img/fixation.png","null","","test","","","","","",""
"214.7999999821186","447875","pSARL_v2","pSARL_v27zaa7k4r","601f5a82dc8ed94a9da4461e","freq","img/orange_2bandit_a2.png","70","70","test","1","201","201","9","",""
"null","448463","pSARL_v2","pSARL_v27zaa7k4r","601f5a82dc8ed94a9da4461e","freq_resp","img/orange_2bandit_a.png","70","70","test","","","","9","",""
"null","448618","pSARL_v2","pSARL_v27zaa7k4r","601f5a82dc8ed94a9da4461e","fixation","img/fixation.png","null","","test","","","","","",""
"149.69999998807907","448770","pSARL_v2","pSARL_v27zaa7k4r","601f5a82dc8ed94a9da4461e","freq","img/orange_2bandit_a2.png","70","70","test","1","202","202","9","",""
"null","449423","pSARL_v2","pSARL_v27zaa7k4r","601f5a82dc8ed94a9da4461e","freq_resp","img/orange_2bandit_a.png","70","70","test","","","","9","",""
"null","449579","pSARL_v2","pSARL_v27zaa7k4r","601f5a82dc8ed94a9da4461e","fixation","img/fixation.png","null","","test","","","","","",""
"220.19999998807907","449803","pSARL_v2","pSARL_v27zaa7k4r","601f5a82dc8ed94a9da4461e","freq","img/orange_2bandit_a2.png","70","70","test","1","203","203","9","",""
"null","450385","pSARL_v2","pSARL_v27zaa7k4r","601f5a82dc8ed94a9da4461e","freq_resp","img/orange_2bandit_a.png","70","70","test","","","","9","",""
"null","450541","pSARL_v2","pSARL_v27zaa7k4r","601f5a82dc8ed94a9da4461e","fixation","img/fixation.png","null","","test","","","","","",""
"125.7999999821186","450671","pSARL_v2","pSARL_v27zaa7k4r","601f5a82dc8ed94a9da4461e","freq","img/orange_2bandit_a2.png","70","70","test","1","204","204","9","",""
"null","451347","pSARL_v2","pSARL_v27zaa7k4r","601f5a82dc8ed94a9da4461e","freq_resp","img/orange_2bandit_a.png","70","70","test","","","","9","",""
"null","451502","pSARL_v2","pSARL_v27zaa7k4r","601f5a82dc8ed94a9da4461e","fixation","img/fixation.png","null","","test","","","","","",""
"170.90000000596046","451678","pSARL_v2","pSARL_v27zaa7k4r","601f5a82dc8ed94a9da4461e","infreq","img/green_2bandit_a2.png","70","68","test","0","205","205","9","",""
