"rt","time_elapsed","expId","subject","prolificID","trialType","stimulus","key_press","corrresp","phase","corr","trialNum","attentionRunNum","blockNum","points","rlNum"
"10060.699999988079","10064","pSARL_v2","pSARL_v2krqcfwfk","5c3fd0d4c2d0b700017d02cd","","","","","","","","","","",""
"","12356","pSARL_v2","pSARL_v2krqcfwfk","5c3fd0d4c2d0b700017d02cd","fullscreen","","","","","","","","","",""
"77783.09999999404","90142","pSARL_v2","pSARL_v2krqcfwfk","5c3fd0d4c2d0b700017d02cd","","","","","","","","","","",""
"null","90952","pSARL_v2","pSARL_v2krqcfwfk","5c3fd0d4c2d0b700017d02cd","freqPrac","img/orange_2bandit_a2.png","null","70","prac","0","","","","",""
"null","91971","pSARL_v2","pSARL_v2krqcfwfk","5c3fd0d4c2d0b700017d02cd","feedback","img/tooSlow.png","null","na","prac","","","","","",""
"null","92126","pSARL_v2","pSARL_v2krqcfwfk","5c3fd0d4c2d0b700017d02cd","fixation","img/fixation.png","null","","prac","","","","","",""
"606.5","92735","pSARL_v2","pSARL_v2krqcfwfk","5c3fd0d4c2d0b700017d02cd","infreqPrac","img/green_2bandit_a2.png","68","68","prac","1","","","","",""
"606.5","92942","pSARL_v2","pSARL_v2krqcfwfk","5c3fd0d4c2d0b700017d02cd","infreqPrac_resp","img/green_2bandit_a.png","68","68","prac","","","","","",""
"null","93098","pSARL_v2","pSARL_v2krqcfwfk","5c3fd0d4c2d0b700017d02cd","fixation","img/fixation.png","null","","prac","","","","","",""
"512.3000000119209","93613","pSARL_v2","pSARL_v2krqcfwfk","5c3fd0d4c2d0b700017d02cd","freqPrac","img/orange_2bandit_a2.png","70","70","prac","1","","","","",""
"512.3000000119209","93917","pSARL_v2","pSARL_v2krqcfwfk","5c3fd0d4c2d0b700017d02cd","freqPrac_resp","img/orange_2bandit_a.png","70","70","prac","","","","","",""
"null","94077","pSARL_v2","pSARL_v2krqcfwfk","5c3fd0d4c2d0b700017d02cd","fixation","img/fixation.png","null","","prac","","","","","",""
"468.19999998807907","94547","pSARL_v2","pSARL_v2krqcfwfk","5c3fd0d4c2d0b700017d02cd","infreqPrac","img/green_2bandit_a2.png","68","68","prac","1","","","","",""
"468.19999998807907","94888","pSARL_v2","pSARL_v2krqcfwfk","5c3fd0d4c2d0b700017d02cd","infreqPrac_resp","img/green_2bandit_a.png","68","68","prac","","","","","",""
"null","95043","pSARL_v2","pSARL_v2krqcfwfk","5c3fd0d4c2d0b700017d02cd","fixation","img/fixation.png","null","","prac","","","","","",""
"322","95368","pSARL_v2","pSARL_v2krqcfwfk","5c3fd0d4c2d0b700017d02cd","infreqPrac","img/green_2bandit_a2.png","68","68","prac","1","","","","",""
"322","95857","pSARL_v2","pSARL_v2krqcfwfk","5c3fd0d4c2d0b700017d02cd","infreqPrac_resp","img/green_2bandit_a.png","68","68","prac","","","","","",""
"null","96012","pSARL_v2","pSARL_v2krqcfwfk","5c3fd0d4c2d0b700017d02cd","fixation","img/fixation.png","null","","prac","","","","","",""
"313.19999998807907","96328","pSARL_v2","pSARL_v2krqcfwfk","5c3fd0d4c2d0b700017d02cd","infreqPrac","img/green_2bandit_a2.png","68","68","prac","1","","","","",""
"313.19999998807907","96825","pSARL_v2","pSARL_v2krqcfwfk","5c3fd0d4c2d0b700017d02cd","infreqPrac_resp","img/green_2bandit_a.png","68","68","prac","","","","","",""
"null","96984","pSARL_v2","pSARL_v2krqcfwfk","5c3fd0d4c2d0b700017d02cd","fixation","img/fixation.png","null","","prac","","","","","",""
"375.30000001192093","97362","pSARL_v2","pSARL_v2krqcfwfk","5c3fd0d4c2d0b700017d02cd","freqPrac","img/orange_2bandit_a2.png","70","70","prac","1","","","","",""
"375.30000001192093","97799","pSARL_v2","pSARL_v2krqcfwfk","5c3fd0d4c2d0b700017d02cd","freqPrac_resp","img/orange_2bandit_a.png","70","70","prac","","","","","",""
"null","97953","pSARL_v2","pSARL_v2krqcfwfk","5c3fd0d4c2d0b700017d02cd","fixation","img/fixation.png","null","","prac","","","","","",""
"634.5999999940395","98590","pSARL_v2","pSARL_v2krqcfwfk","5c3fd0d4c2d0b700017d02cd","infreqPrac","img/green_2bandit_a2.png","68","68","prac","1","","","","",""
"634.5999999940395","98759","pSARL_v2","pSARL_v2krqcfwfk","5c3fd0d4c2d0b700017d02cd","infreqPrac_resp","img/green_2bandit_a.png","68","68","prac","","","","","",""
"null","98917","pSARL_v2","pSARL_v2krqcfwfk","5c3fd0d4c2d0b700017d02cd","fixation","img/fixation.png","null","","prac","","","","","",""
"574.6999999880791","99494","pSARL_v2","pSARL_v2krqcfwfk","5c3fd0d4c2d0b700017d02cd","freqPrac","img/orange_2bandit_a2.png","70","70","prac","1","","","","",""
"574.6999999880791","99734","pSARL_v2","pSARL_v2krqcfwfk","5c3fd0d4c2d0b700017d02cd","freqPrac_resp","img/orange_2bandit_a.png","70","70","prac","","","","","",""
"null","99891","pSARL_v2","pSARL_v2krqcfwfk","5c3fd0d4c2d0b700017d02cd","fixation","img/fixation.png","null","","prac","","","","","",""
"null","100703","pSARL_v2","pSARL_v2krqcfwfk","5c3fd0d4c2d0b700017d02cd","freqPrac","img/orange_2bandit_a2.png","null","70","prac","0","","","","",""
"null","101717","pSARL_v2","pSARL_v2krqcfwfk","5c3fd0d4c2d0b700017d02cd","feedback","img/tooSlow.png","null","na","prac","","","","","",""
"null","101874","pSARL_v2","pSARL_v2krqcfwfk","5c3fd0d4c2d0b700017d02cd","fixation","img/fixation.png","null","","prac","","","","","",""
"21443.40000000596","123319","pSARL_v2","pSARL_v2krqcfwfk","5c3fd0d4c2d0b700017d02cd","","","","","prac","","","","","",""
"1533.0999999940395","124855","pSARL_v2","pSARL_v2krqcfwfk","5c3fd0d4c2d0b700017d02cd","rewardPractice","img/slot.png","74","","prac","","","","","",""
"null","125612","pSARL_v2","pSARL_v2krqcfwfk","5c3fd0d4c2d0b700017d02cd","feedback","<div class=""veryhighPoints""> +15 </div>","null","na","prac","","","","","",""
"null","125765","pSARL_v2","pSARL_v2krqcfwfk","5c3fd0d4c2d0b700017d02cd","fixation","img/fixation.png","null","","prac","","","","","",""
"13198.299999982119","138966","pSARL_v2","pSARL_v2krqcfwfk","5c3fd0d4c2d0b700017d02cd","","","","","prac","","","","","",""
"617.1000000238419","139586","pSARL_v2","pSARL_v2krqcfwfk","5c3fd0d4c2d0b700017d02cd","freq","img/orange_2bandit_a2.png","70","70","test","1","1","1","1","",""
"null","139771","pSARL_v2","pSARL_v2krqcfwfk","5c3fd0d4c2d0b700017d02cd","freq_resp","img/orange_2bandit_a.png","70","70","test","","","","1","",""
"null","139927","pSARL_v2","pSARL_v2krqcfwfk","5c3fd0d4c2d0b700017d02cd","fixation","img/fixation.png","null","","test","","","","","",""
"356.19999998807907","140286","pSARL_v2","pSARL_v2krqcfwfk","5c3fd0d4c2d0b700017d02cd","freq","img/orange_2bandit_a2.png","70","70","test","1","2","2","1","",""
"null","140742","pSARL_v2","pSARL_v2krqcfwfk","5c3fd0d4c2d0b700017d02cd","freq_resp","img/orange_2bandit_a.png","70","70","test","","","","1","",""
"null","140899","pSARL_v2","pSARL_v2krqcfwfk","5c3fd0d4c2d0b700017d02cd","fixation","img/fixation.png","null","","test","","","","","",""
"288.90000000596046","141190","pSARL_v2","pSARL_v2krqcfwfk","5c3fd0d4c2d0b700017d02cd","freq","img/orange_2bandit_a2.png","70","70","test","1","3","3","1","",""
"null","141713","pSARL_v2","pSARL_v2krqcfwfk","5c3fd0d4c2d0b700017d02cd","freq_resp","img/orange_2bandit_a.png","70","70","test","","","","1","",""
"null","141868","pSARL_v2","pSARL_v2krqcfwfk","5c3fd0d4c2d0b700017d02cd","fixation","img/fixation.png","null","","test","","","","","",""
"299.69999998807907","142170","pSARL_v2","pSARL_v2krqcfwfk","5c3fd0d4c2d0b700017d02cd","freq","img/orange_2bandit_a2.png","70","70","test","1","4","4","1","",""
"null","142686","pSARL_v2","pSARL_v2krqcfwfk","5c3fd0d4c2d0b700017d02cd","freq_resp","img/orange_2bandit_a.png","70","70","test","","","","1","",""
"null","142844","pSARL_v2","pSARL_v2krqcfwfk","5c3fd0d4c2d0b700017d02cd","fixation","img/fixation.png","null","","test","","","","","",""
"305.60000002384186","143152","pSARL_v2","pSARL_v2krqcfwfk","5c3fd0d4c2d0b700017d02cd","freq","img/orange_2bandit_a2.png","70","70","test","1","5","5","1","",""
"null","143664","pSARL_v2","pSARL_v2krqcfwfk","5c3fd0d4c2d0b700017d02cd","freq_resp","img/orange_2bandit_a.png","70","70","test","","","","1","",""
"null","143821","pSARL_v2","pSARL_v2krqcfwfk","5c3fd0d4c2d0b700017d02cd","fixation","img/fixation.png","null","","test","","","","","",""
"317.09999999403954","144140","pSARL_v2","pSARL_v2krqcfwfk","5c3fd0d4c2d0b700017d02cd","freq","img/orange_2bandit_a2.png","70","70","test","1","6","6","1","",""
"null","144637","pSARL_v2","pSARL_v2krqcfwfk","5c3fd0d4c2d0b700017d02cd","freq_resp","img/orange_2bandit_a.png","70","70","test","","","","1","",""
"null","144794","pSARL_v2","pSARL_v2krqcfwfk","5c3fd0d4c2d0b700017d02cd","fixation","img/fixation.png","null","","test","","","","","",""
"284.30000001192093","145080","pSARL_v2","pSARL_v2krqcfwfk","5c3fd0d4c2d0b700017d02cd","freq","img/orange_2bandit_a2.png","70","70","test","1","7","7","1","",""
"null","145609","pSARL_v2","pSARL_v2krqcfwfk","5c3fd0d4c2d0b700017d02cd","freq_resp","img/orange_2bandit_a.png","70","70","test","","","","1","",""
"null","145765","pSARL_v2","pSARL_v2krqcfwfk","5c3fd0d4c2d0b700017d02cd","fixation","img/fixation.png","null","","test","","","","","",""
"352.89999997615814","146120","pSARL_v2","pSARL_v2krqcfwfk","5c3fd0d4c2d0b700017d02cd","infreq","img/green_2bandit_a2.png","68","68","test","1","8","8","1","",""
"null","146579","pSARL_v2","pSARL_v2krqcfwfk","5c3fd0d4c2d0b700017d02cd","infreq_resp","img/green_2bandit_a.png","68","68","test","","","","1","",""
"null","146734","pSARL_v2","pSARL_v2krqcfwfk","5c3fd0d4c2d0b700017d02cd","fixation","img/fixation.png","null","","test","","","","","",""
"352.40000000596046","147089","pSARL_v2","pSARL_v2krqcfwfk","5c3fd0d4c2d0b700017d02cd","freq","img/orange_2bandit_a2.png","70","70","test","1","9","9","1","",""
"null","147545","pSARL_v2","pSARL_v2krqcfwfk","5c3fd0d4c2d0b700017d02cd","freq_resp","img/orange_2bandit_a.png","70","70","test","","","","1","",""
"null","147701","pSARL_v2","pSARL_v2krqcfwfk","5c3fd0d4c2d0b700017d02cd","fixation","img/fixation.png","null","","test","","","","","",""
"301.40000000596046","148005","pSARL_v2","pSARL_v2krqcfwfk","5c3fd0d4c2d0b700017d02cd","freq","img/orange_2bandit_a2.png","70","70","test","1","10","10","1","",""
"null","148512","pSARL_v2","pSARL_v2krqcfwfk","5c3fd0d4c2d0b700017d02cd","freq_resp","img/orange_2bandit_a.png","70","70","test","","","","1","",""
"null","148667","pSARL_v2","pSARL_v2krqcfwfk","5c3fd0d4c2d0b700017d02cd","fixation","img/fixation.png","null","","test","","","","","",""
"313.60000002384186","148983","pSARL_v2","pSARL_v2krqcfwfk","5c3fd0d4c2d0b700017d02cd","freq","img/orange_2bandit_a2.png","70","70","test","1","11","11","1","",""
"null","149479","pSARL_v2","pSARL_v2krqcfwfk","5c3fd0d4c2d0b700017d02cd","freq_resp","img/orange_2bandit_a.png","70","70","test","","","","1","",""
"null","149636","pSARL_v2","pSARL_v2krqcfwfk","5c3fd0d4c2d0b700017d02cd","fixation","img/fixation.png","null","","test","","","","","",""
"296.90000000596046","149935","pSARL_v2","pSARL_v2krqcfwfk","5c3fd0d4c2d0b700017d02cd","freq","img/orange_2bandit_a2.png","70","70","test","1","12","12","1","",""
"null","150450","pSARL_v2","pSARL_v2krqcfwfk","5c3fd0d4c2d0b700017d02cd","freq_resp","img/orange_2bandit_a.png","70","70","test","","","","1","",""
"null","150607","pSARL_v2","pSARL_v2krqcfwfk","5c3fd0d4c2d0b700017d02cd","fixation","img/fixation.png","null","","test","","","","","",""
"289.5","150899","pSARL_v2","pSARL_v2krqcfwfk","5c3fd0d4c2d0b700017d02cd","freq","img/orange_2bandit_a2.png","70","70","test","1","13","13","1","",""
"null","151416","pSARL_v2","pSARL_v2krqcfwfk","5c3fd0d4c2d0b700017d02cd","freq_resp","img/orange_2bandit_a.png","70","70","test","","","","1","",""
"null","151575","pSARL_v2","pSARL_v2krqcfwfk","5c3fd0d4c2d0b700017d02cd","fixation","img/fixation.png","null","","test","","","","","",""
"277.69999998807907","151855","pSARL_v2","pSARL_v2krqcfwfk","5c3fd0d4c2d0b700017d02cd","freq","img/orange_2bandit_a2.png","70","70","test","1","14","14","1","",""
"null","152390","pSARL_v2","pSARL_v2krqcfwfk","5c3fd0d4c2d0b700017d02cd","freq_resp","img/orange_2bandit_a.png","70","70","test","","","","1","",""
"null","152551","pSARL_v2","pSARL_v2krqcfwfk","5c3fd0d4c2d0b700017d02cd","fixation","img/fixation.png","null","","test","","","","","",""
"273.80000001192093","152827","pSARL_v2","pSARL_v2krqcfwfk","5c3fd0d4c2d0b700017d02cd","freq","img/orange_2bandit_a2.png","70","70","test","1","15","15","1","",""
"null","153366","pSARL_v2","pSARL_v2krqcfwfk","5c3fd0d4c2d0b700017d02cd","freq_resp","img/orange_2bandit_a.png","70","70","test","","","","1","",""
"null","153525","pSARL_v2","pSARL_v2krqcfwfk","5c3fd0d4c2d0b700017d02cd","fixation","img/fixation.png","null","","test","","","","","",""
"269.90000000596046","153797","pSARL_v2","pSARL_v2krqcfwfk","5c3fd0d4c2d0b700017d02cd","freq","img/orange_2bandit_a2.png","70","70","test","1","16","16","1","",""
"null","154340","pSARL_v2","pSARL_v2krqcfwfk","5c3fd0d4c2d0b700017d02cd","freq_resp","img/orange_2bandit_a.png","70","70","test","","","","1","",""
"null","154496","pSARL_v2","pSARL_v2krqcfwfk","5c3fd0d4c2d0b700017d02cd","fixation","img/fixation.png","null","","test","","","","","",""
"275.59999999403954","154773","pSARL_v2","pSARL_v2krqcfwfk","5c3fd0d4c2d0b700017d02cd","freq","img/orange_2bandit_a2.png","70","70","test","1","17","17","1","",""
"null","155302","pSARL_v2","pSARL_v2krqcfwfk","5c3fd0d4c2d0b700017d02cd","freq_resp","img/orange_2bandit_a.png","70","70","test","","","","1","",""
"null","155462","pSARL_v2","pSARL_v2krqcfwfk","5c3fd0d4c2d0b700017d02cd","fixation","img/fixation.png","null","","test","","","","","",""
"253.09999999403954","155717","pSARL_v2","pSARL_v2krqcfwfk","5c3fd0d4c2d0b700017d02cd","freq","img/orange_2bandit_a2.png","70","70","test","1","18","18","1","",""
"null","156272","pSARL_v2","pSARL_v2krqcfwfk","5c3fd0d4c2d0b700017d02cd","freq_resp","img/orange_2bandit_a.png","70","70","test","","","","1","",""
"null","156428","pSARL_v2","pSARL_v2krqcfwfk","5c3fd0d4c2d0b700017d02cd","fixation","img/fixation.png","null","","test","","","","","",""
"242.7000000178814","156674","pSARL_v2","pSARL_v2krqcfwfk","5c3fd0d4c2d0b700017d02cd","freq","img/orange_2bandit_a2.png","70","70","test","1","19","19","1","",""
"null","157245","pSARL_v2","pSARL_v2krqcfwfk","5c3fd0d4c2d0b700017d02cd","freq_resp","img/orange_2bandit_a.png","70","70","test","","","","1","",""
"null","157402","pSARL_v2","pSARL_v2krqcfwfk","5c3fd0d4c2d0b700017d02cd","fixation","img/fixation.png","null","","test","","","","","",""
"253.30000001192093","157658","pSARL_v2","pSARL_v2krqcfwfk","5c3fd0d4c2d0b700017d02cd","freq","img/orange_2bandit_a2.png","70","70","test","1","20","20","1","",""
"null","158214","pSARL_v2","pSARL_v2krqcfwfk","5c3fd0d4c2d0b700017d02cd","freq_resp","img/orange_2bandit_a.png","70","70","test","","","","1","",""
"null","158371","pSARL_v2","pSARL_v2krqcfwfk","5c3fd0d4c2d0b700017d02cd","fixation","img/fixation.png","null","","test","","","","","",""
"240","158614","pSARL_v2","pSARL_v2krqcfwfk","5c3fd0d4c2d0b700017d02cd","freq","img/orange_2bandit_a2.png","70","70","test","1","21","21","1","",""
"null","159185","pSARL_v2","pSARL_v2krqcfwfk","5c3fd0d4c2d0b700017d02cd","freq_resp","img/orange_2bandit_a.png","70","70","test","","","","1","",""
"null","159339","pSARL_v2","pSARL_v2krqcfwfk","5c3fd0d4c2d0b700017d02cd","fixation","img/fixation.png","null","","test","","","","","",""
"222.69999998807907","159564","pSARL_v2","pSARL_v2krqcfwfk","5c3fd0d4c2d0b700017d02cd","freq","img/orange_2bandit_a2.png","70","70","test","1","22","22","1","",""
"null","160155","pSARL_v2","pSARL_v2krqcfwfk","5c3fd0d4c2d0b700017d02cd","freq_resp","img/orange_2bandit_a.png","70","70","test","","","","1","",""
"null","160309","pSARL_v2","pSARL_v2krqcfwfk","5c3fd0d4c2d0b700017d02cd","fixation","img/fixation.png","null","","test","","","","","",""
"224.2999999821186","160537","pSARL_v2","pSARL_v2krqcfwfk","5c3fd0d4c2d0b700017d02cd","infreq","img/green_2bandit_a2.png","70","68","test","0","23","23","1","",""
"null","161122","pSARL_v2","pSARL_v2krqcfwfk","5c3fd0d4c2d0b700017d02cd","infreq_resp","img/green_2bandit_a.png","70","68","test","","","","1","",""
"null","161280","pSARL_v2","pSARL_v2krqcfwfk","5c3fd0d4c2d0b700017d02cd","fixation","img/fixation.png","null","","test","","","","","",""
"322.30000001192093","161604","pSARL_v2","pSARL_v2krqcfwfk","5c3fd0d4c2d0b700017d02cd","freq","img/orange_2bandit_a2.png","70","70","test","1","24","24","1","",""
"null","162093","pSARL_v2","pSARL_v2krqcfwfk","5c3fd0d4c2d0b700017d02cd","freq_resp","img/orange_2bandit_a.png","70","70","test","","","","1","",""
"null","162246","pSARL_v2","pSARL_v2krqcfwfk","5c3fd0d4c2d0b700017d02cd","fixation","img/fixation.png","null","","test","","","","","",""
"303.2000000178814","162552","pSARL_v2","pSARL_v2krqcfwfk","5c3fd0d4c2d0b700017d02cd","freq","img/orange_2bandit_a2.png","70","70","test","1","25","25","1","",""
"null","163051","pSARL_v2","pSARL_v2krqcfwfk","5c3fd0d4c2d0b700017d02cd","freq_resp","img/orange_2bandit_a.png","70","70","test","","","","1","",""
"null","163208","pSARL_v2","pSARL_v2krqcfwfk","5c3fd0d4c2d0b700017d02cd","fixation","img/fixation.png","null","","test","","","","","",""
"307.90000000596046","163518","pSARL_v2","pSARL_v2krqcfwfk","5c3fd0d4c2d0b700017d02cd","freq","img/orange_2bandit_a2.png","70","70","test","1","26","26","1","",""
"null","164020","pSARL_v2","pSARL_v2krqcfwfk","5c3fd0d4c2d0b700017d02cd","freq_resp","img/orange_2bandit_a.png","70","70","test","","","","1","",""
"null","164174","pSARL_v2","pSARL_v2krqcfwfk","5c3fd0d4c2d0b700017d02cd","fixation","img/fixation.png","null","","test","","","","","",""
"1038.2000000178814","165215","pSARL_v2","pSARL_v2krqcfwfk","5c3fd0d4c2d0b700017d02cd","reward","img/slot.png","74","","test","","","","","",""
"null","165972","pSARL_v2","pSARL_v2krqcfwfk","5c3fd0d4c2d0b700017d02cd","points","<div class=""verylowPoints""> -6 </div>","null","na","test","","","","1","-6","0"
"743.9000000059605","166719","pSARL_v2","pSARL_v2krqcfwfk","5c3fd0d4c2d0b700017d02cd","freq","img/orange_2bandit_a2.png","70","70","test","1","27","27","2","",""
"null","166783","pSARL_v2","pSARL_v2krqcfwfk","5c3fd0d4c2d0b700017d02cd","freq_resp","img/orange_2bandit_a.png","70","70","test","","","","2","",""
"null","166938","pSARL_v2","pSARL_v2krqcfwfk","5c3fd0d4c2d0b700017d02cd","fixation","img/fixation.png","null","","test","","","","","",""
"386.90000000596046","167327","pSARL_v2","pSARL_v2krqcfwfk","5c3fd0d4c2d0b700017d02cd","freq","img/orange_2bandit_a2.png","70","70","test","1","28","28","2","",""
"null","167750","pSARL_v2","pSARL_v2krqcfwfk","5c3fd0d4c2d0b700017d02cd","freq_resp","img/orange_2bandit_a.png","70","70","test","","","","2","",""
"null","167906","pSARL_v2","pSARL_v2krqcfwfk","5c3fd0d4c2d0b700017d02cd","fixation","img/fixation.png","null","","test","","","","","",""
"214.40000000596046","168123","pSARL_v2","pSARL_v2krqcfwfk","5c3fd0d4c2d0b700017d02cd","freq","img/orange_2bandit_a2.png","70","70","test","1","29","29","2","",""
"null","168720","pSARL_v2","pSARL_v2krqcfwfk","5c3fd0d4c2d0b700017d02cd","freq_resp","img/orange_2bandit_a.png","70","70","test","","","","2","",""
"null","168874","pSARL_v2","pSARL_v2krqcfwfk","5c3fd0d4c2d0b700017d02cd","fixation","img/fixation.png","null","","test","","","","","",""
"440.7999999821186","169317","pSARL_v2","pSARL_v2krqcfwfk","5c3fd0d4c2d0b700017d02cd","infreq","img/green_2bandit_a2.png","68","68","test","1","30","30","2","",""
"null","169689","pSARL_v2","pSARL_v2krqcfwfk","5c3fd0d4c2d0b700017d02cd","infreq_resp","img/green_2bandit_a.png","68","68","test","","","","2","",""
"null","169844","pSARL_v2","pSARL_v2krqcfwfk","5c3fd0d4c2d0b700017d02cd","fixation","img/fixation.png","null","","test","","","","","",""
"310.90000000596046","170158","pSARL_v2","pSARL_v2krqcfwfk","5c3fd0d4c2d0b700017d02cd","freq","img/orange_2bandit_a2.png","70","70","test","1","31","31","2","",""
"null","170657","pSARL_v2","pSARL_v2krqcfwfk","5c3fd0d4c2d0b700017d02cd","freq_resp","img/orange_2bandit_a.png","70","70","test","","","","2","",""
"null","170813","pSARL_v2","pSARL_v2krqcfwfk","5c3fd0d4c2d0b700017d02cd","fixation","img/fixation.png","null","","test","","","","","",""
"273.90000000596046","171089","pSARL_v2","pSARL_v2krqcfwfk","5c3fd0d4c2d0b700017d02cd","freq","img/orange_2bandit_a2.png","70","70","test","1","32","32","2","",""
"null","171623","pSARL_v2","pSARL_v2krqcfwfk","5c3fd0d4c2d0b700017d02cd","freq_resp","img/orange_2bandit_a.png","70","70","test","","","","2","",""
"null","171782","pSARL_v2","pSARL_v2krqcfwfk","5c3fd0d4c2d0b700017d02cd","fixation","img/fixation.png","null","","test","","","","","",""
"265.09999999403954","172049","pSARL_v2","pSARL_v2krqcfwfk","5c3fd0d4c2d0b700017d02cd","freq","img/orange_2bandit_a2.png","70","70","test","1","33","33","2","",""
"null","172596","pSARL_v2","pSARL_v2krqcfwfk","5c3fd0d4c2d0b700017d02cd","freq_resp","img/orange_2bandit_a.png","70","70","test","","","","2","",""
"null","172752","pSARL_v2","pSARL_v2krqcfwfk","5c3fd0d4c2d0b700017d02cd","fixation","img/fixation.png","null","","test","","","","","",""
"347.40000000596046","173101","pSARL_v2","pSARL_v2krqcfwfk","5c3fd0d4c2d0b700017d02cd","infreq","img/green_2bandit_a2.png","68","68","test","1","34","34","2","",""
"null","173562","pSARL_v2","pSARL_v2krqcfwfk","5c3fd0d4c2d0b700017d02cd","infreq_resp","img/green_2bandit_a.png","68","68","test","","","","2","",""
"null","173718","pSARL_v2","pSARL_v2krqcfwfk","5c3fd0d4c2d0b700017d02cd","fixation","img/fixation.png","null","","test","","","","","",""
"287.30000001192093","174008","pSARL_v2","pSARL_v2krqcfwfk","5c3fd0d4c2d0b700017d02cd","freq","img/orange_2bandit_a2.png","70","70","test","1","35","35","2","",""
"null","174533","pSARL_v2","pSARL_v2krqcfwfk","5c3fd0d4c2d0b700017d02cd","freq_resp","img/orange_2bandit_a.png","70","70","test","","","","2","",""
"null","174687","pSARL_v2","pSARL_v2krqcfwfk","5c3fd0d4c2d0b700017d02cd","fixation","img/fixation.png","null","","test","","","","","",""
"246","174936","pSARL_v2","pSARL_v2krqcfwfk","5c3fd0d4c2d0b700017d02cd","freq","img/orange_2bandit_a2.png","70","70","test","1","36","36","2","",""
"null","175504","pSARL_v2","pSARL_v2krqcfwfk","5c3fd0d4c2d0b700017d02cd","freq_resp","img/orange_2bandit_a.png","70","70","test","","","","2","",""
"null","175659","pSARL_v2","pSARL_v2krqcfwfk","5c3fd0d4c2d0b700017d02cd","fixation","img/fixation.png","null","","test","","","","","",""
"278.59999999403954","175940","pSARL_v2","pSARL_v2krqcfwfk","5c3fd0d4c2d0b700017d02cd","freq","img/orange_2bandit_a2.png","70","70","test","1","37","37","2","",""
"null","176479","pSARL_v2","pSARL_v2krqcfwfk","5c3fd0d4c2d0b700017d02cd","freq_resp","img/orange_2bandit_a.png","70","70","test","","","","2","",""
"null","176635","pSARL_v2","pSARL_v2krqcfwfk","5c3fd0d4c2d0b700017d02cd","fixation","img/fixation.png","null","","test","","","","","",""
"282.59999999403954","176920","pSARL_v2","pSARL_v2krqcfwfk","5c3fd0d4c2d0b700017d02cd","freq","img/orange_2bandit_a2.png","70","70","test","1","38","38","2","",""
"null","177447","pSARL_v2","pSARL_v2krqcfwfk","5c3fd0d4c2d0b700017d02cd","freq_resp","img/orange_2bandit_a.png","70","70","test","","","","2","",""
"null","177605","pSARL_v2","pSARL_v2krqcfwfk","5c3fd0d4c2d0b700017d02cd","fixation","img/fixation.png","null","","test","","","","","",""
"281","177888","pSARL_v2","pSARL_v2krqcfwfk","5c3fd0d4c2d0b700017d02cd","freq","img/orange_2bandit_a2.png","70","70","test","1","39","39","2","",""
"null","178422","pSARL_v2","pSARL_v2krqcfwfk","5c3fd0d4c2d0b700017d02cd","freq_resp","img/orange_2bandit_a.png","70","70","test","","","","2","",""
"null","178577","pSARL_v2","pSARL_v2krqcfwfk","5c3fd0d4c2d0b700017d02cd","fixation","img/fixation.png","null","","test","","","","","",""
"282.69999998807907","178862","pSARL_v2","pSARL_v2krqcfwfk","5c3fd0d4c2d0b700017d02cd","freq","img/orange_2bandit_a2.png","70","70","test","1","40","40","2","",""
"null","179388","pSARL_v2","pSARL_v2krqcfwfk","5c3fd0d4c2d0b700017d02cd","freq_resp","img/orange_2bandit_a.png","70","70","test","","","","2","",""
"null","179545","pSARL_v2","pSARL_v2krqcfwfk","5c3fd0d4c2d0b700017d02cd","fixation","img/fixation.png","null","","test","","","","","",""
"266.5","179814","pSARL_v2","pSARL_v2krqcfwfk","5c3fd0d4c2d0b700017d02cd","freq","img/orange_2bandit_a2.png","70","70","test","1","41","41","2","",""
"null","180360","pSARL_v2","pSARL_v2krqcfwfk","5c3fd0d4c2d0b700017d02cd","freq_resp","img/orange_2bandit_a.png","70","70","test","","","","2","",""
"null","180515","pSARL_v2","pSARL_v2krqcfwfk","5c3fd0d4c2d0b700017d02cd","fixation","img/fixation.png","null","","test","","","","","",""
"277","180794","pSARL_v2","pSARL_v2krqcfwfk","5c3fd0d4c2d0b700017d02cd","freq","img/orange_2bandit_a2.png","70","70","test","1","42","42","2","",""
"null","181328","pSARL_v2","pSARL_v2krqcfwfk","5c3fd0d4c2d0b700017d02cd","freq_resp","img/orange_2bandit_a.png","70","70","test","","","","2","",""
"null","181485","pSARL_v2","pSARL_v2krqcfwfk","5c3fd0d4c2d0b700017d02cd","fixation","img/fixation.png","null","","test","","","","","",""
"259","181747","pSARL_v2","pSARL_v2krqcfwfk","5c3fd0d4c2d0b700017d02cd","freq","img/orange_2bandit_a2.png","70","70","test","1","43","43","2","",""
"null","182297","pSARL_v2","pSARL_v2krqcfwfk","5c3fd0d4c2d0b700017d02cd","freq_resp","img/orange_2bandit_a.png","70","70","test","","","","2","",""
"null","182455","pSARL_v2","pSARL_v2krqcfwfk","5c3fd0d4c2d0b700017d02cd","fixation","img/fixation.png","null","","test","","","","","",""
"273.80000001192093","182731","pSARL_v2","pSARL_v2krqcfwfk","5c3fd0d4c2d0b700017d02cd","freq","img/orange_2bandit_a2.png","70","70","test","1","44","44","2","",""
"null","183266","pSARL_v2","pSARL_v2krqcfwfk","5c3fd0d4c2d0b700017d02cd","freq_resp","img/orange_2bandit_a.png","70","70","test","","","","2","",""
"null","183422","pSARL_v2","pSARL_v2krqcfwfk","5c3fd0d4c2d0b700017d02cd","fixation","img/fixation.png","null","","test","","","","","",""
"264.5","183689","pSARL_v2","pSARL_v2krqcfwfk","5c3fd0d4c2d0b700017d02cd","freq","img/orange_2bandit_a2.png","70","70","test","1","45","45","2","",""
"null","184235","pSARL_v2","pSARL_v2krqcfwfk","5c3fd0d4c2d0b700017d02cd","freq_resp","img/orange_2bandit_a.png","70","70","test","","","","2","",""
"null","184394","pSARL_v2","pSARL_v2krqcfwfk","5c3fd0d4c2d0b700017d02cd","fixation","img/fixation.png","null","","test","","","","","",""
"248.39999997615814","184645","pSARL_v2","pSARL_v2krqcfwfk","5c3fd0d4c2d0b700017d02cd","freq","img/orange_2bandit_a2.png","70","70","test","1","46","46","2","",""
"null","185213","pSARL_v2","pSARL_v2krqcfwfk","5c3fd0d4c2d0b700017d02cd","freq_resp","img/orange_2bandit_a.png","70","70","test","","","","2","",""
"null","185371","pSARL_v2","pSARL_v2krqcfwfk","5c3fd0d4c2d0b700017d02cd","fixation","img/fixation.png","null","","test","","","","","",""
"253.80000001192093","185627","pSARL_v2","pSARL_v2krqcfwfk","5c3fd0d4c2d0b700017d02cd","freq","img/orange_2bandit_a2.png","70","70","test","1","47","47","2","",""
"null","186186","pSARL_v2","pSARL_v2krqcfwfk","5c3fd0d4c2d0b700017d02cd","freq_resp","img/orange_2bandit_a.png","70","70","test","","","","2","",""
"null","186340","pSARL_v2","pSARL_v2krqcfwfk","5c3fd0d4c2d0b700017d02cd","fixation","img/fixation.png","null","","test","","","","","",""
"264.80000001192093","186607","pSARL_v2","pSARL_v2krqcfwfk","5c3fd0d4c2d0b700017d02cd","freq","img/orange_2bandit_a2.png","70","70","test","1","48","48","2","",""
"null","187149","pSARL_v2","pSARL_v2krqcfwfk","5c3fd0d4c2d0b700017d02cd","freq_resp","img/orange_2bandit_a.png","70","70","test","","","","2","",""
"null","187307","pSARL_v2","pSARL_v2krqcfwfk","5c3fd0d4c2d0b700017d02cd","fixation","img/fixation.png","null","","test","","","","","",""
"1024.2000000178814","188333","pSARL_v2","pSARL_v2krqcfwfk","5c3fd0d4c2d0b700017d02cd","reward","img/slot.png","74","","test","","","","","",""
"null","189087","pSARL_v2","pSARL_v2krqcfwfk","5c3fd0d4c2d0b700017d02cd","points","<div class=""verylowPoints""> -11 </div>","null","na","test","","","","2","-11","1"
"542.3000000119209","189631","pSARL_v2","pSARL_v2krqcfwfk","5c3fd0d4c2d0b700017d02cd","freq","img/orange_2bandit_a2.png","70","70","test","1","49","49","3","",""
"null","189906","pSARL_v2","pSARL_v2krqcfwfk","5c3fd0d4c2d0b700017d02cd","freq_resp","img/orange_2bandit_a.png","70","70","test","","","","3","",""
"null","190062","pSARL_v2","pSARL_v2krqcfwfk","5c3fd0d4c2d0b700017d02cd","fixation","img/fixation.png","null","","test","","","","","",""
"327.30000001192093","190391","pSARL_v2","pSARL_v2krqcfwfk","5c3fd0d4c2d0b700017d02cd","freq","img/orange_2bandit_a2.png","70","70","test","1","50","50","3","",""
"null","190872","pSARL_v2","pSARL_v2krqcfwfk","5c3fd0d4c2d0b700017d02cd","freq_resp","img/orange_2bandit_a.png","70","70","test","","","","3","",""
"null","191026","pSARL_v2","pSARL_v2krqcfwfk","5c3fd0d4c2d0b700017d02cd","fixation","img/fixation.png","null","","test","","","","","",""
"303.69999998807907","191332","pSARL_v2","pSARL_v2krqcfwfk","5c3fd0d4c2d0b700017d02cd","freq","img/orange_2bandit_a2.png","70","70","test","1","51","51","3","",""
"null","191836","pSARL_v2","pSARL_v2krqcfwfk","5c3fd0d4c2d0b700017d02cd","freq_resp","img/orange_2bandit_a.png","70","70","test","","","","3","",""
"null","191992","pSARL_v2","pSARL_v2krqcfwfk","5c3fd0d4c2d0b700017d02cd","fixation","img/fixation.png","null","","test","","","","","",""
"240.7999999821186","192236","pSARL_v2","pSARL_v2krqcfwfk","5c3fd0d4c2d0b700017d02cd","freq","img/orange_2bandit_a2.png","70","70","test","1","52","52","3","",""
"null","192805","pSARL_v2","pSARL_v2krqcfwfk","5c3fd0d4c2d0b700017d02cd","freq_resp","img/orange_2bandit_a.png","70","70","test","","","","3","",""
"null","192959","pSARL_v2","pSARL_v2krqcfwfk","5c3fd0d4c2d0b700017d02cd","fixation","img/fixation.png","null","","test","","","","","",""
"266","193228","pSARL_v2","pSARL_v2krqcfwfk","5c3fd0d4c2d0b700017d02cd","freq","img/orange_2bandit_a2.png","70","70","test","1","53","53","3","",""
"null","193768","pSARL_v2","pSARL_v2krqcfwfk","5c3fd0d4c2d0b700017d02cd","freq_resp","img/orange_2bandit_a.png","70","70","test","","","","3","",""
"null","193923","pSARL_v2","pSARL_v2krqcfwfk","5c3fd0d4c2d0b700017d02cd","fixation","img/fixation.png","null","","test","","","","","",""
"276.69999998807907","194202","pSARL_v2","pSARL_v2krqcfwfk","5c3fd0d4c2d0b700017d02cd","freq","img/orange_2bandit_a2.png","70","70","test","1","54","54","3","",""
"null","194741","pSARL_v2","pSARL_v2krqcfwfk","5c3fd0d4c2d0b700017d02cd","freq_resp","img/orange_2bandit_a.png","70","70","test","","","","3","",""
"null","194900","pSARL_v2","pSARL_v2krqcfwfk","5c3fd0d4c2d0b700017d02cd","fixation","img/fixation.png","null","","test","","","","","",""
"null","195704","pSARL_v2","pSARL_v2krqcfwfk","5c3fd0d4c2d0b700017d02cd","infreq","img/green_2bandit_a2.png","null","68","test","0","55","55","3","",""
"null","195860","pSARL_v2","pSARL_v2krqcfwfk","5c3fd0d4c2d0b700017d02cd","fixation","img/fixation.png","null","","test","","","","","",""
"655.3999999761581","196518","pSARL_v2","pSARL_v2krqcfwfk","5c3fd0d4c2d0b700017d02cd","freq","img/orange_2bandit_a2.png","70","70","test","1","56","56","3","",""
"null","196673","pSARL_v2","pSARL_v2krqcfwfk","5c3fd0d4c2d0b700017d02cd","freq_resp","img/orange_2bandit_a.png","70","70","test","","","","3","",""
"null","196830","pSARL_v2","pSARL_v2krqcfwfk","5c3fd0d4c2d0b700017d02cd","fixation","img/fixation.png","null","","test","","","","","",""
"393.89999997615814","197226","pSARL_v2","pSARL_v2krqcfwfk","5c3fd0d4c2d0b700017d02cd","freq","img/orange_2bandit_a2.png","70","70","test","1","57","57","3","",""
"null","197641","pSARL_v2","pSARL_v2krqcfwfk","5c3fd0d4c2d0b700017d02cd","freq_resp","img/orange_2bandit_a.png","70","70","test","","","","3","",""
"null","197801","pSARL_v2","pSARL_v2krqcfwfk","5c3fd0d4c2d0b700017d02cd","fixation","img/fixation.png","null","","test","","","","","",""
"407.30000001192093","198210","pSARL_v2","pSARL_v2krqcfwfk","5c3fd0d4c2d0b700017d02cd","freq","img/orange_2bandit_a2.png","70","70","test","1","58","58","3","",""
"null","198615","pSARL_v2","pSARL_v2krqcfwfk","5c3fd0d4c2d0b700017d02cd","freq_resp","img/orange_2bandit_a.png","70","70","test","","","","3","",""
"null","198771","pSARL_v2","pSARL_v2krqcfwfk","5c3fd0d4c2d0b700017d02cd","fixation","img/fixation.png","null","","test","","","","","",""
"787.4000000059605","199560","pSARL_v2","pSARL_v2krqcfwfk","5c3fd0d4c2d0b700017d02cd","infreq","img/green_2bandit_a2.png","70","68","test","0","59","59","3","",""
"null","199575","pSARL_v2","pSARL_v2krqcfwfk","5c3fd0d4c2d0b700017d02cd","infreq_resp","img/green_2bandit_a.png","70","68","test","","","","3","",""
"null","199739","pSARL_v2","pSARL_v2krqcfwfk","5c3fd0d4c2d0b700017d02cd","fixation","img/fixation.png","null","","test","","","","","",""
"771","200513","pSARL_v2","pSARL_v2krqcfwfk","5c3fd0d4c2d0b700017d02cd","freq","img/orange_2bandit_a2.png","70","70","test","1","60","60","3","",""
"null","200545","pSARL_v2","pSARL_v2krqcfwfk","5c3fd0d4c2d0b700017d02cd","freq_resp","img/orange_2bandit_a.png","70","70","test","","","","3","",""
"null","200711","pSARL_v2","pSARL_v2krqcfwfk","5c3fd0d4c2d0b700017d02cd","fixation","img/fixation.png","null","","test","","","","","",""
"545.5","201259","pSARL_v2","pSARL_v2krqcfwfk","5c3fd0d4c2d0b700017d02cd","freq","img/orange_2bandit_a2.png","70","70","test","1","61","61","3","",""
"null","201522","pSARL_v2","pSARL_v2krqcfwfk","5c3fd0d4c2d0b700017d02cd","freq_resp","img/orange_2bandit_a.png","70","70","test","","","","3","",""
"null","201679","pSARL_v2","pSARL_v2krqcfwfk","5c3fd0d4c2d0b700017d02cd","fixation","img/fixation.png","null","","test","","","","","",""
"491.59999999403954","202173","pSARL_v2","pSARL_v2krqcfwfk","5c3fd0d4c2d0b700017d02cd","freq","img/orange_2bandit_a2.png","70","70","test","1","62","62","3","",""
"null","202493","pSARL_v2","pSARL_v2krqcfwfk","5c3fd0d4c2d0b700017d02cd","freq_resp","img/orange_2bandit_a.png","70","70","test","","","","3","",""
"null","202652","pSARL_v2","pSARL_v2krqcfwfk","5c3fd0d4c2d0b700017d02cd","fixation","img/fixation.png","null","","test","","","","","",""
"338","202993","pSARL_v2","pSARL_v2krqcfwfk","5c3fd0d4c2d0b700017d02cd","freq","img/orange_2bandit_a2.png","70","70","test","1","63","63","3","",""
"null","203469","pSARL_v2","pSARL_v2krqcfwfk","5c3fd0d4c2d0b700017d02cd","freq_resp","img/orange_2bandit_a.png","70","70","test","","","","3","",""
"null","203626","pSARL_v2","pSARL_v2krqcfwfk","5c3fd0d4c2d0b700017d02cd","fixation","img/fixation.png","null","","test","","","","","",""
"272.09999999403954","203901","pSARL_v2","pSARL_v2krqcfwfk","5c3fd0d4c2d0b700017d02cd","freq","img/orange_2bandit_a2.png","70","70","test","1","64","64","3","",""
"null","204437","pSARL_v2","pSARL_v2krqcfwfk","5c3fd0d4c2d0b700017d02cd","freq_resp","img/orange_2bandit_a.png","70","70","test","","","","3","",""
"null","204592","pSARL_v2","pSARL_v2krqcfwfk","5c3fd0d4c2d0b700017d02cd","fixation","img/fixation.png","null","","test","","","","","",""
"252.90000000596046","204847","pSARL_v2","pSARL_v2krqcfwfk","5c3fd0d4c2d0b700017d02cd","freq","img/orange_2bandit_a2.png","70","70","test","1","65","65","3","",""
"null","205405","pSARL_v2","pSARL_v2krqcfwfk","5c3fd0d4c2d0b700017d02cd","freq_resp","img/orange_2bandit_a.png","70","70","test","","","","3","",""
"null","205563","pSARL_v2","pSARL_v2krqcfwfk","5c3fd0d4c2d0b700017d02cd","fixation","img/fixation.png","null","","test","","","","","",""
"253.80000001192093","205819","pSARL_v2","pSARL_v2krqcfwfk","5c3fd0d4c2d0b700017d02cd","freq","img/orange_2bandit_a2.png","70","70","test","1","66","66","3","",""
"null","206372","pSARL_v2","pSARL_v2krqcfwfk","5c3fd0d4c2d0b700017d02cd","freq_resp","img/orange_2bandit_a.png","70","70","test","","","","3","",""
"null","206530","pSARL_v2","pSARL_v2krqcfwfk","5c3fd0d4c2d0b700017d02cd","fixation","img/fixation.png","null","","test","","","","","",""
"290.7999999821186","206823","pSARL_v2","pSARL_v2krqcfwfk","5c3fd0d4c2d0b700017d02cd","freq","img/orange_2bandit_a2.png","70","70","test","1","67","67","3","",""
"null","207343","pSARL_v2","pSARL_v2krqcfwfk","5c3fd0d4c2d0b700017d02cd","freq_resp","img/orange_2bandit_a.png","70","70","test","","","","3","",""
"null","207498","pSARL_v2","pSARL_v2krqcfwfk","5c3fd0d4c2d0b700017d02cd","fixation","img/fixation.png","null","","test","","","","","",""
"286.2999999821186","207787","pSARL_v2","pSARL_v2krqcfwfk","5c3fd0d4c2d0b700017d02cd","freq","img/orange_2bandit_a2.png","70","70","test","1","68","68","3","",""
"null","208312","pSARL_v2","pSARL_v2krqcfwfk","5c3fd0d4c2d0b700017d02cd","freq_resp","img/orange_2bandit_a.png","70","70","test","","","","3","",""
"null","208471","pSARL_v2","pSARL_v2krqcfwfk","5c3fd0d4c2d0b700017d02cd","fixation","img/fixation.png","null","","test","","","","","",""
"286","208759","pSARL_v2","pSARL_v2krqcfwfk","5c3fd0d4c2d0b700017d02cd","freq","img/orange_2bandit_a2.png","70","70","test","1","69","69","3","",""
"null","209282","pSARL_v2","pSARL_v2krqcfwfk","5c3fd0d4c2d0b700017d02cd","freq_resp","img/orange_2bandit_a.png","70","70","test","","","","3","",""
"null","209436","pSARL_v2","pSARL_v2krqcfwfk","5c3fd0d4c2d0b700017d02cd","fixation","img/fixation.png","null","","test","","","","","",""
"305.40000000596046","209743","pSARL_v2","pSARL_v2krqcfwfk","5c3fd0d4c2d0b700017d02cd","freq","img/orange_2bandit_a2.png","70","70","test","1","70","70","3","",""
"null","210243","pSARL_v2","pSARL_v2krqcfwfk","5c3fd0d4c2d0b700017d02cd","freq_resp","img/orange_2bandit_a.png","70","70","test","","","","3","",""
"null","210400","pSARL_v2","pSARL_v2krqcfwfk","5c3fd0d4c2d0b700017d02cd","fixation","img/fixation.png","null","","test","","","","","",""
"254.90000000596046","210658","pSARL_v2","pSARL_v2krqcfwfk","5c3fd0d4c2d0b700017d02cd","freq","img/orange_2bandit_a2.png","70","70","test","1","71","71","3","",""
"null","211211","pSARL_v2","pSARL_v2krqcfwfk","5c3fd0d4c2d0b700017d02cd","freq_resp","img/orange_2bandit_a.png","70","70","test","","","","3","",""
"null","211372","pSARL_v2","pSARL_v2krqcfwfk","5c3fd0d4c2d0b700017d02cd","fixation","img/fixation.png","null","","test","","","","","",""
"479.7999999821186","211854","pSARL_v2","pSARL_v2krqcfwfk","5c3fd0d4c2d0b700017d02cd","reward","img/slot.png","74","","test","","","","","",""
"null","212611","pSARL_v2","pSARL_v2krqcfwfk","5c3fd0d4c2d0b700017d02cd","points","<div class=""verylowPoints""> -7 </div>","null","na","test","","","","3","-7","2"
"544.3000000119209","213158","pSARL_v2","pSARL_v2krqcfwfk","5c3fd0d4c2d0b700017d02cd","freq","img/orange_2bandit_a2.png","70","70","test","1","72","72","4","",""
"null","213423","pSARL_v2","pSARL_v2krqcfwfk","5c3fd0d4c2d0b700017d02cd","freq_resp","img/orange_2bandit_a.png","70","70","test","","","","4","",""
"null","213580","pSARL_v2","pSARL_v2krqcfwfk","5c3fd0d4c2d0b700017d02cd","fixation","img/fixation.png","null","","test","","","","","",""
"300","213882","pSARL_v2","pSARL_v2krqcfwfk","5c3fd0d4c2d0b700017d02cd","freq","img/orange_2bandit_a2.png","70","70","test","1","73","73","4","",""
"null","214386","pSARL_v2","pSARL_v2krqcfwfk","5c3fd0d4c2d0b700017d02cd","freq_resp","img/orange_2bandit_a.png","70","70","test","","","","4","",""
"null","214541","pSARL_v2","pSARL_v2krqcfwfk","5c3fd0d4c2d0b700017d02cd","fixation","img/fixation.png","null","","test","","","","","",""
"277.40000000596046","214821","pSARL_v2","pSARL_v2krqcfwfk","5c3fd0d4c2d0b700017d02cd","freq","img/orange_2bandit_a2.png","70","70","test","1","74","74","4","",""
"null","215357","pSARL_v2","pSARL_v2krqcfwfk","5c3fd0d4c2d0b700017d02cd","freq_resp","img/orange_2bandit_a.png","70","70","test","","","","4","",""
"null","215513","pSARL_v2","pSARL_v2krqcfwfk","5c3fd0d4c2d0b700017d02cd","fixation","img/fixation.png","null","","test","","","","","",""
"253.30000001192093","215768","pSARL_v2","pSARL_v2krqcfwfk","5c3fd0d4c2d0b700017d02cd","freq","img/orange_2bandit_a2.png","70","70","test","1","75","75","4","",""
"null","216321","pSARL_v2","pSARL_v2krqcfwfk","5c3fd0d4c2d0b700017d02cd","freq_resp","img/orange_2bandit_a.png","70","70","test","","","","4","",""
"null","216477","pSARL_v2","pSARL_v2krqcfwfk","5c3fd0d4c2d0b700017d02cd","fixation","img/fixation.png","null","","test","","","","","",""
"773","217252","pSARL_v2","pSARL_v2krqcfwfk","5c3fd0d4c2d0b700017d02cd","freq","img/orange_2bandit_a2.png","70","70","test","1","76","76","4","",""
"null","217282","pSARL_v2","pSARL_v2krqcfwfk","5c3fd0d4c2d0b700017d02cd","freq_resp","img/orange_2bandit_a.png","70","70","test","","","","4","",""
"null","217444","pSARL_v2","pSARL_v2krqcfwfk","5c3fd0d4c2d0b700017d02cd","fixation","img/fixation.png","null","","test","","","","","",""
"502.30000001192093","217949","pSARL_v2","pSARL_v2krqcfwfk","5c3fd0d4c2d0b700017d02cd","freq","img/orange_2bandit_a2.png","70","70","test","1","77","77","4","",""
"null","218258","pSARL_v2","pSARL_v2krqcfwfk","5c3fd0d4c2d0b700017d02cd","freq_resp","img/orange_2bandit_a.png","70","70","test","","","","4","",""
"null","218415","pSARL_v2","pSARL_v2krqcfwfk","5c3fd0d4c2d0b700017d02cd","fixation","img/fixation.png","null","","test","","","","","",""
"327.80000001192093","218745","pSARL_v2","pSARL_v2krqcfwfk","5c3fd0d4c2d0b700017d02cd","freq","img/orange_2bandit_a2.png","70","70","test","1","78","78","4","",""
"null","219224","pSARL_v2","pSARL_v2krqcfwfk","5c3fd0d4c2d0b700017d02cd","freq_resp","img/orange_2bandit_a.png","70","70","test","","","","4","",""
"null","219383","pSARL_v2","pSARL_v2krqcfwfk","5c3fd0d4c2d0b700017d02cd","fixation","img/fixation.png","null","","test","","","","","",""
"420.80000001192093","219807","pSARL_v2","pSARL_v2krqcfwfk","5c3fd0d4c2d0b700017d02cd","freq","img/orange_2bandit_a2.png","70","70","test","1","79","79","4","",""
"null","220190","pSARL_v2","pSARL_v2krqcfwfk","5c3fd0d4c2d0b700017d02cd","freq_resp","img/orange_2bandit_a.png","70","70","test","","","","4","",""
"null","220349","pSARL_v2","pSARL_v2krqcfwfk","5c3fd0d4c2d0b700017d02cd","fixation","img/fixation.png","null","","test","","","","","",""
"null","221163","pSARL_v2","pSARL_v2krqcfwfk","5c3fd0d4c2d0b700017d02cd","infreq","img/green_2bandit_a2.png","null","68","test","0","80","80","4","",""
"null","221322","pSARL_v2","pSARL_v2krqcfwfk","5c3fd0d4c2d0b700017d02cd","fixation","img/fixation.png","null","","test","","","","","",""
"446.80000001192093","221771","pSARL_v2","pSARL_v2krqcfwfk","5c3fd0d4c2d0b700017d02cd","freq","img/orange_2bandit_a2.png","70","70","test","1","81","81","4","",""
"null","222134","pSARL_v2","pSARL_v2krqcfwfk","5c3fd0d4c2d0b700017d02cd","freq_resp","img/orange_2bandit_a.png","70","70","test","","","","4","",""
"null","222290","pSARL_v2","pSARL_v2krqcfwfk","5c3fd0d4c2d0b700017d02cd","fixation","img/fixation.png","null","","test","","","","","",""
"467.09999999403954","222759","pSARL_v2","pSARL_v2krqcfwfk","5c3fd0d4c2d0b700017d02cd","freq","img/orange_2bandit_a2.png","70","70","test","1","82","82","4","",""
"null","223096","pSARL_v2","pSARL_v2krqcfwfk","5c3fd0d4c2d0b700017d02cd","freq_resp","img/orange_2bandit_a.png","70","70","test","","","","4","",""
"null","223253","pSARL_v2","pSARL_v2krqcfwfk","5c3fd0d4c2d0b700017d02cd","fixation","img/fixation.png","null","","test","","","","","",""
"423.19999998807907","223680","pSARL_v2","pSARL_v2krqcfwfk","5c3fd0d4c2d0b700017d02cd","freq","img/orange_2bandit_a2.png","70","70","test","1","83","83","4","",""
"null","224059","pSARL_v2","pSARL_v2krqcfwfk","5c3fd0d4c2d0b700017d02cd","freq_resp","img/orange_2bandit_a.png","70","70","test","","","","4","",""
"null","224215","pSARL_v2","pSARL_v2krqcfwfk","5c3fd0d4c2d0b700017d02cd","fixation","img/fixation.png","null","","test","","","","","",""
"496","224713","pSARL_v2","pSARL_v2krqcfwfk","5c3fd0d4c2d0b700017d02cd","freq","img/orange_2bandit_a2.png","70","70","test","1","84","84","4","",""
"null","225020","pSARL_v2","pSARL_v2krqcfwfk","5c3fd0d4c2d0b700017d02cd","freq_resp","img/orange_2bandit_a.png","70","70","test","","","","4","",""
"null","225176","pSARL_v2","pSARL_v2krqcfwfk","5c3fd0d4c2d0b700017d02cd","fixation","img/fixation.png","null","","test","","","","","",""
"416.80000001192093","225595","pSARL_v2","pSARL_v2krqcfwfk","5c3fd0d4c2d0b700017d02cd","freq","img/orange_2bandit_a2.png","70","70","test","1","85","85","4","",""
"null","225992","pSARL_v2","pSARL_v2krqcfwfk","5c3fd0d4c2d0b700017d02cd","freq_resp","img/orange_2bandit_a.png","70","70","test","","","","4","",""
"null","226147","pSARL_v2","pSARL_v2krqcfwfk","5c3fd0d4c2d0b700017d02cd","fixation","img/fixation.png","null","","test","","","","","",""
"392.2999999821186","226541","pSARL_v2","pSARL_v2krqcfwfk","5c3fd0d4c2d0b700017d02cd","freq","img/orange_2bandit_a2.png","70","70","test","1","86","86","4","",""
"null","226960","pSARL_v2","pSARL_v2krqcfwfk","5c3fd0d4c2d0b700017d02cd","freq_resp","img/orange_2bandit_a.png","70","70","test","","","","4","",""
"null","227118","pSARL_v2","pSARL_v2krqcfwfk","5c3fd0d4c2d0b700017d02cd","fixation","img/fixation.png","null","","test","","","","","",""
"500.90000000596046","227622","pSARL_v2","pSARL_v2krqcfwfk","5c3fd0d4c2d0b700017d02cd","infreq","img/green_2bandit_a2.png","68","68","test","1","87","87","4","",""
"null","227935","pSARL_v2","pSARL_v2krqcfwfk","5c3fd0d4c2d0b700017d02cd","infreq_resp","img/green_2bandit_a.png","68","68","test","","","","4","",""
"null","228090","pSARL_v2","pSARL_v2krqcfwfk","5c3fd0d4c2d0b700017d02cd","fixation","img/fixation.png","null","","test","","","","","",""
"504.90000000596046","228598","pSARL_v2","pSARL_v2krqcfwfk","5c3fd0d4c2d0b700017d02cd","freq","img/orange_2bandit_a2.png","70","70","test","1","88","88","4","",""
"null","228899","pSARL_v2","pSARL_v2krqcfwfk","5c3fd0d4c2d0b700017d02cd","freq_resp","img/orange_2bandit_a.png","70","70","test","","","","4","",""
"null","229056","pSARL_v2","pSARL_v2krqcfwfk","5c3fd0d4c2d0b700017d02cd","fixation","img/fixation.png","null","","test","","","","","",""
"472.90000000596046","229532","pSARL_v2","pSARL_v2krqcfwfk","5c3fd0d4c2d0b700017d02cd","freq","img/orange_2bandit_a2.png","70","70","test","1","89","89","4","",""
"null","229873","pSARL_v2","pSARL_v2krqcfwfk","5c3fd0d4c2d0b700017d02cd","freq_resp","img/orange_2bandit_a.png","70","70","test","","","","4","",""
"null","230029","pSARL_v2","pSARL_v2krqcfwfk","5c3fd0d4c2d0b700017d02cd","fixation","img/fixation.png","null","","test","","","","","",""
"452.59999999403954","230484","pSARL_v2","pSARL_v2krqcfwfk","5c3fd0d4c2d0b700017d02cd","freq","img/orange_2bandit_a2.png","70","70","test","1","90","90","4","",""
"null","230839","pSARL_v2","pSARL_v2krqcfwfk","5c3fd0d4c2d0b700017d02cd","freq_resp","img/orange_2bandit_a.png","70","70","test","","","","4","",""
"null","230996","pSARL_v2","pSARL_v2krqcfwfk","5c3fd0d4c2d0b700017d02cd","fixation","img/fixation.png","null","","test","","","","","",""
"1173.9000000059605","232172","pSARL_v2","pSARL_v2krqcfwfk","5c3fd0d4c2d0b700017d02cd","reward","img/slot.png","74","","test","","","","","",""
"null","232937","pSARL_v2","pSARL_v2krqcfwfk","5c3fd0d4c2d0b700017d02cd","points","<div class=""verylowPoints""> -3 </div>","null","na","test","","","","4","-3","3"
"405","233344","pSARL_v2","pSARL_v2krqcfwfk","5c3fd0d4c2d0b700017d02cd","freq","img/orange_2bandit_a2.png","70","70","test","1","91","91","5","",""
"null","233752","pSARL_v2","pSARL_v2krqcfwfk","5c3fd0d4c2d0b700017d02cd","freq_resp","img/orange_2bandit_a.png","70","70","test","","","","5","",""
"null","233907","pSARL_v2","pSARL_v2krqcfwfk","5c3fd0d4c2d0b700017d02cd","fixation","img/fixation.png","null","","test","","","","","",""
"290.90000000596046","234201","pSARL_v2","pSARL_v2krqcfwfk","5c3fd0d4c2d0b700017d02cd","freq","img/orange_2bandit_a2.png","70","70","test","1","92","92","5","",""
"null","234718","pSARL_v2","pSARL_v2krqcfwfk","5c3fd0d4c2d0b700017d02cd","freq_resp","img/orange_2bandit_a.png","70","70","test","","","","5","",""
"null","234871","pSARL_v2","pSARL_v2krqcfwfk","5c3fd0d4c2d0b700017d02cd","fixation","img/fixation.png","null","","test","","","","","",""
"281","235155","pSARL_v2","pSARL_v2krqcfwfk","5c3fd0d4c2d0b700017d02cd","freq","img/orange_2bandit_a2.png","70","70","test","1","93","93","5","",""
"null","235684","pSARL_v2","pSARL_v2krqcfwfk","5c3fd0d4c2d0b700017d02cd","freq_resp","img/orange_2bandit_a.png","70","70","test","","","","5","",""
"null","235838","pSARL_v2","pSARL_v2krqcfwfk","5c3fd0d4c2d0b700017d02cd","fixation","img/fixation.png","null","","test","","","","","",""
"258","236098","pSARL_v2","pSARL_v2krqcfwfk","5c3fd0d4c2d0b700017d02cd","freq","img/orange_2bandit_a2.png","70","70","test","1","94","94","5","",""
"null","236651","pSARL_v2","pSARL_v2krqcfwfk","5c3fd0d4c2d0b700017d02cd","freq_resp","img/orange_2bandit_a.png","70","70","test","","","","5","",""
"null","236806","pSARL_v2","pSARL_v2krqcfwfk","5c3fd0d4c2d0b700017d02cd","fixation","img/fixation.png","null","","test","","","","","",""
"249.69999998807907","237058","pSARL_v2","pSARL_v2krqcfwfk","5c3fd0d4c2d0b700017d02cd","freq","img/orange_2bandit_a2.png","70","70","test","1","95","95","5","",""
"null","237623","pSARL_v2","pSARL_v2krqcfwfk","5c3fd0d4c2d0b700017d02cd","freq_resp","img/orange_2bandit_a.png","70","70","test","","","","5","",""
"null","237781","pSARL_v2","pSARL_v2krqcfwfk","5c3fd0d4c2d0b700017d02cd","fixation","img/fixation.png","null","","test","","","","","",""
"235.19999998807907","238019","pSARL_v2","pSARL_v2krqcfwfk","5c3fd0d4c2d0b700017d02cd","freq","img/orange_2bandit_a2.png","70","70","test","1","96","96","5","",""
"null","238593","pSARL_v2","pSARL_v2krqcfwfk","5c3fd0d4c2d0b700017d02cd","freq_resp","img/orange_2bandit_a.png","70","70","test","","","","5","",""
"null","238752","pSARL_v2","pSARL_v2krqcfwfk","5c3fd0d4c2d0b700017d02cd","fixation","img/fixation.png","null","","test","","","","","",""
"232.80000001192093","238987","pSARL_v2","pSARL_v2krqcfwfk","5c3fd0d4c2d0b700017d02cd","freq","img/orange_2bandit_a2.png","70","70","test","1","97","97","5","",""
"null","239572","pSARL_v2","pSARL_v2krqcfwfk","5c3fd0d4c2d0b700017d02cd","freq_resp","img/orange_2bandit_a.png","70","70","test","","","","5","",""
"null","239728","pSARL_v2","pSARL_v2krqcfwfk","5c3fd0d4c2d0b700017d02cd","fixation","img/fixation.png","null","","test","","","","","",""
"226.90000000596046","239957","pSARL_v2","pSARL_v2krqcfwfk","5c3fd0d4c2d0b700017d02cd","freq","img/orange_2bandit_a2.png","70","70","test","1","98","98","5","",""
"null","240538","pSARL_v2","pSARL_v2krqcfwfk","5c3fd0d4c2d0b700017d02cd","freq_resp","img/orange_2bandit_a.png","70","70","test","","","","5","",""
"null","240694","pSARL_v2","pSARL_v2krqcfwfk","5c3fd0d4c2d0b700017d02cd","fixation","img/fixation.png","null","","test","","","","","",""
"216.2000000178814","240913","pSARL_v2","pSARL_v2krqcfwfk","5c3fd0d4c2d0b700017d02cd","freq","img/orange_2bandit_a2.png","70","70","test","1","99","99","5","",""
"null","241503","pSARL_v2","pSARL_v2krqcfwfk","5c3fd0d4c2d0b700017d02cd","freq_resp","img/orange_2bandit_a.png","70","70","test","","","","5","",""
"null","241656","pSARL_v2","pSARL_v2krqcfwfk","5c3fd0d4c2d0b700017d02cd","fixation","img/fixation.png","null","","test","","","","","",""
"202.2000000178814","241861","pSARL_v2","pSARL_v2krqcfwfk","5c3fd0d4c2d0b700017d02cd","freq","img/orange_2bandit_a2.png","70","70","test","1","100","100","5","",""
"null","242469","pSARL_v2","pSARL_v2krqcfwfk","5c3fd0d4c2d0b700017d02cd","freq_resp","img/orange_2bandit_a.png","70","70","test","","","","5","",""
"null","242625","pSARL_v2","pSARL_v2krqcfwfk","5c3fd0d4c2d0b700017d02cd","fixation","img/fixation.png","null","","test","","","","","",""
"225.40000000596046","242853","pSARL_v2","pSARL_v2krqcfwfk","5c3fd0d4c2d0b700017d02cd","freq","img/orange_2bandit_a2.png","70","70","test","1","101","101","5","",""
"null","243445","pSARL_v2","pSARL_v2krqcfwfk","5c3fd0d4c2d0b700017d02cd","freq_resp","img/orange_2bandit_a.png","70","70","test","","","","5","",""
"null","243602","pSARL_v2","pSARL_v2krqcfwfk","5c3fd0d4c2d0b700017d02cd","fixation","img/fixation.png","null","","test","","","","","",""
"236.69999998807907","243841","pSARL_v2","pSARL_v2krqcfwfk","5c3fd0d4c2d0b700017d02cd","freq","img/orange_2bandit_a2.png","70","70","test","1","102","102","5","",""
"null","244419","pSARL_v2","pSARL_v2krqcfwfk","5c3fd0d4c2d0b700017d02cd","freq_resp","img/orange_2bandit_a.png","70","70","test","","","","5","",""
"null","244577","pSARL_v2","pSARL_v2krqcfwfk","5c3fd0d4c2d0b700017d02cd","fixation","img/fixation.png","null","","test","","","","","",""
"383.90000000596046","244964","pSARL_v2","pSARL_v2krqcfwfk","5c3fd0d4c2d0b700017d02cd","infreq","img/green_2bandit_a2.png","68","68","test","1","103","103","5","",""
"null","245397","pSARL_v2","pSARL_v2krqcfwfk","5c3fd0d4c2d0b700017d02cd","infreq_resp","img/green_2bandit_a.png","68","68","test","","","","5","",""
"null","245554","pSARL_v2","pSARL_v2krqcfwfk","5c3fd0d4c2d0b700017d02cd","fixation","img/fixation.png","null","","test","","","","","",""
"337.19999998807907","245894","pSARL_v2","pSARL_v2krqcfwfk","5c3fd0d4c2d0b700017d02cd","freq","img/orange_2bandit_a2.png","70","70","test","1","104","104","5","",""
"null","246360","pSARL_v2","pSARL_v2krqcfwfk","5c3fd0d4c2d0b700017d02cd","freq_resp","img/orange_2bandit_a.png","70","70","test","","","","5","",""
"null","246516","pSARL_v2","pSARL_v2krqcfwfk","5c3fd0d4c2d0b700017d02cd","fixation","img/fixation.png","null","","test","","","","","",""
"329.19999998807907","246848","pSARL_v2","pSARL_v2krqcfwfk","5c3fd0d4c2d0b700017d02cd","freq","img/orange_2bandit_a2.png","70","70","test","1","105","105","5","",""
"null","247323","pSARL_v2","pSARL_v2krqcfwfk","5c3fd0d4c2d0b700017d02cd","freq_resp","img/orange_2bandit_a.png","70","70","test","","","","5","",""
"null","247480","pSARL_v2","pSARL_v2krqcfwfk","5c3fd0d4c2d0b700017d02cd","fixation","img/fixation.png","null","","test","","","","","",""
"297.59999999403954","247780","pSARL_v2","pSARL_v2krqcfwfk","5c3fd0d4c2d0b700017d02cd","freq","img/orange_2bandit_a2.png","70","70","test","1","106","106","5","",""
"null","248291","pSARL_v2","pSARL_v2krqcfwfk","5c3fd0d4c2d0b700017d02cd","freq_resp","img/orange_2bandit_a.png","70","70","test","","","","5","",""
"null","248449","pSARL_v2","pSARL_v2krqcfwfk","5c3fd0d4c2d0b700017d02cd","fixation","img/fixation.png","null","","test","","","","","",""
"272.40000000596046","248724","pSARL_v2","pSARL_v2krqcfwfk","5c3fd0d4c2d0b700017d02cd","freq","img/orange_2bandit_a2.png","70","70","test","1","107","107","5","",""
"null","249258","pSARL_v2","pSARL_v2krqcfwfk","5c3fd0d4c2d0b700017d02cd","freq_resp","img/orange_2bandit_a.png","70","70","test","","","","5","",""
"null","249415","pSARL_v2","pSARL_v2krqcfwfk","5c3fd0d4c2d0b700017d02cd","fixation","img/fixation.png","null","","test","","","","","",""
"311","249728","pSARL_v2","pSARL_v2krqcfwfk","5c3fd0d4c2d0b700017d02cd","freq","img/orange_2bandit_a2.png","70","70","test","1","108","108","5","",""
"null","250225","pSARL_v2","pSARL_v2krqcfwfk","5c3fd0d4c2d0b700017d02cd","freq_resp","img/orange_2bandit_a.png","70","70","test","","","","5","",""
"null","250383","pSARL_v2","pSARL_v2krqcfwfk","5c3fd0d4c2d0b700017d02cd","fixation","img/fixation.png","null","","test","","","","","",""
"293.30000001192093","250678","pSARL_v2","pSARL_v2krqcfwfk","5c3fd0d4c2d0b700017d02cd","freq","img/orange_2bandit_a2.png","70","70","test","1","109","109","5","",""
"null","251195","pSARL_v2","pSARL_v2krqcfwfk","5c3fd0d4c2d0b700017d02cd","freq_resp","img/orange_2bandit_a.png","70","70","test","","","","5","",""
"null","251350","pSARL_v2","pSARL_v2krqcfwfk","5c3fd0d4c2d0b700017d02cd","fixation","img/fixation.png","null","","test","","","","","",""
"273.19999998807907","251626","pSARL_v2","pSARL_v2krqcfwfk","5c3fd0d4c2d0b700017d02cd","freq","img/orange_2bandit_a2.png","70","70","test","1","110","110","5","",""
"null","252161","pSARL_v2","pSARL_v2krqcfwfk","5c3fd0d4c2d0b700017d02cd","freq_resp","img/orange_2bandit_a.png","70","70","test","","","","5","",""
"null","252321","pSARL_v2","pSARL_v2krqcfwfk","5c3fd0d4c2d0b700017d02cd","fixation","img/fixation.png","null","","test","","","","","",""
"431.2000000178814","252754","pSARL_v2","pSARL_v2krqcfwfk","5c3fd0d4c2d0b700017d02cd","infreq","img/green_2bandit_a2.png","68","68","test","1","111","111","5","",""
"null","253128","pSARL_v2","pSARL_v2krqcfwfk","5c3fd0d4c2d0b700017d02cd","infreq_resp","img/green_2bandit_a.png","68","68","test","","","","5","",""
"null","253285","pSARL_v2","pSARL_v2krqcfwfk","5c3fd0d4c2d0b700017d02cd","fixation","img/fixation.png","null","","test","","","","","",""
"319.10000002384186","253606","pSARL_v2","pSARL_v2krqcfwfk","5c3fd0d4c2d0b700017d02cd","freq","img/orange_2bandit_a2.png","70","70","test","1","112","112","5","",""
"null","254099","pSARL_v2","pSARL_v2krqcfwfk","5c3fd0d4c2d0b700017d02cd","freq_resp","img/orange_2bandit_a.png","70","70","test","","","","5","",""
"null","254255","pSARL_v2","pSARL_v2krqcfwfk","5c3fd0d4c2d0b700017d02cd","fixation","img/fixation.png","null","","test","","","","","",""
"389.09999999403954","254647","pSARL_v2","pSARL_v2krqcfwfk","5c3fd0d4c2d0b700017d02cd","freq","img/orange_2bandit_a2.png","70","70","test","1","113","113","5","",""
"null","255067","pSARL_v2","pSARL_v2krqcfwfk","5c3fd0d4c2d0b700017d02cd","freq_resp","img/orange_2bandit_a.png","70","70","test","","","","5","",""
"null","255224","pSARL_v2","pSARL_v2krqcfwfk","5c3fd0d4c2d0b700017d02cd","fixation","img/fixation.png","null","","test","","","","","",""
"316.59999999403954","255543","pSARL_v2","pSARL_v2krqcfwfk","5c3fd0d4c2d0b700017d02cd","freq","img/orange_2bandit_a2.png","70","70","test","1","114","114","5","",""
"null","256030","pSARL_v2","pSARL_v2krqcfwfk","5c3fd0d4c2d0b700017d02cd","freq_resp","img/orange_2bandit_a.png","70","70","test","","","","5","",""
"null","256186","pSARL_v2","pSARL_v2krqcfwfk","5c3fd0d4c2d0b700017d02cd","fixation","img/fixation.png","null","","test","","","","","",""
"332","256521","pSARL_v2","pSARL_v2krqcfwfk","5c3fd0d4c2d0b700017d02cd","freq","img/orange_2bandit_a2.png","70","70","test","1","115","115","5","",""
"null","257002","pSARL_v2","pSARL_v2krqcfwfk","5c3fd0d4c2d0b700017d02cd","freq_resp","img/orange_2bandit_a.png","70","70","test","","","","5","",""
"null","257156","pSARL_v2","pSARL_v2krqcfwfk","5c3fd0d4c2d0b700017d02cd","fixation","img/fixation.png","null","","test","","","","","",""
"506.40000000596046","257665","pSARL_v2","pSARL_v2krqcfwfk","5c3fd0d4c2d0b700017d02cd","reward","img/slot.png","74","","test","","","","","",""
"null","258421","pSARL_v2","pSARL_v2krqcfwfk","5c3fd0d4c2d0b700017d02cd","points","<div class=""veryhighPoints""> +1 </div>","null","na","test","","","","5","1","4"
"381.59999999403954","258805","pSARL_v2","pSARL_v2krqcfwfk","5c3fd0d4c2d0b700017d02cd","freq","img/orange_2bandit_a2.png","70","70","test","1","116","116","6","",""
"null","259235","pSARL_v2","pSARL_v2krqcfwfk","5c3fd0d4c2d0b700017d02cd","freq_resp","img/orange_2bandit_a.png","70","70","test","","","","6","",""
"null","259393","pSARL_v2","pSARL_v2krqcfwfk","5c3fd0d4c2d0b700017d02cd","fixation","img/fixation.png","null","","test","","","","","",""
"337.69999998807907","259733","pSARL_v2","pSARL_v2krqcfwfk","5c3fd0d4c2d0b700017d02cd","freq","img/orange_2bandit_a2.png","70","70","test","1","117","117","6","",""
"null","260203","pSARL_v2","pSARL_v2krqcfwfk","5c3fd0d4c2d0b700017d02cd","freq_resp","img/orange_2bandit_a.png","70","70","test","","","","6","",""
"null","260360","pSARL_v2","pSARL_v2krqcfwfk","5c3fd0d4c2d0b700017d02cd","fixation","img/fixation.png","null","","test","","","","","",""
"248.69999998807907","260611","pSARL_v2","pSARL_v2krqcfwfk","5c3fd0d4c2d0b700017d02cd","freq","img/orange_2bandit_a2.png","70","70","test","1","118","118","6","",""
"null","261170","pSARL_v2","pSARL_v2krqcfwfk","5c3fd0d4c2d0b700017d02cd","freq_resp","img/orange_2bandit_a.png","70","70","test","","","","6","",""
"null","261326","pSARL_v2","pSARL_v2krqcfwfk","5c3fd0d4c2d0b700017d02cd","fixation","img/fixation.png","null","","test","","","","","",""
"250.69999998807907","261579","pSARL_v2","pSARL_v2krqcfwfk","5c3fd0d4c2d0b700017d02cd","freq","img/orange_2bandit_a2.png","70","70","test","1","119","119","6","",""
"null","262138","pSARL_v2","pSARL_v2krqcfwfk","5c3fd0d4c2d0b700017d02cd","freq_resp","img/orange_2bandit_a.png","70","70","test","","","","6","",""
"null","262297","pSARL_v2","pSARL_v2krqcfwfk","5c3fd0d4c2d0b700017d02cd","fixation","img/fixation.png","null","","test","","","","","",""
"276","262575","pSARL_v2","pSARL_v2krqcfwfk","5c3fd0d4c2d0b700017d02cd","freq","img/orange_2bandit_a2.png","70","70","test","1","120","120","6","",""
"null","263110","pSARL_v2","pSARL_v2krqcfwfk","5c3fd0d4c2d0b700017d02cd","freq_resp","img/orange_2bandit_a.png","70","70","test","","","","6","",""
"null","263264","pSARL_v2","pSARL_v2krqcfwfk","5c3fd0d4c2d0b700017d02cd","fixation","img/fixation.png","null","","test","","","","","",""
"120.90000000596046","263388","pSARL_v2","pSARL_v2krqcfwfk","5c3fd0d4c2d0b700017d02cd","freq","img/orange_2bandit_a2.png","70","70","test","1","121","121","6","",""
"null","264079","pSARL_v2","pSARL_v2krqcfwfk","5c3fd0d4c2d0b700017d02cd","freq_resp","img/orange_2bandit_a.png","70","70","test","","","","6","",""
"null","264236","pSARL_v2","pSARL_v2krqcfwfk","5c3fd0d4c2d0b700017d02cd","fixation","img/fixation.png","null","","test","","","","","",""
"192.7000000178814","264432","pSARL_v2","pSARL_v2krqcfwfk","5c3fd0d4c2d0b700017d02cd","freq","img/orange_2bandit_a2.png","70","70","test","1","122","122","6","",""
"null","265054","pSARL_v2","pSARL_v2krqcfwfk","5c3fd0d4c2d0b700017d02cd","freq_resp","img/orange_2bandit_a.png","70","70","test","","","","6","",""
"null","265210","pSARL_v2","pSARL_v2krqcfwfk","5c3fd0d4c2d0b700017d02cd","fixation","img/fixation.png","null","","test","","","","","",""
"281.09999999403954","265494","pSARL_v2","pSARL_v2krqcfwfk","5c3fd0d4c2d0b700017d02cd","freq","img/orange_2bandit_a2.png","70","70","test","1","123","123","6","",""
"null","266018","pSARL_v2","pSARL_v2krqcfwfk","5c3fd0d4c2d0b700017d02cd","freq_resp","img/orange_2bandit_a.png","70","70","test","","","","6","",""
"null","266175","pSARL_v2","pSARL_v2krqcfwfk","5c3fd0d4c2d0b700017d02cd","fixation","img/fixation.png","null","","test","","","","","",""
"264.60000002384186","266442","pSARL_v2","pSARL_v2krqcfwfk","5c3fd0d4c2d0b700017d02cd","freq","img/orange_2bandit_a2.png","70","70","test","1","124","124","6","",""
"null","266995","pSARL_v2","pSARL_v2krqcfwfk","5c3fd0d4c2d0b700017d02cd","freq_resp","img/orange_2bandit_a.png","70","70","test","","","","6","",""
"null","267154","pSARL_v2","pSARL_v2krqcfwfk","5c3fd0d4c2d0b700017d02cd","fixation","img/fixation.png","null","","test","","","","","",""
"317.90000000596046","267474","pSARL_v2","pSARL_v2krqcfwfk","5c3fd0d4c2d0b700017d02cd","freq","img/orange_2bandit_a2.png","70","70","test","1","125","125","6","",""
"null","267969","pSARL_v2","pSARL_v2krqcfwfk","5c3fd0d4c2d0b700017d02cd","freq_resp","img/orange_2bandit_a.png","70","70","test","","","","6","",""
"null","268125","pSARL_v2","pSARL_v2krqcfwfk","5c3fd0d4c2d0b700017d02cd","fixation","img/fixation.png","null","","test","","","","","",""
"318.90000000596046","268446","pSARL_v2","pSARL_v2krqcfwfk","5c3fd0d4c2d0b700017d02cd","freq","img/orange_2bandit_a2.png","70","70","test","1","126","126","6","",""
"null","268941","pSARL_v2","pSARL_v2krqcfwfk","5c3fd0d4c2d0b700017d02cd","freq_resp","img/orange_2bandit_a.png","70","70","test","","","","6","",""
"null","269097","pSARL_v2","pSARL_v2krqcfwfk","5c3fd0d4c2d0b700017d02cd","fixation","img/fixation.png","null","","test","","","","","",""
"298.7999999821186","269398","pSARL_v2","pSARL_v2krqcfwfk","5c3fd0d4c2d0b700017d02cd","freq","img/orange_2bandit_a2.png","70","70","test","1","127","127","6","",""
"null","269907","pSARL_v2","pSARL_v2krqcfwfk","5c3fd0d4c2d0b700017d02cd","freq_resp","img/orange_2bandit_a.png","70","70","test","","","","6","",""
"null","270063","pSARL_v2","pSARL_v2krqcfwfk","5c3fd0d4c2d0b700017d02cd","fixation","img/fixation.png","null","","test","","","","","",""
"318.59999999403954","270384","pSARL_v2","pSARL_v2krqcfwfk","5c3fd0d4c2d0b700017d02cd","freq","img/orange_2bandit_a2.png","70","70","test","1","128","128","6","",""
"null","270884","pSARL_v2","pSARL_v2krqcfwfk","5c3fd0d4c2d0b700017d02cd","freq_resp","img/orange_2bandit_a.png","70","70","test","","","","6","",""
"null","271042","pSARL_v2","pSARL_v2krqcfwfk","5c3fd0d4c2d0b700017d02cd","fixation","img/fixation.png","null","","test","","","","","",""
"284.5","271329","pSARL_v2","pSARL_v2krqcfwfk","5c3fd0d4c2d0b700017d02cd","freq","img/orange_2bandit_a2.png","70","70","test","1","129","129","6","",""
"null","271856","pSARL_v2","pSARL_v2krqcfwfk","5c3fd0d4c2d0b700017d02cd","freq_resp","img/orange_2bandit_a.png","70","70","test","","","","6","",""
"null","272012","pSARL_v2","pSARL_v2krqcfwfk","5c3fd0d4c2d0b700017d02cd","fixation","img/fixation.png","null","","test","","","","","",""
"418.19999998807907","272433","pSARL_v2","pSARL_v2krqcfwfk","5c3fd0d4c2d0b700017d02cd","infreq","img/green_2bandit_a2.png","68","68","test","1","130","130","6","",""
"null","272829","pSARL_v2","pSARL_v2krqcfwfk","5c3fd0d4c2d0b700017d02cd","infreq_resp","img/green_2bandit_a.png","68","68","test","","","","6","",""
"null","272984","pSARL_v2","pSARL_v2krqcfwfk","5c3fd0d4c2d0b700017d02cd","fixation","img/fixation.png","null","","test","","","","","",""
"313.59999999403954","273300","pSARL_v2","pSARL_v2krqcfwfk","5c3fd0d4c2d0b700017d02cd","freq","img/orange_2bandit_a2.png","70","70","test","1","131","131","6","",""
"null","273800","pSARL_v2","pSARL_v2krqcfwfk","5c3fd0d4c2d0b700017d02cd","freq_resp","img/orange_2bandit_a.png","70","70","test","","","","6","",""
"null","273960","pSARL_v2","pSARL_v2krqcfwfk","5c3fd0d4c2d0b700017d02cd","fixation","img/fixation.png","null","","test","","","","","",""
"210.09999999403954","274173","pSARL_v2","pSARL_v2krqcfwfk","5c3fd0d4c2d0b700017d02cd","freq","img/orange_2bandit_a2.png","70","70","test","1","132","132","6","",""
"null","274777","pSARL_v2","pSARL_v2krqcfwfk","5c3fd0d4c2d0b700017d02cd","freq_resp","img/orange_2bandit_a.png","70","70","test","","","","6","",""
"null","274932","pSARL_v2","pSARL_v2krqcfwfk","5c3fd0d4c2d0b700017d02cd","fixation","img/fixation.png","null","","test","","","","","",""
"234.59999999403954","275169","pSARL_v2","pSARL_v2krqcfwfk","5c3fd0d4c2d0b700017d02cd","infreq","img/green_2bandit_a2.png","70","68","test","0","133","133","6","",""
"null","275747","pSARL_v2","pSARL_v2krqcfwfk","5c3fd0d4c2d0b700017d02cd","infreq_resp","img/green_2bandit_a.png","70","68","test","","","","6","",""
"null","275904","pSARL_v2","pSARL_v2krqcfwfk","5c3fd0d4c2d0b700017d02cd","fixation","img/fixation.png","null","","test","","","","","",""
"360.40000000596046","276267","pSARL_v2","pSARL_v2krqcfwfk","5c3fd0d4c2d0b700017d02cd","freq","img/orange_2bandit_a2.png","70","70","test","1","134","134","6","",""
"null","276716","pSARL_v2","pSARL_v2krqcfwfk","5c3fd0d4c2d0b700017d02cd","freq_resp","img/orange_2bandit_a.png","70","70","test","","","","6","",""
"null","276873","pSARL_v2","pSARL_v2krqcfwfk","5c3fd0d4c2d0b700017d02cd","fixation","img/fixation.png","null","","test","","","","","",""
"299.80000001192093","277175","pSARL_v2","pSARL_v2krqcfwfk","5c3fd0d4c2d0b700017d02cd","freq","img/orange_2bandit_a2.png","70","70","test","1","135","135","6","",""
"null","277686","pSARL_v2","pSARL_v2krqcfwfk","5c3fd0d4c2d0b700017d02cd","freq_resp","img/orange_2bandit_a.png","70","70","test","","","","6","",""
"null","277843","pSARL_v2","pSARL_v2krqcfwfk","5c3fd0d4c2d0b700017d02cd","fixation","img/fixation.png","null","","test","","","","","",""
"465.80000001192093","278311","pSARL_v2","pSARL_v2krqcfwfk","5c3fd0d4c2d0b700017d02cd","reward","img/slot.png","74","","test","","","","","",""
"null","279079","pSARL_v2","pSARL_v2krqcfwfk","5c3fd0d4c2d0b700017d02cd","points","<div class=""verylowPoints""> -7 </div>","null","na","test","","","","6","-7","5"
"338","279419","pSARL_v2","pSARL_v2krqcfwfk","5c3fd0d4c2d0b700017d02cd","freq","img/orange_2bandit_a2.png","70","70","test","1","136","136","7","",""
"null","279891","pSARL_v2","pSARL_v2krqcfwfk","5c3fd0d4c2d0b700017d02cd","freq_resp","img/orange_2bandit_a.png","70","70","test","","","","7","",""
"null","280050","pSARL_v2","pSARL_v2krqcfwfk","5c3fd0d4c2d0b700017d02cd","fixation","img/fixation.png","null","","test","","","","","",""
"416.80000001192093","280469","pSARL_v2","pSARL_v2krqcfwfk","5c3fd0d4c2d0b700017d02cd","infreq","img/green_2bandit_a2.png","68","68","test","1","137","137","7","",""
"null","280869","pSARL_v2","pSARL_v2krqcfwfk","5c3fd0d4c2d0b700017d02cd","infreq_resp","img/green_2bandit_a.png","68","68","test","","","","7","",""
"null","281023","pSARL_v2","pSARL_v2krqcfwfk","5c3fd0d4c2d0b700017d02cd","fixation","img/fixation.png","null","","test","","","","","",""
"396.40000000596046","281422","pSARL_v2","pSARL_v2krqcfwfk","5c3fd0d4c2d0b700017d02cd","freq","img/orange_2bandit_a2.png","70","70","test","1","138","138","7","",""
"null","281833","pSARL_v2","pSARL_v2krqcfwfk","5c3fd0d4c2d0b700017d02cd","freq_resp","img/orange_2bandit_a.png","70","70","test","","","","7","",""
"null","281991","pSARL_v2","pSARL_v2krqcfwfk","5c3fd0d4c2d0b700017d02cd","fixation","img/fixation.png","null","","test","","","","","",""
"372.30000001192093","282365","pSARL_v2","pSARL_v2krqcfwfk","5c3fd0d4c2d0b700017d02cd","infreq","img/green_2bandit_a2.png","68","68","test","1","139","139","7","",""
"null","282808","pSARL_v2","pSARL_v2krqcfwfk","5c3fd0d4c2d0b700017d02cd","infreq_resp","img/green_2bandit_a.png","68","68","test","","","","7","",""
"null","282963","pSARL_v2","pSARL_v2krqcfwfk","5c3fd0d4c2d0b700017d02cd","fixation","img/fixation.png","null","","test","","","","","",""
"320.5","283286","pSARL_v2","pSARL_v2krqcfwfk","5c3fd0d4c2d0b700017d02cd","freq","img/orange_2bandit_a2.png","70","70","test","1","140","140","7","",""
"null","283777","pSARL_v2","pSARL_v2krqcfwfk","5c3fd0d4c2d0b700017d02cd","freq_resp","img/orange_2bandit_a.png","70","70","test","","","","7","",""
"null","283930","pSARL_v2","pSARL_v2krqcfwfk","5c3fd0d4c2d0b700017d02cd","fixation","img/fixation.png","null","","test","","","","","",""
"320.7999999821186","284254","pSARL_v2","pSARL_v2krqcfwfk","5c3fd0d4c2d0b700017d02cd","freq","img/orange_2bandit_a2.png","70","70","test","1","141","141","7","",""
"null","284743","pSARL_v2","pSARL_v2krqcfwfk","5c3fd0d4c2d0b700017d02cd","freq_resp","img/orange_2bandit_a.png","70","70","test","","","","7","",""
"null","284899","pSARL_v2","pSARL_v2krqcfwfk","5c3fd0d4c2d0b700017d02cd","fixation","img/fixation.png","null","","test","","","","","",""
"268.5","285170","pSARL_v2","pSARL_v2krqcfwfk","5c3fd0d4c2d0b700017d02cd","freq","img/orange_2bandit_a2.png","70","70","test","1","142","142","7","",""
"null","285712","pSARL_v2","pSARL_v2krqcfwfk","5c3fd0d4c2d0b700017d02cd","freq_resp","img/orange_2bandit_a.png","70","70","test","","","","7","",""
"null","285867","pSARL_v2","pSARL_v2krqcfwfk","5c3fd0d4c2d0b700017d02cd","fixation","img/fixation.png","null","","test","","","","","",""
"270.30000001192093","286140","pSARL_v2","pSARL_v2krqcfwfk","5c3fd0d4c2d0b700017d02cd","freq","img/orange_2bandit_a2.png","70","70","test","1","143","143","7","",""
"null","286677","pSARL_v2","pSARL_v2krqcfwfk","5c3fd0d4c2d0b700017d02cd","freq_resp","img/orange_2bandit_a.png","70","70","test","","","","7","",""
"null","286831","pSARL_v2","pSARL_v2krqcfwfk","5c3fd0d4c2d0b700017d02cd","fixation","img/fixation.png","null","","test","","","","","",""
"268.2999999821186","287103","pSARL_v2","pSARL_v2krqcfwfk","5c3fd0d4c2d0b700017d02cd","freq","img/orange_2bandit_a2.png","70","70","test","1","144","144","7","",""
"null","287652","pSARL_v2","pSARL_v2krqcfwfk","5c3fd0d4c2d0b700017d02cd","freq_resp","img/orange_2bandit_a.png","70","70","test","","","","7","",""
"null","287809","pSARL_v2","pSARL_v2krqcfwfk","5c3fd0d4c2d0b700017d02cd","fixation","img/fixation.png","null","","test","","","","","",""
"241.09999999403954","288053","pSARL_v2","pSARL_v2krqcfwfk","5c3fd0d4c2d0b700017d02cd","freq","img/orange_2bandit_a2.png","70","70","test","1","145","145","7","",""
"null","288625","pSARL_v2","pSARL_v2krqcfwfk","5c3fd0d4c2d0b700017d02cd","freq_resp","img/orange_2bandit_a.png","70","70","test","","","","7","",""
"null","288780","pSARL_v2","pSARL_v2krqcfwfk","5c3fd0d4c2d0b700017d02cd","fixation","img/fixation.png","null","","test","","","","","",""
"258.2000000178814","289040","pSARL_v2","pSARL_v2krqcfwfk","5c3fd0d4c2d0b700017d02cd","freq","img/orange_2bandit_a2.png","70","70","test","1","146","146","7","",""
"null","289592","pSARL_v2","pSARL_v2krqcfwfk","5c3fd0d4c2d0b700017d02cd","freq_resp","img/orange_2bandit_a.png","70","70","test","","","","7","",""
"null","289750","pSARL_v2","pSARL_v2krqcfwfk","5c3fd0d4c2d0b700017d02cd","fixation","img/fixation.png","null","","test","","","","","",""
"264.2000000178814","290016","pSARL_v2","pSARL_v2krqcfwfk","5c3fd0d4c2d0b700017d02cd","freq","img/orange_2bandit_a2.png","70","70","test","1","147","147","7","",""
"null","290555","pSARL_v2","pSARL_v2krqcfwfk","5c3fd0d4c2d0b700017d02cd","freq_resp","img/orange_2bandit_a.png","70","70","test","","","","7","",""
"null","290712","pSARL_v2","pSARL_v2krqcfwfk","5c3fd0d4c2d0b700017d02cd","fixation","img/fixation.png","null","","test","","","","","",""
"264.40000000596046","290978","pSARL_v2","pSARL_v2krqcfwfk","5c3fd0d4c2d0b700017d02cd","freq","img/orange_2bandit_a2.png","70","70","test","1","148","148","7","",""
"null","291526","pSARL_v2","pSARL_v2krqcfwfk","5c3fd0d4c2d0b700017d02cd","freq_resp","img/orange_2bandit_a.png","70","70","test","","","","7","",""
"null","291680","pSARL_v2","pSARL_v2krqcfwfk","5c3fd0d4c2d0b700017d02cd","fixation","img/fixation.png","null","","test","","","","","",""
"235.5","291918","pSARL_v2","pSARL_v2krqcfwfk","5c3fd0d4c2d0b700017d02cd","freq","img/orange_2bandit_a2.png","70","70","test","1","149","149","7","",""
"null","292499","pSARL_v2","pSARL_v2krqcfwfk","5c3fd0d4c2d0b700017d02cd","freq_resp","img/orange_2bandit_a.png","70","70","test","","","","7","",""
"null","292657","pSARL_v2","pSARL_v2krqcfwfk","5c3fd0d4c2d0b700017d02cd","fixation","img/fixation.png","null","","test","","","","","",""
"211","292871","pSARL_v2","pSARL_v2krqcfwfk","5c3fd0d4c2d0b700017d02cd","freq","img/orange_2bandit_a2.png","70","70","test","1","150","150","7","",""
"null","293473","pSARL_v2","pSARL_v2krqcfwfk","5c3fd0d4c2d0b700017d02cd","freq_resp","img/orange_2bandit_a.png","70","70","test","","","","7","",""
"null","293627","pSARL_v2","pSARL_v2krqcfwfk","5c3fd0d4c2d0b700017d02cd","fixation","img/fixation.png","null","","test","","","","","",""
"257.59999999403954","293887","pSARL_v2","pSARL_v2krqcfwfk","5c3fd0d4c2d0b700017d02cd","freq","img/orange_2bandit_a2.png","70","70","test","1","151","151","7","",""
"null","294440","pSARL_v2","pSARL_v2krqcfwfk","5c3fd0d4c2d0b700017d02cd","freq_resp","img/orange_2bandit_a.png","70","70","test","","","","7","",""
"null","294597","pSARL_v2","pSARL_v2krqcfwfk","5c3fd0d4c2d0b700017d02cd","fixation","img/fixation.png","null","","test","","","","","",""
"219.7000000178814","294819","pSARL_v2","pSARL_v2krqcfwfk","5c3fd0d4c2d0b700017d02cd","freq","img/orange_2bandit_a2.png","70","70","test","1","152","152","7","",""
"null","295408","pSARL_v2","pSARL_v2krqcfwfk","5c3fd0d4c2d0b700017d02cd","freq_resp","img/orange_2bandit_a.png","70","70","test","","","","7","",""
"null","295562","pSARL_v2","pSARL_v2krqcfwfk","5c3fd0d4c2d0b700017d02cd","fixation","img/fixation.png","null","","test","","","","","",""
"228.09999999403954","295793","pSARL_v2","pSARL_v2krqcfwfk","5c3fd0d4c2d0b700017d02cd","freq","img/orange_2bandit_a2.png","70","70","test","1","153","153","7","",""
"null","296379","pSARL_v2","pSARL_v2krqcfwfk","5c3fd0d4c2d0b700017d02cd","freq_resp","img/orange_2bandit_a.png","70","70","test","","","","7","",""
"null","296533","pSARL_v2","pSARL_v2krqcfwfk","5c3fd0d4c2d0b700017d02cd","fixation","img/fixation.png","null","","test","","","","","",""
"221.80000001192093","296757","pSARL_v2","pSARL_v2krqcfwfk","5c3fd0d4c2d0b700017d02cd","freq","img/orange_2bandit_a2.png","70","70","test","1","154","154","7","",""
"null","297352","pSARL_v2","pSARL_v2krqcfwfk","5c3fd0d4c2d0b700017d02cd","freq_resp","img/orange_2bandit_a.png","70","70","test","","","","7","",""
"null","297512","pSARL_v2","pSARL_v2krqcfwfk","5c3fd0d4c2d0b700017d02cd","fixation","img/fixation.png","null","","test","","","","","",""
"238.40000000596046","297753","pSARL_v2","pSARL_v2krqcfwfk","5c3fd0d4c2d0b700017d02cd","freq","img/orange_2bandit_a2.png","70","70","test","1","155","155","7","",""
"null","298323","pSARL_v2","pSARL_v2krqcfwfk","5c3fd0d4c2d0b700017d02cd","freq_resp","img/orange_2bandit_a.png","70","70","test","","","","7","",""
"null","298479","pSARL_v2","pSARL_v2krqcfwfk","5c3fd0d4c2d0b700017d02cd","fixation","img/fixation.png","null","","test","","","","","",""
"523.9000000059605","299005","pSARL_v2","pSARL_v2krqcfwfk","5c3fd0d4c2d0b700017d02cd","reward","img/slot.png","74","","test","","","","","",""
"null","299758","pSARL_v2","pSARL_v2krqcfwfk","5c3fd0d4c2d0b700017d02cd","points","<div class=""verylowPoints""> -6 </div>","null","na","test","","","","7","-6","6"
"368.5","300129","pSARL_v2","pSARL_v2krqcfwfk","5c3fd0d4c2d0b700017d02cd","freq","img/orange_2bandit_a2.png","70","70","test","1","156","156","8","",""
"null","300576","pSARL_v2","pSARL_v2krqcfwfk","5c3fd0d4c2d0b700017d02cd","freq_resp","img/orange_2bandit_a.png","70","70","test","","","","8","",""
"null","300732","pSARL_v2","pSARL_v2krqcfwfk","5c3fd0d4c2d0b700017d02cd","fixation","img/fixation.png","null","","test","","","","","",""
"317.2000000178814","301052","pSARL_v2","pSARL_v2krqcfwfk","5c3fd0d4c2d0b700017d02cd","freq","img/orange_2bandit_a2.png","70","70","test","1","157","157","8","",""
"null","301538","pSARL_v2","pSARL_v2krqcfwfk","5c3fd0d4c2d0b700017d02cd","freq_resp","img/orange_2bandit_a.png","70","70","test","","","","8","",""
"null","301694","pSARL_v2","pSARL_v2krqcfwfk","5c3fd0d4c2d0b700017d02cd","fixation","img/fixation.png","null","","test","","","","","",""
"269.59999999403954","301966","pSARL_v2","pSARL_v2krqcfwfk","5c3fd0d4c2d0b700017d02cd","freq","img/orange_2bandit_a2.png","70","70","test","1","158","158","8","",""
"null","302506","pSARL_v2","pSARL_v2krqcfwfk","5c3fd0d4c2d0b700017d02cd","freq_resp","img/orange_2bandit_a.png","70","70","test","","","","8","",""
"null","302661","pSARL_v2","pSARL_v2krqcfwfk","5c3fd0d4c2d0b700017d02cd","fixation","img/fixation.png","null","","test","","","","","",""
"228.69999998807907","302892","pSARL_v2","pSARL_v2krqcfwfk","5c3fd0d4c2d0b700017d02cd","freq","img/orange_2bandit_a2.png","70","70","test","1","159","159","8","",""
"null","303478","pSARL_v2","pSARL_v2krqcfwfk","5c3fd0d4c2d0b700017d02cd","freq_resp","img/orange_2bandit_a.png","70","70","test","","","","8","",""
"null","303633","pSARL_v2","pSARL_v2krqcfwfk","5c3fd0d4c2d0b700017d02cd","fixation","img/fixation.png","null","","test","","","","","",""
"276.2000000178814","303913","pSARL_v2","pSARL_v2krqcfwfk","5c3fd0d4c2d0b700017d02cd","freq","img/orange_2bandit_a2.png","70","70","test","1","160","160","8","",""
"null","304452","pSARL_v2","pSARL_v2krqcfwfk","5c3fd0d4c2d0b700017d02cd","freq_resp","img/orange_2bandit_a.png","70","70","test","","","","8","",""
"null","304609","pSARL_v2","pSARL_v2krqcfwfk","5c3fd0d4c2d0b700017d02cd","fixation","img/fixation.png","null","","test","","","","","",""
"228.40000000596046","304841","pSARL_v2","pSARL_v2krqcfwfk","5c3fd0d4c2d0b700017d02cd","freq","img/orange_2bandit_a2.png","70","70","test","1","161","161","8","",""
"null","305424","pSARL_v2","pSARL_v2krqcfwfk","5c3fd0d4c2d0b700017d02cd","freq_resp","img/orange_2bandit_a.png","70","70","test","","","","8","",""
"null","305579","pSARL_v2","pSARL_v2krqcfwfk","5c3fd0d4c2d0b700017d02cd","fixation","img/fixation.png","null","","test","","","","","",""
"248.40000000596046","305830","pSARL_v2","pSARL_v2krqcfwfk","5c3fd0d4c2d0b700017d02cd","infreq","img/green_2bandit_a2.png","70","68","test","0","162","162","8","",""
"null","306396","pSARL_v2","pSARL_v2krqcfwfk","5c3fd0d4c2d0b700017d02cd","infreq_resp","img/green_2bandit_a.png","70","68","test","","","","8","",""
"null","306551","pSARL_v2","pSARL_v2krqcfwfk","5c3fd0d4c2d0b700017d02cd","fixation","img/fixation.png","null","","test","","","","","",""
"20.400000005960464","306574","pSARL_v2","pSARL_v2krqcfwfk","5c3fd0d4c2d0b700017d02cd","freq","img/orange_2bandit_a2.png","68","70","test","0","163","163","8","",""
"null","307358","pSARL_v2","pSARL_v2krqcfwfk","5c3fd0d4c2d0b700017d02cd","freq_resp","img/orange_2bandit_a.png","68","70","test","","","","8","",""
"null","307515","pSARL_v2","pSARL_v2krqcfwfk","5c3fd0d4c2d0b700017d02cd","fixation","img/fixation.png","null","","test","","","","","",""
"357.19999998807907","307874","pSARL_v2","pSARL_v2krqcfwfk","5c3fd0d4c2d0b700017d02cd","freq","img/orange_2bandit_a2.png","70","70","test","1","164","164","8","",""
"null","308320","pSARL_v2","pSARL_v2krqcfwfk","5c3fd0d4c2d0b700017d02cd","freq_resp","img/orange_2bandit_a.png","70","70","test","","","","8","",""
"null","308476","pSARL_v2","pSARL_v2krqcfwfk","5c3fd0d4c2d0b700017d02cd","fixation","img/fixation.png","null","","test","","","","","",""
"292.40000000596046","308770","pSARL_v2","pSARL_v2krqcfwfk","5c3fd0d4c2d0b700017d02cd","freq","img/orange_2bandit_a2.png","70","70","test","1","165","165","8","",""
"null","309288","pSARL_v2","pSARL_v2krqcfwfk","5c3fd0d4c2d0b700017d02cd","freq_resp","img/orange_2bandit_a.png","70","70","test","","","","8","",""
"null","309444","pSARL_v2","pSARL_v2krqcfwfk","5c3fd0d4c2d0b700017d02cd","fixation","img/fixation.png","null","","test","","","","","",""
"408.40000000596046","309855","pSARL_v2","pSARL_v2krqcfwfk","5c3fd0d4c2d0b700017d02cd","infreq","img/green_2bandit_a2.png","68","68","test","1","166","166","8","",""
"null","310263","pSARL_v2","pSARL_v2krqcfwfk","5c3fd0d4c2d0b700017d02cd","infreq_resp","img/green_2bandit_a.png","68","68","test","","","","8","",""
"null","310420","pSARL_v2","pSARL_v2krqcfwfk","5c3fd0d4c2d0b700017d02cd","fixation","img/fixation.png","null","","test","","","","","",""
"396.59999999403954","310819","pSARL_v2","pSARL_v2krqcfwfk","5c3fd0d4c2d0b700017d02cd","freq","img/orange_2bandit_a2.png","70","70","test","1","167","167","8","",""
"null","311231","pSARL_v2","pSARL_v2krqcfwfk","5c3fd0d4c2d0b700017d02cd","freq_resp","img/orange_2bandit_a.png","70","70","test","","","","8","",""
"null","311386","pSARL_v2","pSARL_v2krqcfwfk","5c3fd0d4c2d0b700017d02cd","fixation","img/fixation.png","null","","test","","","","","",""
"344.2999999821186","311733","pSARL_v2","pSARL_v2krqcfwfk","5c3fd0d4c2d0b700017d02cd","freq","img/orange_2bandit_a2.png","70","70","test","1","168","168","8","",""
"null","312199","pSARL_v2","pSARL_v2krqcfwfk","5c3fd0d4c2d0b700017d02cd","freq_resp","img/orange_2bandit_a.png","70","70","test","","","","8","",""
"null","312352","pSARL_v2","pSARL_v2krqcfwfk","5c3fd0d4c2d0b700017d02cd","fixation","img/fixation.png","null","","test","","","","","",""
"286.09999999403954","312641","pSARL_v2","pSARL_v2krqcfwfk","5c3fd0d4c2d0b700017d02cd","freq","img/orange_2bandit_a2.png","70","70","test","1","169","169","8","",""
"null","313166","pSARL_v2","pSARL_v2krqcfwfk","5c3fd0d4c2d0b700017d02cd","freq_resp","img/orange_2bandit_a.png","70","70","test","","","","8","",""
"null","313321","pSARL_v2","pSARL_v2krqcfwfk","5c3fd0d4c2d0b700017d02cd","fixation","img/fixation.png","null","","test","","","","","",""
"273","313597","pSARL_v2","pSARL_v2krqcfwfk","5c3fd0d4c2d0b700017d02cd","freq","img/orange_2bandit_a2.png","70","70","test","1","170","170","8","",""
"null","314132","pSARL_v2","pSARL_v2krqcfwfk","5c3fd0d4c2d0b700017d02cd","freq_resp","img/orange_2bandit_a.png","70","70","test","","","","8","",""
"null","314291","pSARL_v2","pSARL_v2krqcfwfk","5c3fd0d4c2d0b700017d02cd","fixation","img/fixation.png","null","","test","","","","","",""
"295.40000000596046","314589","pSARL_v2","pSARL_v2krqcfwfk","5c3fd0d4c2d0b700017d02cd","freq","img/orange_2bandit_a2.png","70","70","test","1","171","171","8","",""
"null","315111","pSARL_v2","pSARL_v2krqcfwfk","5c3fd0d4c2d0b700017d02cd","freq_resp","img/orange_2bandit_a.png","70","70","test","","","","8","",""
"null","315268","pSARL_v2","pSARL_v2krqcfwfk","5c3fd0d4c2d0b700017d02cd","fixation","img/fixation.png","null","","test","","","","","",""
"306.80000001192093","315577","pSARL_v2","pSARL_v2krqcfwfk","5c3fd0d4c2d0b700017d02cd","freq","img/orange_2bandit_a2.png","70","70","test","1","172","172","8","",""
"null","316080","pSARL_v2","pSARL_v2krqcfwfk","5c3fd0d4c2d0b700017d02cd","freq_resp","img/orange_2bandit_a.png","70","70","test","","","","8","",""
"null","316236","pSARL_v2","pSARL_v2krqcfwfk","5c3fd0d4c2d0b700017d02cd","fixation","img/fixation.png","null","","test","","","","","",""
"261.19999998807907","316499","pSARL_v2","pSARL_v2krqcfwfk","5c3fd0d4c2d0b700017d02cd","freq","img/orange_2bandit_a2.png","70","70","test","1","173","173","8","",""
"null","317048","pSARL_v2","pSARL_v2krqcfwfk","5c3fd0d4c2d0b700017d02cd","freq_resp","img/orange_2bandit_a.png","70","70","test","","","","8","",""
"null","317207","pSARL_v2","pSARL_v2krqcfwfk","5c3fd0d4c2d0b700017d02cd","fixation","img/fixation.png","null","","test","","","","","",""
"278.5","317487","pSARL_v2","pSARL_v2krqcfwfk","5c3fd0d4c2d0b700017d02cd","freq","img/orange_2bandit_a2.png","70","70","test","1","174","174","8","",""
"null","318025","pSARL_v2","pSARL_v2krqcfwfk","5c3fd0d4c2d0b700017d02cd","freq_resp","img/orange_2bandit_a.png","70","70","test","","","","8","",""
"null","318180","pSARL_v2","pSARL_v2krqcfwfk","5c3fd0d4c2d0b700017d02cd","fixation","img/fixation.png","null","","test","","","","","",""
"553.0999999940395","318736","pSARL_v2","pSARL_v2krqcfwfk","5c3fd0d4c2d0b700017d02cd","reward","img/slot.png","74","","test","","","","","",""
"null","319500","pSARL_v2","pSARL_v2krqcfwfk","5c3fd0d4c2d0b700017d02cd","points","<div class=""verylowPoints""> -4 </div>","null","na","test","","","","8","-4","7"
"353.2999999821186","319856","pSARL_v2","pSARL_v2krqcfwfk","5c3fd0d4c2d0b700017d02cd","freq","img/orange_2bandit_a2.png","70","70","test","1","175","175","9","",""
"null","320312","pSARL_v2","pSARL_v2krqcfwfk","5c3fd0d4c2d0b700017d02cd","freq_resp","img/orange_2bandit_a.png","70","70","test","","","","9","",""
"null","320469","pSARL_v2","pSARL_v2krqcfwfk","5c3fd0d4c2d0b700017d02cd","fixation","img/fixation.png","null","","test","","","","","",""
"436.80000001192093","320908","pSARL_v2","pSARL_v2krqcfwfk","5c3fd0d4c2d0b700017d02cd","infreq","img/green_2bandit_a2.png","70","68","test","0","176","176","9","",""
"null","321280","pSARL_v2","pSARL_v2krqcfwfk","5c3fd0d4c2d0b700017d02cd","infreq_resp","img/green_2bandit_a.png","70","68","test","","","","9","",""
"null","321435","pSARL_v2","pSARL_v2krqcfwfk","5c3fd0d4c2d0b700017d02cd","fixation","img/fixation.png","null","","test","","","","","",""
"308.30000001192093","321746","pSARL_v2","pSARL_v2krqcfwfk","5c3fd0d4c2d0b700017d02cd","freq","img/orange_2bandit_a2.png","70","70","test","1","177","177","9","",""
"null","322249","pSARL_v2","pSARL_v2krqcfwfk","5c3fd0d4c2d0b700017d02cd","freq_resp","img/orange_2bandit_a.png","70","70","test","","","","9","",""
"null","322404","pSARL_v2","pSARL_v2krqcfwfk","5c3fd0d4c2d0b700017d02cd","fixation","img/fixation.png","null","","test","","","","","",""
"351.7000000178814","322758","pSARL_v2","pSARL_v2krqcfwfk","5c3fd0d4c2d0b700017d02cd","freq","img/orange_2bandit_a2.png","70","70","test","1","178","178","9","",""
"null","323216","pSARL_v2","pSARL_v2krqcfwfk","5c3fd0d4c2d0b700017d02cd","freq_resp","img/orange_2bandit_a.png","70","70","test","","","","9","",""
"null","323374","pSARL_v2","pSARL_v2krqcfwfk","5c3fd0d4c2d0b700017d02cd","fixation","img/fixation.png","null","","test","","","","","",""
"301.30000001192093","323678","pSARL_v2","pSARL_v2krqcfwfk","5c3fd0d4c2d0b700017d02cd","freq","img/orange_2bandit_a2.png","70","70","test","1","179","179","9","",""
"null","324184","pSARL_v2","pSARL_v2krqcfwfk","5c3fd0d4c2d0b700017d02cd","freq_resp","img/orange_2bandit_a.png","70","70","test","","","","9","",""
"null","324339","pSARL_v2","pSARL_v2krqcfwfk","5c3fd0d4c2d0b700017d02cd","fixation","img/fixation.png","null","","test","","","","","",""
"264.80000001192093","324606","pSARL_v2","pSARL_v2krqcfwfk","5c3fd0d4c2d0b700017d02cd","freq","img/orange_2bandit_a2.png","70","70","test","1","180","180","9","",""
"null","325154","pSARL_v2","pSARL_v2krqcfwfk","5c3fd0d4c2d0b700017d02cd","freq_resp","img/orange_2bandit_a.png","70","70","test","","","","9","",""
"null","325308","pSARL_v2","pSARL_v2krqcfwfk","5c3fd0d4c2d0b700017d02cd","fixation","img/fixation.png","null","","test","","","","","",""
"263.40000000596046","325574","pSARL_v2","pSARL_v2krqcfwfk","5c3fd0d4c2d0b700017d02cd","freq","img/orange_2bandit_a2.png","70","70","test","1","181","181","9","",""
"null","326123","pSARL_v2","pSARL_v2krqcfwfk","5c3fd0d4c2d0b700017d02cd","freq_resp","img/orange_2bandit_a.png","70","70","test","","","","9","",""
"null","326279","pSARL_v2","pSARL_v2krqcfwfk","5c3fd0d4c2d0b700017d02cd","fixation","img/fixation.png","null","","test","","","","","",""
"194.80000001192093","326476","pSARL_v2","pSARL_v2krqcfwfk","5c3fd0d4c2d0b700017d02cd","freq","img/orange_2bandit_a2.png","70","70","test","1","182","182","9","",""
"null","327094","pSARL_v2","pSARL_v2krqcfwfk","5c3fd0d4c2d0b700017d02cd","freq_resp","img/orange_2bandit_a.png","70","70","test","","","","9","",""
"null","327248","pSARL_v2","pSARL_v2krqcfwfk","5c3fd0d4c2d0b700017d02cd","fixation","img/fixation.png","null","","test","","","","","",""
"218.5","327469","pSARL_v2","pSARL_v2krqcfwfk","5c3fd0d4c2d0b700017d02cd","freq","img/orange_2bandit_a2.png","70","70","test","1","183","183","9","",""
"null","328060","pSARL_v2","pSARL_v2krqcfwfk","5c3fd0d4c2d0b700017d02cd","freq_resp","img/orange_2bandit_a.png","70","70","test","","","","9","",""
"null","328216","pSARL_v2","pSARL_v2krqcfwfk","5c3fd0d4c2d0b700017d02cd","fixation","img/fixation.png","null","","test","","","","","",""
"137.80000001192093","328357","pSARL_v2","pSARL_v2krqcfwfk","5c3fd0d4c2d0b700017d02cd","freq","img/orange_2bandit_a2.png","70","70","test","1","184","184","9","",""
"null","329029","pSARL_v2","pSARL_v2krqcfwfk","5c3fd0d4c2d0b700017d02cd","freq_resp","img/orange_2bandit_a.png","70","70","test","","","","9","",""
"null","329187","pSARL_v2","pSARL_v2krqcfwfk","5c3fd0d4c2d0b700017d02cd","fixation","img/fixation.png","null","","test","","","","","",""
"242.80000001192093","329433","pSARL_v2","pSARL_v2krqcfwfk","5c3fd0d4c2d0b700017d02cd","freq","img/orange_2bandit_a2.png","70","70","test","1","185","185","9","",""
"null","330000","pSARL_v2","pSARL_v2krqcfwfk","5c3fd0d4c2d0b700017d02cd","freq_resp","img/orange_2bandit_a.png","70","70","test","","","","9","",""
"null","330154","pSARL_v2","pSARL_v2krqcfwfk","5c3fd0d4c2d0b700017d02cd","fixation","img/fixation.png","null","","test","","","","","",""
"311.7999999821186","330469","pSARL_v2","pSARL_v2krqcfwfk","5c3fd0d4c2d0b700017d02cd","freq","img/orange_2bandit_a2.png","70","70","test","1","186","186","9","",""
"null","330966","pSARL_v2","pSARL_v2krqcfwfk","5c3fd0d4c2d0b700017d02cd","freq_resp","img/orange_2bandit_a.png","70","70","test","","","","9","",""
"null","331122","pSARL_v2","pSARL_v2krqcfwfk","5c3fd0d4c2d0b700017d02cd","fixation","img/fixation.png","null","","test","","","","","",""
"274.69999998807907","331399","pSARL_v2","pSARL_v2krqcfwfk","5c3fd0d4c2d0b700017d02cd","freq","img/orange_2bandit_a2.png","70","70","test","1","187","187","9","",""
"null","331933","pSARL_v2","pSARL_v2krqcfwfk","5c3fd0d4c2d0b700017d02cd","freq_resp","img/orange_2bandit_a.png","70","70","test","","","","9","",""
"null","332090","pSARL_v2","pSARL_v2krqcfwfk","5c3fd0d4c2d0b700017d02cd","fixation","img/fixation.png","null","","test","","","","","",""
"258.5","332351","pSARL_v2","pSARL_v2krqcfwfk","5c3fd0d4c2d0b700017d02cd","freq","img/orange_2bandit_a2.png","70","70","test","1","188","188","9","",""
"null","332899","pSARL_v2","pSARL_v2krqcfwfk","5c3fd0d4c2d0b700017d02cd","freq_resp","img/orange_2bandit_a.png","70","70","test","","","","9","",""
"null","333056","pSARL_v2","pSARL_v2krqcfwfk","5c3fd0d4c2d0b700017d02cd","fixation","img/fixation.png","null","","test","","","","","",""
"357.09999999403954","333415","pSARL_v2","pSARL_v2krqcfwfk","5c3fd0d4c2d0b700017d02cd","infreq","img/green_2bandit_a2.png","68","68","test","1","189","189","9","",""
"null","333866","pSARL_v2","pSARL_v2krqcfwfk","5c3fd0d4c2d0b700017d02cd","infreq_resp","img/green_2bandit_a.png","68","68","test","","","","9","",""
"null","334025","pSARL_v2","pSARL_v2krqcfwfk","5c3fd0d4c2d0b700017d02cd","fixation","img/fixation.png","null","","test","","","","","",""
"355.5","334383","pSARL_v2","pSARL_v2krqcfwfk","5c3fd0d4c2d0b700017d02cd","freq","img/orange_2bandit_a2.png","70","70","test","1","190","190","9","",""
"null","334842","pSARL_v2","pSARL_v2krqcfwfk","5c3fd0d4c2d0b700017d02cd","freq_resp","img/orange_2bandit_a.png","70","70","test","","","","9","",""
"null","335000","pSARL_v2","pSARL_v2krqcfwfk","5c3fd0d4c2d0b700017d02cd","fixation","img/fixation.png","null","","test","","","","","",""
"317.5","335320","pSARL_v2","pSARL_v2krqcfwfk","5c3fd0d4c2d0b700017d02cd","freq","img/orange_2bandit_a2.png","70","70","test","1","191","191","9","",""
"null","335816","pSARL_v2","pSARL_v2krqcfwfk","5c3fd0d4c2d0b700017d02cd","freq_resp","img/orange_2bandit_a.png","70","70","test","","","","9","",""
"null","335970","pSARL_v2","pSARL_v2krqcfwfk","5c3fd0d4c2d0b700017d02cd","fixation","img/fixation.png","null","","test","","","","","",""
"322.89999997615814","336295","pSARL_v2","pSARL_v2krqcfwfk","5c3fd0d4c2d0b700017d02cd","freq","img/orange_2bandit_a2.png","70","70","test","1","192","192","9","",""
"null","336783","pSARL_v2","pSARL_v2krqcfwfk","5c3fd0d4c2d0b700017d02cd","freq_resp","img/orange_2bandit_a.png","70","70","test","","","","9","",""
"null","336938","pSARL_v2","pSARL_v2krqcfwfk","5c3fd0d4c2d0b700017d02cd","fixation","img/fixation.png","null","","test","","","","","",""
"268.69999998807907","337210","pSARL_v2","pSARL_v2krqcfwfk","5c3fd0d4c2d0b700017d02cd","freq","img/orange_2bandit_a2.png","70","70","test","1","193","193","9","",""
"null","337759","pSARL_v2","pSARL_v2krqcfwfk","5c3fd0d4c2d0b700017d02cd","freq_resp","img/orange_2bandit_a.png","70","70","test","","","","9","",""
"null","337917","pSARL_v2","pSARL_v2krqcfwfk","5c3fd0d4c2d0b700017d02cd","fixation","img/fixation.png","null","","test","","","","","",""
"274.69999998807907","338194","pSARL_v2","pSARL_v2krqcfwfk","5c3fd0d4c2d0b700017d02cd","freq","img/orange_2bandit_a2.png","70","70","test","1","194","194","9","",""
"null","338728","pSARL_v2","pSARL_v2krqcfwfk","5c3fd0d4c2d0b700017d02cd","freq_resp","img/orange_2bandit_a.png","70","70","test","","","","9","",""
"null","338884","pSARL_v2","pSARL_v2krqcfwfk","5c3fd0d4c2d0b700017d02cd","fixation","img/fixation.png","null","","test","","","","","",""
"299.09999999403954","339186","pSARL_v2","pSARL_v2krqcfwfk","5c3fd0d4c2d0b700017d02cd","freq","img/orange_2bandit_a2.png","70","70","test","1","195","195","9","",""
"null","339694","pSARL_v2","pSARL_v2krqcfwfk","5c3fd0d4c2d0b700017d02cd","freq_resp","img/orange_2bandit_a.png","70","70","test","","","","9","",""
"null","339852","pSARL_v2","pSARL_v2krqcfwfk","5c3fd0d4c2d0b700017d02cd","fixation","img/fixation.png","null","","test","","","","","",""
"275.5","340130","pSARL_v2","pSARL_v2krqcfwfk","5c3fd0d4c2d0b700017d02cd","freq","img/orange_2bandit_a2.png","70","70","test","1","196","196","9","",""
"null","340663","pSARL_v2","pSARL_v2krqcfwfk","5c3fd0d4c2d0b700017d02cd","freq_resp","img/orange_2bandit_a.png","70","70","test","","","","9","",""
"null","340821","pSARL_v2","pSARL_v2krqcfwfk","5c3fd0d4c2d0b700017d02cd","fixation","img/fixation.png","null","","test","","","","","",""
"298.90000000596046","341122","pSARL_v2","pSARL_v2krqcfwfk","5c3fd0d4c2d0b700017d02cd","freq","img/orange_2bandit_a2.png","70","70","test","1","197","197","9","",""
"null","341634","pSARL_v2","pSARL_v2krqcfwfk","5c3fd0d4c2d0b700017d02cd","freq_resp","img/orange_2bandit_a.png","70","70","test","","","","9","",""
"null","341789","pSARL_v2","pSARL_v2krqcfwfk","5c3fd0d4c2d0b700017d02cd","fixation","img/fixation.png","null","","test","","","","","",""
"308.80000001192093","342100","pSARL_v2","pSARL_v2krqcfwfk","5c3fd0d4c2d0b700017d02cd","freq","img/orange_2bandit_a2.png","70","70","test","1","198","198","9","",""
"null","342601","pSARL_v2","pSARL_v2krqcfwfk","5c3fd0d4c2d0b700017d02cd","freq_resp","img/orange_2bandit_a.png","70","70","test","","","","9","",""
"null","342756","pSARL_v2","pSARL_v2krqcfwfk","5c3fd0d4c2d0b700017d02cd","fixation","img/fixation.png","null","","test","","","","","",""
"277.40000000596046","343036","pSARL_v2","pSARL_v2krqcfwfk","5c3fd0d4c2d0b700017d02cd","freq","img/orange_2bandit_a2.png","70","70","test","1","199","199","9","",""
"null","343565","pSARL_v2","pSARL_v2krqcfwfk","5c3fd0d4c2d0b700017d02cd","freq_resp","img/orange_2bandit_a.png","70","70","test","","","","9","",""
"null","343719","pSARL_v2","pSARL_v2krqcfwfk","5c3fd0d4c2d0b700017d02cd","fixation","img/fixation.png","null","","test","","","","","",""
"414.7999999821186","344136","pSARL_v2","pSARL_v2krqcfwfk","5c3fd0d4c2d0b700017d02cd","reward","img/slot.png","74","","test","","","","","",""
"null","344900","pSARL_v2","pSARL_v2krqcfwfk","5c3fd0d4c2d0b700017d02cd","points","<div class=""verylowPoints""> -3 </div>","null","na","test","","","","9","-3","8"
"377.5","345280","pSARL_v2","pSARL_v2krqcfwfk","5c3fd0d4c2d0b700017d02cd","freq","img/orange_2bandit_a2.png","70","70","test","1","200","200","10","",""
"null","345713","pSARL_v2","pSARL_v2krqcfwfk","5c3fd0d4c2d0b700017d02cd","freq_resp","img/orange_2bandit_a.png","70","70","test","","","","10","",""
"null","345868","pSARL_v2","pSARL_v2krqcfwfk","5c3fd0d4c2d0b700017d02cd","fixation","img/fixation.png","null","","test","","","","","",""
"586.4000000059605","346457","pSARL_v2","pSARL_v2krqcfwfk","5c3fd0d4c2d0b700017d02cd","infreq","img/green_2bandit_a2.png","68","68","test","1","201","201","10","",""
"null","346680","pSARL_v2","pSARL_v2krqcfwfk","5c3fd0d4c2d0b700017d02cd","infreq_resp","img/green_2bandit_a.png","68","68","test","","","","10","",""
"null","346835","pSARL_v2","pSARL_v2krqcfwfk","5c3fd0d4c2d0b700017d02cd","fixation","img/fixation.png","null","","test","","","","","",""
"381","347219","pSARL_v2","pSARL_v2krqcfwfk","5c3fd0d4c2d0b700017d02cd","infreq","img/green_2bandit_a2.png","68","68","test","1","202","202","10","",""
"null","347652","pSARL_v2","pSARL_v2krqcfwfk","5c3fd0d4c2d0b700017d02cd","infreq_resp","img/green_2bandit_a.png","68","68","test","","","","10","",""
"null","347809","pSARL_v2","pSARL_v2krqcfwfk","5c3fd0d4c2d0b700017d02cd","fixation","img/fixation.png","null","","test","","","","","",""
"395.69999998807907","348207","pSARL_v2","pSARL_v2krqcfwfk","5c3fd0d4c2d0b700017d02cd","freq","img/orange_2bandit_a2.png","70","70","test","1","203","203","10","",""
"null","348627","pSARL_v2","pSARL_v2krqcfwfk","5c3fd0d4c2d0b700017d02cd","freq_resp","img/orange_2bandit_a.png","70","70","test","","","","10","",""
"null","348783","pSARL_v2","pSARL_v2krqcfwfk","5c3fd0d4c2d0b700017d02cd","fixation","img/fixation.png","null","","test","","","","","",""
"269.40000000596046","349055","pSARL_v2","pSARL_v2krqcfwfk","5c3fd0d4c2d0b700017d02cd","freq","img/orange_2bandit_a2.png","70","70","test","1","204","204","10","",""
"null","349599","pSARL_v2","pSARL_v2krqcfwfk","5c3fd0d4c2d0b700017d02cd","freq_resp","img/orange_2bandit_a.png","70","70","test","","","","10","",""
"null","349755","pSARL_v2","pSARL_v2krqcfwfk","5c3fd0d4c2d0b700017d02cd","fixation","img/fixation.png","null","","test","","","","","",""
"257.30000001192093","350015","pSARL_v2","pSARL_v2krqcfwfk","5c3fd0d4c2d0b700017d02cd","freq","img/orange_2bandit_a2.png","70","70","test","1","205","205","10","",""
"null","350566","pSARL_v2","pSARL_v2krqcfwfk","5c3fd0d4c2d0b700017d02cd","freq_resp","img/orange_2bandit_a.png","70","70","test","","","","10","",""
"null","350724","pSARL_v2","pSARL_v2krqcfwfk","5c3fd0d4c2d0b700017d02cd","fixation","img/fixation.png","null","","test","","","","","",""
