"rt","time_elapsed","expId","subject","prolificID","trialType","stimulus","key_press","corrresp","phase","corr","trialNum","attentionRunNum","blockNum","points","rlNum"
"84789.30000001192","84793","pSARL_v2","pSARL_v2zveqbn7h","5a8d8079190420000156435d","","","","","","","","","","",""
"","87133","pSARL_v2","pSARL_v2zveqbn7h","5a8d8079190420000156435d","fullscreen","","","","","","","","","",""
"72248.69999998808","159386","pSARL_v2","pSARL_v2zveqbn7h","5a8d8079190420000156435d","","","","","","","","","","",""
"null","160206","pSARL_v2","pSARL_v2zveqbn7h","5a8d8079190420000156435d","freqPrac","img/orange_2bandit_b2.png","null","70","prac","0","","","","",""
"null","161210","pSARL_v2","pSARL_v2zveqbn7h","5a8d8079190420000156435d","feedback","img/tooSlow.png","null","na","prac","","","","","",""
"null","161367","pSARL_v2","pSARL_v2zveqbn7h","5a8d8079190420000156435d","fixation","img/fixation.png","null","","prac","","","","","",""
"522","161893","pSARL_v2","pSARL_v2zveqbn7h","5a8d8079190420000156435d","infreqPrac","img/green_2bandit_b2.png","68","68","prac","1","","","","",""
"522","162186","pSARL_v2","pSARL_v2zveqbn7h","5a8d8079190420000156435d","infreqPrac_resp","img/green_2bandit_b.png","68","68","prac","","","","","",""
"null","162341","pSARL_v2","pSARL_v2zveqbn7h","5a8d8079190420000156435d","fixation","img/fixation.png","null","","prac","","","","","",""
"504.10000002384186","162849","pSARL_v2","pSARL_v2zveqbn7h","5a8d8079190420000156435d","freqPrac","img/orange_2bandit_b2.png","70","70","prac","1","","","","",""
"504.10000002384186","163160","pSARL_v2","pSARL_v2zveqbn7h","5a8d8079190420000156435d","freqPrac_resp","img/orange_2bandit_b.png","70","70","prac","","","","","",""
"null","163329","pSARL_v2","pSARL_v2zveqbn7h","5a8d8079190420000156435d","fixation","img/fixation.png","null","","prac","","","","","",""
"425.69999998807907","163758","pSARL_v2","pSARL_v2zveqbn7h","5a8d8079190420000156435d","infreqPrac","img/green_2bandit_b2.png","68","68","prac","1","","","","",""
"425.69999998807907","164150","pSARL_v2","pSARL_v2zveqbn7h","5a8d8079190420000156435d","infreqPrac_resp","img/green_2bandit_b.png","68","68","prac","","","","","",""
"null","164305","pSARL_v2","pSARL_v2zveqbn7h","5a8d8079190420000156435d","fixation","img/fixation.png","null","","prac","","","","","",""
"374.30000001192093","164682","pSARL_v2","pSARL_v2zveqbn7h","5a8d8079190420000156435d","infreqPrac","img/green_2bandit_b2.png","68","68","prac","1","","","","",""
"374.30000001192093","165112","pSARL_v2","pSARL_v2zveqbn7h","5a8d8079190420000156435d","infreqPrac_resp","img/green_2bandit_b.png","68","68","prac","","","","","",""
"null","165281","pSARL_v2","pSARL_v2zveqbn7h","5a8d8079190420000156435d","fixation","img/fixation.png","null","","prac","","","","","",""
"292.69999998807907","165576","pSARL_v2","pSARL_v2zveqbn7h","5a8d8079190420000156435d","infreqPrac","img/green_2bandit_b2.png","68","68","prac","1","","","","",""
"292.69999998807907","166099","pSARL_v2","pSARL_v2zveqbn7h","5a8d8079190420000156435d","infreqPrac_resp","img/green_2bandit_b.png","68","68","prac","","","","","",""
"null","166255","pSARL_v2","pSARL_v2zveqbn7h","5a8d8079190420000156435d","fixation","img/fixation.png","null","","prac","","","","","",""
"377.60000002384186","166636","pSARL_v2","pSARL_v2zveqbn7h","5a8d8079190420000156435d","freqPrac","img/orange_2bandit_b2.png","70","70","prac","1","","","","",""
"377.60000002384186","167074","pSARL_v2","pSARL_v2zveqbn7h","5a8d8079190420000156435d","freqPrac_resp","img/orange_2bandit_b.png","70","70","prac","","","","","",""
"null","167229","pSARL_v2","pSARL_v2zveqbn7h","5a8d8079190420000156435d","fixation","img/fixation.png","null","","prac","","","","","",""
"457.5","167690","pSARL_v2","pSARL_v2zveqbn7h","5a8d8079190420000156435d","infreqPrac","img/green_2bandit_b2.png","68","68","prac","1","","","","",""
"457.5","168047","pSARL_v2","pSARL_v2zveqbn7h","5a8d8079190420000156435d","infreqPrac_resp","img/green_2bandit_b.png","68","68","prac","","","","","",""
"null","168202","pSARL_v2","pSARL_v2zveqbn7h","5a8d8079190420000156435d","fixation","img/fixation.png","null","","prac","","","","","",""
"442.89999997615814","168649","pSARL_v2","pSARL_v2zveqbn7h","5a8d8079190420000156435d","freqPrac","img/orange_2bandit_b2.png","70","70","prac","1","","","","",""
"442.89999997615814","169021","pSARL_v2","pSARL_v2zveqbn7h","5a8d8079190420000156435d","freqPrac_resp","img/orange_2bandit_b.png","70","70","prac","","","","","",""
"null","169175","pSARL_v2","pSARL_v2zveqbn7h","5a8d8079190420000156435d","fixation","img/fixation.png","null","","prac","","","","","",""
"328.69999998807907","169507","pSARL_v2","pSARL_v2zveqbn7h","5a8d8079190420000156435d","freqPrac","img/orange_2bandit_b2.png","70","70","prac","1","","","","",""
"328.69999998807907","169993","pSARL_v2","pSARL_v2zveqbn7h","5a8d8079190420000156435d","freqPrac_resp","img/orange_2bandit_b.png","70","70","prac","","","","","",""
"null","170163","pSARL_v2","pSARL_v2zveqbn7h","5a8d8079190420000156435d","fixation","img/fixation.png","null","","prac","","","","","",""
"19716.30000001192","189882","pSARL_v2","pSARL_v2zveqbn7h","5a8d8079190420000156435d","","","","","prac","","","","","",""
"1085.800000011921","190972","pSARL_v2","pSARL_v2zveqbn7h","5a8d8079190420000156435d","rewardPractice","img/slot.png","74","","prac","","","","","",""
"null","191730","pSARL_v2","pSARL_v2zveqbn7h","5a8d8079190420000156435d","feedback","<div class=""veryhighPoints""> +15 </div>","null","na","prac","","","","","",""
"null","191884","pSARL_v2","pSARL_v2zveqbn7h","5a8d8079190420000156435d","fixation","img/fixation.png","null","","prac","","","","","",""
"17804.69999998808","209692","pSARL_v2","pSARL_v2zveqbn7h","5a8d8079190420000156435d","","","","","prac","","","","","",""
"null","210502","pSARL_v2","pSARL_v2zveqbn7h","5a8d8079190420000156435d","freq","img/orange_2bandit_b2.png","null","70","test","0","1","1","1","",""
"null","210657","pSARL_v2","pSARL_v2zveqbn7h","5a8d8079190420000156435d","fixation","img/fixation.png","null","","test","","","","","",""
"491.39999997615814","211152","pSARL_v2","pSARL_v2zveqbn7h","5a8d8079190420000156435d","freq","img/orange_2bandit_b2.png","70","70","test","1","2","2","1","",""
"null","211477","pSARL_v2","pSARL_v2zveqbn7h","5a8d8079190420000156435d","freq_resp","img/orange_2bandit_b.png","70","70","test","","","","1","",""
"null","211632","pSARL_v2","pSARL_v2zveqbn7h","5a8d8079190420000156435d","fixation","img/fixation.png","null","","test","","","","","",""
"null","212451","pSARL_v2","pSARL_v2zveqbn7h","5a8d8079190420000156435d","freq","img/orange_2bandit_b2.png","null","70","test","0","3","3","1","",""
"null","212607","pSARL_v2","pSARL_v2zveqbn7h","5a8d8079190420000156435d","fixation","img/fixation.png","null","","test","","","","","",""
"145.69999998807907","212756","pSARL_v2","pSARL_v2zveqbn7h","5a8d8079190420000156435d","freq","img/orange_2bandit_b2.png","68","70","test","0","4","4","1","",""
"null","213426","pSARL_v2","pSARL_v2zveqbn7h","5a8d8079190420000156435d","freq_resp","img/orange_2bandit_b.png","68","70","test","","","","1","",""
"null","213596","pSARL_v2","pSARL_v2zveqbn7h","5a8d8079190420000156435d","fixation","img/fixation.png","null","","test","","","","","",""
"335.19999998807907","213935","pSARL_v2","pSARL_v2zveqbn7h","5a8d8079190420000156435d","freq","img/orange_2bandit_b2.png","70","70","test","1","5","5","1","",""
"null","214415","pSARL_v2","pSARL_v2zveqbn7h","5a8d8079190420000156435d","freq_resp","img/orange_2bandit_b.png","70","70","test","","","","1","",""
"null","214569","pSARL_v2","pSARL_v2zveqbn7h","5a8d8079190420000156435d","fixation","img/fixation.png","null","","test","","","","","",""
"206","214778","pSARL_v2","pSARL_v2zveqbn7h","5a8d8079190420000156435d","freq","img/orange_2bandit_b2.png","70","70","test","1","6","6","1","",""
"null","215390","pSARL_v2","pSARL_v2zveqbn7h","5a8d8079190420000156435d","freq_resp","img/orange_2bandit_b.png","70","70","test","","","","1","",""
"null","215544","pSARL_v2","pSARL_v2zveqbn7h","5a8d8079190420000156435d","fixation","img/fixation.png","null","","test","","","","","",""
"234.80000001192093","215782","pSARL_v2","pSARL_v2zveqbn7h","5a8d8079190420000156435d","freq","img/orange_2bandit_b2.png","70","70","test","1","7","7","1","",""
"null","216365","pSARL_v2","pSARL_v2zveqbn7h","5a8d8079190420000156435d","freq_resp","img/orange_2bandit_b.png","70","70","test","","","","1","",""
"null","216519","pSARL_v2","pSARL_v2zveqbn7h","5a8d8079190420000156435d","fixation","img/fixation.png","null","","test","","","","","",""
"265.19999998807907","216787","pSARL_v2","pSARL_v2zveqbn7h","5a8d8079190420000156435d","freq","img/orange_2bandit_b2.png","70","70","test","1","8","8","1","",""
"null","217337","pSARL_v2","pSARL_v2zveqbn7h","5a8d8079190420000156435d","freq_resp","img/orange_2bandit_b.png","70","70","test","","","","1","",""
"null","217493","pSARL_v2","pSARL_v2zveqbn7h","5a8d8079190420000156435d","fixation","img/fixation.png","null","","test","","","","","",""
"234.69999998807907","217731","pSARL_v2","pSARL_v2zveqbn7h","5a8d8079190420000156435d","freq","img/orange_2bandit_b2.png","70","70","test","1","9","9","1","",""
"null","218312","pSARL_v2","pSARL_v2zveqbn7h","5a8d8079190420000156435d","freq_resp","img/orange_2bandit_b.png","70","70","test","","","","1","",""
"null","218468","pSARL_v2","pSARL_v2zveqbn7h","5a8d8079190420000156435d","fixation","img/fixation.png","null","","test","","","","","",""
"224.9000000357628","218696","pSARL_v2","pSARL_v2zveqbn7h","5a8d8079190420000156435d","freq","img/orange_2bandit_b2.png","70","70","test","1","10","10","1","",""
"null","219286","pSARL_v2","pSARL_v2zveqbn7h","5a8d8079190420000156435d","freq_resp","img/orange_2bandit_b.png","70","70","test","","","","1","",""
"null","219455","pSARL_v2","pSARL_v2zveqbn7h","5a8d8079190420000156435d","fixation","img/fixation.png","null","","test","","","","","",""
"252.30000001192093","219710","pSARL_v2","pSARL_v2zveqbn7h","5a8d8079190420000156435d","freq","img/orange_2bandit_b2.png","70","70","test","1","11","11","1","",""
"null","220274","pSARL_v2","pSARL_v2zveqbn7h","5a8d8079190420000156435d","freq_resp","img/orange_2bandit_b.png","70","70","test","","","","1","",""
"null","220428","pSARL_v2","pSARL_v2zveqbn7h","5a8d8079190420000156435d","fixation","img/fixation.png","null","","test","","","","","",""
"197.20000004768372","220629","pSARL_v2","pSARL_v2zveqbn7h","5a8d8079190420000156435d","freq","img/orange_2bandit_b2.png","70","70","test","1","12","12","1","",""
"null","221246","pSARL_v2","pSARL_v2zveqbn7h","5a8d8079190420000156435d","freq_resp","img/orange_2bandit_b.png","70","70","test","","","","1","",""
"null","221400","pSARL_v2","pSARL_v2zveqbn7h","5a8d8079190420000156435d","fixation","img/fixation.png","null","","test","","","","","",""
"216.60000002384186","221620","pSARL_v2","pSARL_v2zveqbn7h","5a8d8079190420000156435d","freq","img/orange_2bandit_b2.png","70","70","test","1","13","13","1","",""
"null","222220","pSARL_v2","pSARL_v2zveqbn7h","5a8d8079190420000156435d","freq_resp","img/orange_2bandit_b.png","70","70","test","","","","1","",""
"null","222376","pSARL_v2","pSARL_v2zveqbn7h","5a8d8079190420000156435d","fixation","img/fixation.png","null","","test","","","","","",""
"196.4000000357628","222576","pSARL_v2","pSARL_v2zveqbn7h","5a8d8079190420000156435d","freq","img/orange_2bandit_b2.png","70","70","test","1","14","14","1","",""
"null","223194","pSARL_v2","pSARL_v2zveqbn7h","5a8d8079190420000156435d","freq_resp","img/orange_2bandit_b.png","70","70","test","","","","1","",""
"null","223349","pSARL_v2","pSARL_v2zveqbn7h","5a8d8079190420000156435d","fixation","img/fixation.png","null","","test","","","","","",""
"106.69999998807907","223458","pSARL_v2","pSARL_v2zveqbn7h","5a8d8079190420000156435d","freq","img/orange_2bandit_b2.png","70","70","test","1","15","15","1","",""
"null","224168","pSARL_v2","pSARL_v2zveqbn7h","5a8d8079190420000156435d","freq_resp","img/orange_2bandit_b.png","70","70","test","","","","1","",""
"null","224322","pSARL_v2","pSARL_v2zveqbn7h","5a8d8079190420000156435d","fixation","img/fixation.png","null","","test","","","","","",""
"121.19999998807907","224446","pSARL_v2","pSARL_v2zveqbn7h","5a8d8079190420000156435d","freq","img/orange_2bandit_b2.png","70","70","test","1","16","16","1","",""
"null","225140","pSARL_v2","pSARL_v2zveqbn7h","5a8d8079190420000156435d","freq_resp","img/orange_2bandit_b.png","70","70","test","","","","1","",""
"null","225294","pSARL_v2","pSARL_v2zveqbn7h","5a8d8079190420000156435d","fixation","img/fixation.png","null","","test","","","","","",""
"665.6000000238419","225963","pSARL_v2","pSARL_v2zveqbn7h","5a8d8079190420000156435d","infreq","img/green_2bandit_b2.png","68","68","test","1","17","17","1","",""
"null","226104","pSARL_v2","pSARL_v2zveqbn7h","5a8d8079190420000156435d","infreq_resp","img/green_2bandit_b.png","68","68","test","","","","1","",""
"null","226268","pSARL_v2","pSARL_v2zveqbn7h","5a8d8079190420000156435d","fixation","img/fixation.png","null","","test","","","","","",""
"421.30000001192093","226693","pSARL_v2","pSARL_v2zveqbn7h","5a8d8079190420000156435d","infreq","img/green_2bandit_b2.png","68","68","test","1","18","18","1","",""
"null","227086","pSARL_v2","pSARL_v2zveqbn7h","5a8d8079190420000156435d","infreq_resp","img/green_2bandit_b.png","68","68","test","","","","1","",""
"null","227240","pSARL_v2","pSARL_v2zveqbn7h","5a8d8079190420000156435d","fixation","img/fixation.png","null","","test","","","","","",""
"386.69999998807907","227631","pSARL_v2","pSARL_v2zveqbn7h","5a8d8079190420000156435d","freq","img/orange_2bandit_b2.png","70","70","test","1","19","19","1","",""
"null","228059","pSARL_v2","pSARL_v2zveqbn7h","5a8d8079190420000156435d","freq_resp","img/orange_2bandit_b.png","70","70","test","","","","1","",""
"null","228214","pSARL_v2","pSARL_v2zveqbn7h","5a8d8079190420000156435d","fixation","img/fixation.png","null","","test","","","","","",""
"1096.6000000238419","229314","pSARL_v2","pSARL_v2zveqbn7h","5a8d8079190420000156435d","reward","img/slot.png","74","","test","","","","","",""
"null","230083","pSARL_v2","pSARL_v2zveqbn7h","5a8d8079190420000156435d","points","<div class=""verylowPoints""> -6 </div>","null","na","test","","","","1","-6","0"
"null","230907","pSARL_v2","pSARL_v2zveqbn7h","5a8d8079190420000156435d","freq","img/orange_2bandit_b2.png","null","70","test","0","20","20","2","",""
"null","231071","pSARL_v2","pSARL_v2zveqbn7h","5a8d8079190420000156435d","fixation","img/fixation.png","null","","test","","","","","",""
"148.19999998807907","231223","pSARL_v2","pSARL_v2zveqbn7h","5a8d8079190420000156435d","freq","img/orange_2bandit_b2.png","70","70","test","1","21","21","2","",""
"null","231891","pSARL_v2","pSARL_v2zveqbn7h","5a8d8079190420000156435d","freq_resp","img/orange_2bandit_b.png","70","70","test","","","","2","",""
"null","232060","pSARL_v2","pSARL_v2zveqbn7h","5a8d8079190420000156435d","fixation","img/fixation.png","null","","test","","","","","",""
"550.8000000119209","232615","pSARL_v2","pSARL_v2zveqbn7h","5a8d8079190420000156435d","freq","img/orange_2bandit_b2.png","70","70","test","1","22","22","2","",""
"null","232880","pSARL_v2","pSARL_v2zveqbn7h","5a8d8079190420000156435d","freq_resp","img/orange_2bandit_b.png","70","70","test","","","","2","",""
"null","233033","pSARL_v2","pSARL_v2zveqbn7h","5a8d8079190420000156435d","fixation","img/fixation.png","null","","test","","","","","",""
"207.20000004768372","233244","pSARL_v2","pSARL_v2zveqbn7h","5a8d8079190420000156435d","freq","img/orange_2bandit_b2.png","70","70","test","1","23","23","2","",""
"null","233852","pSARL_v2","pSARL_v2zveqbn7h","5a8d8079190420000156435d","freq_resp","img/orange_2bandit_b.png","70","70","test","","","","2","",""
"null","234022","pSARL_v2","pSARL_v2zveqbn7h","5a8d8079190420000156435d","fixation","img/fixation.png","null","","test","","","","","",""
"189.80000001192093","234215","pSARL_v2","pSARL_v2zveqbn7h","5a8d8079190420000156435d","freq","img/orange_2bandit_b2.png","70","70","test","1","24","24","2","",""
"null","234839","pSARL_v2","pSARL_v2zveqbn7h","5a8d8079190420000156435d","freq_resp","img/orange_2bandit_b.png","70","70","test","","","","2","",""
"null","234993","pSARL_v2","pSARL_v2zveqbn7h","5a8d8079190420000156435d","fixation","img/fixation.png","null","","test","","","","","",""
"293.80000001192093","235290","pSARL_v2","pSARL_v2zveqbn7h","5a8d8079190420000156435d","freq","img/orange_2bandit_b2.png","70","70","test","1","25","25","2","",""
"null","235811","pSARL_v2","pSARL_v2zveqbn7h","5a8d8079190420000156435d","freq_resp","img/orange_2bandit_b.png","70","70","test","","","","2","",""
"null","235965","pSARL_v2","pSARL_v2zveqbn7h","5a8d8079190420000156435d","fixation","img/fixation.png","null","","test","","","","","",""
"237.5","236206","pSARL_v2","pSARL_v2zveqbn7h","5a8d8079190420000156435d","freq","img/orange_2bandit_b2.png","70","70","test","1","26","26","2","",""
"null","236783","pSARL_v2","pSARL_v2zveqbn7h","5a8d8079190420000156435d","freq_resp","img/orange_2bandit_b.png","70","70","test","","","","2","",""
"null","236938","pSARL_v2","pSARL_v2zveqbn7h","5a8d8079190420000156435d","fixation","img/fixation.png","null","","test","","","","","",""
"320.69999998807907","237263","pSARL_v2","pSARL_v2zveqbn7h","5a8d8079190420000156435d","freq","img/orange_2bandit_b2.png","70","70","test","1","27","27","2","",""
"null","237757","pSARL_v2","pSARL_v2zveqbn7h","5a8d8079190420000156435d","freq_resp","img/orange_2bandit_b.png","70","70","test","","","","2","",""
"null","237911","pSARL_v2","pSARL_v2zveqbn7h","5a8d8079190420000156435d","fixation","img/fixation.png","null","","test","","","","","",""
"340.10000002384186","238254","pSARL_v2","pSARL_v2zveqbn7h","5a8d8079190420000156435d","freq","img/orange_2bandit_b2.png","70","70","test","1","28","28","2","",""
"null","238730","pSARL_v2","pSARL_v2zveqbn7h","5a8d8079190420000156435d","freq_resp","img/orange_2bandit_b.png","70","70","test","","","","2","",""
"null","238900","pSARL_v2","pSARL_v2zveqbn7h","5a8d8079190420000156435d","fixation","img/fixation.png","null","","test","","","","","",""
"356.2000000476837","239260","pSARL_v2","pSARL_v2zveqbn7h","5a8d8079190420000156435d","infreq","img/green_2bandit_b2.png","68","68","test","1","29","29","2","",""
"null","239719","pSARL_v2","pSARL_v2zveqbn7h","5a8d8079190420000156435d","infreq_resp","img/green_2bandit_b.png","68","68","test","","","","2","",""
"null","239889","pSARL_v2","pSARL_v2zveqbn7h","5a8d8079190420000156435d","fixation","img/fixation.png","null","","test","","","","","",""
"293.5999999642372","240186","pSARL_v2","pSARL_v2zveqbn7h","5a8d8079190420000156435d","infreq","img/green_2bandit_b2.png","68","68","test","1","30","30","2","",""
"null","240706","pSARL_v2","pSARL_v2zveqbn7h","5a8d8079190420000156435d","infreq_resp","img/green_2bandit_b.png","68","68","test","","","","2","",""
"null","240860","pSARL_v2","pSARL_v2zveqbn7h","5a8d8079190420000156435d","fixation","img/fixation.png","null","","test","","","","","",""
"381.7999999523163","241246","pSARL_v2","pSARL_v2zveqbn7h","5a8d8079190420000156435d","freq","img/orange_2bandit_b2.png","70","70","test","1","31","31","2","",""
"null","241677","pSARL_v2","pSARL_v2zveqbn7h","5a8d8079190420000156435d","freq_resp","img/orange_2bandit_b.png","70","70","test","","","","2","",""
"null","241831","pSARL_v2","pSARL_v2zveqbn7h","5a8d8079190420000156435d","fixation","img/fixation.png","null","","test","","","","","",""
"374.5","242208","pSARL_v2","pSARL_v2zveqbn7h","5a8d8079190420000156435d","freq","img/orange_2bandit_b2.png","70","70","test","1","32","32","2","",""
"null","242648","pSARL_v2","pSARL_v2zveqbn7h","5a8d8079190420000156435d","freq_resp","img/orange_2bandit_b.png","70","70","test","","","","2","",""
"null","242802","pSARL_v2","pSARL_v2zveqbn7h","5a8d8079190420000156435d","fixation","img/fixation.png","null","","test","","","","","",""
"368.30000001192093","243174","pSARL_v2","pSARL_v2zveqbn7h","5a8d8079190420000156435d","freq","img/orange_2bandit_b2.png","70","70","test","1","33","33","2","",""
"null","243623","pSARL_v2","pSARL_v2zveqbn7h","5a8d8079190420000156435d","freq_resp","img/orange_2bandit_b.png","70","70","test","","","","2","",""
"null","243778","pSARL_v2","pSARL_v2zveqbn7h","5a8d8079190420000156435d","fixation","img/fixation.png","null","","test","","","","","",""
"320","244101","pSARL_v2","pSARL_v2zveqbn7h","5a8d8079190420000156435d","infreq","img/green_2bandit_b2.png","68","68","test","1","34","34","2","",""
"null","244595","pSARL_v2","pSARL_v2zveqbn7h","5a8d8079190420000156435d","infreq_resp","img/green_2bandit_b.png","68","68","test","","","","2","",""
"null","244749","pSARL_v2","pSARL_v2zveqbn7h","5a8d8079190420000156435d","fixation","img/fixation.png","null","","test","","","","","",""
"406.0999999642372","245158","pSARL_v2","pSARL_v2zveqbn7h","5a8d8079190420000156435d","freq","img/orange_2bandit_b2.png","70","70","test","1","35","35","2","",""
"null","245567","pSARL_v2","pSARL_v2zveqbn7h","5a8d8079190420000156435d","freq_resp","img/orange_2bandit_b.png","70","70","test","","","","2","",""
"null","245722","pSARL_v2","pSARL_v2zveqbn7h","5a8d8079190420000156435d","fixation","img/fixation.png","null","","test","","","","","",""
"475.89999997615814","246201","pSARL_v2","pSARL_v2zveqbn7h","5a8d8079190420000156435d","freq","img/orange_2bandit_b2.png","70","70","test","1","36","36","2","",""
"null","246541","pSARL_v2","pSARL_v2zveqbn7h","5a8d8079190420000156435d","freq_resp","img/orange_2bandit_b.png","70","70","test","","","","2","",""
"null","246696","pSARL_v2","pSARL_v2zveqbn7h","5a8d8079190420000156435d","fixation","img/fixation.png","null","","test","","","","","",""
"362.2000000476837","247061","pSARL_v2","pSARL_v2zveqbn7h","5a8d8079190420000156435d","freq","img/orange_2bandit_b2.png","70","70","test","1","37","37","2","",""
"null","247513","pSARL_v2","pSARL_v2zveqbn7h","5a8d8079190420000156435d","freq_resp","img/orange_2bandit_b.png","70","70","test","","","","2","",""
"null","247668","pSARL_v2","pSARL_v2zveqbn7h","5a8d8079190420000156435d","fixation","img/fixation.png","null","","test","","","","","",""
"348","248019","pSARL_v2","pSARL_v2zveqbn7h","5a8d8079190420000156435d","freq","img/orange_2bandit_b2.png","70","70","test","1","38","38","2","",""
"null","248487","pSARL_v2","pSARL_v2zveqbn7h","5a8d8079190420000156435d","freq_resp","img/orange_2bandit_b.png","70","70","test","","","","2","",""
"null","248656","pSARL_v2","pSARL_v2zveqbn7h","5a8d8079190420000156435d","fixation","img/fixation.png","null","","test","","","","","",""
"333.39999997615814","248993","pSARL_v2","pSARL_v2zveqbn7h","5a8d8079190420000156435d","freq","img/orange_2bandit_b2.png","70","70","test","1","39","39","2","",""
"null","249475","pSARL_v2","pSARL_v2zveqbn7h","5a8d8079190420000156435d","freq_resp","img/orange_2bandit_b.png","70","70","test","","","","2","",""
"null","249630","pSARL_v2","pSARL_v2zveqbn7h","5a8d8079190420000156435d","fixation","img/fixation.png","null","","test","","","","","",""
"309.4000000357628","249943","pSARL_v2","pSARL_v2zveqbn7h","5a8d8079190420000156435d","freq","img/orange_2bandit_b2.png","70","70","test","1","40","40","2","",""
"null","250450","pSARL_v2","pSARL_v2zveqbn7h","5a8d8079190420000156435d","freq_resp","img/orange_2bandit_b.png","70","70","test","","","","2","",""
"null","250604","pSARL_v2","pSARL_v2zveqbn7h","5a8d8079190420000156435d","fixation","img/fixation.png","null","","test","","","","","",""
"332.30000001192093","250940","pSARL_v2","pSARL_v2zveqbn7h","5a8d8079190420000156435d","freq","img/orange_2bandit_b2.png","70","70","test","1","41","41","2","",""
"null","251422","pSARL_v2","pSARL_v2zveqbn7h","5a8d8079190420000156435d","freq_resp","img/orange_2bandit_b.png","70","70","test","","","","2","",""
"null","251576","pSARL_v2","pSARL_v2zveqbn7h","5a8d8079190420000156435d","fixation","img/fixation.png","null","","test","","","","","",""
"527.6999999880791","252108","pSARL_v2","pSARL_v2zveqbn7h","5a8d8079190420000156435d","reward","img/slot.png","74","","test","","","","","",""
"null","252874","pSARL_v2","pSARL_v2zveqbn7h","5a8d8079190420000156435d","points","<div class=""verylowPoints""> -11 </div>","null","na","test","","","","2","-11","1"
"572.7999999523163","253450","pSARL_v2","pSARL_v2zveqbn7h","5a8d8079190420000156435d","freq","img/orange_2bandit_b2.png","70","70","test","1","42","42","3","",""
"null","253693","pSARL_v2","pSARL_v2zveqbn7h","5a8d8079190420000156435d","freq_resp","img/orange_2bandit_b.png","70","70","test","","","","3","",""
"null","253847","pSARL_v2","pSARL_v2zveqbn7h","5a8d8079190420000156435d","fixation","img/fixation.png","null","","test","","","","","",""
"467.89999997615814","254318","pSARL_v2","pSARL_v2zveqbn7h","5a8d8079190420000156435d","freq","img/orange_2bandit_b2.png","70","70","test","1","43","43","3","",""
"null","254667","pSARL_v2","pSARL_v2zveqbn7h","5a8d8079190420000156435d","freq_resp","img/orange_2bandit_b.png","70","70","test","","","","3","",""
"null","254820","pSARL_v2","pSARL_v2zveqbn7h","5a8d8079190420000156435d","fixation","img/fixation.png","null","","test","","","","","",""
"317.39999997615814","255141","pSARL_v2","pSARL_v2zveqbn7h","5a8d8079190420000156435d","freq","img/orange_2bandit_b2.png","70","70","test","1","44","44","3","",""
"null","255638","pSARL_v2","pSARL_v2zveqbn7h","5a8d8079190420000156435d","freq_resp","img/orange_2bandit_b.png","70","70","test","","","","3","",""
"null","255793","pSARL_v2","pSARL_v2zveqbn7h","5a8d8079190420000156435d","fixation","img/fixation.png","null","","test","","","","","",""
"215.5","256012","pSARL_v2","pSARL_v2zveqbn7h","5a8d8079190420000156435d","freq","img/orange_2bandit_b2.png","70","70","test","1","45","45","3","",""
"null","256611","pSARL_v2","pSARL_v2zveqbn7h","5a8d8079190420000156435d","freq_resp","img/orange_2bandit_b.png","70","70","test","","","","3","",""
"null","256765","pSARL_v2","pSARL_v2zveqbn7h","5a8d8079190420000156435d","fixation","img/fixation.png","null","","test","","","","","",""
"284.10000002384186","257053","pSARL_v2","pSARL_v2zveqbn7h","5a8d8079190420000156435d","freq","img/orange_2bandit_b2.png","70","70","test","1","46","46","3","",""
"null","257581","pSARL_v2","pSARL_v2zveqbn7h","5a8d8079190420000156435d","freq_resp","img/orange_2bandit_b.png","70","70","test","","","","3","",""
"null","257736","pSARL_v2","pSARL_v2zveqbn7h","5a8d8079190420000156435d","fixation","img/fixation.png","null","","test","","","","","",""
"276","258016","pSARL_v2","pSARL_v2zveqbn7h","5a8d8079190420000156435d","freq","img/orange_2bandit_b2.png","70","70","test","1","47","47","3","",""
"null","258553","pSARL_v2","pSARL_v2zveqbn7h","5a8d8079190420000156435d","freq_resp","img/orange_2bandit_b.png","70","70","test","","","","3","",""
"null","258708","pSARL_v2","pSARL_v2zveqbn7h","5a8d8079190420000156435d","fixation","img/fixation.png","null","","test","","","","","",""
"233","258945","pSARL_v2","pSARL_v2zveqbn7h","5a8d8079190420000156435d","freq","img/orange_2bandit_b2.png","70","70","test","1","48","48","3","",""
"null","259527","pSARL_v2","pSARL_v2zveqbn7h","5a8d8079190420000156435d","freq_resp","img/orange_2bandit_b.png","70","70","test","","","","3","",""
"null","259683","pSARL_v2","pSARL_v2zveqbn7h","5a8d8079190420000156435d","fixation","img/fixation.png","null","","test","","","","","",""
"211.4000000357628","259898","pSARL_v2","pSARL_v2zveqbn7h","5a8d8079190420000156435d","freq","img/orange_2bandit_b2.png","70","70","test","1","49","49","3","",""
"null","260501","pSARL_v2","pSARL_v2zveqbn7h","5a8d8079190420000156435d","freq_resp","img/orange_2bandit_b.png","70","70","test","","","","3","",""
"null","260655","pSARL_v2","pSARL_v2zveqbn7h","5a8d8079190420000156435d","fixation","img/fixation.png","null","","test","","","","","",""
"137","260796","pSARL_v2","pSARL_v2zveqbn7h","5a8d8079190420000156435d","freq","img/orange_2bandit_b2.png","70","70","test","1","50","50","3","",""
"null","261476","pSARL_v2","pSARL_v2zveqbn7h","5a8d8079190420000156435d","freq_resp","img/orange_2bandit_b.png","70","70","test","","","","3","",""
"null","261645","pSARL_v2","pSARL_v2zveqbn7h","5a8d8079190420000156435d","fixation","img/fixation.png","null","","test","","","","","",""
"45.80000001192093","261694","pSARL_v2","pSARL_v2zveqbn7h","5a8d8079190420000156435d","freq","img/orange_2bandit_b2.png","70","70","test","1","51","51","3","",""
"null","262465","pSARL_v2","pSARL_v2zveqbn7h","5a8d8079190420000156435d","freq_resp","img/orange_2bandit_b.png","70","70","test","","","","3","",""
"null","262635","pSARL_v2","pSARL_v2zveqbn7h","5a8d8079190420000156435d","fixation","img/fixation.png","null","","test","","","","","",""
"95.09999996423721","262734","pSARL_v2","pSARL_v2zveqbn7h","5a8d8079190420000156435d","freq","img/orange_2bandit_b2.png","70","70","test","1","52","52","3","",""
"null","263455","pSARL_v2","pSARL_v2zveqbn7h","5a8d8079190420000156435d","freq_resp","img/orange_2bandit_b.png","70","70","test","","","","3","",""
"null","263623","pSARL_v2","pSARL_v2zveqbn7h","5a8d8079190420000156435d","fixation","img/fixation.png","null","","test","","","","","",""
"309.60000002384186","263936","pSARL_v2","pSARL_v2zveqbn7h","5a8d8079190420000156435d","freq","img/orange_2bandit_b2.png","70","70","test","1","53","53","3","",""
"null","264442","pSARL_v2","pSARL_v2zveqbn7h","5a8d8079190420000156435d","freq_resp","img/orange_2bandit_b.png","70","70","test","","","","3","",""
"null","264597","pSARL_v2","pSARL_v2zveqbn7h","5a8d8079190420000156435d","fixation","img/fixation.png","null","","test","","","","","",""
"380.5","264981","pSARL_v2","pSARL_v2zveqbn7h","5a8d8079190420000156435d","infreq","img/green_2bandit_b2.png","68","68","test","1","54","54","3","",""
"null","265416","pSARL_v2","pSARL_v2zveqbn7h","5a8d8079190420000156435d","infreq_resp","img/green_2bandit_b.png","68","68","test","","","","3","",""
"null","265571","pSARL_v2","pSARL_v2zveqbn7h","5a8d8079190420000156435d","fixation","img/fixation.png","null","","test","","","","","",""
"297.60000002384186","265871","pSARL_v2","pSARL_v2zveqbn7h","5a8d8079190420000156435d","infreq","img/green_2bandit_b2.png","68","68","test","1","55","55","3","",""
"null","266390","pSARL_v2","pSARL_v2zveqbn7h","5a8d8079190420000156435d","infreq_resp","img/green_2bandit_b.png","68","68","test","","","","3","",""
"null","266544","pSARL_v2","pSARL_v2zveqbn7h","5a8d8079190420000156435d","fixation","img/fixation.png","null","","test","","","","","",""
"333.4000000357628","266881","pSARL_v2","pSARL_v2zveqbn7h","5a8d8079190420000156435d","freq","img/orange_2bandit_b2.png","70","70","test","1","56","56","3","",""
"null","267364","pSARL_v2","pSARL_v2zveqbn7h","5a8d8079190420000156435d","freq_resp","img/orange_2bandit_b.png","70","70","test","","","","3","",""
"null","267519","pSARL_v2","pSARL_v2zveqbn7h","5a8d8079190420000156435d","fixation","img/fixation.png","null","","test","","","","","",""
"368.80000001192093","267890","pSARL_v2","pSARL_v2zveqbn7h","5a8d8079190420000156435d","freq","img/orange_2bandit_b2.png","70","70","test","1","57","57","3","",""
"null","268336","pSARL_v2","pSARL_v2zveqbn7h","5a8d8079190420000156435d","freq_resp","img/orange_2bandit_b.png","70","70","test","","","","3","",""
"null","268490","pSARL_v2","pSARL_v2zveqbn7h","5a8d8079190420000156435d","fixation","img/fixation.png","null","","test","","","","","",""
"317.69999998807907","268811","pSARL_v2","pSARL_v2zveqbn7h","5a8d8079190420000156435d","infreq","img/green_2bandit_b2.png","68","68","test","1","58","58","3","",""
"null","269309","pSARL_v2","pSARL_v2zveqbn7h","5a8d8079190420000156435d","infreq_resp","img/green_2bandit_b.png","68","68","test","","","","3","",""
"null","269464","pSARL_v2","pSARL_v2zveqbn7h","5a8d8079190420000156435d","fixation","img/fixation.png","null","","test","","","","","",""
"359","269827","pSARL_v2","pSARL_v2zveqbn7h","5a8d8079190420000156435d","freq","img/orange_2bandit_b2.png","70","70","test","1","59","59","3","",""
"null","270283","pSARL_v2","pSARL_v2zveqbn7h","5a8d8079190420000156435d","freq_resp","img/orange_2bandit_b.png","70","70","test","","","","3","",""
"null","270438","pSARL_v2","pSARL_v2zveqbn7h","5a8d8079190420000156435d","fixation","img/fixation.png","null","","test","","","","","",""
"334.5999999642372","270777","pSARL_v2","pSARL_v2zveqbn7h","5a8d8079190420000156435d","freq","img/orange_2bandit_b2.png","70","70","test","1","60","60","3","",""
"null","271255","pSARL_v2","pSARL_v2zveqbn7h","5a8d8079190420000156435d","freq_resp","img/orange_2bandit_b.png","70","70","test","","","","3","",""
"null","271410","pSARL_v2","pSARL_v2zveqbn7h","5a8d8079190420000156435d","fixation","img/fixation.png","null","","test","","","","","",""
"308.2000000476837","271722","pSARL_v2","pSARL_v2zveqbn7h","5a8d8079190420000156435d","freq","img/orange_2bandit_b2.png","70","70","test","1","61","61","3","",""
"null","272228","pSARL_v2","pSARL_v2zveqbn7h","5a8d8079190420000156435d","freq_resp","img/orange_2bandit_b.png","70","70","test","","","","3","",""
"null","272384","pSARL_v2","pSARL_v2zveqbn7h","5a8d8079190420000156435d","fixation","img/fixation.png","null","","test","","","","","",""
"284.10000002384186","272671","pSARL_v2","pSARL_v2zveqbn7h","5a8d8079190420000156435d","freq","img/orange_2bandit_b2.png","70","70","test","1","62","62","3","",""
"null","273201","pSARL_v2","pSARL_v2zveqbn7h","5a8d8079190420000156435d","freq_resp","img/orange_2bandit_b.png","70","70","test","","","","3","",""
"null","273355","pSARL_v2","pSARL_v2zveqbn7h","5a8d8079190420000156435d","fixation","img/fixation.png","null","","test","","","","","",""
"485.5","273845","pSARL_v2","pSARL_v2zveqbn7h","5a8d8079190420000156435d","reward","img/slot.png","74","","test","","","","","",""
"null","274605","pSARL_v2","pSARL_v2zveqbn7h","5a8d8079190420000156435d","points","<div class=""verylowPoints""> -7 </div>","null","na","test","","","","3","-7","2"
"549","275158","pSARL_v2","pSARL_v2zveqbn7h","5a8d8079190420000156435d","freq","img/orange_2bandit_b2.png","70","70","test","1","63","63","4","",""
"null","275425","pSARL_v2","pSARL_v2zveqbn7h","5a8d8079190420000156435d","freq_resp","img/orange_2bandit_b.png","70","70","test","","","","4","",""
"null","275580","pSARL_v2","pSARL_v2zveqbn7h","5a8d8079190420000156435d","fixation","img/fixation.png","null","","test","","","","","",""
"379.9000000357628","275963","pSARL_v2","pSARL_v2zveqbn7h","5a8d8079190420000156435d","freq","img/orange_2bandit_b2.png","70","70","test","1","64","64","4","",""
"null","276396","pSARL_v2","pSARL_v2zveqbn7h","5a8d8079190420000156435d","freq_resp","img/orange_2bandit_b.png","70","70","test","","","","4","",""
"null","276551","pSARL_v2","pSARL_v2zveqbn7h","5a8d8079190420000156435d","fixation","img/fixation.png","null","","test","","","","","",""
"263.30000001192093","276818","pSARL_v2","pSARL_v2zveqbn7h","5a8d8079190420000156435d","freq","img/orange_2bandit_b2.png","70","70","test","1","65","65","4","",""
"null","277369","pSARL_v2","pSARL_v2zveqbn7h","5a8d8079190420000156435d","freq_resp","img/orange_2bandit_b.png","70","70","test","","","","4","",""
"null","277523","pSARL_v2","pSARL_v2zveqbn7h","5a8d8079190420000156435d","fixation","img/fixation.png","null","","test","","","","","",""
"251.5","277778","pSARL_v2","pSARL_v2zveqbn7h","5a8d8079190420000156435d","freq","img/orange_2bandit_b2.png","70","70","test","1","66","66","4","",""
"null","278340","pSARL_v2","pSARL_v2zveqbn7h","5a8d8079190420000156435d","freq_resp","img/orange_2bandit_b.png","70","70","test","","","","4","",""
"null","278495","pSARL_v2","pSARL_v2zveqbn7h","5a8d8079190420000156435d","fixation","img/fixation.png","null","","test","","","","","",""
"249.5","278748","pSARL_v2","pSARL_v2zveqbn7h","5a8d8079190420000156435d","freq","img/orange_2bandit_b2.png","70","70","test","1","67","67","4","",""
"null","279313","pSARL_v2","pSARL_v2zveqbn7h","5a8d8079190420000156435d","freq_resp","img/orange_2bandit_b.png","70","70","test","","","","4","",""
"null","279468","pSARL_v2","pSARL_v2zveqbn7h","5a8d8079190420000156435d","fixation","img/fixation.png","null","","test","","","","","",""
"255.5","279727","pSARL_v2","pSARL_v2zveqbn7h","5a8d8079190420000156435d","freq","img/orange_2bandit_b2.png","70","70","test","1","68","68","4","",""
"null","280286","pSARL_v2","pSARL_v2zveqbn7h","5a8d8079190420000156435d","freq_resp","img/orange_2bandit_b.png","70","70","test","","","","4","",""
"null","280441","pSARL_v2","pSARL_v2zveqbn7h","5a8d8079190420000156435d","fixation","img/fixation.png","null","","test","","","","","",""
"357.10000002384186","280802","pSARL_v2","pSARL_v2zveqbn7h","5a8d8079190420000156435d","infreq","img/green_2bandit_b2.png","68","68","test","1","69","69","4","",""
"null","281258","pSARL_v2","pSARL_v2zveqbn7h","5a8d8079190420000156435d","infreq_resp","img/green_2bandit_b.png","68","68","test","","","","4","",""
"null","281412","pSARL_v2","pSARL_v2zveqbn7h","5a8d8079190420000156435d","fixation","img/fixation.png","null","","test","","","","","",""
"487.0999999642372","281903","pSARL_v2","pSARL_v2zveqbn7h","5a8d8079190420000156435d","freq","img/orange_2bandit_b2.png","70","70","test","1","70","70","4","",""
"null","282230","pSARL_v2","pSARL_v2zveqbn7h","5a8d8079190420000156435d","freq_resp","img/orange_2bandit_b.png","70","70","test","","","","4","",""
"null","282386","pSARL_v2","pSARL_v2zveqbn7h","5a8d8079190420000156435d","fixation","img/fixation.png","null","","test","","","","","",""
"415.19999998807907","282805","pSARL_v2","pSARL_v2zveqbn7h","5a8d8079190420000156435d","infreq","img/green_2bandit_b2.png","68","68","test","1","71","71","4","",""
"null","283206","pSARL_v2","pSARL_v2zveqbn7h","5a8d8079190420000156435d","infreq_resp","img/green_2bandit_b.png","68","68","test","","","","4","",""
"null","283360","pSARL_v2","pSARL_v2zveqbn7h","5a8d8079190420000156435d","fixation","img/fixation.png","null","","test","","","","","",""
"348.19999998807907","283711","pSARL_v2","pSARL_v2zveqbn7h","5a8d8079190420000156435d","freq","img/orange_2bandit_b2.png","68","70","test","0","72","72","4","",""
"null","284172","pSARL_v2","pSARL_v2zveqbn7h","5a8d8079190420000156435d","freq_resp","img/orange_2bandit_b.png","68","70","test","","","","4","",""
"null","284333","pSARL_v2","pSARL_v2zveqbn7h","5a8d8079190420000156435d","fixation","img/fixation.png","null","","test","","","","","",""
"434.19999998807907","284770","pSARL_v2","pSARL_v2zveqbn7h","5a8d8079190420000156435d","freq","img/orange_2bandit_b2.png","70","70","test","1","73","73","4","",""
"null","285152","pSARL_v2","pSARL_v2zveqbn7h","5a8d8079190420000156435d","freq_resp","img/orange_2bandit_b.png","70","70","test","","","","4","",""
"null","285307","pSARL_v2","pSARL_v2zveqbn7h","5a8d8079190420000156435d","fixation","img/fixation.png","null","","test","","","","","",""
"271.5999999642372","285582","pSARL_v2","pSARL_v2zveqbn7h","5a8d8079190420000156435d","freq","img/orange_2bandit_b2.png","70","70","test","1","74","74","4","",""
"null","286125","pSARL_v2","pSARL_v2zveqbn7h","5a8d8079190420000156435d","freq_resp","img/orange_2bandit_b.png","70","70","test","","","","4","",""
"null","286280","pSARL_v2","pSARL_v2zveqbn7h","5a8d8079190420000156435d","fixation","img/fixation.png","null","","test","","","","","",""
"267.7999999523163","286552","pSARL_v2","pSARL_v2zveqbn7h","5a8d8079190420000156435d","freq","img/orange_2bandit_b2.png","70","70","test","1","75","75","4","",""
"null","287099","pSARL_v2","pSARL_v2zveqbn7h","5a8d8079190420000156435d","freq_resp","img/orange_2bandit_b.png","70","70","test","","","","4","",""
"null","287254","pSARL_v2","pSARL_v2zveqbn7h","5a8d8079190420000156435d","fixation","img/fixation.png","null","","test","","","","","",""
"321.69999998807907","287579","pSARL_v2","pSARL_v2zveqbn7h","5a8d8079190420000156435d","freq","img/orange_2bandit_b2.png","70","70","test","1","76","76","4","",""
"null","288072","pSARL_v2","pSARL_v2zveqbn7h","5a8d8079190420000156435d","freq_resp","img/orange_2bandit_b.png","70","70","test","","","","4","",""
"null","288227","pSARL_v2","pSARL_v2zveqbn7h","5a8d8079190420000156435d","fixation","img/fixation.png","null","","test","","","","","",""
"338.30000001192093","288569","pSARL_v2","pSARL_v2zveqbn7h","5a8d8079190420000156435d","freq","img/orange_2bandit_b2.png","70","70","test","1","77","77","4","",""
"null","289048","pSARL_v2","pSARL_v2zveqbn7h","5a8d8079190420000156435d","freq_resp","img/orange_2bandit_b.png","70","70","test","","","","4","",""
"null","289203","pSARL_v2","pSARL_v2zveqbn7h","5a8d8079190420000156435d","fixation","img/fixation.png","null","","test","","","","","",""
"292.5999999642372","289499","pSARL_v2","pSARL_v2zveqbn7h","5a8d8079190420000156435d","freq","img/orange_2bandit_b2.png","70","70","test","1","78","78","4","",""
"null","290021","pSARL_v2","pSARL_v2zveqbn7h","5a8d8079190420000156435d","freq_resp","img/orange_2bandit_b.png","70","70","test","","","","4","",""
"null","290177","pSARL_v2","pSARL_v2zveqbn7h","5a8d8079190420000156435d","fixation","img/fixation.png","null","","test","","","","","",""
"300.39999997615814","290481","pSARL_v2","pSARL_v2zveqbn7h","5a8d8079190420000156435d","freq","img/orange_2bandit_b2.png","70","70","test","1","79","79","4","",""
"null","290995","pSARL_v2","pSARL_v2zveqbn7h","5a8d8079190420000156435d","freq_resp","img/orange_2bandit_b.png","70","70","test","","","","4","",""
"null","291149","pSARL_v2","pSARL_v2zveqbn7h","5a8d8079190420000156435d","fixation","img/fixation.png","null","","test","","","","","",""
"311.89999997615814","291465","pSARL_v2","pSARL_v2zveqbn7h","5a8d8079190420000156435d","freq","img/orange_2bandit_b2.png","70","70","test","1","80","80","4","",""
"null","291969","pSARL_v2","pSARL_v2zveqbn7h","5a8d8079190420000156435d","freq_resp","img/orange_2bandit_b.png","70","70","test","","","","4","",""
"null","292138","pSARL_v2","pSARL_v2zveqbn7h","5a8d8079190420000156435d","fixation","img/fixation.png","null","","test","","","","","",""
"310.10000002384186","292452","pSARL_v2","pSARL_v2zveqbn7h","5a8d8079190420000156435d","freq","img/orange_2bandit_b2.png","70","70","test","1","81","81","4","",""
"null","292957","pSARL_v2","pSARL_v2zveqbn7h","5a8d8079190420000156435d","freq_resp","img/orange_2bandit_b.png","70","70","test","","","","4","",""
"null","293117","pSARL_v2","pSARL_v2zveqbn7h","5a8d8079190420000156435d","fixation","img/fixation.png","null","","test","","","","","",""
"314.30000001192093","293435","pSARL_v2","pSARL_v2zveqbn7h","5a8d8079190420000156435d","freq","img/orange_2bandit_b2.png","70","70","test","1","82","82","4","",""
"null","293932","pSARL_v2","pSARL_v2zveqbn7h","5a8d8079190420000156435d","freq_resp","img/orange_2bandit_b.png","70","70","test","","","","4","",""
"null","294087","pSARL_v2","pSARL_v2zveqbn7h","5a8d8079190420000156435d","fixation","img/fixation.png","null","","test","","","","","",""
"325.30000001192093","294415","pSARL_v2","pSARL_v2zveqbn7h","5a8d8079190420000156435d","freq","img/orange_2bandit_b2.png","70","70","test","1","83","83","4","",""
"null","294906","pSARL_v2","pSARL_v2zveqbn7h","5a8d8079190420000156435d","freq_resp","img/orange_2bandit_b.png","70","70","test","","","","4","",""
"null","295059","pSARL_v2","pSARL_v2zveqbn7h","5a8d8079190420000156435d","fixation","img/fixation.png","null","","test","","","","","",""
"330.5","295393","pSARL_v2","pSARL_v2zveqbn7h","5a8d8079190420000156435d","infreq","img/green_2bandit_b2.png","68","68","test","1","84","84","4","",""
"null","295878","pSARL_v2","pSARL_v2zveqbn7h","5a8d8079190420000156435d","infreq_resp","img/green_2bandit_b.png","68","68","test","","","","4","",""
"null","296032","pSARL_v2","pSARL_v2zveqbn7h","5a8d8079190420000156435d","fixation","img/fixation.png","null","","test","","","","","",""
"327.5999999642372","296363","pSARL_v2","pSARL_v2zveqbn7h","5a8d8079190420000156435d","freq","img/orange_2bandit_b2.png","70","70","test","1","85","85","4","",""
"null","296854","pSARL_v2","pSARL_v2zveqbn7h","5a8d8079190420000156435d","freq_resp","img/orange_2bandit_b.png","70","70","test","","","","4","",""
"null","297023","pSARL_v2","pSARL_v2zveqbn7h","5a8d8079190420000156435d","fixation","img/fixation.png","null","","test","","","","","",""
"405.69999998807907","297432","pSARL_v2","pSARL_v2zveqbn7h","5a8d8079190420000156435d","freq","img/orange_2bandit_b2.png","70","70","test","1","86","86","4","",""
"null","297840","pSARL_v2","pSARL_v2zveqbn7h","5a8d8079190420000156435d","freq_resp","img/orange_2bandit_b.png","70","70","test","","","","4","",""
"null","297995","pSARL_v2","pSARL_v2zveqbn7h","5a8d8079190420000156435d","fixation","img/fixation.png","null","","test","","","","","",""
"301.19999998807907","298300","pSARL_v2","pSARL_v2zveqbn7h","5a8d8079190420000156435d","freq","img/orange_2bandit_b2.png","70","70","test","1","87","87","4","",""
"null","298814","pSARL_v2","pSARL_v2zveqbn7h","5a8d8079190420000156435d","freq_resp","img/orange_2bandit_b.png","70","70","test","","","","4","",""
"null","298969","pSARL_v2","pSARL_v2zveqbn7h","5a8d8079190420000156435d","fixation","img/fixation.png","null","","test","","","","","",""
"271.7999999523163","299246","pSARL_v2","pSARL_v2zveqbn7h","5a8d8079190420000156435d","freq","img/orange_2bandit_b2.png","70","70","test","1","88","88","4","",""
"null","299787","pSARL_v2","pSARL_v2zveqbn7h","5a8d8079190420000156435d","freq_resp","img/orange_2bandit_b.png","70","70","test","","","","4","",""
"null","299941","pSARL_v2","pSARL_v2zveqbn7h","5a8d8079190420000156435d","fixation","img/fixation.png","null","","test","","","","","",""
"304.0999999642372","300248","pSARL_v2","pSARL_v2zveqbn7h","5a8d8079190420000156435d","freq","img/orange_2bandit_b2.png","70","70","test","1","89","89","4","",""
"null","300761","pSARL_v2","pSARL_v2zveqbn7h","5a8d8079190420000156435d","freq_resp","img/orange_2bandit_b.png","70","70","test","","","","4","",""
"null","300915","pSARL_v2","pSARL_v2zveqbn7h","5a8d8079190420000156435d","fixation","img/fixation.png","null","","test","","","","","",""
"544.1000000238419","301463","pSARL_v2","pSARL_v2zveqbn7h","5a8d8079190420000156435d","reward","img/slot.png","74","","test","","","","","",""
"null","302231","pSARL_v2","pSARL_v2zveqbn7h","5a8d8079190420000156435d","points","<div class=""verylowPoints""> -3 </div>","null","na","test","","","","4","-3","3"
"416.19999998807907","302651","pSARL_v2","pSARL_v2zveqbn7h","5a8d8079190420000156435d","freq","img/orange_2bandit_b2.png","70","70","test","1","90","90","5","",""
"null","303051","pSARL_v2","pSARL_v2zveqbn7h","5a8d8079190420000156435d","freq_resp","img/orange_2bandit_b.png","70","70","test","","","","5","",""
"null","303206","pSARL_v2","pSARL_v2zveqbn7h","5a8d8079190420000156435d","fixation","img/fixation.png","null","","test","","","","","",""
"281","303490","pSARL_v2","pSARL_v2zveqbn7h","5a8d8079190420000156435d","freq","img/orange_2bandit_b2.png","70","70","test","1","91","91","5","",""
"null","304024","pSARL_v2","pSARL_v2zveqbn7h","5a8d8079190420000156435d","freq_resp","img/orange_2bandit_b.png","70","70","test","","","","5","",""
"null","304179","pSARL_v2","pSARL_v2zveqbn7h","5a8d8079190420000156435d","fixation","img/fixation.png","null","","test","","","","","",""
"225.39999997615814","304408","pSARL_v2","pSARL_v2zveqbn7h","5a8d8079190420000156435d","freq","img/orange_2bandit_b2.png","70","70","test","1","92","92","5","",""
"null","304997","pSARL_v2","pSARL_v2zveqbn7h","5a8d8079190420000156435d","freq_resp","img/orange_2bandit_b.png","70","70","test","","","","5","",""
"null","305151","pSARL_v2","pSARL_v2zveqbn7h","5a8d8079190420000156435d","fixation","img/fixation.png","null","","test","","","","","",""
"176.19999998807907","305330","pSARL_v2","pSARL_v2zveqbn7h","5a8d8079190420000156435d","freq","img/orange_2bandit_b2.png","70","70","test","1","93","93","5","",""
"null","305971","pSARL_v2","pSARL_v2zveqbn7h","5a8d8079190420000156435d","freq_resp","img/orange_2bandit_b.png","70","70","test","","","","5","",""
"null","306125","pSARL_v2","pSARL_v2zveqbn7h","5a8d8079190420000156435d","fixation","img/fixation.png","null","","test","","","","","",""
"201.5999999642372","306330","pSARL_v2","pSARL_v2zveqbn7h","5a8d8079190420000156435d","freq","img/orange_2bandit_b2.png","70","70","test","1","94","94","5","",""
"null","306944","pSARL_v2","pSARL_v2zveqbn7h","5a8d8079190420000156435d","freq_resp","img/orange_2bandit_b.png","70","70","test","","","","5","",""
"null","307099","pSARL_v2","pSARL_v2zveqbn7h","5a8d8079190420000156435d","fixation","img/fixation.png","null","","test","","","","","",""
"449.30000001192093","307552","pSARL_v2","pSARL_v2zveqbn7h","5a8d8079190420000156435d","infreq","img/green_2bandit_b2.png","68","68","test","1","95","95","5","",""
"null","307919","pSARL_v2","pSARL_v2zveqbn7h","5a8d8079190420000156435d","infreq_resp","img/green_2bandit_b.png","68","68","test","","","","5","",""
"null","308073","pSARL_v2","pSARL_v2zveqbn7h","5a8d8079190420000156435d","fixation","img/fixation.png","null","","test","","","","","",""
"502.89999997615814","308579","pSARL_v2","pSARL_v2zveqbn7h","5a8d8079190420000156435d","freq","img/orange_2bandit_b2.png","70","70","test","1","96","96","5","",""
"null","308892","pSARL_v2","pSARL_v2zveqbn7h","5a8d8079190420000156435d","freq_resp","img/orange_2bandit_b.png","70","70","test","","","","5","",""
"null","309047","pSARL_v2","pSARL_v2zveqbn7h","5a8d8079190420000156435d","fixation","img/fixation.png","null","","test","","","","","",""
"329.7000000476837","309381","pSARL_v2","pSARL_v2zveqbn7h","5a8d8079190420000156435d","freq","img/orange_2bandit_b2.png","70","70","test","1","97","97","5","",""
"null","309866","pSARL_v2","pSARL_v2zveqbn7h","5a8d8079190420000156435d","freq_resp","img/orange_2bandit_b.png","70","70","test","","","","5","",""
"null","310021","pSARL_v2","pSARL_v2zveqbn7h","5a8d8079190420000156435d","fixation","img/fixation.png","null","","test","","","","","",""
"448","310473","pSARL_v2","pSARL_v2zveqbn7h","5a8d8079190420000156435d","freq","img/orange_2bandit_b2.png","70","70","test","1","98","98","5","",""
"null","310841","pSARL_v2","pSARL_v2zveqbn7h","5a8d8079190420000156435d","freq_resp","img/orange_2bandit_b.png","70","70","test","","","","5","",""
"null","311010","pSARL_v2","pSARL_v2zveqbn7h","5a8d8079190420000156435d","fixation","img/fixation.png","null","","test","","","","","",""
"351.69999998807907","311366","pSARL_v2","pSARL_v2zveqbn7h","5a8d8079190420000156435d","freq","img/orange_2bandit_b2.png","70","70","test","1","99","99","5","",""
"null","311831","pSARL_v2","pSARL_v2zveqbn7h","5a8d8079190420000156435d","freq_resp","img/orange_2bandit_b.png","70","70","test","","","","5","",""
"null","312000","pSARL_v2","pSARL_v2zveqbn7h","5a8d8079190420000156435d","fixation","img/fixation.png","null","","test","","","","","",""
"302.80000001192093","312306","pSARL_v2","pSARL_v2zveqbn7h","5a8d8079190420000156435d","freq","img/orange_2bandit_b2.png","70","70","test","1","100","100","5","",""
"null","312822","pSARL_v2","pSARL_v2zveqbn7h","5a8d8079190420000156435d","freq_resp","img/orange_2bandit_b.png","70","70","test","","","","5","",""
"null","312976","pSARL_v2","pSARL_v2zveqbn7h","5a8d8079190420000156435d","fixation","img/fixation.png","null","","test","","","","","",""
"264.69999998807907","313244","pSARL_v2","pSARL_v2zveqbn7h","5a8d8079190420000156435d","freq","img/orange_2bandit_b2.png","70","70","test","1","101","101","5","",""
"null","313796","pSARL_v2","pSARL_v2zveqbn7h","5a8d8079190420000156435d","freq_resp","img/orange_2bandit_b.png","70","70","test","","","","5","",""
"null","313950","pSARL_v2","pSARL_v2zveqbn7h","5a8d8079190420000156435d","fixation","img/fixation.png","null","","test","","","","","",""
"245.4000000357628","314199","pSARL_v2","pSARL_v2zveqbn7h","5a8d8079190420000156435d","freq","img/orange_2bandit_b2.png","70","70","test","1","102","102","5","",""
"null","314769","pSARL_v2","pSARL_v2zveqbn7h","5a8d8079190420000156435d","freq_resp","img/orange_2bandit_b.png","70","70","test","","","","5","",""
"null","314923","pSARL_v2","pSARL_v2zveqbn7h","5a8d8079190420000156435d","fixation","img/fixation.png","null","","test","","","","","",""
"336.4000000357628","315264","pSARL_v2","pSARL_v2zveqbn7h","5a8d8079190420000156435d","infreq","img/green_2bandit_b2.png","68","68","test","1","103","103","5","",""
"null","315742","pSARL_v2","pSARL_v2zveqbn7h","5a8d8079190420000156435d","infreq_resp","img/green_2bandit_b.png","68","68","test","","","","5","",""
"null","315897","pSARL_v2","pSARL_v2zveqbn7h","5a8d8079190420000156435d","fixation","img/fixation.png","null","","test","","","","","",""
"499.19999998807907","316399","pSARL_v2","pSARL_v2zveqbn7h","5a8d8079190420000156435d","freq","img/orange_2bandit_b2.png","70","70","test","1","104","104","5","",""
"null","316716","pSARL_v2","pSARL_v2zveqbn7h","5a8d8079190420000156435d","freq_resp","img/orange_2bandit_b.png","70","70","test","","","","5","",""
"null","316870","pSARL_v2","pSARL_v2zveqbn7h","5a8d8079190420000156435d","fixation","img/fixation.png","null","","test","","","","","",""
"305.39999997615814","317179","pSARL_v2","pSARL_v2zveqbn7h","5a8d8079190420000156435d","freq","img/orange_2bandit_b2.png","70","70","test","1","105","105","5","",""
"null","317690","pSARL_v2","pSARL_v2zveqbn7h","5a8d8079190420000156435d","freq_resp","img/orange_2bandit_b.png","70","70","test","","","","5","",""
"null","317845","pSARL_v2","pSARL_v2zveqbn7h","5a8d8079190420000156435d","fixation","img/fixation.png","null","","test","","","","","",""
"244.5","318093","pSARL_v2","pSARL_v2zveqbn7h","5a8d8079190420000156435d","freq","img/orange_2bandit_b2.png","70","70","test","1","106","106","5","",""
"null","318664","pSARL_v2","pSARL_v2zveqbn7h","5a8d8079190420000156435d","freq_resp","img/orange_2bandit_b.png","70","70","test","","","","5","",""
"null","318819","pSARL_v2","pSARL_v2zveqbn7h","5a8d8079190420000156435d","fixation","img/fixation.png","null","","test","","","","","",""
"105","318927","pSARL_v2","pSARL_v2zveqbn7h","5a8d8079190420000156435d","freq","img/orange_2bandit_b2.png","70","70","test","1","107","107","5","",""
"null","319637","pSARL_v2","pSARL_v2zveqbn7h","5a8d8079190420000156435d","freq_resp","img/orange_2bandit_b.png","70","70","test","","","","5","",""
"null","319808","pSARL_v2","pSARL_v2zveqbn7h","5a8d8079190420000156435d","fixation","img/fixation.png","null","","test","","","","","",""
"43.69999998807907","319855","pSARL_v2","pSARL_v2zveqbn7h","5a8d8079190420000156435d","freq","img/orange_2bandit_b2.png","70","70","test","1","108","108","5","",""
"null","320624","pSARL_v2","pSARL_v2zveqbn7h","5a8d8079190420000156435d","freq_resp","img/orange_2bandit_b.png","70","70","test","","","","5","",""
"null","320779","pSARL_v2","pSARL_v2zveqbn7h","5a8d8079190420000156435d","fixation","img/fixation.png","null","","test","","","","","",""
"241.0999999642372","321023","pSARL_v2","pSARL_v2zveqbn7h","5a8d8079190420000156435d","freq","img/orange_2bandit_b2.png","70","70","test","1","109","109","5","",""
"null","321598","pSARL_v2","pSARL_v2zveqbn7h","5a8d8079190420000156435d","freq_resp","img/orange_2bandit_b.png","70","70","test","","","","5","",""
"null","321752","pSARL_v2","pSARL_v2zveqbn7h","5a8d8079190420000156435d","fixation","img/fixation.png","null","","test","","","","","",""
"243.60000002384186","322000","pSARL_v2","pSARL_v2zveqbn7h","5a8d8079190420000156435d","freq","img/orange_2bandit_b2.png","70","70","test","1","110","110","5","",""
"null","322572","pSARL_v2","pSARL_v2zveqbn7h","5a8d8079190420000156435d","freq_resp","img/orange_2bandit_b.png","70","70","test","","","","5","",""
"null","322726","pSARL_v2","pSARL_v2zveqbn7h","5a8d8079190420000156435d","fixation","img/fixation.png","null","","test","","","","","",""
"292.80000001192093","323022","pSARL_v2","pSARL_v2zveqbn7h","5a8d8079190420000156435d","freq","img/orange_2bandit_b2.png","70","70","test","1","111","111","5","",""
"null","323545","pSARL_v2","pSARL_v2zveqbn7h","5a8d8079190420000156435d","freq_resp","img/orange_2bandit_b.png","70","70","test","","","","5","",""
"null","323699","pSARL_v2","pSARL_v2zveqbn7h","5a8d8079190420000156435d","fixation","img/fixation.png","null","","test","","","","","",""
"312.9000000357628","324015","pSARL_v2","pSARL_v2zveqbn7h","5a8d8079190420000156435d","freq","img/orange_2bandit_b2.png","70","70","test","1","112","112","5","",""
"null","324519","pSARL_v2","pSARL_v2zveqbn7h","5a8d8079190420000156435d","freq_resp","img/orange_2bandit_b.png","70","70","test","","","","5","",""
"null","324673","pSARL_v2","pSARL_v2zveqbn7h","5a8d8079190420000156435d","fixation","img/fixation.png","null","","test","","","","","",""
"374","325050","pSARL_v2","pSARL_v2zveqbn7h","5a8d8079190420000156435d","freq","img/orange_2bandit_b2.png","70","70","test","1","113","113","5","",""
"null","325493","pSARL_v2","pSARL_v2zveqbn7h","5a8d8079190420000156435d","freq_resp","img/orange_2bandit_b.png","70","70","test","","","","5","",""
"null","325647","pSARL_v2","pSARL_v2zveqbn7h","5a8d8079190420000156435d","fixation","img/fixation.png","null","","test","","","","","",""
"419","326070","pSARL_v2","pSARL_v2zveqbn7h","5a8d8079190420000156435d","freq","img/orange_2bandit_b2.png","70","70","test","1","114","114","5","",""
"null","326467","pSARL_v2","pSARL_v2zveqbn7h","5a8d8079190420000156435d","freq_resp","img/orange_2bandit_b.png","70","70","test","","","","5","",""
"null","326621","pSARL_v2","pSARL_v2zveqbn7h","5a8d8079190420000156435d","fixation","img/fixation.png","null","","test","","","","","",""
"654.8999999761581","327280","pSARL_v2","pSARL_v2zveqbn7h","5a8d8079190420000156435d","freq","img/orange_2bandit_b2.png","70","70","test","1","115","115","5","",""
"null","327441","pSARL_v2","pSARL_v2zveqbn7h","5a8d8079190420000156435d","freq_resp","img/orange_2bandit_b.png","70","70","test","","","","5","",""
"null","327596","pSARL_v2","pSARL_v2zveqbn7h","5a8d8079190420000156435d","fixation","img/fixation.png","null","","test","","","","","",""
"524.1000000238419","328125","pSARL_v2","pSARL_v2zveqbn7h","5a8d8079190420000156435d","reward","img/slot.png","74","","test","","","","","",""
"null","328879","pSARL_v2","pSARL_v2zveqbn7h","5a8d8079190420000156435d","points","<div class=""veryhighPoints""> +1 </div>","null","na","test","","","","5","1","4"
"484.5","329367","pSARL_v2","pSARL_v2zveqbn7h","5a8d8079190420000156435d","freq","img/orange_2bandit_b2.png","70","70","test","1","116","116","6","",""
"null","329698","pSARL_v2","pSARL_v2zveqbn7h","5a8d8079190420000156435d","freq_resp","img/orange_2bandit_b.png","70","70","test","","","","6","",""
"null","329852","pSARL_v2","pSARL_v2zveqbn7h","5a8d8079190420000156435d","fixation","img/fixation.png","null","","test","","","","","",""
"397.69999998807907","330253","pSARL_v2","pSARL_v2zveqbn7h","5a8d8079190420000156435d","freq","img/orange_2bandit_b2.png","70","70","test","1","117","117","6","",""
"null","330671","pSARL_v2","pSARL_v2zveqbn7h","5a8d8079190420000156435d","freq_resp","img/orange_2bandit_b.png","70","70","test","","","","6","",""
"null","330827","pSARL_v2","pSARL_v2zveqbn7h","5a8d8079190420000156435d","fixation","img/fixation.png","null","","test","","","","","",""
"559.1999999880791","331389","pSARL_v2","pSARL_v2zveqbn7h","5a8d8079190420000156435d","infreq","img/green_2bandit_b2.png","68","68","test","1","118","118","6","",""
"null","331646","pSARL_v2","pSARL_v2zveqbn7h","5a8d8079190420000156435d","infreq_resp","img/green_2bandit_b.png","68","68","test","","","","6","",""
"null","331815","pSARL_v2","pSARL_v2zveqbn7h","5a8d8079190420000156435d","fixation","img/fixation.png","null","","test","","","","","",""
"446","332264","pSARL_v2","pSARL_v2zveqbn7h","5a8d8079190420000156435d","freq","img/orange_2bandit_b2.png","70","70","test","1","119","119","6","",""
"null","332634","pSARL_v2","pSARL_v2zveqbn7h","5a8d8079190420000156435d","freq_resp","img/orange_2bandit_b.png","70","70","test","","","","6","",""
"null","332788","pSARL_v2","pSARL_v2zveqbn7h","5a8d8079190420000156435d","fixation","img/fixation.png","null","","test","","","","","",""
"442.19999998807907","333234","pSARL_v2","pSARL_v2zveqbn7h","5a8d8079190420000156435d","freq","img/orange_2bandit_b2.png","70","70","test","1","120","120","6","",""
"null","333605","pSARL_v2","pSARL_v2zveqbn7h","5a8d8079190420000156435d","freq_resp","img/orange_2bandit_b.png","70","70","test","","","","6","",""
"null","333760","pSARL_v2","pSARL_v2zveqbn7h","5a8d8079190420000156435d","fixation","img/fixation.png","null","","test","","","","","",""
"425.0999999642372","334188","pSARL_v2","pSARL_v2zveqbn7h","5a8d8079190420000156435d","freq","img/orange_2bandit_b2.png","70","70","test","1","121","121","6","",""
"null","334580","pSARL_v2","pSARL_v2zveqbn7h","5a8d8079190420000156435d","freq_resp","img/orange_2bandit_b.png","70","70","test","","","","6","",""
"null","334734","pSARL_v2","pSARL_v2zveqbn7h","5a8d8079190420000156435d","fixation","img/fixation.png","null","","test","","","","","",""
"325.10000002384186","335063","pSARL_v2","pSARL_v2zveqbn7h","5a8d8079190420000156435d","freq","img/orange_2bandit_b2.png","70","70","test","1","122","122","6","",""
"null","335554","pSARL_v2","pSARL_v2zveqbn7h","5a8d8079190420000156435d","freq_resp","img/orange_2bandit_b.png","70","70","test","","","","6","",""
"null","335709","pSARL_v2","pSARL_v2zveqbn7h","5a8d8079190420000156435d","fixation","img/fixation.png","null","","test","","","","","",""
"325.19999998807907","336038","pSARL_v2","pSARL_v2zveqbn7h","5a8d8079190420000156435d","freq","img/orange_2bandit_b2.png","70","70","test","1","123","123","6","",""
"null","336527","pSARL_v2","pSARL_v2zveqbn7h","5a8d8079190420000156435d","freq_resp","img/orange_2bandit_b.png","70","70","test","","","","6","",""
"null","336682","pSARL_v2","pSARL_v2zveqbn7h","5a8d8079190420000156435d","fixation","img/fixation.png","null","","test","","","","","",""
"414.89999997615814","337100","pSARL_v2","pSARL_v2zveqbn7h","5a8d8079190420000156435d","infreq","img/green_2bandit_b2.png","68","68","test","1","124","124","6","",""
"null","337502","pSARL_v2","pSARL_v2zveqbn7h","5a8d8079190420000156435d","infreq_resp","img/green_2bandit_b.png","68","68","test","","","","6","",""
"null","337657","pSARL_v2","pSARL_v2zveqbn7h","5a8d8079190420000156435d","fixation","img/fixation.png","null","","test","","","","","",""
"369.19999998807907","338030","pSARL_v2","pSARL_v2zveqbn7h","5a8d8079190420000156435d","freq","img/orange_2bandit_b2.png","70","70","test","1","125","125","6","",""
"null","338475","pSARL_v2","pSARL_v2zveqbn7h","5a8d8079190420000156435d","freq_resp","img/orange_2bandit_b.png","70","70","test","","","","6","",""
"null","338631","pSARL_v2","pSARL_v2zveqbn7h","5a8d8079190420000156435d","fixation","img/fixation.png","null","","test","","","","","",""
"319","338953","pSARL_v2","pSARL_v2zveqbn7h","5a8d8079190420000156435d","freq","img/orange_2bandit_b2.png","70","70","test","1","126","126","6","",""
"null","339448","pSARL_v2","pSARL_v2zveqbn7h","5a8d8079190420000156435d","freq_resp","img/orange_2bandit_b.png","70","70","test","","","","6","",""
"null","339602","pSARL_v2","pSARL_v2zveqbn7h","5a8d8079190420000156435d","fixation","img/fixation.png","null","","test","","","","","",""
"297.89999997615814","339903","pSARL_v2","pSARL_v2zveqbn7h","5a8d8079190420000156435d","freq","img/orange_2bandit_b2.png","70","70","test","1","127","127","6","",""
"null","340420","pSARL_v2","pSARL_v2zveqbn7h","5a8d8079190420000156435d","freq_resp","img/orange_2bandit_b.png","70","70","test","","","","6","",""
"null","340575","pSARL_v2","pSARL_v2zveqbn7h","5a8d8079190420000156435d","fixation","img/fixation.png","null","","test","","","","","",""
"260.5","340838","pSARL_v2","pSARL_v2zveqbn7h","5a8d8079190420000156435d","freq","img/orange_2bandit_b2.png","70","70","test","1","128","128","6","",""
"null","341394","pSARL_v2","pSARL_v2zveqbn7h","5a8d8079190420000156435d","freq_resp","img/orange_2bandit_b.png","70","70","test","","","","6","",""
"null","341548","pSARL_v2","pSARL_v2zveqbn7h","5a8d8079190420000156435d","fixation","img/fixation.png","null","","test","","","","","",""
"239.29999995231628","341791","pSARL_v2","pSARL_v2zveqbn7h","5a8d8079190420000156435d","freq","img/orange_2bandit_b2.png","70","70","test","1","129","129","6","",""
"null","342368","pSARL_v2","pSARL_v2zveqbn7h","5a8d8079190420000156435d","freq_resp","img/orange_2bandit_b.png","70","70","test","","","","6","",""
"null","342522","pSARL_v2","pSARL_v2zveqbn7h","5a8d8079190420000156435d","fixation","img/fixation.png","null","","test","","","","","",""
"219.19999998807907","342745","pSARL_v2","pSARL_v2zveqbn7h","5a8d8079190420000156435d","freq","img/orange_2bandit_b2.png","70","70","test","1","130","130","6","",""
"null","343344","pSARL_v2","pSARL_v2zveqbn7h","5a8d8079190420000156435d","freq_resp","img/orange_2bandit_b.png","70","70","test","","","","6","",""
"null","343513","pSARL_v2","pSARL_v2zveqbn7h","5a8d8079190420000156435d","fixation","img/fixation.png","null","","test","","","","","",""
"255.9000000357628","343772","pSARL_v2","pSARL_v2zveqbn7h","5a8d8079190420000156435d","freq","img/orange_2bandit_b2.png","70","70","test","1","131","131","6","",""
"null","344332","pSARL_v2","pSARL_v2zveqbn7h","5a8d8079190420000156435d","freq_resp","img/orange_2bandit_b.png","70","70","test","","","","6","",""
"null","344487","pSARL_v2","pSARL_v2zveqbn7h","5a8d8079190420000156435d","fixation","img/fixation.png","null","","test","","","","","",""
"402.60000002384186","344893","pSARL_v2","pSARL_v2zveqbn7h","5a8d8079190420000156435d","freq","img/orange_2bandit_b2.png","70","70","test","1","132","132","6","",""
"null","345306","pSARL_v2","pSARL_v2zveqbn7h","5a8d8079190420000156435d","freq_resp","img/orange_2bandit_b.png","70","70","test","","","","6","",""
"null","345462","pSARL_v2","pSARL_v2zveqbn7h","5a8d8079190420000156435d","fixation","img/fixation.png","null","","test","","","","","",""
"287.89999997615814","345754","pSARL_v2","pSARL_v2zveqbn7h","5a8d8079190420000156435d","freq","img/orange_2bandit_b2.png","70","70","test","1","133","133","6","",""
"null","346281","pSARL_v2","pSARL_v2zveqbn7h","5a8d8079190420000156435d","freq_resp","img/orange_2bandit_b.png","70","70","test","","","","6","",""
"null","346435","pSARL_v2","pSARL_v2zveqbn7h","5a8d8079190420000156435d","fixation","img/fixation.png","null","","test","","","","","",""
"287.69999998807907","346727","pSARL_v2","pSARL_v2zveqbn7h","5a8d8079190420000156435d","freq","img/orange_2bandit_b2.png","70","70","test","1","134","134","6","",""
"null","347255","pSARL_v2","pSARL_v2zveqbn7h","5a8d8079190420000156435d","freq_resp","img/orange_2bandit_b.png","70","70","test","","","","6","",""
"null","347411","pSARL_v2","pSARL_v2zveqbn7h","5a8d8079190420000156435d","fixation","img/fixation.png","null","","test","","","","","",""
"304.69999998807907","347719","pSARL_v2","pSARL_v2zveqbn7h","5a8d8079190420000156435d","freq","img/orange_2bandit_b2.png","70","70","test","1","135","135","6","",""
"null","348229","pSARL_v2","pSARL_v2zveqbn7h","5a8d8079190420000156435d","freq_resp","img/orange_2bandit_b.png","70","70","test","","","","6","",""
"null","348385","pSARL_v2","pSARL_v2zveqbn7h","5a8d8079190420000156435d","fixation","img/fixation.png","null","","test","","","","","",""
"329.5","348718","pSARL_v2","pSARL_v2zveqbn7h","5a8d8079190420000156435d","freq","img/orange_2bandit_b2.png","70","70","test","1","136","136","6","",""
"null","349203","pSARL_v2","pSARL_v2zveqbn7h","5a8d8079190420000156435d","freq_resp","img/orange_2bandit_b.png","70","70","test","","","","6","",""
"null","349357","pSARL_v2","pSARL_v2zveqbn7h","5a8d8079190420000156435d","fixation","img/fixation.png","null","","test","","","","","",""
"321.5","349682","pSARL_v2","pSARL_v2zveqbn7h","5a8d8079190420000156435d","freq","img/orange_2bandit_b2.png","70","70","test","1","137","137","6","",""
"null","350176","pSARL_v2","pSARL_v2zveqbn7h","5a8d8079190420000156435d","freq_resp","img/orange_2bandit_b.png","70","70","test","","","","6","",""
"null","350331","pSARL_v2","pSARL_v2zveqbn7h","5a8d8079190420000156435d","fixation","img/fixation.png","null","","test","","","","","",""
"309.0999999642372","350643","pSARL_v2","pSARL_v2zveqbn7h","5a8d8079190420000156435d","freq","img/orange_2bandit_b2.png","70","70","test","1","138","138","6","",""
"null","351152","pSARL_v2","pSARL_v2zveqbn7h","5a8d8079190420000156435d","freq_resp","img/orange_2bandit_b.png","70","70","test","","","","6","",""
"null","351307","pSARL_v2","pSARL_v2zveqbn7h","5a8d8079190420000156435d","fixation","img/fixation.png","null","","test","","","","","",""
"280.39999997615814","351591","pSARL_v2","pSARL_v2zveqbn7h","5a8d8079190420000156435d","freq","img/orange_2bandit_b2.png","70","70","test","1","139","139","6","",""
"null","352128","pSARL_v2","pSARL_v2zveqbn7h","5a8d8079190420000156435d","freq_resp","img/orange_2bandit_b.png","70","70","test","","","","6","",""
"null","352282","pSARL_v2","pSARL_v2zveqbn7h","5a8d8079190420000156435d","fixation","img/fixation.png","null","","test","","","","","",""
"498.80000001192093","352783","pSARL_v2","pSARL_v2zveqbn7h","5a8d8079190420000156435d","reward","img/slot.png","74","","test","","","","","",""
"null","353549","pSARL_v2","pSARL_v2zveqbn7h","5a8d8079190420000156435d","points","<div class=""verylowPoints""> -7 </div>","null","na","test","","","","6","-7","5"
"388.80000001192093","353941","pSARL_v2","pSARL_v2zveqbn7h","5a8d8079190420000156435d","freq","img/orange_2bandit_b2.png","70","70","test","1","140","140","7","",""
"null","354367","pSARL_v2","pSARL_v2zveqbn7h","5a8d8079190420000156435d","freq_resp","img/orange_2bandit_b.png","70","70","test","","","","7","",""
"null","354521","pSARL_v2","pSARL_v2zveqbn7h","5a8d8079190420000156435d","fixation","img/fixation.png","null","","test","","","","","",""
"497.69999998807907","355022","pSARL_v2","pSARL_v2zveqbn7h","5a8d8079190420000156435d","freq","img/orange_2bandit_b2.png","70","70","test","1","141","141","7","",""
"null","355341","pSARL_v2","pSARL_v2zveqbn7h","5a8d8079190420000156435d","freq_resp","img/orange_2bandit_b.png","70","70","test","","","","7","",""
"null","355495","pSARL_v2","pSARL_v2zveqbn7h","5a8d8079190420000156435d","fixation","img/fixation.png","null","","test","","","","","",""
"422.60000002384186","355921","pSARL_v2","pSARL_v2zveqbn7h","5a8d8079190420000156435d","freq","img/orange_2bandit_b2.png","70","70","test","1","142","142","7","",""
"null","356314","pSARL_v2","pSARL_v2zveqbn7h","5a8d8079190420000156435d","freq_resp","img/orange_2bandit_b.png","70","70","test","","","","7","",""
"null","356469","pSARL_v2","pSARL_v2zveqbn7h","5a8d8079190420000156435d","fixation","img/fixation.png","null","","test","","","","","",""
"461.5","356934","pSARL_v2","pSARL_v2zveqbn7h","5a8d8079190420000156435d","infreq","img/green_2bandit_b2.png","68","68","test","1","143","143","7","",""
"null","357287","pSARL_v2","pSARL_v2zveqbn7h","5a8d8079190420000156435d","infreq_resp","img/green_2bandit_b.png","68","68","test","","","","7","",""
"null","357441","pSARL_v2","pSARL_v2zveqbn7h","5a8d8079190420000156435d","fixation","img/fixation.png","null","","test","","","","","",""
"403.19999998807907","357847","pSARL_v2","pSARL_v2zveqbn7h","5a8d8079190420000156435d","freq","img/orange_2bandit_b2.png","70","70","test","1","144","144","7","",""
"null","358260","pSARL_v2","pSARL_v2zveqbn7h","5a8d8079190420000156435d","freq_resp","img/orange_2bandit_b.png","70","70","test","","","","7","",""
"null","358416","pSARL_v2","pSARL_v2zveqbn7h","5a8d8079190420000156435d","fixation","img/fixation.png","null","","test","","","","","",""
"324.60000002384186","358744","pSARL_v2","pSARL_v2zveqbn7h","5a8d8079190420000156435d","freq","img/orange_2bandit_b2.png","70","70","test","1","145","145","7","",""
"null","359234","pSARL_v2","pSARL_v2zveqbn7h","5a8d8079190420000156435d","freq_resp","img/orange_2bandit_b.png","70","70","test","","","","7","",""
"null","359392","pSARL_v2","pSARL_v2zveqbn7h","5a8d8079190420000156435d","fixation","img/fixation.png","null","","test","","","","","",""
"270.19999998807907","359666","pSARL_v2","pSARL_v2zveqbn7h","5a8d8079190420000156435d","freq","img/orange_2bandit_b2.png","70","70","test","1","146","146","7","",""
"null","360208","pSARL_v2","pSARL_v2zveqbn7h","5a8d8079190420000156435d","freq_resp","img/orange_2bandit_b.png","70","70","test","","","","7","",""
"null","360363","pSARL_v2","pSARL_v2zveqbn7h","5a8d8079190420000156435d","fixation","img/fixation.png","null","","test","","","","","",""
"403.5","360770","pSARL_v2","pSARL_v2zveqbn7h","5a8d8079190420000156435d","infreq","img/green_2bandit_b2.png","68","68","test","1","147","147","7","",""
"null","361182","pSARL_v2","pSARL_v2zveqbn7h","5a8d8079190420000156435d","infreq_resp","img/green_2bandit_b.png","68","68","test","","","","7","",""
"null","361337","pSARL_v2","pSARL_v2zveqbn7h","5a8d8079190420000156435d","fixation","img/fixation.png","null","","test","","","","","",""
"301.89999997615814","361642","pSARL_v2","pSARL_v2zveqbn7h","5a8d8079190420000156435d","freq","img/orange_2bandit_b2.png","70","70","test","1","148","148","7","",""
"null","362158","pSARL_v2","pSARL_v2zveqbn7h","5a8d8079190420000156435d","freq_resp","img/orange_2bandit_b.png","70","70","test","","","","7","",""
"null","362313","pSARL_v2","pSARL_v2zveqbn7h","5a8d8079190420000156435d","fixation","img/fixation.png","null","","test","","","","","",""
"206.19999998807907","362523","pSARL_v2","pSARL_v2zveqbn7h","5a8d8079190420000156435d","freq","img/orange_2bandit_b2.png","70","70","test","1","149","149","7","",""
"null","363133","pSARL_v2","pSARL_v2zveqbn7h","5a8d8079190420000156435d","freq_resp","img/orange_2bandit_b.png","70","70","test","","","","7","",""
"null","363301","pSARL_v2","pSARL_v2zveqbn7h","5a8d8079190420000156435d","fixation","img/fixation.png","null","","test","","","","","",""
"184.89999997615814","363489","pSARL_v2","pSARL_v2zveqbn7h","5a8d8079190420000156435d","freq","img/orange_2bandit_b2.png","70","70","test","1","150","150","7","",""
"null","364121","pSARL_v2","pSARL_v2zveqbn7h","5a8d8079190420000156435d","freq_resp","img/orange_2bandit_b.png","70","70","test","","","","7","",""
"null","364275","pSARL_v2","pSARL_v2zveqbn7h","5a8d8079190420000156435d","fixation","img/fixation.png","null","","test","","","","","",""
"305.30000001192093","364584","pSARL_v2","pSARL_v2zveqbn7h","5a8d8079190420000156435d","freq","img/orange_2bandit_b2.png","70","70","test","1","151","151","7","",""
"null","365093","pSARL_v2","pSARL_v2zveqbn7h","5a8d8079190420000156435d","freq_resp","img/orange_2bandit_b.png","70","70","test","","","","7","",""
"null","365248","pSARL_v2","pSARL_v2zveqbn7h","5a8d8079190420000156435d","fixation","img/fixation.png","null","","test","","","","","",""
"245.80000001192093","365497","pSARL_v2","pSARL_v2zveqbn7h","5a8d8079190420000156435d","freq","img/orange_2bandit_b2.png","70","70","test","1","152","152","7","",""
"null","366067","pSARL_v2","pSARL_v2zveqbn7h","5a8d8079190420000156435d","freq_resp","img/orange_2bandit_b.png","70","70","test","","","","7","",""
"null","366222","pSARL_v2","pSARL_v2zveqbn7h","5a8d8079190420000156435d","fixation","img/fixation.png","null","","test","","","","","",""
"253.0999999642372","366479","pSARL_v2","pSARL_v2zveqbn7h","5a8d8079190420000156435d","freq","img/orange_2bandit_b2.png","70","70","test","1","153","153","7","",""
"null","367042","pSARL_v2","pSARL_v2zveqbn7h","5a8d8079190420000156435d","freq_resp","img/orange_2bandit_b.png","70","70","test","","","","7","",""
"null","367212","pSARL_v2","pSARL_v2zveqbn7h","5a8d8079190420000156435d","fixation","img/fixation.png","null","","test","","","","","",""
"231.39999997615814","367446","pSARL_v2","pSARL_v2zveqbn7h","5a8d8079190420000156435d","freq","img/orange_2bandit_b2.png","70","70","test","1","154","154","7","",""
"null","368029","pSARL_v2","pSARL_v2zveqbn7h","5a8d8079190420000156435d","freq_resp","img/orange_2bandit_b.png","70","70","test","","","","7","",""
"null","368184","pSARL_v2","pSARL_v2zveqbn7h","5a8d8079190420000156435d","fixation","img/fixation.png","null","","test","","","","","",""
"217.39999997615814","368404","pSARL_v2","pSARL_v2zveqbn7h","5a8d8079190420000156435d","freq","img/orange_2bandit_b2.png","70","70","test","1","155","155","7","",""
"null","369000","pSARL_v2","pSARL_v2zveqbn7h","5a8d8079190420000156435d","freq_resp","img/orange_2bandit_b.png","70","70","test","","","","7","",""
"null","369154","pSARL_v2","pSARL_v2zveqbn7h","5a8d8079190420000156435d","fixation","img/fixation.png","null","","test","","","","","",""
"238.4000000357628","369396","pSARL_v2","pSARL_v2zveqbn7h","5a8d8079190420000156435d","freq","img/orange_2bandit_b2.png","70","70","test","1","156","156","7","",""
"null","369974","pSARL_v2","pSARL_v2zveqbn7h","5a8d8079190420000156435d","freq_resp","img/orange_2bandit_b.png","70","70","test","","","","7","",""
"null","370143","pSARL_v2","pSARL_v2zveqbn7h","5a8d8079190420000156435d","fixation","img/fixation.png","null","","test","","","","","",""
"212.9000000357628","370359","pSARL_v2","pSARL_v2zveqbn7h","5a8d8079190420000156435d","freq","img/orange_2bandit_b2.png","70","70","test","1","157","157","7","",""
"null","370961","pSARL_v2","pSARL_v2zveqbn7h","5a8d8079190420000156435d","freq_resp","img/orange_2bandit_b.png","70","70","test","","","","7","",""
"null","371116","pSARL_v2","pSARL_v2zveqbn7h","5a8d8079190420000156435d","fixation","img/fixation.png","null","","test","","","","","",""
"428.5","371548","pSARL_v2","pSARL_v2zveqbn7h","5a8d8079190420000156435d","infreq","img/green_2bandit_b2.png","68","68","test","1","158","158","7","",""
"null","371934","pSARL_v2","pSARL_v2zveqbn7h","5a8d8079190420000156435d","infreq_resp","img/green_2bandit_b.png","68","68","test","","","","7","",""
"null","372103","pSARL_v2","pSARL_v2zveqbn7h","5a8d8079190420000156435d","fixation","img/fixation.png","null","","test","","","","","",""
"302.10000002384186","372408","pSARL_v2","pSARL_v2zveqbn7h","5a8d8079190420000156435d","freq","img/orange_2bandit_b2.png","70","70","test","1","159","159","7","",""
"null","372921","pSARL_v2","pSARL_v2zveqbn7h","5a8d8079190420000156435d","freq_resp","img/orange_2bandit_b.png","70","70","test","","","","7","",""
"null","373076","pSARL_v2","pSARL_v2zveqbn7h","5a8d8079190420000156435d","fixation","img/fixation.png","null","","test","","","","","",""
"236.80000001192093","373316","pSARL_v2","pSARL_v2zveqbn7h","5a8d8079190420000156435d","freq","img/orange_2bandit_b2.png","70","70","test","1","160","160","7","",""
"null","373896","pSARL_v2","pSARL_v2zveqbn7h","5a8d8079190420000156435d","freq_resp","img/orange_2bandit_b.png","70","70","test","","","","7","",""
"null","374065","pSARL_v2","pSARL_v2zveqbn7h","5a8d8079190420000156435d","fixation","img/fixation.png","null","","test","","","","","",""
"175.5","374243","pSARL_v2","pSARL_v2zveqbn7h","5a8d8079190420000156435d","freq","img/orange_2bandit_b2.png","70","70","test","1","161","161","7","",""
"null","374885","pSARL_v2","pSARL_v2zveqbn7h","5a8d8079190420000156435d","freq_resp","img/orange_2bandit_b.png","70","70","test","","","","7","",""
"null","375040","pSARL_v2","pSARL_v2zveqbn7h","5a8d8079190420000156435d","fixation","img/fixation.png","null","","test","","","","","",""
"69.30000001192093","375112","pSARL_v2","pSARL_v2zveqbn7h","5a8d8079190420000156435d","freq","img/orange_2bandit_b2.png","70","70","test","1","162","162","7","",""
"null","375857","pSARL_v2","pSARL_v2zveqbn7h","5a8d8079190420000156435d","freq_resp","img/orange_2bandit_b.png","70","70","test","","","","7","",""
"null","376012","pSARL_v2","pSARL_v2zveqbn7h","5a8d8079190420000156435d","fixation","img/fixation.png","null","","test","","","","","",""
"594.8999999761581","376610","pSARL_v2","pSARL_v2zveqbn7h","5a8d8079190420000156435d","reward","img/slot.png","74","","test","","","","","",""
"null","377373","pSARL_v2","pSARL_v2zveqbn7h","5a8d8079190420000156435d","points","<div class=""verylowPoints""> -6 </div>","null","na","test","","","","7","-6","6"
"529.6999999880791","377906","pSARL_v2","pSARL_v2zveqbn7h","5a8d8079190420000156435d","freq","img/orange_2bandit_b2.png","70","70","test","1","163","163","8","",""
"null","378190","pSARL_v2","pSARL_v2zveqbn7h","5a8d8079190420000156435d","freq_resp","img/orange_2bandit_b.png","70","70","test","","","","8","",""
"null","378345","pSARL_v2","pSARL_v2zveqbn7h","5a8d8079190420000156435d","fixation","img/fixation.png","null","","test","","","","","",""
"672.8999999761581","379022","pSARL_v2","pSARL_v2zveqbn7h","5a8d8079190420000156435d","freq","img/orange_2bandit_b2.png","70","70","test","1","164","164","8","",""
"null","379163","pSARL_v2","pSARL_v2zveqbn7h","5a8d8079190420000156435d","freq_resp","img/orange_2bandit_b.png","70","70","test","","","","8","",""
"null","379317","pSARL_v2","pSARL_v2zveqbn7h","5a8d8079190420000156435d","fixation","img/fixation.png","null","","test","","","","","",""
"570.6999999880791","379891","pSARL_v2","pSARL_v2zveqbn7h","5a8d8079190420000156435d","freq","img/orange_2bandit_b2.png","70","70","test","1","165","165","8","",""
"null","380135","pSARL_v2","pSARL_v2zveqbn7h","5a8d8079190420000156435d","freq_resp","img/orange_2bandit_b.png","70","70","test","","","","8","",""
"null","380290","pSARL_v2","pSARL_v2zveqbn7h","5a8d8079190420000156435d","fixation","img/fixation.png","null","","test","","","","","",""
"367.5","380661","pSARL_v2","pSARL_v2zveqbn7h","5a8d8079190420000156435d","freq","img/orange_2bandit_b2.png","70","70","test","1","166","166","8","",""
"null","381111","pSARL_v2","pSARL_v2zveqbn7h","5a8d8079190420000156435d","freq_resp","img/orange_2bandit_b.png","70","70","test","","","","8","",""
"null","381278","pSARL_v2","pSARL_v2zveqbn7h","5a8d8079190420000156435d","fixation","img/fixation.png","null","","test","","","","","",""
"317.2000000476837","381598","pSARL_v2","pSARL_v2zveqbn7h","5a8d8079190420000156435d","freq","img/orange_2bandit_b2.png","70","70","test","1","167","167","8","",""
"null","382094","pSARL_v2","pSARL_v2zveqbn7h","5a8d8079190420000156435d","freq_resp","img/orange_2bandit_b.png","70","70","test","","","","8","",""
"null","382250","pSARL_v2","pSARL_v2zveqbn7h","5a8d8079190420000156435d","fixation","img/fixation.png","null","","test","","","","","",""
"346.19999998807907","382600","pSARL_v2","pSARL_v2zveqbn7h","5a8d8079190420000156435d","freq","img/orange_2bandit_b2.png","70","70","test","1","168","168","8","",""
"null","383069","pSARL_v2","pSARL_v2zveqbn7h","5a8d8079190420000156435d","freq_resp","img/orange_2bandit_b.png","70","70","test","","","","8","",""
"null","383224","pSARL_v2","pSARL_v2zveqbn7h","5a8d8079190420000156435d","fixation","img/fixation.png","null","","test","","","","","",""
"318.2999999523163","383546","pSARL_v2","pSARL_v2zveqbn7h","5a8d8079190420000156435d","freq","img/orange_2bandit_b2.png","70","70","test","1","169","169","8","",""
"null","384041","pSARL_v2","pSARL_v2zveqbn7h","5a8d8079190420000156435d","freq_resp","img/orange_2bandit_b.png","70","70","test","","","","8","",""
"null","384196","pSARL_v2","pSARL_v2zveqbn7h","5a8d8079190420000156435d","fixation","img/fixation.png","null","","test","","","","","",""
"328","384528","pSARL_v2","pSARL_v2zveqbn7h","5a8d8079190420000156435d","freq","img/orange_2bandit_b2.png","70","70","test","1","170","170","8","",""
"null","385017","pSARL_v2","pSARL_v2zveqbn7h","5a8d8079190420000156435d","freq_resp","img/orange_2bandit_b.png","70","70","test","","","","8","",""
"null","385186","pSARL_v2","pSARL_v2zveqbn7h","5a8d8079190420000156435d","fixation","img/fixation.png","null","","test","","","","","",""
"261.10000002384186","385450","pSARL_v2","pSARL_v2zveqbn7h","5a8d8079190420000156435d","freq","img/orange_2bandit_b2.png","70","70","test","1","171","171","8","",""
"null","386003","pSARL_v2","pSARL_v2zveqbn7h","5a8d8079190420000156435d","freq_resp","img/orange_2bandit_b.png","70","70","test","","","","8","",""
"null","386157","pSARL_v2","pSARL_v2zveqbn7h","5a8d8079190420000156435d","fixation","img/fixation.png","null","","test","","","","","",""
"261.69999998807907","386421","pSARL_v2","pSARL_v2zveqbn7h","5a8d8079190420000156435d","freq","img/orange_2bandit_b2.png","70","70","test","1","172","172","8","",""
"null","386975","pSARL_v2","pSARL_v2zveqbn7h","5a8d8079190420000156435d","freq_resp","img/orange_2bandit_b.png","70","70","test","","","","8","",""
"null","387131","pSARL_v2","pSARL_v2zveqbn7h","5a8d8079190420000156435d","fixation","img/fixation.png","null","","test","","","","","",""
"799.2000000476837","387934","pSARL_v2","pSARL_v2zveqbn7h","5a8d8079190420000156435d","infreq","img/green_2bandit_b2.png","68","68","test","1","173","173","8","",""
"null","387938","pSARL_v2","pSARL_v2zveqbn7h","5a8d8079190420000156435d","infreq_resp","img/green_2bandit_b.png","68","68","test","","","","8","",""
"null","388094","pSARL_v2","pSARL_v2zveqbn7h","5a8d8079190420000156435d","fixation","img/fixation.png","null","","test","","","","","",""
"602.1999999880791","388699","pSARL_v2","pSARL_v2zveqbn7h","5a8d8079190420000156435d","freq","img/orange_2bandit_b2.png","70","70","test","1","174","174","8","",""
"null","388906","pSARL_v2","pSARL_v2zveqbn7h","5a8d8079190420000156435d","freq_resp","img/orange_2bandit_b.png","70","70","test","","","","8","",""
"null","389061","pSARL_v2","pSARL_v2zveqbn7h","5a8d8079190420000156435d","fixation","img/fixation.png","null","","test","","","","","",""
"427","389491","pSARL_v2","pSARL_v2zveqbn7h","5a8d8079190420000156435d","freq","img/orange_2bandit_b2.png","70","70","test","1","175","175","8","",""
"null","389880","pSARL_v2","pSARL_v2zveqbn7h","5a8d8079190420000156435d","freq_resp","img/orange_2bandit_b.png","70","70","test","","","","8","",""
"null","390035","pSARL_v2","pSARL_v2zveqbn7h","5a8d8079190420000156435d","fixation","img/fixation.png","null","","test","","","","","",""
"312.19999998807907","390350","pSARL_v2","pSARL_v2zveqbn7h","5a8d8079190420000156435d","freq","img/orange_2bandit_b2.png","70","70","test","1","176","176","8","",""
"null","390854","pSARL_v2","pSARL_v2zveqbn7h","5a8d8079190420000156435d","freq_resp","img/orange_2bandit_b.png","70","70","test","","","","8","",""
"null","391009","pSARL_v2","pSARL_v2zveqbn7h","5a8d8079190420000156435d","fixation","img/fixation.png","null","","test","","","","","",""
"244.80000001192093","391256","pSARL_v2","pSARL_v2zveqbn7h","5a8d8079190420000156435d","freq","img/orange_2bandit_b2.png","70","70","test","1","177","177","8","",""
"null","391829","pSARL_v2","pSARL_v2zveqbn7h","5a8d8079190420000156435d","freq_resp","img/orange_2bandit_b.png","70","70","test","","","","8","",""
"null","391984","pSARL_v2","pSARL_v2zveqbn7h","5a8d8079190420000156435d","fixation","img/fixation.png","null","","test","","","","","",""
"360.9000000357628","392348","pSARL_v2","pSARL_v2zveqbn7h","5a8d8079190420000156435d","infreq","img/green_2bandit_b2.png","68","68","test","1","178","178","8","",""
"null","392802","pSARL_v2","pSARL_v2zveqbn7h","5a8d8079190420000156435d","infreq_resp","img/green_2bandit_b.png","68","68","test","","","","8","",""
"null","392956","pSARL_v2","pSARL_v2zveqbn7h","5a8d8079190420000156435d","fixation","img/fixation.png","null","","test","","","","","",""
"253","393213","pSARL_v2","pSARL_v2zveqbn7h","5a8d8079190420000156435d","freq","img/orange_2bandit_b2.png","70","70","test","1","179","179","8","",""
"null","393774","pSARL_v2","pSARL_v2zveqbn7h","5a8d8079190420000156435d","freq_resp","img/orange_2bandit_b.png","70","70","test","","","","8","",""
"null","393928","pSARL_v2","pSARL_v2zveqbn7h","5a8d8079190420000156435d","fixation","img/fixation.png","null","","test","","","","","",""
"130.5","394062","pSARL_v2","pSARL_v2zveqbn7h","5a8d8079190420000156435d","freq","img/orange_2bandit_b2.png","70","70","test","1","180","180","8","",""
"null","394747","pSARL_v2","pSARL_v2zveqbn7h","5a8d8079190420000156435d","freq_resp","img/orange_2bandit_b.png","70","70","test","","","","8","",""
"null","394902","pSARL_v2","pSARL_v2zveqbn7h","5a8d8079190420000156435d","fixation","img/fixation.png","null","","test","","","","","",""
"51.39999997615814","394957","pSARL_v2","pSARL_v2zveqbn7h","5a8d8079190420000156435d","freq","img/orange_2bandit_b2.png","70","70","test","1","181","181","8","",""
"null","395721","pSARL_v2","pSARL_v2zveqbn7h","5a8d8079190420000156435d","freq_resp","img/orange_2bandit_b.png","70","70","test","","","","8","",""
"null","395875","pSARL_v2","pSARL_v2zveqbn7h","5a8d8079190420000156435d","fixation","img/fixation.png","null","","test","","","","","",""
"94.89999997615814","395973","pSARL_v2","pSARL_v2zveqbn7h","5a8d8079190420000156435d","freq","img/orange_2bandit_b2.png","70","70","test","1","182","182","8","",""
"null","396695","pSARL_v2","pSARL_v2zveqbn7h","5a8d8079190420000156435d","freq_resp","img/orange_2bandit_b.png","70","70","test","","","","8","",""
"null","396864","pSARL_v2","pSARL_v2zveqbn7h","5a8d8079190420000156435d","fixation","img/fixation.png","null","","test","","","","","",""
"61.90000003576279","396930","pSARL_v2","pSARL_v2zveqbn7h","5a8d8079190420000156435d","freq","img/orange_2bandit_b2.png","70","70","test","1","183","183","8","",""
"null","397685","pSARL_v2","pSARL_v2zveqbn7h","5a8d8079190420000156435d","freq_resp","img/orange_2bandit_b.png","70","70","test","","","","8","",""
"null","397839","pSARL_v2","pSARL_v2zveqbn7h","5a8d8079190420000156435d","fixation","img/fixation.png","null","","test","","","","","",""
"97.40000003576279","397939","pSARL_v2","pSARL_v2zveqbn7h","5a8d8079190420000156435d","freq","img/orange_2bandit_b2.png","70","70","test","1","184","184","8","",""
"null","398656","pSARL_v2","pSARL_v2zveqbn7h","5a8d8079190420000156435d","freq_resp","img/orange_2bandit_b.png","70","70","test","","","","8","",""
"null","398811","pSARL_v2","pSARL_v2zveqbn7h","5a8d8079190420000156435d","fixation","img/fixation.png","null","","test","","","","","",""
"132.9000000357628","398948","pSARL_v2","pSARL_v2zveqbn7h","5a8d8079190420000156435d","freq","img/orange_2bandit_b2.png","70","70","test","1","185","185","8","",""
"null","399629","pSARL_v2","pSARL_v2zveqbn7h","5a8d8079190420000156435d","freq_resp","img/orange_2bandit_b.png","70","70","test","","","","8","",""
"null","399783","pSARL_v2","pSARL_v2zveqbn7h","5a8d8079190420000156435d","fixation","img/fixation.png","null","","test","","","","","",""
"223.69999998807907","400009","pSARL_v2","pSARL_v2zveqbn7h","5a8d8079190420000156435d","freq","img/orange_2bandit_b2.png","70","70","test","1","186","186","8","",""
"null","400601","pSARL_v2","pSARL_v2zveqbn7h","5a8d8079190420000156435d","freq_resp","img/orange_2bandit_b.png","70","70","test","","","","8","",""
"null","400756","pSARL_v2","pSARL_v2zveqbn7h","5a8d8079190420000156435d","fixation","img/fixation.png","null","","test","","","","","",""
"198.80000001192093","400958","pSARL_v2","pSARL_v2zveqbn7h","5a8d8079190420000156435d","freq","img/orange_2bandit_b2.png","70","70","test","1","187","187","8","",""
"null","401575","pSARL_v2","pSARL_v2zveqbn7h","5a8d8079190420000156435d","freq_resp","img/orange_2bandit_b.png","70","70","test","","","","8","",""
"null","401730","pSARL_v2","pSARL_v2zveqbn7h","5a8d8079190420000156435d","fixation","img/fixation.png","null","","test","","","","","",""
"512.6000000238419","402246","pSARL_v2","pSARL_v2zveqbn7h","5a8d8079190420000156435d","reward","img/slot.png","74","","test","","","","","",""
"null","403014","pSARL_v2","pSARL_v2zveqbn7h","5a8d8079190420000156435d","points","<div class=""verylowPoints""> -4 </div>","null","na","test","","","","8","-4","7"
"506.19999998807907","403523","pSARL_v2","pSARL_v2zveqbn7h","5a8d8079190420000156435d","freq","img/orange_2bandit_b2.png","70","70","test","1","188","188","9","",""
"null","403835","pSARL_v2","pSARL_v2zveqbn7h","5a8d8079190420000156435d","freq_resp","img/orange_2bandit_b.png","70","70","test","","","","9","",""
"null","404003","pSARL_v2","pSARL_v2zveqbn7h","5a8d8079190420000156435d","fixation","img/fixation.png","null","","test","","","","","",""
"339.5","404346","pSARL_v2","pSARL_v2zveqbn7h","5a8d8079190420000156435d","freq","img/orange_2bandit_b2.png","70","70","test","1","189","189","9","",""
"null","404823","pSARL_v2","pSARL_v2zveqbn7h","5a8d8079190420000156435d","freq_resp","img/orange_2bandit_b.png","70","70","test","","","","9","",""
"null","404978","pSARL_v2","pSARL_v2zveqbn7h","5a8d8079190420000156435d","fixation","img/fixation.png","null","","test","","","","","",""
"189.19999998807907","405170","pSARL_v2","pSARL_v2zveqbn7h","5a8d8079190420000156435d","freq","img/orange_2bandit_b2.png","70","70","test","1","190","190","9","",""
"null","405794","pSARL_v2","pSARL_v2zveqbn7h","5a8d8079190420000156435d","freq_resp","img/orange_2bandit_b.png","70","70","test","","","","9","",""
"null","405964","pSARL_v2","pSARL_v2zveqbn7h","5a8d8079190420000156435d","fixation","img/fixation.png","null","","test","","","","","",""
"216.70000004768372","406184","pSARL_v2","pSARL_v2zveqbn7h","5a8d8079190420000156435d","freq","img/orange_2bandit_b2.png","70","70","test","1","191","191","9","",""
"null","406782","pSARL_v2","pSARL_v2zveqbn7h","5a8d8079190420000156435d","freq_resp","img/orange_2bandit_b.png","70","70","test","","","","9","",""
"null","406937","pSARL_v2","pSARL_v2zveqbn7h","5a8d8079190420000156435d","fixation","img/fixation.png","null","","test","","","","","",""
"364.10000002384186","407304","pSARL_v2","pSARL_v2zveqbn7h","5a8d8079190420000156435d","freq","img/orange_2bandit_b2.png","70","70","test","1","192","192","9","",""
"null","407755","pSARL_v2","pSARL_v2zveqbn7h","5a8d8079190420000156435d","freq_resp","img/orange_2bandit_b.png","70","70","test","","","","9","",""
"null","407909","pSARL_v2","pSARL_v2zveqbn7h","5a8d8079190420000156435d","fixation","img/fixation.png","null","","test","","","","","",""
"536.0999999642372","408449","pSARL_v2","pSARL_v2zveqbn7h","5a8d8079190420000156435d","freq","img/orange_2bandit_b2.png","70","70","test","1","193","193","9","",""
"null","408729","pSARL_v2","pSARL_v2zveqbn7h","5a8d8079190420000156435d","freq_resp","img/orange_2bandit_b.png","70","70","test","","","","9","",""
"null","408883","pSARL_v2","pSARL_v2zveqbn7h","5a8d8079190420000156435d","fixation","img/fixation.png","null","","test","","","","","",""
"527.1999999880791","409413","pSARL_v2","pSARL_v2zveqbn7h","5a8d8079190420000156435d","freq","img/orange_2bandit_b2.png","70","70","test","1","194","194","9","",""
"null","409703","pSARL_v2","pSARL_v2zveqbn7h","5a8d8079190420000156435d","freq_resp","img/orange_2bandit_b.png","70","70","test","","","","9","",""
"null","409857","pSARL_v2","pSARL_v2zveqbn7h","5a8d8079190420000156435d","fixation","img/fixation.png","null","","test","","","","","",""
"361.80000001192093","410221","pSARL_v2","pSARL_v2zveqbn7h","5a8d8079190420000156435d","freq","img/orange_2bandit_b2.png","70","70","test","1","195","195","9","",""
"null","410676","pSARL_v2","pSARL_v2zveqbn7h","5a8d8079190420000156435d","freq_resp","img/orange_2bandit_b.png","70","70","test","","","","9","",""
"null","410845","pSARL_v2","pSARL_v2zveqbn7h","5a8d8079190420000156435d","fixation","img/fixation.png","null","","test","","","","","",""
"316.7000000476837","411165","pSARL_v2","pSARL_v2zveqbn7h","5a8d8079190420000156435d","freq","img/orange_2bandit_b2.png","70","70","test","1","196","196","9","",""
"null","411663","pSARL_v2","pSARL_v2zveqbn7h","5a8d8079190420000156435d","freq_resp","img/orange_2bandit_b.png","70","70","test","","","","9","",""
"null","411817","pSARL_v2","pSARL_v2zveqbn7h","5a8d8079190420000156435d","fixation","img/fixation.png","null","","test","","","","","",""
"220.80000001192093","412041","pSARL_v2","pSARL_v2zveqbn7h","5a8d8079190420000156435d","freq","img/orange_2bandit_b2.png","70","70","test","1","197","197","9","",""
"null","412633","pSARL_v2","pSARL_v2zveqbn7h","5a8d8079190420000156435d","freq_resp","img/orange_2bandit_b.png","70","70","test","","","","9","",""
"null","412789","pSARL_v2","pSARL_v2zveqbn7h","5a8d8079190420000156435d","fixation","img/fixation.png","null","","test","","","","","",""
"245.89999997615814","413038","pSARL_v2","pSARL_v2zveqbn7h","5a8d8079190420000156435d","freq","img/orange_2bandit_b2.png","70","70","test","1","198","198","9","",""
"null","413607","pSARL_v2","pSARL_v2zveqbn7h","5a8d8079190420000156435d","freq_resp","img/orange_2bandit_b.png","70","70","test","","","","9","",""
"null","413776","pSARL_v2","pSARL_v2zveqbn7h","5a8d8079190420000156435d","fixation","img/fixation.png","null","","test","","","","","",""
"373","414152","pSARL_v2","pSARL_v2zveqbn7h","5a8d8079190420000156435d","infreq","img/green_2bandit_b2.png","68","68","test","1","199","199","9","",""
"null","414593","pSARL_v2","pSARL_v2zveqbn7h","5a8d8079190420000156435d","infreq_resp","img/green_2bandit_b.png","68","68","test","","","","9","",""
"null","414748","pSARL_v2","pSARL_v2zveqbn7h","5a8d8079190420000156435d","fixation","img/fixation.png","null","","test","","","","","",""
"442.69999998807907","415194","pSARL_v2","pSARL_v2zveqbn7h","5a8d8079190420000156435d","freq","img/orange_2bandit_b2.png","70","70","test","1","200","200","9","",""
"null","415568","pSARL_v2","pSARL_v2zveqbn7h","5a8d8079190420000156435d","freq_resp","img/orange_2bandit_b.png","70","70","test","","","","9","",""
"null","415722","pSARL_v2","pSARL_v2zveqbn7h","5a8d8079190420000156435d","fixation","img/fixation.png","null","","test","","","","","",""
"405.80000001192093","416131","pSARL_v2","pSARL_v2zveqbn7h","5a8d8079190420000156435d","freq","img/orange_2bandit_b2.png","70","70","test","1","201","201","9","",""
"null","416541","pSARL_v2","pSARL_v2zveqbn7h","5a8d8079190420000156435d","freq_resp","img/orange_2bandit_b.png","70","70","test","","","","9","",""
"null","416709","pSARL_v2","pSARL_v2zveqbn7h","5a8d8079190420000156435d","fixation","img/fixation.png","null","","test","","","","","",""
"320.7000000476837","417033","pSARL_v2","pSARL_v2zveqbn7h","5a8d8079190420000156435d","freq","img/orange_2bandit_b2.png","70","70","test","1","202","202","9","",""
"null","417527","pSARL_v2","pSARL_v2zveqbn7h","5a8d8079190420000156435d","freq_resp","img/orange_2bandit_b.png","70","70","test","","","","9","",""
"null","417681","pSARL_v2","pSARL_v2zveqbn7h","5a8d8079190420000156435d","fixation","img/fixation.png","null","","test","","","","","",""
"256.30000001192093","417941","pSARL_v2","pSARL_v2zveqbn7h","5a8d8079190420000156435d","freq","img/orange_2bandit_b2.png","70","70","test","1","203","203","9","",""
"null","418498","pSARL_v2","pSARL_v2zveqbn7h","5a8d8079190420000156435d","freq_resp","img/orange_2bandit_b.png","70","70","test","","","","9","",""
"null","418654","pSARL_v2","pSARL_v2zveqbn7h","5a8d8079190420000156435d","fixation","img/fixation.png","null","","test","","","","","",""
"194.19999998807907","418852","pSARL_v2","pSARL_v2zveqbn7h","5a8d8079190420000156435d","freq","img/orange_2bandit_b2.png","70","70","test","1","204","204","9","",""
"null","419472","pSARL_v2","pSARL_v2zveqbn7h","5a8d8079190420000156435d","freq_resp","img/orange_2bandit_b.png","70","70","test","","","","9","",""
"null","419625","pSARL_v2","pSARL_v2zveqbn7h","5a8d8079190420000156435d","fixation","img/fixation.png","null","","test","","","","","",""
"429.5","420058","pSARL_v2","pSARL_v2zveqbn7h","5a8d8079190420000156435d","infreq","img/green_2bandit_b2.png","68","68","test","1","205","205","9","",""
"null","420446","pSARL_v2","pSARL_v2zveqbn7h","5a8d8079190420000156435d","infreq_resp","img/green_2bandit_b.png","68","68","test","","","","9","",""
"null","420615","pSARL_v2","pSARL_v2zveqbn7h","5a8d8079190420000156435d","fixation","img/fixation.png","null","","test","","","","","",""
"340","420958","pSARL_v2","pSARL_v2zveqbn7h","5a8d8079190420000156435d","freq","img/orange_2bandit_b2.png","70","70","test","1","206","206","9","",""
"null","421434","pSARL_v2","pSARL_v2zveqbn7h","5a8d8079190420000156435d","freq_resp","img/orange_2bandit_b.png","70","70","test","","","","9","",""
"null","421589","pSARL_v2","pSARL_v2zveqbn7h","5a8d8079190420000156435d","fixation","img/fixation.png","null","","test","","","","","",""
