"rt","time_elapsed","expId","subject","prolificID","trialType","stimulus","key_press","corrresp","phase","corr","trialNum","attentionRunNum","blockNum","points","rlNum"
"11212","11223","pSARL_v2","pSARL_v2c863w8l5","5f5834134283933a1c3b42d0","","","","","","","","","","",""
"","15308","pSARL_v2","pSARL_v2c863w8l5","5f5834134283933a1c3b42d0","fullscreen","","","","","","","","","",""
"77648","92963","pSARL_v2","pSARL_v2c863w8l5","5f5834134283933a1c3b42d0","","","","","","","","","","",""
"null","93773","pSARL_v2","pSARL_v2c863w8l5","5f5834134283933a1c3b42d0","freqPrac","img/green_2bandit_a2.png","null","70","prac","0","","","","",""
"null","94781","pSARL_v2","pSARL_v2c863w8l5","5f5834134283933a1c3b42d0","feedback","img/tooSlow.png","null","na","prac","","","","","",""
"null","94941","pSARL_v2","pSARL_v2c863w8l5","5f5834134283933a1c3b42d0","fixation","img/fixation.png","null","","prac","","","","","",""
"340","95284","pSARL_v2","pSARL_v2c863w8l5","5f5834134283933a1c3b42d0","infreqPrac","img/orange_2bandit_a2.png","70","68","prac","0","","","","",""
"340","95763","pSARL_v2","pSARL_v2c863w8l5","5f5834134283933a1c3b42d0","infreqPrac_resp","img/orange_2bandit_a.png","70","68","prac","","","","","",""
"null","96773","pSARL_v2","pSARL_v2c863w8l5","5f5834134283933a1c3b42d0","feedback","img/wrongKey.png","null","na","prac","","","","","",""
"null","96932","pSARL_v2","pSARL_v2c863w8l5","5f5834134283933a1c3b42d0","fixation","img/fixation.png","null","","prac","","","","","",""
"363","97299","pSARL_v2","pSARL_v2c863w8l5","5f5834134283933a1c3b42d0","freqPrac","img/green_2bandit_a2.png","70","70","prac","1","","","","",""
"363","97755","pSARL_v2","pSARL_v2c863w8l5","5f5834134283933a1c3b42d0","freqPrac_resp","img/green_2bandit_a.png","70","70","prac","","","","","",""
"null","97914","pSARL_v2","pSARL_v2c863w8l5","5f5834134283933a1c3b42d0","fixation","img/fixation.png","null","","prac","","","","","",""
"296","98213","pSARL_v2","pSARL_v2c863w8l5","5f5834134283933a1c3b42d0","infreqPrac","img/orange_2bandit_a2.png","68","68","prac","1","","","","",""
"296","98732","pSARL_v2","pSARL_v2c863w8l5","5f5834134283933a1c3b42d0","infreqPrac_resp","img/orange_2bandit_a.png","68","68","prac","","","","","",""
"null","98892","pSARL_v2","pSARL_v2c863w8l5","5f5834134283933a1c3b42d0","fixation","img/fixation.png","null","","prac","","","","","",""
"386","99281","pSARL_v2","pSARL_v2c863w8l5","5f5834134283933a1c3b42d0","infreqPrac","img/orange_2bandit_a2.png","68","68","prac","1","","","","",""
"386","99712","pSARL_v2","pSARL_v2c863w8l5","5f5834134283933a1c3b42d0","infreqPrac_resp","img/orange_2bandit_a.png","68","68","prac","","","","","",""
"null","99872","pSARL_v2","pSARL_v2c863w8l5","5f5834134283933a1c3b42d0","fixation","img/fixation.png","null","","prac","","","","","",""
"369","100246","pSARL_v2","pSARL_v2c863w8l5","5f5834134283933a1c3b42d0","infreqPrac","img/orange_2bandit_a2.png","68","68","prac","1","","","","",""
"369","100687","pSARL_v2","pSARL_v2c863w8l5","5f5834134283933a1c3b42d0","infreqPrac_resp","img/orange_2bandit_a.png","68","68","prac","","","","","",""
"null","100846","pSARL_v2","pSARL_v2c863w8l5","5f5834134283933a1c3b42d0","fixation","img/fixation.png","null","","prac","","","","","",""
"264","101114","pSARL_v2","pSARL_v2c863w8l5","5f5834134283933a1c3b42d0","freqPrac","img/green_2bandit_a2.png","68","70","prac","0","","","","",""
"264","101666","pSARL_v2","pSARL_v2c863w8l5","5f5834134283933a1c3b42d0","freqPrac_resp","img/green_2bandit_a.png","68","70","prac","","","","","",""
"null","102675","pSARL_v2","pSARL_v2c863w8l5","5f5834134283933a1c3b42d0","feedback","img/wrongKey.png","null","na","prac","","","","","",""
"null","102833","pSARL_v2","pSARL_v2c863w8l5","5f5834134283933a1c3b42d0","fixation","img/fixation.png","null","","prac","","","","","",""
"507","103345","pSARL_v2","pSARL_v2c863w8l5","5f5834134283933a1c3b42d0","infreqPrac","img/orange_2bandit_a2.png","70","68","prac","0","","","","",""
"507","103671","pSARL_v2","pSARL_v2c863w8l5","5f5834134283933a1c3b42d0","infreqPrac_resp","img/orange_2bandit_a.png","70","68","prac","","","","","",""
"null","104682","pSARL_v2","pSARL_v2c863w8l5","5f5834134283933a1c3b42d0","feedback","img/wrongKey.png","null","na","prac","","","","","",""
"null","104841","pSARL_v2","pSARL_v2c863w8l5","5f5834134283933a1c3b42d0","fixation","img/fixation.png","null","","prac","","","","","",""
"436","105280","pSARL_v2","pSARL_v2c863w8l5","5f5834134283933a1c3b42d0","freqPrac","img/green_2bandit_a2.png","70","70","prac","1","","","","",""
"436","105661","pSARL_v2","pSARL_v2c863w8l5","5f5834134283933a1c3b42d0","freqPrac_resp","img/green_2bandit_a.png","70","70","prac","","","","","",""
"null","105818","pSARL_v2","pSARL_v2c863w8l5","5f5834134283933a1c3b42d0","fixation","img/fixation.png","null","","prac","","","","","",""
"443","106265","pSARL_v2","pSARL_v2c863w8l5","5f5834134283933a1c3b42d0","freqPrac","img/green_2bandit_a2.png","70","70","prac","1","","","","",""
"443","106639","pSARL_v2","pSARL_v2c863w8l5","5f5834134283933a1c3b42d0","freqPrac_resp","img/green_2bandit_a.png","70","70","prac","","","","","",""
"null","106798","pSARL_v2","pSARL_v2c863w8l5","5f5834134283933a1c3b42d0","fixation","img/fixation.png","null","","prac","","","","","",""
"36142","142944","pSARL_v2","pSARL_v2c863w8l5","5f5834134283933a1c3b42d0","","","","","prac","","","","","",""
"501","143449","pSARL_v2","pSARL_v2c863w8l5","5f5834134283933a1c3b42d0","rewardPractice","img/slot.png","74","","prac","","","","","",""
"null","144209","pSARL_v2","pSARL_v2c863w8l5","5f5834134283933a1c3b42d0","feedback","<div class=""veryhighPoints""> +15 </div>","null","na","prac","","","","","",""
"null","144366","pSARL_v2","pSARL_v2c863w8l5","5f5834134283933a1c3b42d0","fixation","img/fixation.png","null","","prac","","","","","",""
"15746","160115","pSARL_v2","pSARL_v2c863w8l5","5f5834134283933a1c3b42d0","","","","","prac","","","","","",""
"313","160433","pSARL_v2","pSARL_v2c863w8l5","5f5834134283933a1c3b42d0","freq","img/green_2bandit_a2.png","70","70","test","1","1","1","1","",""
"null","160935","pSARL_v2","pSARL_v2c863w8l5","5f5834134283933a1c3b42d0","freq_resp","img/green_2bandit_a.png","70","70","test","","","","1","",""
"null","161094","pSARL_v2","pSARL_v2c863w8l5","5f5834134283933a1c3b42d0","fixation","img/fixation.png","null","","test","","","","","",""
"358","161455","pSARL_v2","pSARL_v2c863w8l5","5f5834134283933a1c3b42d0","freq","img/green_2bandit_a2.png","70","70","test","1","2","2","1","",""
"null","161913","pSARL_v2","pSARL_v2c863w8l5","5f5834134283933a1c3b42d0","freq_resp","img/green_2bandit_a.png","70","70","test","","","","1","",""
"null","162071","pSARL_v2","pSARL_v2c863w8l5","5f5834134283933a1c3b42d0","fixation","img/fixation.png","null","","test","","","","","",""
"408","162483","pSARL_v2","pSARL_v2c863w8l5","5f5834134283933a1c3b42d0","freq","img/green_2bandit_a2.png","70","70","test","1","3","3","1","",""
"null","162890","pSARL_v2","pSARL_v2c863w8l5","5f5834134283933a1c3b42d0","freq_resp","img/green_2bandit_a.png","70","70","test","","","","1","",""
"null","163047","pSARL_v2","pSARL_v2c863w8l5","5f5834134283933a1c3b42d0","fixation","img/fixation.png","null","","test","","","","","",""
"364","163415","pSARL_v2","pSARL_v2c863w8l5","5f5834134283933a1c3b42d0","freq","img/green_2bandit_a2.png","70","70","test","1","4","4","1","",""
"null","163866","pSARL_v2","pSARL_v2c863w8l5","5f5834134283933a1c3b42d0","freq_resp","img/green_2bandit_a.png","70","70","test","","","","1","",""
"null","164021","pSARL_v2","pSARL_v2c863w8l5","5f5834134283933a1c3b42d0","fixation","img/fixation.png","null","","test","","","","","",""
"305","164330","pSARL_v2","pSARL_v2c863w8l5","5f5834134283933a1c3b42d0","freq","img/green_2bandit_a2.png","70","70","test","1","5","5","1","",""
"null","164845","pSARL_v2","pSARL_v2c863w8l5","5f5834134283933a1c3b42d0","freq_resp","img/green_2bandit_a.png","70","70","test","","","","1","",""
"null","165002","pSARL_v2","pSARL_v2c863w8l5","5f5834134283933a1c3b42d0","fixation","img/fixation.png","null","","test","","","","","",""
"297","165302","pSARL_v2","pSARL_v2c863w8l5","5f5834134283933a1c3b42d0","freq","img/green_2bandit_a2.png","70","70","test","1","6","6","1","",""
"null","165824","pSARL_v2","pSARL_v2c863w8l5","5f5834134283933a1c3b42d0","freq_resp","img/green_2bandit_a.png","70","70","test","","","","1","",""
"null","165981","pSARL_v2","pSARL_v2c863w8l5","5f5834134283933a1c3b42d0","fixation","img/fixation.png","null","","test","","","","","",""
"298","166282","pSARL_v2","pSARL_v2c863w8l5","5f5834134283933a1c3b42d0","freq","img/green_2bandit_a2.png","70","70","test","1","7","7","1","",""
"null","166803","pSARL_v2","pSARL_v2c863w8l5","5f5834134283933a1c3b42d0","freq_resp","img/green_2bandit_a.png","70","70","test","","","","1","",""
"null","166960","pSARL_v2","pSARL_v2c863w8l5","5f5834134283933a1c3b42d0","fixation","img/fixation.png","null","","test","","","","","",""
"289","167251","pSARL_v2","pSARL_v2c863w8l5","5f5834134283933a1c3b42d0","freq","img/green_2bandit_a2.png","70","70","test","1","8","8","1","",""
"null","167768","pSARL_v2","pSARL_v2c863w8l5","5f5834134283933a1c3b42d0","freq_resp","img/green_2bandit_a.png","70","70","test","","","","1","",""
"null","167926","pSARL_v2","pSARL_v2c863w8l5","5f5834134283933a1c3b42d0","fixation","img/fixation.png","null","","test","","","","","",""
"292","168222","pSARL_v2","pSARL_v2c863w8l5","5f5834134283933a1c3b42d0","freq","img/green_2bandit_a2.png","70","70","test","1","9","9","1","",""
"null","168744","pSARL_v2","pSARL_v2c863w8l5","5f5834134283933a1c3b42d0","freq_resp","img/green_2bandit_a.png","70","70","test","","","","1","",""
"null","168900","pSARL_v2","pSARL_v2c863w8l5","5f5834134283933a1c3b42d0","fixation","img/fixation.png","null","","test","","","","","",""
"289","169193","pSARL_v2","pSARL_v2c863w8l5","5f5834134283933a1c3b42d0","freq","img/green_2bandit_a2.png","70","70","test","1","10","10","1","",""
"null","169721","pSARL_v2","pSARL_v2c863w8l5","5f5834134283933a1c3b42d0","freq_resp","img/green_2bandit_a.png","70","70","test","","","","1","",""
"null","169880","pSARL_v2","pSARL_v2c863w8l5","5f5834134283933a1c3b42d0","fixation","img/fixation.png","null","","test","","","","","",""
"241","170124","pSARL_v2","pSARL_v2c863w8l5","5f5834134283933a1c3b42d0","freq","img/green_2bandit_a2.png","70","70","test","1","11","11","1","",""
"null","170701","pSARL_v2","pSARL_v2c863w8l5","5f5834134283933a1c3b42d0","freq_resp","img/green_2bandit_a.png","70","70","test","","","","1","",""
"null","170859","pSARL_v2","pSARL_v2c863w8l5","5f5834134283933a1c3b42d0","fixation","img/fixation.png","null","","test","","","","","",""
"256","171118","pSARL_v2","pSARL_v2c863w8l5","5f5834134283933a1c3b42d0","freq","img/green_2bandit_a2.png","70","70","test","1","12","12","1","",""
"null","171680","pSARL_v2","pSARL_v2c863w8l5","5f5834134283933a1c3b42d0","freq_resp","img/green_2bandit_a.png","70","70","test","","","","1","",""
"null","171837","pSARL_v2","pSARL_v2c863w8l5","5f5834134283933a1c3b42d0","fixation","img/fixation.png","null","","test","","","","","",""
"252","172092","pSARL_v2","pSARL_v2c863w8l5","5f5834134283933a1c3b42d0","freq","img/green_2bandit_a2.png","70","70","test","1","13","13","1","",""
"null","172659","pSARL_v2","pSARL_v2c863w8l5","5f5834134283933a1c3b42d0","freq_resp","img/green_2bandit_a.png","70","70","test","","","","1","",""
"null","172816","pSARL_v2","pSARL_v2c863w8l5","5f5834134283933a1c3b42d0","fixation","img/fixation.png","null","","test","","","","","",""
"241","173061","pSARL_v2","pSARL_v2c863w8l5","5f5834134283933a1c3b42d0","freq","img/green_2bandit_a2.png","70","70","test","1","14","14","1","",""
"null","173636","pSARL_v2","pSARL_v2c863w8l5","5f5834134283933a1c3b42d0","freq_resp","img/green_2bandit_a.png","70","70","test","","","","1","",""
"null","173795","pSARL_v2","pSARL_v2c863w8l5","5f5834134283933a1c3b42d0","fixation","img/fixation.png","null","","test","","","","","",""
"275","174074","pSARL_v2","pSARL_v2c863w8l5","5f5834134283933a1c3b42d0","freq","img/green_2bandit_a2.png","70","70","test","1","15","15","1","",""
"null","174618","pSARL_v2","pSARL_v2c863w8l5","5f5834134283933a1c3b42d0","freq_resp","img/green_2bandit_a.png","70","70","test","","","","1","",""
"null","174775","pSARL_v2","pSARL_v2c863w8l5","5f5834134283933a1c3b42d0","fixation","img/fixation.png","null","","test","","","","","",""
"295","175074","pSARL_v2","pSARL_v2c863w8l5","5f5834134283933a1c3b42d0","freq","img/green_2bandit_a2.png","70","70","test","1","16","16","1","",""
"null","175586","pSARL_v2","pSARL_v2c863w8l5","5f5834134283933a1c3b42d0","freq_resp","img/green_2bandit_a.png","70","70","test","","","","1","",""
"null","175744","pSARL_v2","pSARL_v2c863w8l5","5f5834134283933a1c3b42d0","fixation","img/fixation.png","null","","test","","","","","",""
"395","176143","pSARL_v2","pSARL_v2c863w8l5","5f5834134283933a1c3b42d0","infreq","img/orange_2bandit_a2.png","68","68","test","1","17","17","1","",""
"null","176564","pSARL_v2","pSARL_v2c863w8l5","5f5834134283933a1c3b42d0","infreq_resp","img/orange_2bandit_a.png","68","68","test","","","","1","",""
"null","176722","pSARL_v2","pSARL_v2c863w8l5","5f5834134283933a1c3b42d0","fixation","img/fixation.png","null","","test","","","","","",""
"328","177053","pSARL_v2","pSARL_v2c863w8l5","5f5834134283933a1c3b42d0","infreq","img/orange_2bandit_a2.png","68","68","test","1","18","18","1","",""
"null","177542","pSARL_v2","pSARL_v2c863w8l5","5f5834134283933a1c3b42d0","infreq_resp","img/orange_2bandit_a.png","68","68","test","","","","1","",""
"null","177702","pSARL_v2","pSARL_v2c863w8l5","5f5834134283933a1c3b42d0","fixation","img/fixation.png","null","","test","","","","","",""
"438","178143","pSARL_v2","pSARL_v2c863w8l5","5f5834134283933a1c3b42d0","freq","img/green_2bandit_a2.png","70","70","test","1","19","19","1","",""
"null","178524","pSARL_v2","pSARL_v2c863w8l5","5f5834134283933a1c3b42d0","freq_resp","img/green_2bandit_a.png","70","70","test","","","","1","",""
"null","178679","pSARL_v2","pSARL_v2c863w8l5","5f5834134283933a1c3b42d0","fixation","img/fixation.png","null","","test","","","","","",""
"499","179181","pSARL_v2","pSARL_v2c863w8l5","5f5834134283933a1c3b42d0","reward","img/slot.png","74","","test","","","","","",""
"null","179943","pSARL_v2","pSARL_v2c863w8l5","5f5834134283933a1c3b42d0","points","<div class=""verylowPoints""> -6 </div>","null","na","test","","","","1","-6","0"
"525","180471","pSARL_v2","pSARL_v2c863w8l5","5f5834134283933a1c3b42d0","freq","img/green_2bandit_a2.png","70","70","test","1","20","20","2","",""
"null","180750","pSARL_v2","pSARL_v2c863w8l5","5f5834134283933a1c3b42d0","freq_resp","img/green_2bandit_a.png","70","70","test","","","","2","",""
"null","180909","pSARL_v2","pSARL_v2c863w8l5","5f5834134283933a1c3b42d0","fixation","img/fixation.png","null","","test","","","","","",""
"335","181247","pSARL_v2","pSARL_v2c863w8l5","5f5834134283933a1c3b42d0","freq","img/green_2bandit_a2.png","70","70","test","1","21","21","2","",""
"null","181727","pSARL_v2","pSARL_v2c863w8l5","5f5834134283933a1c3b42d0","freq_resp","img/green_2bandit_a.png","70","70","test","","","","2","",""
"null","181885","pSARL_v2","pSARL_v2c863w8l5","5f5834134283933a1c3b42d0","fixation","img/fixation.png","null","","test","","","","","",""
"248","182137","pSARL_v2","pSARL_v2c863w8l5","5f5834134283933a1c3b42d0","freq","img/green_2bandit_a2.png","70","70","test","1","22","22","2","",""
"null","182706","pSARL_v2","pSARL_v2c863w8l5","5f5834134283933a1c3b42d0","freq_resp","img/green_2bandit_a.png","70","70","test","","","","2","",""
"null","182865","pSARL_v2","pSARL_v2c863w8l5","5f5834134283933a1c3b42d0","fixation","img/fixation.png","null","","test","","","","","",""
"230","183099","pSARL_v2","pSARL_v2c863w8l5","5f5834134283933a1c3b42d0","freq","img/green_2bandit_a2.png","70","70","test","1","23","23","2","",""
"null","183683","pSARL_v2","pSARL_v2c863w8l5","5f5834134283933a1c3b42d0","freq_resp","img/green_2bandit_a.png","70","70","test","","","","2","",""
"null","183841","pSARL_v2","pSARL_v2c863w8l5","5f5834134283933a1c3b42d0","fixation","img/fixation.png","null","","test","","","","","",""
"228","184074","pSARL_v2","pSARL_v2c863w8l5","5f5834134283933a1c3b42d0","freq","img/green_2bandit_a2.png","70","70","test","1","24","24","2","",""
"null","184660","pSARL_v2","pSARL_v2c863w8l5","5f5834134283933a1c3b42d0","freq_resp","img/green_2bandit_a.png","70","70","test","","","","2","",""
"null","184820","pSARL_v2","pSARL_v2c863w8l5","5f5834134283933a1c3b42d0","fixation","img/fixation.png","null","","test","","","","","",""
"250","185073","pSARL_v2","pSARL_v2c863w8l5","5f5834134283933a1c3b42d0","freq","img/green_2bandit_a2.png","70","70","test","1","25","25","2","",""
"null","185641","pSARL_v2","pSARL_v2c863w8l5","5f5834134283933a1c3b42d0","freq_resp","img/green_2bandit_a.png","70","70","test","","","","2","",""
"null","185801","pSARL_v2","pSARL_v2c863w8l5","5f5834134283933a1c3b42d0","fixation","img/fixation.png","null","","test","","","","","",""
"278","186081","pSARL_v2","pSARL_v2c863w8l5","5f5834134283933a1c3b42d0","freq","img/green_2bandit_a2.png","70","70","test","1","26","26","2","",""
"null","186615","pSARL_v2","pSARL_v2c863w8l5","5f5834134283933a1c3b42d0","freq_resp","img/green_2bandit_a.png","70","70","test","","","","2","",""
"null","186774","pSARL_v2","pSARL_v2c863w8l5","5f5834134283933a1c3b42d0","fixation","img/fixation.png","null","","test","","","","","",""
"273","187050","pSARL_v2","pSARL_v2c863w8l5","5f5834134283933a1c3b42d0","freq","img/green_2bandit_a2.png","70","70","test","1","27","27","2","",""
"null","187594","pSARL_v2","pSARL_v2c863w8l5","5f5834134283933a1c3b42d0","freq_resp","img/green_2bandit_a.png","70","70","test","","","","2","",""
"null","187752","pSARL_v2","pSARL_v2c863w8l5","5f5834134283933a1c3b42d0","fixation","img/fixation.png","null","","test","","","","","",""
"277","188034","pSARL_v2","pSARL_v2c863w8l5","5f5834134283933a1c3b42d0","freq","img/green_2bandit_a2.png","70","70","test","1","28","28","2","",""
"null","188570","pSARL_v2","pSARL_v2c863w8l5","5f5834134283933a1c3b42d0","freq_resp","img/green_2bandit_a.png","70","70","test","","","","2","",""
"null","188725","pSARL_v2","pSARL_v2c863w8l5","5f5834134283933a1c3b42d0","fixation","img/fixation.png","null","","test","","","","","",""
"391","189119","pSARL_v2","pSARL_v2c863w8l5","5f5834134283933a1c3b42d0","infreq","img/orange_2bandit_a2.png","68","68","test","1","29","29","2","",""
"null","189539","pSARL_v2","pSARL_v2c863w8l5","5f5834134283933a1c3b42d0","infreq_resp","img/orange_2bandit_a.png","68","68","test","","","","2","",""
"null","189695","pSARL_v2","pSARL_v2c863w8l5","5f5834134283933a1c3b42d0","fixation","img/fixation.png","null","","test","","","","","",""
"325","190024","pSARL_v2","pSARL_v2c863w8l5","5f5834134283933a1c3b42d0","infreq","img/orange_2bandit_a2.png","68","68","test","1","30","30","2","",""
"null","190515","pSARL_v2","pSARL_v2c863w8l5","5f5834134283933a1c3b42d0","infreq_resp","img/orange_2bandit_a.png","68","68","test","","","","2","",""
"null","190673","pSARL_v2","pSARL_v2c863w8l5","5f5834134283933a1c3b42d0","fixation","img/fixation.png","null","","test","","","","","",""
"476","191152","pSARL_v2","pSARL_v2c863w8l5","5f5834134283933a1c3b42d0","freq","img/green_2bandit_a2.png","70","70","test","1","31","31","2","",""
"null","191481","pSARL_v2","pSARL_v2c863w8l5","5f5834134283933a1c3b42d0","freq_resp","img/green_2bandit_a.png","70","70","test","","","","2","",""
"null","191640","pSARL_v2","pSARL_v2c863w8l5","5f5834134283933a1c3b42d0","fixation","img/fixation.png","null","","test","","","","","",""
"468","192111","pSARL_v2","pSARL_v2c863w8l5","5f5834134283933a1c3b42d0","freq","img/green_2bandit_a2.png","70","70","test","1","32","32","2","",""
"null","192459","pSARL_v2","pSARL_v2c863w8l5","5f5834134283933a1c3b42d0","freq_resp","img/green_2bandit_a.png","70","70","test","","","","2","",""
"null","192617","pSARL_v2","pSARL_v2c863w8l5","5f5834134283933a1c3b42d0","fixation","img/fixation.png","null","","test","","","","","",""
"385","193006","pSARL_v2","pSARL_v2c863w8l5","5f5834134283933a1c3b42d0","freq","img/green_2bandit_a2.png","70","70","test","1","33","33","2","",""
"null","193429","pSARL_v2","pSARL_v2c863w8l5","5f5834134283933a1c3b42d0","freq_resp","img/green_2bandit_a.png","70","70","test","","","","2","",""
"null","193588","pSARL_v2","pSARL_v2c863w8l5","5f5834134283933a1c3b42d0","fixation","img/fixation.png","null","","test","","","","","",""
"409","194001","pSARL_v2","pSARL_v2c863w8l5","5f5834134283933a1c3b42d0","infreq","img/orange_2bandit_a2.png","68","68","test","1","34","34","2","",""
"null","194412","pSARL_v2","pSARL_v2c863w8l5","5f5834134283933a1c3b42d0","infreq_resp","img/orange_2bandit_a.png","68","68","test","","","","2","",""
"null","194569","pSARL_v2","pSARL_v2c863w8l5","5f5834134283933a1c3b42d0","fixation","img/fixation.png","null","","test","","","","","",""
"405","194977","pSARL_v2","pSARL_v2c863w8l5","5f5834134283933a1c3b42d0","freq","img/green_2bandit_a2.png","70","70","test","1","35","35","2","",""
"null","195376","pSARL_v2","pSARL_v2c863w8l5","5f5834134283933a1c3b42d0","freq_resp","img/green_2bandit_a.png","70","70","test","","","","2","",""
"null","195536","pSARL_v2","pSARL_v2c863w8l5","5f5834134283933a1c3b42d0","fixation","img/fixation.png","null","","test","","","","","",""
"323","195863","pSARL_v2","pSARL_v2c863w8l5","5f5834134283933a1c3b42d0","freq","img/green_2bandit_a2.png","70","70","test","1","36","36","2","",""
"null","196356","pSARL_v2","pSARL_v2c863w8l5","5f5834134283933a1c3b42d0","freq_resp","img/green_2bandit_a.png","70","70","test","","","","2","",""
"null","196515","pSARL_v2","pSARL_v2c863w8l5","5f5834134283933a1c3b42d0","fixation","img/fixation.png","null","","test","","","","","",""
"437","196956","pSARL_v2","pSARL_v2c863w8l5","5f5834134283933a1c3b42d0","freq","img/green_2bandit_a2.png","70","70","test","1","37","37","2","",""
"null","197324","pSARL_v2","pSARL_v2c863w8l5","5f5834134283933a1c3b42d0","freq_resp","img/green_2bandit_a.png","70","70","test","","","","2","",""
"null","197481","pSARL_v2","pSARL_v2c863w8l5","5f5834134283933a1c3b42d0","fixation","img/fixation.png","null","","test","","","","","",""
"366","197850","pSARL_v2","pSARL_v2c863w8l5","5f5834134283933a1c3b42d0","freq","img/green_2bandit_a2.png","70","70","test","1","38","38","2","",""
"null","198289","pSARL_v2","pSARL_v2c863w8l5","5f5834134283933a1c3b42d0","freq_resp","img/green_2bandit_a.png","70","70","test","","","","2","",""
"null","198446","pSARL_v2","pSARL_v2c863w8l5","5f5834134283933a1c3b42d0","fixation","img/fixation.png","null","","test","","","","","",""
"311","198761","pSARL_v2","pSARL_v2c863w8l5","5f5834134283933a1c3b42d0","freq","img/green_2bandit_a2.png","70","70","test","1","39","39","2","",""
"null","199253","pSARL_v2","pSARL_v2c863w8l5","5f5834134283933a1c3b42d0","freq_resp","img/green_2bandit_a.png","70","70","test","","","","2","",""
"null","199414","pSARL_v2","pSARL_v2c863w8l5","5f5834134283933a1c3b42d0","fixation","img/fixation.png","null","","test","","","","","",""
"295","199713","pSARL_v2","pSARL_v2c863w8l5","5f5834134283933a1c3b42d0","freq","img/green_2bandit_a2.png","70","70","test","1","40","40","2","",""
"null","200234","pSARL_v2","pSARL_v2c863w8l5","5f5834134283933a1c3b42d0","freq_resp","img/green_2bandit_a.png","70","70","test","","","","2","",""
"null","200390","pSARL_v2","pSARL_v2c863w8l5","5f5834134283933a1c3b42d0","fixation","img/fixation.png","null","","test","","","","","",""
"333","200727","pSARL_v2","pSARL_v2c863w8l5","5f5834134283933a1c3b42d0","freq","img/green_2bandit_a2.png","70","70","test","1","41","41","2","",""
"null","201199","pSARL_v2","pSARL_v2c863w8l5","5f5834134283933a1c3b42d0","freq_resp","img/green_2bandit_a.png","70","70","test","","","","2","",""
"null","201358","pSARL_v2","pSARL_v2c863w8l5","5f5834134283933a1c3b42d0","fixation","img/fixation.png","null","","test","","","","","",""
"508","201869","pSARL_v2","pSARL_v2c863w8l5","5f5834134283933a1c3b42d0","reward","img/slot.png","74","","test","","","","","",""
"null","202624","pSARL_v2","pSARL_v2c863w8l5","5f5834134283933a1c3b42d0","points","<div class=""verylowPoints""> -11 </div>","null","na","test","","","","2","-11","1"
"395","203023","pSARL_v2","pSARL_v2c863w8l5","5f5834134283933a1c3b42d0","freq","img/green_2bandit_a2.png","70","70","test","1","42","42","3","",""
"null","203442","pSARL_v2","pSARL_v2c863w8l5","5f5834134283933a1c3b42d0","freq_resp","img/green_2bandit_a.png","70","70","test","","","","3","",""
"null","203602","pSARL_v2","pSARL_v2c863w8l5","5f5834134283933a1c3b42d0","fixation","img/fixation.png","null","","test","","","","","",""
"315","203921","pSARL_v2","pSARL_v2c863w8l5","5f5834134283933a1c3b42d0","freq","img/green_2bandit_a2.png","70","70","test","1","43","43","3","",""
"null","204424","pSARL_v2","pSARL_v2c863w8l5","5f5834134283933a1c3b42d0","freq_resp","img/green_2bandit_a.png","70","70","test","","","","3","",""
"null","204582","pSARL_v2","pSARL_v2c863w8l5","5f5834134283933a1c3b42d0","fixation","img/fixation.png","null","","test","","","","","",""
"271","204856","pSARL_v2","pSARL_v2c863w8l5","5f5834134283933a1c3b42d0","freq","img/green_2bandit_a2.png","70","70","test","1","44","44","3","",""
"null","205404","pSARL_v2","pSARL_v2c863w8l5","5f5834134283933a1c3b42d0","freq_resp","img/green_2bandit_a.png","70","70","test","","","","3","",""
"null","205562","pSARL_v2","pSARL_v2c863w8l5","5f5834134283933a1c3b42d0","fixation","img/fixation.png","null","","test","","","","","",""
"234","205800","pSARL_v2","pSARL_v2c863w8l5","5f5834134283933a1c3b42d0","freq","img/green_2bandit_a2.png","70","70","test","1","45","45","3","",""
"null","206382","pSARL_v2","pSARL_v2c863w8l5","5f5834134283933a1c3b42d0","freq_resp","img/green_2bandit_a.png","70","70","test","","","","3","",""
"null","206538","pSARL_v2","pSARL_v2c863w8l5","5f5834134283933a1c3b42d0","fixation","img/fixation.png","null","","test","","","","","",""
"248","206791","pSARL_v2","pSARL_v2c863w8l5","5f5834134283933a1c3b42d0","freq","img/green_2bandit_a2.png","70","70","test","1","46","46","3","",""
"null","207349","pSARL_v2","pSARL_v2c863w8l5","5f5834134283933a1c3b42d0","freq_resp","img/green_2bandit_a.png","70","70","test","","","","3","",""
"null","207506","pSARL_v2","pSARL_v2c863w8l5","5f5834134283933a1c3b42d0","fixation","img/fixation.png","null","","test","","","","","",""
"261","207772","pSARL_v2","pSARL_v2c863w8l5","5f5834134283933a1c3b42d0","freq","img/green_2bandit_a2.png","70","70","test","1","47","47","3","",""
"null","208326","pSARL_v2","pSARL_v2c863w8l5","5f5834134283933a1c3b42d0","freq_resp","img/green_2bandit_a.png","70","70","test","","","","3","",""
"null","208483","pSARL_v2","pSARL_v2c863w8l5","5f5834134283933a1c3b42d0","fixation","img/fixation.png","null","","test","","","","","",""
"261","208748","pSARL_v2","pSARL_v2c863w8l5","5f5834134283933a1c3b42d0","freq","img/green_2bandit_a2.png","70","70","test","1","48","48","3","",""
"null","209302","pSARL_v2","pSARL_v2c863w8l5","5f5834134283933a1c3b42d0","freq_resp","img/green_2bandit_a.png","70","70","test","","","","3","",""
"null","209458","pSARL_v2","pSARL_v2c863w8l5","5f5834134283933a1c3b42d0","fixation","img/fixation.png","null","","test","","","","","",""
"238","209700","pSARL_v2","pSARL_v2c863w8l5","5f5834134283933a1c3b42d0","freq","img/green_2bandit_a2.png","70","70","test","1","49","49","3","",""
"null","210268","pSARL_v2","pSARL_v2c863w8l5","5f5834134283933a1c3b42d0","freq_resp","img/green_2bandit_a.png","70","70","test","","","","3","",""
"null","210428","pSARL_v2","pSARL_v2c863w8l5","5f5834134283933a1c3b42d0","fixation","img/fixation.png","null","","test","","","","","",""
"272","210703","pSARL_v2","pSARL_v2c863w8l5","5f5834134283933a1c3b42d0","freq","img/green_2bandit_a2.png","70","70","test","1","50","50","3","",""
"null","211247","pSARL_v2","pSARL_v2c863w8l5","5f5834134283933a1c3b42d0","freq_resp","img/green_2bandit_a.png","70","70","test","","","","3","",""
"null","211406","pSARL_v2","pSARL_v2c863w8l5","5f5834134283933a1c3b42d0","fixation","img/fixation.png","null","","test","","","","","",""
"283","211694","pSARL_v2","pSARL_v2c863w8l5","5f5834134283933a1c3b42d0","freq","img/green_2bandit_a2.png","70","70","test","1","51","51","3","",""
"null","212230","pSARL_v2","pSARL_v2c863w8l5","5f5834134283933a1c3b42d0","freq_resp","img/green_2bandit_a.png","70","70","test","","","","3","",""
"null","212388","pSARL_v2","pSARL_v2c863w8l5","5f5834134283933a1c3b42d0","fixation","img/fixation.png","null","","test","","","","","",""
"266","212659","pSARL_v2","pSARL_v2c863w8l5","5f5834134283933a1c3b42d0","freq","img/green_2bandit_a2.png","70","70","test","1","52","52","3","",""
"null","213207","pSARL_v2","pSARL_v2c863w8l5","5f5834134283933a1c3b42d0","freq_resp","img/green_2bandit_a.png","70","70","test","","","","3","",""
"null","213366","pSARL_v2","pSARL_v2c863w8l5","5f5834134283933a1c3b42d0","fixation","img/fixation.png","null","","test","","","","","",""
"231","213602","pSARL_v2","pSARL_v2c863w8l5","5f5834134283933a1c3b42d0","freq","img/green_2bandit_a2.png","70","70","test","1","53","53","3","",""
"null","214184","pSARL_v2","pSARL_v2c863w8l5","5f5834134283933a1c3b42d0","freq_resp","img/green_2bandit_a.png","70","70","test","","","","3","",""
"null","214342","pSARL_v2","pSARL_v2c863w8l5","5f5834134283933a1c3b42d0","fixation","img/fixation.png","null","","test","","","","","",""
"390","214736","pSARL_v2","pSARL_v2c863w8l5","5f5834134283933a1c3b42d0","infreq","img/orange_2bandit_a2.png","68","68","test","1","54","54","3","",""
"null","215164","pSARL_v2","pSARL_v2c863w8l5","5f5834134283933a1c3b42d0","infreq_resp","img/orange_2bandit_a.png","68","68","test","","","","3","",""
"null","215321","pSARL_v2","pSARL_v2c863w8l5","5f5834134283933a1c3b42d0","fixation","img/fixation.png","null","","test","","","","","",""
"297","215623","pSARL_v2","pSARL_v2c863w8l5","5f5834134283933a1c3b42d0","infreq","img/orange_2bandit_a2.png","68","68","test","1","55","55","3","",""
"null","216142","pSARL_v2","pSARL_v2c863w8l5","5f5834134283933a1c3b42d0","infreq_resp","img/orange_2bandit_a.png","68","68","test","","","","3","",""
"null","216302","pSARL_v2","pSARL_v2c863w8l5","5f5834134283933a1c3b42d0","fixation","img/fixation.png","null","","test","","","","","",""
"415","216719","pSARL_v2","pSARL_v2c863w8l5","5f5834134283933a1c3b42d0","freq","img/green_2bandit_a2.png","70","70","test","1","56","56","3","",""
"null","217122","pSARL_v2","pSARL_v2c863w8l5","5f5834134283933a1c3b42d0","freq_resp","img/green_2bandit_a.png","70","70","test","","","","3","",""
"null","217278","pSARL_v2","pSARL_v2c863w8l5","5f5834134283933a1c3b42d0","fixation","img/fixation.png","null","","test","","","","","",""
"318","217600","pSARL_v2","pSARL_v2c863w8l5","5f5834134283933a1c3b42d0","freq","img/green_2bandit_a2.png","70","70","test","1","57","57","3","",""
"null","218092","pSARL_v2","pSARL_v2c863w8l5","5f5834134283933a1c3b42d0","freq_resp","img/green_2bandit_a.png","70","70","test","","","","3","",""
"null","218251","pSARL_v2","pSARL_v2c863w8l5","5f5834134283933a1c3b42d0","fixation","img/fixation.png","null","","test","","","","","",""
"451","218705","pSARL_v2","pSARL_v2c863w8l5","5f5834134283933a1c3b42d0","infreq","img/orange_2bandit_a2.png","68","68","test","1","58","58","3","",""
"null","219072","pSARL_v2","pSARL_v2c863w8l5","5f5834134283933a1c3b42d0","infreq_resp","img/orange_2bandit_a.png","68","68","test","","","","3","",""
"null","219229","pSARL_v2","pSARL_v2c863w8l5","5f5834134283933a1c3b42d0","fixation","img/fixation.png","null","","test","","","","","",""
"390","219623","pSARL_v2","pSARL_v2c863w8l5","5f5834134283933a1c3b42d0","freq","img/green_2bandit_a2.png","70","70","test","1","59","59","3","",""
"null","220048","pSARL_v2","pSARL_v2c863w8l5","5f5834134283933a1c3b42d0","freq_resp","img/green_2bandit_a.png","70","70","test","","","","3","",""
"null","220207","pSARL_v2","pSARL_v2c863w8l5","5f5834134283933a1c3b42d0","fixation","img/fixation.png","null","","test","","","","","",""
"334","220545","pSARL_v2","pSARL_v2c863w8l5","5f5834134283933a1c3b42d0","freq","img/green_2bandit_a2.png","70","70","test","1","60","60","3","",""
"null","221028","pSARL_v2","pSARL_v2c863w8l5","5f5834134283933a1c3b42d0","freq_resp","img/green_2bandit_a.png","70","70","test","","","","3","",""
"null","221187","pSARL_v2","pSARL_v2c863w8l5","5f5834134283933a1c3b42d0","fixation","img/fixation.png","null","","test","","","","","",""
"286","221476","pSARL_v2","pSARL_v2c863w8l5","5f5834134283933a1c3b42d0","freq","img/green_2bandit_a2.png","70","70","test","1","61","61","3","",""
"null","222006","pSARL_v2","pSARL_v2c863w8l5","5f5834134283933a1c3b42d0","freq_resp","img/green_2bandit_a.png","70","70","test","","","","3","",""
"null","222163","pSARL_v2","pSARL_v2c863w8l5","5f5834134283933a1c3b42d0","fixation","img/fixation.png","null","","test","","","","","",""
"291","222457","pSARL_v2","pSARL_v2c863w8l5","5f5834134283933a1c3b42d0","freq","img/green_2bandit_a2.png","70","70","test","1","62","62","3","",""
"null","222976","pSARL_v2","pSARL_v2c863w8l5","5f5834134283933a1c3b42d0","freq_resp","img/green_2bandit_a.png","70","70","test","","","","3","",""
"null","223131","pSARL_v2","pSARL_v2c863w8l5","5f5834134283933a1c3b42d0","fixation","img/fixation.png","null","","test","","","","","",""
"680","223814","pSARL_v2","pSARL_v2c863w8l5","5f5834134283933a1c3b42d0","reward","img/slot.png","74","","test","","","","","",""
"null","224580","pSARL_v2","pSARL_v2c863w8l5","5f5834134283933a1c3b42d0","points","<div class=""verylowPoints""> -7 </div>","null","na","test","","","","3","-7","2"
"407","224990","pSARL_v2","pSARL_v2c863w8l5","5f5834134283933a1c3b42d0","freq","img/green_2bandit_a2.png","70","70","test","1","63","63","4","",""
"null","225390","pSARL_v2","pSARL_v2c863w8l5","5f5834134283933a1c3b42d0","freq_resp","img/green_2bandit_a.png","70","70","test","","","","4","",""
"null","225547","pSARL_v2","pSARL_v2c863w8l5","5f5834134283933a1c3b42d0","fixation","img/fixation.png","null","","test","","","","","",""
"335","225886","pSARL_v2","pSARL_v2c863w8l5","5f5834134283933a1c3b42d0","freq","img/green_2bandit_a2.png","70","70","test","1","64","64","4","",""
"null","226369","pSARL_v2","pSARL_v2c863w8l5","5f5834134283933a1c3b42d0","freq_resp","img/green_2bandit_a.png","70","70","test","","","","4","",""
"null","226529","pSARL_v2","pSARL_v2c863w8l5","5f5834134283933a1c3b42d0","fixation","img/fixation.png","null","","test","","","","","",""
"622","227153","pSARL_v2","pSARL_v2c863w8l5","5f5834134283933a1c3b42d0","freq","img/green_2bandit_a2.png","70","70","test","1","65","65","4","",""
"null","227336","pSARL_v2","pSARL_v2c863w8l5","5f5834134283933a1c3b42d0","freq_resp","img/green_2bandit_a.png","70","70","test","","","","4","",""
"null","227494","pSARL_v2","pSARL_v2c863w8l5","5f5834134283933a1c3b42d0","fixation","img/fixation.png","null","","test","","","","","",""
"313","227811","pSARL_v2","pSARL_v2c863w8l5","5f5834134283933a1c3b42d0","freq","img/green_2bandit_a2.png","70","70","test","1","66","66","4","",""
"null","228316","pSARL_v2","pSARL_v2c863w8l5","5f5834134283933a1c3b42d0","freq_resp","img/green_2bandit_a.png","70","70","test","","","","4","",""
"null","228475","pSARL_v2","pSARL_v2c863w8l5","5f5834134283933a1c3b42d0","fixation","img/fixation.png","null","","test","","","","","",""
"314","228792","pSARL_v2","pSARL_v2c863w8l5","5f5834134283933a1c3b42d0","freq","img/green_2bandit_a2.png","70","70","test","1","67","67","4","",""
"null","229294","pSARL_v2","pSARL_v2c863w8l5","5f5834134283933a1c3b42d0","freq_resp","img/green_2bandit_a.png","70","70","test","","","","4","",""
"null","229453","pSARL_v2","pSARL_v2c863w8l5","5f5834134283933a1c3b42d0","fixation","img/fixation.png","null","","test","","","","","",""
"271","229728","pSARL_v2","pSARL_v2c863w8l5","5f5834134283933a1c3b42d0","freq","img/green_2bandit_a2.png","70","70","test","1","68","68","4","",""
"null","230261","pSARL_v2","pSARL_v2c863w8l5","5f5834134283933a1c3b42d0","freq_resp","img/green_2bandit_a.png","70","70","test","","","","4","",""
"null","230419","pSARL_v2","pSARL_v2c863w8l5","5f5834134283933a1c3b42d0","fixation","img/fixation.png","null","","test","","","","","",""
"396","230820","pSARL_v2","pSARL_v2c863w8l5","5f5834134283933a1c3b42d0","infreq","img/orange_2bandit_a2.png","68","68","test","1","69","69","4","",""
"null","231240","pSARL_v2","pSARL_v2c863w8l5","5f5834134283933a1c3b42d0","infreq_resp","img/orange_2bandit_a.png","68","68","test","","","","4","",""
"null","231400","pSARL_v2","pSARL_v2c863w8l5","5f5834134283933a1c3b42d0","fixation","img/fixation.png","null","","test","","","","","",""
"407","231810","pSARL_v2","pSARL_v2c863w8l5","5f5834134283933a1c3b42d0","freq","img/green_2bandit_a2.png","70","70","test","1","70","70","4","",""
"null","232207","pSARL_v2","pSARL_v2c863w8l5","5f5834134283933a1c3b42d0","freq_resp","img/green_2bandit_a.png","70","70","test","","","","4","",""
"null","232366","pSARL_v2","pSARL_v2c863w8l5","5f5834134283933a1c3b42d0","fixation","img/fixation.png","null","","test","","","","","",""
"417","232788","pSARL_v2","pSARL_v2c863w8l5","5f5834134283933a1c3b42d0","infreq","img/orange_2bandit_a2.png","68","68","test","1","71","71","4","",""
"null","233190","pSARL_v2","pSARL_v2c863w8l5","5f5834134283933a1c3b42d0","infreq_resp","img/orange_2bandit_a.png","68","68","test","","","","4","",""
"null","233347","pSARL_v2","pSARL_v2c863w8l5","5f5834134283933a1c3b42d0","fixation","img/fixation.png","null","","test","","","","","",""
"429","233780","pSARL_v2","pSARL_v2c863w8l5","5f5834134283933a1c3b42d0","freq","img/green_2bandit_a2.png","70","70","test","1","72","72","4","",""
"null","234156","pSARL_v2","pSARL_v2c863w8l5","5f5834134283933a1c3b42d0","freq_resp","img/green_2bandit_a.png","70","70","test","","","","4","",""
"null","234313","pSARL_v2","pSARL_v2c863w8l5","5f5834134283933a1c3b42d0","fixation","img/fixation.png","null","","test","","","","","",""
"351","234667","pSARL_v2","pSARL_v2c863w8l5","5f5834134283933a1c3b42d0","freq","img/green_2bandit_a2.png","70","70","test","1","73","73","4","",""
"null","235128","pSARL_v2","pSARL_v2c863w8l5","5f5834134283933a1c3b42d0","freq_resp","img/green_2bandit_a.png","70","70","test","","","","4","",""
"null","235287","pSARL_v2","pSARL_v2c863w8l5","5f5834134283933a1c3b42d0","fixation","img/fixation.png","null","","test","","","","","",""
"249","235542","pSARL_v2","pSARL_v2c863w8l5","5f5834134283933a1c3b42d0","freq","img/green_2bandit_a2.png","70","70","test","1","74","74","4","",""
"null","236108","pSARL_v2","pSARL_v2c863w8l5","5f5834134283933a1c3b42d0","freq_resp","img/green_2bandit_a.png","70","70","test","","","","4","",""
"null","236262","pSARL_v2","pSARL_v2c863w8l5","5f5834134283933a1c3b42d0","fixation","img/fixation.png","null","","test","","","","","",""
"272","236538","pSARL_v2","pSARL_v2c863w8l5","5f5834134283933a1c3b42d0","freq","img/green_2bandit_a2.png","70","70","test","1","75","75","4","",""
"null","237080","pSARL_v2","pSARL_v2c863w8l5","5f5834134283933a1c3b42d0","freq_resp","img/green_2bandit_a.png","70","70","test","","","","4","",""
"null","237239","pSARL_v2","pSARL_v2c863w8l5","5f5834134283933a1c3b42d0","fixation","img/fixation.png","null","","test","","","","","",""
"217","237461","pSARL_v2","pSARL_v2c863w8l5","5f5834134283933a1c3b42d0","freq","img/green_2bandit_a2.png","70","70","test","1","76","76","4","",""
"null","238057","pSARL_v2","pSARL_v2c863w8l5","5f5834134283933a1c3b42d0","freq_resp","img/green_2bandit_a.png","70","70","test","","","","4","",""
"null","238215","pSARL_v2","pSARL_v2c863w8l5","5f5834134283933a1c3b42d0","fixation","img/fixation.png","null","","test","","","","","",""
"316","238537","pSARL_v2","pSARL_v2c863w8l5","5f5834134283933a1c3b42d0","freq","img/green_2bandit_a2.png","70","70","test","1","77","77","4","",""
"null","239035","pSARL_v2","pSARL_v2c863w8l5","5f5834134283933a1c3b42d0","freq_resp","img/green_2bandit_a.png","70","70","test","","","","4","",""
"null","239194","pSARL_v2","pSARL_v2c863w8l5","5f5834134283933a1c3b42d0","fixation","img/fixation.png","null","","test","","","","","",""
"328","239526","pSARL_v2","pSARL_v2c863w8l5","5f5834134283933a1c3b42d0","freq","img/green_2bandit_a2.png","70","70","test","1","78","78","4","",""
"null","240016","pSARL_v2","pSARL_v2c863w8l5","5f5834134283933a1c3b42d0","freq_resp","img/green_2bandit_a.png","70","70","test","","","","4","",""
"null","240175","pSARL_v2","pSARL_v2c863w8l5","5f5834134283933a1c3b42d0","fixation","img/fixation.png","null","","test","","","","","",""
"342","240520","pSARL_v2","pSARL_v2c863w8l5","5f5834134283933a1c3b42d0","freq","img/green_2bandit_a2.png","70","70","test","1","79","79","4","",""
"null","240998","pSARL_v2","pSARL_v2c863w8l5","5f5834134283933a1c3b42d0","freq_resp","img/green_2bandit_a.png","70","70","test","","","","4","",""
"null","241157","pSARL_v2","pSARL_v2c863w8l5","5f5834134283933a1c3b42d0","fixation","img/fixation.png","null","","test","","","","","",""
"318","241478","pSARL_v2","pSARL_v2c863w8l5","5f5834134283933a1c3b42d0","freq","img/green_2bandit_a2.png","70","70","test","1","80","80","4","",""
"null","241976","pSARL_v2","pSARL_v2c863w8l5","5f5834134283933a1c3b42d0","freq_resp","img/green_2bandit_a.png","70","70","test","","","","4","",""
"null","242134","pSARL_v2","pSARL_v2c863w8l5","5f5834134283933a1c3b42d0","fixation","img/fixation.png","null","","test","","","","","",""
"265","242403","pSARL_v2","pSARL_v2c863w8l5","5f5834134283933a1c3b42d0","freq","img/green_2bandit_a2.png","70","70","test","1","81","81","4","",""
"null","242943","pSARL_v2","pSARL_v2c863w8l5","5f5834134283933a1c3b42d0","freq_resp","img/green_2bandit_a.png","70","70","test","","","","4","",""
"null","243100","pSARL_v2","pSARL_v2c863w8l5","5f5834134283933a1c3b42d0","fixation","img/fixation.png","null","","test","","","","","",""
"268","243373","pSARL_v2","pSARL_v2c863w8l5","5f5834134283933a1c3b42d0","freq","img/green_2bandit_a2.png","70","70","test","1","82","82","4","",""
"null","243922","pSARL_v2","pSARL_v2c863w8l5","5f5834134283933a1c3b42d0","freq_resp","img/green_2bandit_a.png","70","70","test","","","","4","",""
"null","244081","pSARL_v2","pSARL_v2c863w8l5","5f5834134283933a1c3b42d0","fixation","img/fixation.png","null","","test","","","","","",""
"272","244356","pSARL_v2","pSARL_v2c863w8l5","5f5834134283933a1c3b42d0","freq","img/green_2bandit_a2.png","70","70","test","1","83","83","4","",""
"null","244900","pSARL_v2","pSARL_v2c863w8l5","5f5834134283933a1c3b42d0","freq_resp","img/green_2bandit_a.png","70","70","test","","","","4","",""
"null","245057","pSARL_v2","pSARL_v2c863w8l5","5f5834134283933a1c3b42d0","fixation","img/fixation.png","null","","test","","","","","",""
"404","245466","pSARL_v2","pSARL_v2c863w8l5","5f5834134283933a1c3b42d0","infreq","img/orange_2bandit_a2.png","68","68","test","1","84","84","4","",""
"null","245878","pSARL_v2","pSARL_v2c863w8l5","5f5834134283933a1c3b42d0","infreq_resp","img/orange_2bandit_a.png","68","68","test","","","","4","",""
"null","246051","pSARL_v2","pSARL_v2c863w8l5","5f5834134283933a1c3b42d0","fixation","img/fixation.png","null","","test","","","","","",""
"373","246429","pSARL_v2","pSARL_v2c863w8l5","5f5834134283933a1c3b42d0","freq","img/green_2bandit_a2.png","70","70","test","1","85","85","4","",""
"null","246873","pSARL_v2","pSARL_v2c863w8l5","5f5834134283933a1c3b42d0","freq_resp","img/green_2bandit_a.png","70","70","test","","","","4","",""
"null","247032","pSARL_v2","pSARL_v2c863w8l5","5f5834134283933a1c3b42d0","fixation","img/fixation.png","null","","test","","","","","",""
"298","247332","pSARL_v2","pSARL_v2c863w8l5","5f5834134283933a1c3b42d0","freq","img/green_2bandit_a2.png","70","70","test","1","86","86","4","",""
"null","247838","pSARL_v2","pSARL_v2c863w8l5","5f5834134283933a1c3b42d0","freq_resp","img/green_2bandit_a.png","70","70","test","","","","4","",""
"null","247998","pSARL_v2","pSARL_v2c863w8l5","5f5834134283933a1c3b42d0","fixation","img/fixation.png","null","","test","","","","","",""
"292","248294","pSARL_v2","pSARL_v2c863w8l5","5f5834134283933a1c3b42d0","freq","img/green_2bandit_a2.png","70","70","test","1","87","87","4","",""
"null","248810","pSARL_v2","pSARL_v2c863w8l5","5f5834134283933a1c3b42d0","freq_resp","img/green_2bandit_a.png","70","70","test","","","","4","",""
"null","248964","pSARL_v2","pSARL_v2c863w8l5","5f5834134283933a1c3b42d0","fixation","img/fixation.png","null","","test","","","","","",""
"286","249253","pSARL_v2","pSARL_v2c863w8l5","5f5834134283933a1c3b42d0","freq","img/green_2bandit_a2.png","70","70","test","1","88","88","4","",""
"null","249782","pSARL_v2","pSARL_v2c863w8l5","5f5834134283933a1c3b42d0","freq_resp","img/green_2bandit_a.png","70","70","test","","","","4","",""
"null","249939","pSARL_v2","pSARL_v2c863w8l5","5f5834134283933a1c3b42d0","fixation","img/fixation.png","null","","test","","","","","",""
"288","250232","pSARL_v2","pSARL_v2c863w8l5","5f5834134283933a1c3b42d0","freq","img/green_2bandit_a2.png","70","70","test","1","89","89","4","",""
"null","250748","pSARL_v2","pSARL_v2c863w8l5","5f5834134283933a1c3b42d0","freq_resp","img/green_2bandit_a.png","70","70","test","","","","4","",""
"null","250906","pSARL_v2","pSARL_v2c863w8l5","5f5834134283933a1c3b42d0","fixation","img/fixation.png","null","","test","","","","","",""
"490","251400","pSARL_v2","pSARL_v2c863w8l5","5f5834134283933a1c3b42d0","reward","img/slot.png","74","","test","","","","","",""
"null","252165","pSARL_v2","pSARL_v2c863w8l5","5f5834134283933a1c3b42d0","points","<div class=""verylowPoints""> -3 </div>","null","na","test","","","","4","-3","3"
"336","252504","pSARL_v2","pSARL_v2c863w8l5","5f5834134283933a1c3b42d0","freq","img/green_2bandit_a2.png","70","70","test","1","90","90","5","",""
"null","252984","pSARL_v2","pSARL_v2c863w8l5","5f5834134283933a1c3b42d0","freq_resp","img/green_2bandit_a.png","70","70","test","","","","5","",""
"null","253144","pSARL_v2","pSARL_v2c863w8l5","5f5834134283933a1c3b42d0","fixation","img/fixation.png","null","","test","","","","","",""
"282","253429","pSARL_v2","pSARL_v2c863w8l5","5f5834134283933a1c3b42d0","freq","img/green_2bandit_a2.png","70","70","test","1","91","91","5","",""
"null","253967","pSARL_v2","pSARL_v2c863w8l5","5f5834134283933a1c3b42d0","freq_resp","img/green_2bandit_a.png","70","70","test","","","","5","",""
"null","254140","pSARL_v2","pSARL_v2c863w8l5","5f5834134283933a1c3b42d0","fixation","img/fixation.png","null","","test","","","","","",""
"289","254432","pSARL_v2","pSARL_v2c863w8l5","5f5834134283933a1c3b42d0","freq","img/green_2bandit_a2.png","70","70","test","1","92","92","5","",""
"null","254947","pSARL_v2","pSARL_v2c863w8l5","5f5834134283933a1c3b42d0","freq_resp","img/green_2bandit_a.png","70","70","test","","","","5","",""
"null","255105","pSARL_v2","pSARL_v2c863w8l5","5f5834134283933a1c3b42d0","fixation","img/fixation.png","null","","test","","","","","",""
"320","255428","pSARL_v2","pSARL_v2c863w8l5","5f5834134283933a1c3b42d0","freq","img/green_2bandit_a2.png","70","70","test","1","93","93","5","",""
"null","255927","pSARL_v2","pSARL_v2c863w8l5","5f5834134283933a1c3b42d0","freq_resp","img/green_2bandit_a.png","70","70","test","","","","5","",""
"null","256086","pSARL_v2","pSARL_v2c863w8l5","5f5834134283933a1c3b42d0","fixation","img/fixation.png","null","","test","","","","","",""
"303","256392","pSARL_v2","pSARL_v2c863w8l5","5f5834134283933a1c3b42d0","freq","img/green_2bandit_a2.png","70","70","test","1","94","94","5","",""
"null","256908","pSARL_v2","pSARL_v2c863w8l5","5f5834134283933a1c3b42d0","freq_resp","img/green_2bandit_a.png","70","70","test","","","","5","",""
"null","257067","pSARL_v2","pSARL_v2c863w8l5","5f5834134283933a1c3b42d0","fixation","img/fixation.png","null","","test","","","","","",""
"370","257441","pSARL_v2","pSARL_v2c863w8l5","5f5834134283933a1c3b42d0","infreq","img/orange_2bandit_a2.png","68","68","test","1","95","95","5","",""
"null","257888","pSARL_v2","pSARL_v2c863w8l5","5f5834134283933a1c3b42d0","infreq_resp","img/orange_2bandit_a.png","68","68","test","","","","5","",""
"null","258045","pSARL_v2","pSARL_v2c863w8l5","5f5834134283933a1c3b42d0","fixation","img/fixation.png","null","","test","","","","","",""
"392","258441","pSARL_v2","pSARL_v2c863w8l5","5f5834134283933a1c3b42d0","freq","img/green_2bandit_a2.png","70","70","test","1","96","96","5","",""
"null","258854","pSARL_v2","pSARL_v2c863w8l5","5f5834134283933a1c3b42d0","freq_resp","img/green_2bandit_a.png","70","70","test","","","","5","",""
"null","259014","pSARL_v2","pSARL_v2c863w8l5","5f5834134283933a1c3b42d0","fixation","img/fixation.png","null","","test","","","","","",""
"463","259481","pSARL_v2","pSARL_v2c863w8l5","5f5834134283933a1c3b42d0","freq","img/green_2bandit_a2.png","70","70","test","1","97","97","5","",""
"null","259835","pSARL_v2","pSARL_v2c863w8l5","5f5834134283933a1c3b42d0","freq_resp","img/green_2bandit_a.png","70","70","test","","","","5","",""
"null","259994","pSARL_v2","pSARL_v2c863w8l5","5f5834134283933a1c3b42d0","fixation","img/fixation.png","null","","test","","","","","",""
"283","260281","pSARL_v2","pSARL_v2c863w8l5","5f5834134283933a1c3b42d0","freq","img/green_2bandit_a2.png","70","70","test","1","98","98","5","",""
"null","260806","pSARL_v2","pSARL_v2c863w8l5","5f5834134283933a1c3b42d0","freq_resp","img/green_2bandit_a.png","70","70","test","","","","5","",""
"null","260965","pSARL_v2","pSARL_v2c863w8l5","5f5834134283933a1c3b42d0","fixation","img/fixation.png","null","","test","","","","","",""
"259","261227","pSARL_v2","pSARL_v2c863w8l5","5f5834134283933a1c3b42d0","freq","img/green_2bandit_a2.png","70","70","test","1","99","99","5","",""
"null","261785","pSARL_v2","pSARL_v2c863w8l5","5f5834134283933a1c3b42d0","freq_resp","img/green_2bandit_a.png","70","70","test","","","","5","",""
"null","261944","pSARL_v2","pSARL_v2c863w8l5","5f5834134283933a1c3b42d0","fixation","img/fixation.png","null","","test","","","","","",""
"280","262228","pSARL_v2","pSARL_v2c863w8l5","5f5834134283933a1c3b42d0","freq","img/green_2bandit_a2.png","70","70","test","1","100","100","5","",""
"null","262767","pSARL_v2","pSARL_v2c863w8l5","5f5834134283933a1c3b42d0","freq_resp","img/green_2bandit_a.png","70","70","test","","","","5","",""
"null","262924","pSARL_v2","pSARL_v2c863w8l5","5f5834134283933a1c3b42d0","fixation","img/fixation.png","null","","test","","","","","",""
"280","263207","pSARL_v2","pSARL_v2c863w8l5","5f5834134283933a1c3b42d0","freq","img/green_2bandit_a2.png","70","70","test","1","101","101","5","",""
"null","263736","pSARL_v2","pSARL_v2c863w8l5","5f5834134283933a1c3b42d0","freq_resp","img/green_2bandit_a.png","70","70","test","","","","5","",""
"null","263894","pSARL_v2","pSARL_v2c863w8l5","5f5834134283933a1c3b42d0","fixation","img/fixation.png","null","","test","","","","","",""
"240","264138","pSARL_v2","pSARL_v2c863w8l5","5f5834134283933a1c3b42d0","freq","img/green_2bandit_a2.png","70","70","test","1","102","102","5","",""
"null","264703","pSARL_v2","pSARL_v2c863w8l5","5f5834134283933a1c3b42d0","freq_resp","img/green_2bandit_a.png","70","70","test","","","","5","",""
"null","264862","pSARL_v2","pSARL_v2c863w8l5","5f5834134283933a1c3b42d0","fixation","img/fixation.png","null","","test","","","","","",""
"370","265235","pSARL_v2","pSARL_v2c863w8l5","5f5834134283933a1c3b42d0","infreq","img/orange_2bandit_a2.png","68","68","test","1","103","103","5","",""
"null","265683","pSARL_v2","pSARL_v2c863w8l5","5f5834134283933a1c3b42d0","infreq_resp","img/orange_2bandit_a.png","68","68","test","","","","5","",""
"null","265838","pSARL_v2","pSARL_v2c863w8l5","5f5834134283933a1c3b42d0","fixation","img/fixation.png","null","","test","","","","","",""
"418","266261","pSARL_v2","pSARL_v2c863w8l5","5f5834134283933a1c3b42d0","freq","img/green_2bandit_a2.png","70","70","test","1","104","104","5","",""
"null","266658","pSARL_v2","pSARL_v2c863w8l5","5f5834134283933a1c3b42d0","freq_resp","img/green_2bandit_a.png","70","70","test","","","","5","",""
"null","266816","pSARL_v2","pSARL_v2c863w8l5","5f5834134283933a1c3b42d0","fixation","img/fixation.png","null","","test","","","","","",""
"270","267089","pSARL_v2","pSARL_v2c863w8l5","5f5834134283933a1c3b42d0","freq","img/green_2bandit_a2.png","70","70","test","1","105","105","5","",""
"null","267623","pSARL_v2","pSARL_v2c863w8l5","5f5834134283933a1c3b42d0","freq_resp","img/green_2bandit_a.png","70","70","test","","","","5","",""
"null","267782","pSARL_v2","pSARL_v2c863w8l5","5f5834134283933a1c3b42d0","fixation","img/fixation.png","null","","test","","","","","",""
"261","268048","pSARL_v2","pSARL_v2c863w8l5","5f5834134283933a1c3b42d0","freq","img/green_2bandit_a2.png","70","70","test","1","106","106","5","",""
"null","268606","pSARL_v2","pSARL_v2c863w8l5","5f5834134283933a1c3b42d0","freq_resp","img/green_2bandit_a.png","70","70","test","","","","5","",""
"null","268764","pSARL_v2","pSARL_v2c863w8l5","5f5834134283933a1c3b42d0","fixation","img/fixation.png","null","","test","","","","","",""
"374","269143","pSARL_v2","pSARL_v2c863w8l5","5f5834134283933a1c3b42d0","freq","img/green_2bandit_a2.png","70","70","test","1","107","107","5","",""
"null","269589","pSARL_v2","pSARL_v2c863w8l5","5f5834134283933a1c3b42d0","freq_resp","img/green_2bandit_a.png","70","70","test","","","","5","",""
"null","269747","pSARL_v2","pSARL_v2c863w8l5","5f5834134283933a1c3b42d0","fixation","img/fixation.png","null","","test","","","","","",""
"262","270013","pSARL_v2","pSARL_v2c863w8l5","5f5834134283933a1c3b42d0","freq","img/green_2bandit_a2.png","70","70","test","1","108","108","5","",""
"null","270569","pSARL_v2","pSARL_v2c863w8l5","5f5834134283933a1c3b42d0","freq_resp","img/green_2bandit_a.png","70","70","test","","","","5","",""
"null","270727","pSARL_v2","pSARL_v2c863w8l5","5f5834134283933a1c3b42d0","fixation","img/fixation.png","null","","test","","","","","",""
"284","271016","pSARL_v2","pSARL_v2c863w8l5","5f5834134283933a1c3b42d0","freq","img/green_2bandit_a2.png","70","70","test","1","109","109","5","",""
"null","271546","pSARL_v2","pSARL_v2c863w8l5","5f5834134283933a1c3b42d0","freq_resp","img/green_2bandit_a.png","70","70","test","","","","5","",""
"null","271705","pSARL_v2","pSARL_v2c863w8l5","5f5834134283933a1c3b42d0","fixation","img/fixation.png","null","","test","","","","","",""
"272","271982","pSARL_v2","pSARL_v2c863w8l5","5f5834134283933a1c3b42d0","freq","img/green_2bandit_a2.png","70","70","test","1","110","110","5","",""
"null","272527","pSARL_v2","pSARL_v2c863w8l5","5f5834134283933a1c3b42d0","freq_resp","img/green_2bandit_a.png","70","70","test","","","","5","",""
"null","272684","pSARL_v2","pSARL_v2c863w8l5","5f5834134283933a1c3b42d0","fixation","img/fixation.png","null","","test","","","","","",""
"284","272971","pSARL_v2","pSARL_v2c863w8l5","5f5834134283933a1c3b42d0","freq","img/green_2bandit_a2.png","70","70","test","1","111","111","5","",""
"null","273501","pSARL_v2","pSARL_v2c863w8l5","5f5834134283933a1c3b42d0","freq_resp","img/green_2bandit_a.png","70","70","test","","","","5","",""
"null","273659","pSARL_v2","pSARL_v2c863w8l5","5f5834134283933a1c3b42d0","fixation","img/fixation.png","null","","test","","","","","",""
"234","273895","pSARL_v2","pSARL_v2c863w8l5","5f5834134283933a1c3b42d0","freq","img/green_2bandit_a2.png","70","70","test","1","112","112","5","",""
"null","274481","pSARL_v2","pSARL_v2c863w8l5","5f5834134283933a1c3b42d0","freq_resp","img/green_2bandit_a.png","70","70","test","","","","5","",""
"null","274637","pSARL_v2","pSARL_v2c863w8l5","5f5834134283933a1c3b42d0","fixation","img/fixation.png","null","","test","","","","","",""
"318","274960","pSARL_v2","pSARL_v2c863w8l5","5f5834134283933a1c3b42d0","freq","img/green_2bandit_a2.png","70","70","test","1","113","113","5","",""
"null","275457","pSARL_v2","pSARL_v2c863w8l5","5f5834134283933a1c3b42d0","freq_resp","img/green_2bandit_a.png","70","70","test","","","","5","",""
"null","275616","pSARL_v2","pSARL_v2c863w8l5","5f5834134283933a1c3b42d0","fixation","img/fixation.png","null","","test","","","","","",""
"256","275876","pSARL_v2","pSARL_v2c863w8l5","5f5834134283933a1c3b42d0","freq","img/green_2bandit_a2.png","70","70","test","1","114","114","5","",""
"null","276437","pSARL_v2","pSARL_v2c863w8l5","5f5834134283933a1c3b42d0","freq_resp","img/green_2bandit_a.png","70","70","test","","","","5","",""
"null","276596","pSARL_v2","pSARL_v2c863w8l5","5f5834134283933a1c3b42d0","fixation","img/fixation.png","null","","test","","","","","",""
"218","276818","pSARL_v2","pSARL_v2c863w8l5","5f5834134283933a1c3b42d0","freq","img/green_2bandit_a2.png","70","70","test","1","115","115","5","",""
"null","277405","pSARL_v2","pSARL_v2c863w8l5","5f5834134283933a1c3b42d0","freq_resp","img/green_2bandit_a.png","70","70","test","","","","5","",""
"null","277562","pSARL_v2","pSARL_v2c863w8l5","5f5834134283933a1c3b42d0","fixation","img/fixation.png","null","","test","","","","","",""
"564","278129","pSARL_v2","pSARL_v2c863w8l5","5f5834134283933a1c3b42d0","reward","img/slot.png","74","","test","","","","","",""
"null","278894","pSARL_v2","pSARL_v2c863w8l5","5f5834134283933a1c3b42d0","points","<div class=""veryhighPoints""> +1 </div>","null","na","test","","","","5","1","4"
"359","279256","pSARL_v2","pSARL_v2c863w8l5","5f5834134283933a1c3b42d0","freq","img/green_2bandit_a2.png","70","70","test","1","116","116","6","",""
"null","279715","pSARL_v2","pSARL_v2c863w8l5","5f5834134283933a1c3b42d0","freq_resp","img/green_2bandit_a.png","70","70","test","","","","6","",""
"null","279872","pSARL_v2","pSARL_v2c863w8l5","5f5834134283933a1c3b42d0","fixation","img/fixation.png","null","","test","","","","","",""
"332","280207","pSARL_v2","pSARL_v2c863w8l5","5f5834134283933a1c3b42d0","freq","img/green_2bandit_a2.png","70","70","test","1","117","117","6","",""
"null","280689","pSARL_v2","pSARL_v2c863w8l5","5f5834134283933a1c3b42d0","freq_resp","img/green_2bandit_a.png","70","70","test","","","","6","",""
"null","280846","pSARL_v2","pSARL_v2c863w8l5","5f5834134283933a1c3b42d0","fixation","img/fixation.png","null","","test","","","","","",""
"245","281095","pSARL_v2","pSARL_v2c863w8l5","5f5834134283933a1c3b42d0","infreq","img/orange_2bandit_a2.png","70","68","test","0","118","118","6","",""
"null","281669","pSARL_v2","pSARL_v2c863w8l5","5f5834134283933a1c3b42d0","infreq_resp","img/orange_2bandit_a.png","70","68","test","","","","6","",""
"null","281828","pSARL_v2","pSARL_v2c863w8l5","5f5834134283933a1c3b42d0","fixation","img/fixation.png","null","","test","","","","","",""
"396","282228","pSARL_v2","pSARL_v2c863w8l5","5f5834134283933a1c3b42d0","freq","img/green_2bandit_a2.png","70","70","test","1","119","119","6","",""
"null","282644","pSARL_v2","pSARL_v2c863w8l5","5f5834134283933a1c3b42d0","freq_resp","img/green_2bandit_a.png","70","70","test","","","","6","",""
"null","282803","pSARL_v2","pSARL_v2c863w8l5","5f5834134283933a1c3b42d0","fixation","img/fixation.png","null","","test","","","","","",""
"298","283104","pSARL_v2","pSARL_v2c863w8l5","5f5834134283933a1c3b42d0","freq","img/green_2bandit_a2.png","70","70","test","1","120","120","6","",""
"null","283626","pSARL_v2","pSARL_v2c863w8l5","5f5834134283933a1c3b42d0","freq_resp","img/green_2bandit_a.png","70","70","test","","","","6","",""
"null","283783","pSARL_v2","pSARL_v2c863w8l5","5f5834134283933a1c3b42d0","fixation","img/fixation.png","null","","test","","","","","",""
"339","284125","pSARL_v2","pSARL_v2c863w8l5","5f5834134283933a1c3b42d0","freq","img/green_2bandit_a2.png","70","70","test","1","121","121","6","",""
"null","284589","pSARL_v2","pSARL_v2c863w8l5","5f5834134283933a1c3b42d0","freq_resp","img/green_2bandit_a.png","70","70","test","","","","6","",""
"null","284748","pSARL_v2","pSARL_v2c863w8l5","5f5834134283933a1c3b42d0","fixation","img/fixation.png","null","","test","","","","","",""
"280","285033","pSARL_v2","pSARL_v2c863w8l5","5f5834134283933a1c3b42d0","freq","img/green_2bandit_a2.png","70","70","test","1","122","122","6","",""
"null","285569","pSARL_v2","pSARL_v2c863w8l5","5f5834134283933a1c3b42d0","freq_resp","img/green_2bandit_a.png","70","70","test","","","","6","",""
"null","285729","pSARL_v2","pSARL_v2c863w8l5","5f5834134283933a1c3b42d0","fixation","img/fixation.png","null","","test","","","","","",""
"271","286005","pSARL_v2","pSARL_v2c863w8l5","5f5834134283933a1c3b42d0","freq","img/green_2bandit_a2.png","70","70","test","1","123","123","6","",""
"null","286545","pSARL_v2","pSARL_v2c863w8l5","5f5834134283933a1c3b42d0","freq_resp","img/green_2bandit_a.png","70","70","test","","","","6","",""
"null","286701","pSARL_v2","pSARL_v2c863w8l5","5f5834134283933a1c3b42d0","fixation","img/fixation.png","null","","test","","","","","",""
"440","287145","pSARL_v2","pSARL_v2c863w8l5","5f5834134283933a1c3b42d0","infreq","img/orange_2bandit_a2.png","68","68","test","1","124","124","6","",""
"null","287523","pSARL_v2","pSARL_v2c863w8l5","5f5834134283933a1c3b42d0","infreq_resp","img/orange_2bandit_a.png","68","68","test","","","","6","",""
"null","287684","pSARL_v2","pSARL_v2c863w8l5","5f5834134283933a1c3b42d0","fixation","img/fixation.png","null","","test","","","","","",""
"490","288178","pSARL_v2","pSARL_v2c863w8l5","5f5834134283933a1c3b42d0","freq","img/green_2bandit_a2.png","70","70","test","1","125","125","6","",""
"null","288505","pSARL_v2","pSARL_v2c863w8l5","5f5834134283933a1c3b42d0","freq_resp","img/green_2bandit_a.png","70","70","test","","","","6","",""
"null","288663","pSARL_v2","pSARL_v2c863w8l5","5f5834134283933a1c3b42d0","fixation","img/fixation.png","null","","test","","","","","",""
"289","288955","pSARL_v2","pSARL_v2c863w8l5","5f5834134283933a1c3b42d0","freq","img/green_2bandit_a2.png","70","70","test","1","126","126","6","",""
"null","289486","pSARL_v2","pSARL_v2c863w8l5","5f5834134283933a1c3b42d0","freq_resp","img/green_2bandit_a.png","70","70","test","","","","6","",""
"null","289643","pSARL_v2","pSARL_v2c863w8l5","5f5834134283933a1c3b42d0","fixation","img/fixation.png","null","","test","","","","","",""
"319","289966","pSARL_v2","pSARL_v2c863w8l5","5f5834134283933a1c3b42d0","freq","img/green_2bandit_a2.png","70","70","test","1","127","127","6","",""
"null","290458","pSARL_v2","pSARL_v2c863w8l5","5f5834134283933a1c3b42d0","freq_resp","img/green_2bandit_a.png","70","70","test","","","","6","",""
"null","290618","pSARL_v2","pSARL_v2c863w8l5","5f5834134283933a1c3b42d0","fixation","img/fixation.png","null","","test","","","","","",""
"282","290903","pSARL_v2","pSARL_v2c863w8l5","5f5834134283933a1c3b42d0","freq","img/green_2bandit_a2.png","70","70","test","1","128","128","6","",""
"null","291439","pSARL_v2","pSARL_v2c863w8l5","5f5834134283933a1c3b42d0","freq_resp","img/green_2bandit_a.png","70","70","test","","","","6","",""
"null","291597","pSARL_v2","pSARL_v2c863w8l5","5f5834134283933a1c3b42d0","fixation","img/fixation.png","null","","test","","","","","",""
"209","291809","pSARL_v2","pSARL_v2c863w8l5","5f5834134283933a1c3b42d0","freq","img/green_2bandit_a2.png","70","70","test","1","129","129","6","",""
"null","292414","pSARL_v2","pSARL_v2c863w8l5","5f5834134283933a1c3b42d0","freq_resp","img/green_2bandit_a.png","70","70","test","","","","6","",""
"null","292574","pSARL_v2","pSARL_v2c863w8l5","5f5834134283933a1c3b42d0","fixation","img/fixation.png","null","","test","","","","","",""
"236","292813","pSARL_v2","pSARL_v2c863w8l5","5f5834134283933a1c3b42d0","freq","img/green_2bandit_a2.png","70","70","test","1","130","130","6","",""
"null","293395","pSARL_v2","pSARL_v2c863w8l5","5f5834134283933a1c3b42d0","freq_resp","img/green_2bandit_a.png","70","70","test","","","","6","",""
"null","293551","pSARL_v2","pSARL_v2c863w8l5","5f5834134283933a1c3b42d0","fixation","img/fixation.png","null","","test","","","","","",""
"229","293784","pSARL_v2","pSARL_v2c863w8l5","5f5834134283933a1c3b42d0","freq","img/green_2bandit_a2.png","70","70","test","1","131","131","6","",""
"null","294372","pSARL_v2","pSARL_v2c863w8l5","5f5834134283933a1c3b42d0","freq_resp","img/green_2bandit_a.png","70","70","test","","","","6","",""
"null","294531","pSARL_v2","pSARL_v2c863w8l5","5f5834134283933a1c3b42d0","fixation","img/fixation.png","null","","test","","","","","",""
"234","294768","pSARL_v2","pSARL_v2c863w8l5","5f5834134283933a1c3b42d0","freq","img/green_2bandit_a2.png","70","70","test","1","132","132","6","",""
"null","295339","pSARL_v2","pSARL_v2c863w8l5","5f5834134283933a1c3b42d0","freq_resp","img/green_2bandit_a.png","70","70","test","","","","6","",""
"null","295498","pSARL_v2","pSARL_v2c863w8l5","5f5834134283933a1c3b42d0","fixation","img/fixation.png","null","","test","","","","","",""
"240","295742","pSARL_v2","pSARL_v2c863w8l5","5f5834134283933a1c3b42d0","freq","img/green_2bandit_a2.png","70","70","test","1","133","133","6","",""
"null","296307","pSARL_v2","pSARL_v2c863w8l5","5f5834134283933a1c3b42d0","freq_resp","img/green_2bandit_a.png","70","70","test","","","","6","",""
"null","296464","pSARL_v2","pSARL_v2c863w8l5","5f5834134283933a1c3b42d0","fixation","img/fixation.png","null","","test","","","","","",""
"185","296652","pSARL_v2","pSARL_v2c863w8l5","5f5834134283933a1c3b42d0","freq","img/green_2bandit_a2.png","70","70","test","1","134","134","6","",""
"null","297273","pSARL_v2","pSARL_v2c863w8l5","5f5834134283933a1c3b42d0","freq_resp","img/green_2bandit_a.png","70","70","test","","","","6","",""
"null","297429","pSARL_v2","pSARL_v2c863w8l5","5f5834134283933a1c3b42d0","fixation","img/fixation.png","null","","test","","","","","",""
"207","297640","pSARL_v2","pSARL_v2c863w8l5","5f5834134283933a1c3b42d0","freq","img/green_2bandit_a2.png","70","70","test","1","135","135","6","",""
"null","298249","pSARL_v2","pSARL_v2c863w8l5","5f5834134283933a1c3b42d0","freq_resp","img/green_2bandit_a.png","70","70","test","","","","6","",""
"null","298407","pSARL_v2","pSARL_v2c863w8l5","5f5834134283933a1c3b42d0","fixation","img/fixation.png","null","","test","","","","","",""
"232","298641","pSARL_v2","pSARL_v2c863w8l5","5f5834134283933a1c3b42d0","freq","img/green_2bandit_a2.png","70","70","test","1","136","136","6","",""
"null","299222","pSARL_v2","pSARL_v2c863w8l5","5f5834134283933a1c3b42d0","freq_resp","img/green_2bandit_a.png","70","70","test","","","","6","",""
"null","299382","pSARL_v2","pSARL_v2c863w8l5","5f5834134283933a1c3b42d0","fixation","img/fixation.png","null","","test","","","","","",""
"223","299609","pSARL_v2","pSARL_v2c863w8l5","5f5834134283933a1c3b42d0","freq","img/green_2bandit_a2.png","70","70","test","1","137","137","6","",""
"null","300202","pSARL_v2","pSARL_v2c863w8l5","5f5834134283933a1c3b42d0","freq_resp","img/green_2bandit_a.png","70","70","test","","","","6","",""
"null","300360","pSARL_v2","pSARL_v2c863w8l5","5f5834134283933a1c3b42d0","fixation","img/fixation.png","null","","test","","","","","",""
"220","300583","pSARL_v2","pSARL_v2c863w8l5","5f5834134283933a1c3b42d0","freq","img/green_2bandit_a2.png","70","70","test","1","138","138","6","",""
"null","301169","pSARL_v2","pSARL_v2c863w8l5","5f5834134283933a1c3b42d0","freq_resp","img/green_2bandit_a.png","70","70","test","","","","6","",""
"null","301327","pSARL_v2","pSARL_v2c863w8l5","5f5834134283933a1c3b42d0","fixation","img/fixation.png","null","","test","","","","","",""
"249","301580","pSARL_v2","pSARL_v2c863w8l5","5f5834134283933a1c3b42d0","freq","img/green_2bandit_a2.png","70","70","test","1","139","139","6","",""
"null","302149","pSARL_v2","pSARL_v2c863w8l5","5f5834134283933a1c3b42d0","freq_resp","img/green_2bandit_a.png","70","70","test","","","","6","",""
"null","302306","pSARL_v2","pSARL_v2c863w8l5","5f5834134283933a1c3b42d0","fixation","img/fixation.png","null","","test","","","","","",""
"502","302812","pSARL_v2","pSARL_v2c863w8l5","5f5834134283933a1c3b42d0","reward","img/slot.png","74","","test","","","","","",""
"null","303566","pSARL_v2","pSARL_v2c863w8l5","5f5834134283933a1c3b42d0","points","<div class=""verylowPoints""> -7 </div>","null","na","test","","","","6","-7","5"
"222","303794","pSARL_v2","pSARL_v2c863w8l5","5f5834134283933a1c3b42d0","freq","img/green_2bandit_a2.png","70","70","test","1","140","140","7","",""
"null","304391","pSARL_v2","pSARL_v2c863w8l5","5f5834134283933a1c3b42d0","freq_resp","img/green_2bandit_a.png","70","70","test","","","","7","",""
"null","304547","pSARL_v2","pSARL_v2c863w8l5","5f5834134283933a1c3b42d0","fixation","img/fixation.png","null","","test","","","","","",""
"246","304796","pSARL_v2","pSARL_v2c863w8l5","5f5834134283933a1c3b42d0","freq","img/green_2bandit_a2.png","70","70","test","1","141","141","7","",""
"null","305355","pSARL_v2","pSARL_v2c863w8l5","5f5834134283933a1c3b42d0","freq_resp","img/green_2bandit_a.png","70","70","test","","","","7","",""
"null","305513","pSARL_v2","pSARL_v2c863w8l5","5f5834134283933a1c3b42d0","fixation","img/fixation.png","null","","test","","","","","",""
"236","305751","pSARL_v2","pSARL_v2c863w8l5","5f5834134283933a1c3b42d0","freq","img/green_2bandit_a2.png","70","70","test","1","142","142","7","",""
"null","306333","pSARL_v2","pSARL_v2c863w8l5","5f5834134283933a1c3b42d0","freq_resp","img/green_2bandit_a.png","70","70","test","","","","7","",""
"null","306491","pSARL_v2","pSARL_v2c863w8l5","5f5834134283933a1c3b42d0","fixation","img/fixation.png","null","","test","","","","","",""
"441","306935","pSARL_v2","pSARL_v2c863w8l5","5f5834134283933a1c3b42d0","infreq","img/orange_2bandit_a2.png","68","68","test","1","143","143","7","",""
"null","307306","pSARL_v2","pSARL_v2c863w8l5","5f5834134283933a1c3b42d0","infreq_resp","img/orange_2bandit_a.png","68","68","test","","","","7","",""
"null","307467","pSARL_v2","pSARL_v2c863w8l5","5f5834134283933a1c3b42d0","fixation","img/fixation.png","null","","test","","","","","",""
"623","308093","pSARL_v2","pSARL_v2c863w8l5","5f5834134283933a1c3b42d0","freq","img/green_2bandit_a2.png","70","70","test","1","144","144","7","",""
"null","308275","pSARL_v2","pSARL_v2c863w8l5","5f5834134283933a1c3b42d0","freq_resp","img/green_2bandit_a.png","70","70","test","","","","7","",""
"null","308433","pSARL_v2","pSARL_v2c863w8l5","5f5834134283933a1c3b42d0","fixation","img/fixation.png","null","","test","","","","","",""
"374","308810","pSARL_v2","pSARL_v2c863w8l5","5f5834134283933a1c3b42d0","freq","img/green_2bandit_a2.png","70","70","test","1","145","145","7","",""
"null","309252","pSARL_v2","pSARL_v2c863w8l5","5f5834134283933a1c3b42d0","freq_resp","img/green_2bandit_a.png","70","70","test","","","","7","",""
"null","309408","pSARL_v2","pSARL_v2c863w8l5","5f5834134283933a1c3b42d0","fixation","img/fixation.png","null","","test","","","","","",""
"246","309659","pSARL_v2","pSARL_v2c863w8l5","5f5834134283933a1c3b42d0","freq","img/green_2bandit_a2.png","70","70","test","1","146","146","7","",""
"null","310232","pSARL_v2","pSARL_v2c863w8l5","5f5834134283933a1c3b42d0","freq_resp","img/green_2bandit_a.png","70","70","test","","","","7","",""
"null","310392","pSARL_v2","pSARL_v2c863w8l5","5f5834134283933a1c3b42d0","fixation","img/fixation.png","null","","test","","","","","",""
"265","310662","pSARL_v2","pSARL_v2c863w8l5","5f5834134283933a1c3b42d0","infreq","img/orange_2bandit_a2.png","70","68","test","0","147","147","7","",""
"null","311214","pSARL_v2","pSARL_v2c863w8l5","5f5834134283933a1c3b42d0","infreq_resp","img/orange_2bandit_a.png","70","68","test","","","","7","",""
"null","311373","pSARL_v2","pSARL_v2c863w8l5","5f5834134283933a1c3b42d0","fixation","img/fixation.png","null","","test","","","","","",""
"329","311706","pSARL_v2","pSARL_v2c863w8l5","5f5834134283933a1c3b42d0","freq","img/green_2bandit_a2.png","70","70","test","1","148","148","7","",""
"null","312195","pSARL_v2","pSARL_v2c863w8l5","5f5834134283933a1c3b42d0","freq_resp","img/green_2bandit_a.png","70","70","test","","","","7","",""
"null","312350","pSARL_v2","pSARL_v2c863w8l5","5f5834134283933a1c3b42d0","fixation","img/fixation.png","null","","test","","","","","",""
"285","312639","pSARL_v2","pSARL_v2c863w8l5","5f5834134283933a1c3b42d0","freq","img/green_2bandit_a2.png","70","70","test","1","149","149","7","",""
"null","313172","pSARL_v2","pSARL_v2c863w8l5","5f5834134283933a1c3b42d0","freq_resp","img/green_2bandit_a.png","70","70","test","","","","7","",""
"null","313331","pSARL_v2","pSARL_v2c863w8l5","5f5834134283933a1c3b42d0","fixation","img/fixation.png","null","","test","","","","","",""
"276","313611","pSARL_v2","pSARL_v2c863w8l5","5f5834134283933a1c3b42d0","freq","img/green_2bandit_a2.png","70","70","test","1","150","150","7","",""
"null","314150","pSARL_v2","pSARL_v2c863w8l5","5f5834134283933a1c3b42d0","freq_resp","img/green_2bandit_a.png","70","70","test","","","","7","",""
"null","314308","pSARL_v2","pSARL_v2c863w8l5","5f5834134283933a1c3b42d0","fixation","img/fixation.png","null","","test","","","","","",""
"266","314577","pSARL_v2","pSARL_v2c863w8l5","5f5834134283933a1c3b42d0","freq","img/green_2bandit_a2.png","70","70","test","1","151","151","7","",""
"null","315127","pSARL_v2","pSARL_v2c863w8l5","5f5834134283933a1c3b42d0","freq_resp","img/green_2bandit_a.png","70","70","test","","","","7","",""
"null","315285","pSARL_v2","pSARL_v2c863w8l5","5f5834134283933a1c3b42d0","fixation","img/fixation.png","null","","test","","","","","",""
"257","315547","pSARL_v2","pSARL_v2c863w8l5","5f5834134283933a1c3b42d0","freq","img/green_2bandit_a2.png","70","70","test","1","152","152","7","",""
"null","316109","pSARL_v2","pSARL_v2c863w8l5","5f5834134283933a1c3b42d0","freq_resp","img/green_2bandit_a.png","70","70","test","","","","7","",""
"null","316269","pSARL_v2","pSARL_v2c863w8l5","5f5834134283933a1c3b42d0","fixation","img/fixation.png","null","","test","","","","","",""
"109","316382","pSARL_v2","pSARL_v2c863w8l5","5f5834134283933a1c3b42d0","freq","img/green_2bandit_a2.png","70","70","test","1","153","153","7","",""
"null","317081","pSARL_v2","pSARL_v2c863w8l5","5f5834134283933a1c3b42d0","freq_resp","img/green_2bandit_a.png","70","70","test","","","","7","",""
"null","317239","pSARL_v2","pSARL_v2c863w8l5","5f5834134283933a1c3b42d0","fixation","img/fixation.png","null","","test","","","","","",""
"68","317310","pSARL_v2","pSARL_v2c863w8l5","5f5834134283933a1c3b42d0","freq","img/green_2bandit_a2.png","70","70","test","1","154","154","7","",""
"null","318059","pSARL_v2","pSARL_v2c863w8l5","5f5834134283933a1c3b42d0","freq_resp","img/green_2bandit_a.png","70","70","test","","","","7","",""
"null","318218","pSARL_v2","pSARL_v2c863w8l5","5f5834134283933a1c3b42d0","fixation","img/fixation.png","null","","test","","","","","",""
"247","318469","pSARL_v2","pSARL_v2c863w8l5","5f5834134283933a1c3b42d0","freq","img/green_2bandit_a2.png","70","70","test","1","155","155","7","",""
"null","319034","pSARL_v2","pSARL_v2c863w8l5","5f5834134283933a1c3b42d0","freq_resp","img/green_2bandit_a.png","70","70","test","","","","7","",""
"null","319190","pSARL_v2","pSARL_v2c863w8l5","5f5834134283933a1c3b42d0","fixation","img/fixation.png","null","","test","","","","","",""
"276","319470","pSARL_v2","pSARL_v2c863w8l5","5f5834134283933a1c3b42d0","freq","img/green_2bandit_a2.png","70","70","test","1","156","156","7","",""
"null","320012","pSARL_v2","pSARL_v2c863w8l5","5f5834134283933a1c3b42d0","freq_resp","img/green_2bandit_a.png","70","70","test","","","","7","",""
"null","320169","pSARL_v2","pSARL_v2c863w8l5","5f5834134283933a1c3b42d0","fixation","img/fixation.png","null","","test","","","","","",""
"299","320471","pSARL_v2","pSARL_v2c863w8l5","5f5834134283933a1c3b42d0","freq","img/green_2bandit_a2.png","70","70","test","1","157","157","7","",""
"null","320991","pSARL_v2","pSARL_v2c863w8l5","5f5834134283933a1c3b42d0","freq_resp","img/green_2bandit_a.png","70","70","test","","","","7","",""
"null","321145","pSARL_v2","pSARL_v2c863w8l5","5f5834134283933a1c3b42d0","fixation","img/fixation.png","null","","test","","","","","",""
"419","321568","pSARL_v2","pSARL_v2c863w8l5","5f5834134283933a1c3b42d0","infreq","img/orange_2bandit_a2.png","68","68","test","1","158","158","7","",""
"null","321954","pSARL_v2","pSARL_v2c863w8l5","5f5834134283933a1c3b42d0","infreq_resp","img/orange_2bandit_a.png","68","68","test","","","","7","",""
"null","322111","pSARL_v2","pSARL_v2c863w8l5","5f5834134283933a1c3b42d0","fixation","img/fixation.png","null","","test","","","","","",""
"371","322485","pSARL_v2","pSARL_v2c863w8l5","5f5834134283933a1c3b42d0","freq","img/green_2bandit_a2.png","70","70","test","1","159","159","7","",""
"null","322920","pSARL_v2","pSARL_v2c863w8l5","5f5834134283933a1c3b42d0","freq_resp","img/green_2bandit_a.png","70","70","test","","","","7","",""
"null","323078","pSARL_v2","pSARL_v2c863w8l5","5f5834134283933a1c3b42d0","fixation","img/fixation.png","null","","test","","","","","",""
"302","323384","pSARL_v2","pSARL_v2c863w8l5","5f5834134283933a1c3b42d0","freq","img/green_2bandit_a2.png","70","70","test","1","160","160","7","",""
"null","323887","pSARL_v2","pSARL_v2c863w8l5","5f5834134283933a1c3b42d0","freq_resp","img/green_2bandit_a.png","70","70","test","","","","7","",""
"null","324046","pSARL_v2","pSARL_v2c863w8l5","5f5834134283933a1c3b42d0","fixation","img/fixation.png","null","","test","","","","","",""
"282","324331","pSARL_v2","pSARL_v2c863w8l5","5f5834134283933a1c3b42d0","freq","img/green_2bandit_a2.png","70","70","test","1","161","161","7","",""
"null","324864","pSARL_v2","pSARL_v2c863w8l5","5f5834134283933a1c3b42d0","freq_resp","img/green_2bandit_a.png","70","70","test","","","","7","",""
"null","325023","pSARL_v2","pSARL_v2c863w8l5","5f5834134283933a1c3b42d0","fixation","img/fixation.png","null","","test","","","","","",""
"262","325290","pSARL_v2","pSARL_v2c863w8l5","5f5834134283933a1c3b42d0","freq","img/green_2bandit_a2.png","70","70","test","1","162","162","7","",""
"null","325844","pSARL_v2","pSARL_v2c863w8l5","5f5834134283933a1c3b42d0","freq_resp","img/green_2bandit_a.png","70","70","test","","","","7","",""
"null","326001","pSARL_v2","pSARL_v2c863w8l5","5f5834134283933a1c3b42d0","fixation","img/fixation.png","null","","test","","","","","",""
"467","326471","pSARL_v2","pSARL_v2c863w8l5","5f5834134283933a1c3b42d0","reward","img/slot.png","74","","test","","","","","",""
"null","327234","pSARL_v2","pSARL_v2c863w8l5","5f5834134283933a1c3b42d0","points","<div class=""verylowPoints""> -6 </div>","null","na","test","","","","7","-6","6"
"288","327526","pSARL_v2","pSARL_v2c863w8l5","5f5834134283933a1c3b42d0","freq","img/green_2bandit_a2.png","70","70","test","1","163","163","8","",""
"null","328054","pSARL_v2","pSARL_v2c863w8l5","5f5834134283933a1c3b42d0","freq_resp","img/green_2bandit_a.png","70","70","test","","","","8","",""
"null","328212","pSARL_v2","pSARL_v2c863w8l5","5f5834134283933a1c3b42d0","fixation","img/fixation.png","null","","test","","","","","",""
"155","328372","pSARL_v2","pSARL_v2c863w8l5","5f5834134283933a1c3b42d0","freq","img/green_2bandit_a2.png","70","70","test","1","164","164","8","",""
"null","329030","pSARL_v2","pSARL_v2c863w8l5","5f5834134283933a1c3b42d0","freq_resp","img/green_2bandit_a.png","70","70","test","","","","8","",""
"null","329186","pSARL_v2","pSARL_v2c863w8l5","5f5834134283933a1c3b42d0","fixation","img/fixation.png","null","","test","","","","","",""
"304","329495","pSARL_v2","pSARL_v2c863w8l5","5f5834134283933a1c3b42d0","freq","img/green_2bandit_a2.png","70","70","test","1","165","165","8","",""
"null","329995","pSARL_v2","pSARL_v2c863w8l5","5f5834134283933a1c3b42d0","freq_resp","img/green_2bandit_a.png","70","70","test","","","","8","",""
"null","330154","pSARL_v2","pSARL_v2c863w8l5","5f5834134283933a1c3b42d0","fixation","img/fixation.png","null","","test","","","","","",""
"265","330423","pSARL_v2","pSARL_v2c863w8l5","5f5834134283933a1c3b42d0","freq","img/green_2bandit_a2.png","70","70","test","1","166","166","8","",""
"null","330976","pSARL_v2","pSARL_v2c863w8l5","5f5834134283933a1c3b42d0","freq_resp","img/green_2bandit_a.png","70","70","test","","","","8","",""
"null","331136","pSARL_v2","pSARL_v2c863w8l5","5f5834134283933a1c3b42d0","fixation","img/fixation.png","null","","test","","","","","",""
"245","331384","pSARL_v2","pSARL_v2c863w8l5","5f5834134283933a1c3b42d0","freq","img/green_2bandit_a2.png","70","70","test","1","167","167","8","",""
"null","331943","pSARL_v2","pSARL_v2c863w8l5","5f5834134283933a1c3b42d0","freq_resp","img/green_2bandit_a.png","70","70","test","","","","8","",""
"null","332102","pSARL_v2","pSARL_v2c863w8l5","5f5834134283933a1c3b42d0","fixation","img/fixation.png","null","","test","","","","","",""
"290","332395","pSARL_v2","pSARL_v2c863w8l5","5f5834134283933a1c3b42d0","freq","img/green_2bandit_a2.png","70","70","test","1","168","168","8","",""
"null","332918","pSARL_v2","pSARL_v2c863w8l5","5f5834134283933a1c3b42d0","freq_resp","img/green_2bandit_a.png","70","70","test","","","","8","",""
"null","333076","pSARL_v2","pSARL_v2c863w8l5","5f5834134283933a1c3b42d0","fixation","img/fixation.png","null","","test","","","","","",""
"231","333312","pSARL_v2","pSARL_v2c863w8l5","5f5834134283933a1c3b42d0","freq","img/green_2bandit_a2.png","70","70","test","1","169","169","8","",""
"null","333899","pSARL_v2","pSARL_v2c863w8l5","5f5834134283933a1c3b42d0","freq_resp","img/green_2bandit_a.png","70","70","test","","","","8","",""
"null","334058","pSARL_v2","pSARL_v2c863w8l5","5f5834134283933a1c3b42d0","fixation","img/fixation.png","null","","test","","","","","",""
"298","334360","pSARL_v2","pSARL_v2c863w8l5","5f5834134283933a1c3b42d0","freq","img/green_2bandit_a2.png","70","70","test","1","170","170","8","",""
"null","334877","pSARL_v2","pSARL_v2c863w8l5","5f5834134283933a1c3b42d0","freq_resp","img/green_2bandit_a.png","70","70","test","","","","8","",""
"null","335034","pSARL_v2","pSARL_v2c863w8l5","5f5834134283933a1c3b42d0","fixation","img/fixation.png","null","","test","","","","","",""
"306","335343","pSARL_v2","pSARL_v2c863w8l5","5f5834134283933a1c3b42d0","freq","img/green_2bandit_a2.png","70","70","test","1","171","171","8","",""
"null","335854","pSARL_v2","pSARL_v2c863w8l5","5f5834134283933a1c3b42d0","freq_resp","img/green_2bandit_a.png","70","70","test","","","","8","",""
"null","336012","pSARL_v2","pSARL_v2c863w8l5","5f5834134283933a1c3b42d0","fixation","img/fixation.png","null","","test","","","","","",""
"281","336297","pSARL_v2","pSARL_v2c863w8l5","5f5834134283933a1c3b42d0","freq","img/green_2bandit_a2.png","70","70","test","1","172","172","8","",""
"null","336835","pSARL_v2","pSARL_v2c863w8l5","5f5834134283933a1c3b42d0","freq_resp","img/green_2bandit_a.png","70","70","test","","","","8","",""
"null","336994","pSARL_v2","pSARL_v2c863w8l5","5f5834134283933a1c3b42d0","fixation","img/fixation.png","null","","test","","","","","",""
"436","337435","pSARL_v2","pSARL_v2c863w8l5","5f5834134283933a1c3b42d0","infreq","img/orange_2bandit_a2.png","68","68","test","1","173","173","8","",""
"null","337815","pSARL_v2","pSARL_v2c863w8l5","5f5834134283933a1c3b42d0","infreq_resp","img/orange_2bandit_a.png","68","68","test","","","","8","",""
"null","337975","pSARL_v2","pSARL_v2c863w8l5","5f5834134283933a1c3b42d0","fixation","img/fixation.png","null","","test","","","","","",""
"309","338288","pSARL_v2","pSARL_v2c863w8l5","5f5834134283933a1c3b42d0","freq","img/green_2bandit_a2.png","70","70","test","1","174","174","8","",""
"null","338796","pSARL_v2","pSARL_v2c863w8l5","5f5834134283933a1c3b42d0","freq_resp","img/green_2bandit_a.png","70","70","test","","","","8","",""
"null","338952","pSARL_v2","pSARL_v2c863w8l5","5f5834134283933a1c3b42d0","fixation","img/fixation.png","null","","test","","","","","",""
"162","339117","pSARL_v2","pSARL_v2c863w8l5","5f5834134283933a1c3b42d0","freq","img/green_2bandit_a2.png","70","70","test","1","175","175","8","",""
"null","339772","pSARL_v2","pSARL_v2c863w8l5","5f5834134283933a1c3b42d0","freq_resp","img/green_2bandit_a.png","70","70","test","","","","8","",""
"null","339930","pSARL_v2","pSARL_v2c863w8l5","5f5834134283933a1c3b42d0","fixation","img/fixation.png","null","","test","","","","","",""
"200","340134","pSARL_v2","pSARL_v2c863w8l5","5f5834134283933a1c3b42d0","freq","img/green_2bandit_a2.png","70","70","test","1","176","176","8","",""
"null","340747","pSARL_v2","pSARL_v2c863w8l5","5f5834134283933a1c3b42d0","freq_resp","img/green_2bandit_a.png","70","70","test","","","","8","",""
"null","340906","pSARL_v2","pSARL_v2c863w8l5","5f5834134283933a1c3b42d0","fixation","img/fixation.png","null","","test","","","","","",""
"83","340991","pSARL_v2","pSARL_v2c863w8l5","5f5834134283933a1c3b42d0","freq","img/green_2bandit_a2.png","70","70","test","1","177","177","8","",""
"null","341713","pSARL_v2","pSARL_v2c863w8l5","5f5834134283933a1c3b42d0","freq_resp","img/green_2bandit_a.png","70","70","test","","","","8","",""
"null","341871","pSARL_v2","pSARL_v2c863w8l5","5f5834134283933a1c3b42d0","fixation","img/fixation.png","null","","test","","","","","",""
"464","342338","pSARL_v2","pSARL_v2c863w8l5","5f5834134283933a1c3b42d0","infreq","img/orange_2bandit_a2.png","68","68","test","1","178","178","8","",""
"null","342692","pSARL_v2","pSARL_v2c863w8l5","5f5834134283933a1c3b42d0","infreq_resp","img/orange_2bandit_a.png","68","68","test","","","","8","",""
"null","342848","pSARL_v2","pSARL_v2c863w8l5","5f5834134283933a1c3b42d0","fixation","img/fixation.png","null","","test","","","","","",""
"341","343193","pSARL_v2","pSARL_v2c863w8l5","5f5834134283933a1c3b42d0","freq","img/green_2bandit_a2.png","70","70","test","1","179","179","8","",""
"null","343672","pSARL_v2","pSARL_v2c863w8l5","5f5834134283933a1c3b42d0","freq_resp","img/green_2bandit_a.png","70","70","test","","","","8","",""
"null","343832","pSARL_v2","pSARL_v2c863w8l5","5f5834134283933a1c3b42d0","fixation","img/fixation.png","null","","test","","","","","",""
"294","344130","pSARL_v2","pSARL_v2c863w8l5","5f5834134283933a1c3b42d0","freq","img/green_2bandit_a2.png","70","70","test","1","180","180","8","",""
"null","344640","pSARL_v2","pSARL_v2c863w8l5","5f5834134283933a1c3b42d0","freq_resp","img/green_2bandit_a.png","70","70","test","","","","8","",""
"null","344798","pSARL_v2","pSARL_v2c863w8l5","5f5834134283933a1c3b42d0","fixation","img/fixation.png","null","","test","","","","","",""
"310","345113","pSARL_v2","pSARL_v2c863w8l5","5f5834134283933a1c3b42d0","freq","img/green_2bandit_a2.png","70","70","test","1","181","181","8","",""
"null","345616","pSARL_v2","pSARL_v2c863w8l5","5f5834134283933a1c3b42d0","freq_resp","img/green_2bandit_a.png","70","70","test","","","","8","",""
"null","345774","pSARL_v2","pSARL_v2c863w8l5","5f5834134283933a1c3b42d0","fixation","img/fixation.png","null","","test","","","","","",""
"290","346069","pSARL_v2","pSARL_v2c863w8l5","5f5834134283933a1c3b42d0","freq","img/green_2bandit_a2.png","70","70","test","1","182","182","8","",""
"null","346584","pSARL_v2","pSARL_v2c863w8l5","5f5834134283933a1c3b42d0","freq_resp","img/green_2bandit_a.png","70","70","test","","","","8","",""
"null","346742","pSARL_v2","pSARL_v2c863w8l5","5f5834134283933a1c3b42d0","fixation","img/fixation.png","null","","test","","","","","",""
"700","347444","pSARL_v2","pSARL_v2c863w8l5","5f5834134283933a1c3b42d0","freq","img/green_2bandit_a2.png","70","70","test","1","183","183","8","",""
"null","347561","pSARL_v2","pSARL_v2c863w8l5","5f5834134283933a1c3b42d0","freq_resp","img/green_2bandit_a.png","70","70","test","","","","8","",""
"null","347720","pSARL_v2","pSARL_v2c863w8l5","5f5834134283933a1c3b42d0","fixation","img/fixation.png","null","","test","","","","","",""
"372","348097","pSARL_v2","pSARL_v2c863w8l5","5f5834134283933a1c3b42d0","freq","img/green_2bandit_a2.png","70","70","test","1","184","184","8","",""
"null","348543","pSARL_v2","pSARL_v2c863w8l5","5f5834134283933a1c3b42d0","freq_resp","img/green_2bandit_a.png","70","70","test","","","","8","",""
"null","348701","pSARL_v2","pSARL_v2c863w8l5","5f5834134283933a1c3b42d0","fixation","img/fixation.png","null","","test","","","","","",""
"308","349014","pSARL_v2","pSARL_v2c863w8l5","5f5834134283933a1c3b42d0","freq","img/green_2bandit_a2.png","70","70","test","1","185","185","8","",""
"null","349512","pSARL_v2","pSARL_v2c863w8l5","5f5834134283933a1c3b42d0","freq_resp","img/green_2bandit_a.png","70","70","test","","","","8","",""
"null","349669","pSARL_v2","pSARL_v2c863w8l5","5f5834134283933a1c3b42d0","fixation","img/fixation.png","null","","test","","","","","",""
"319","349992","pSARL_v2","pSARL_v2c863w8l5","5f5834134283933a1c3b42d0","freq","img/green_2bandit_a2.png","70","70","test","1","186","186","8","",""
"null","350489","pSARL_v2","pSARL_v2c863w8l5","5f5834134283933a1c3b42d0","freq_resp","img/green_2bandit_a.png","70","70","test","","","","8","",""
"null","350650","pSARL_v2","pSARL_v2c863w8l5","5f5834134283933a1c3b42d0","fixation","img/fixation.png","null","","test","","","","","",""
"313","350967","pSARL_v2","pSARL_v2c863w8l5","5f5834134283933a1c3b42d0","freq","img/green_2bandit_a2.png","70","70","test","1","187","187","8","",""
"null","351471","pSARL_v2","pSARL_v2c863w8l5","5f5834134283933a1c3b42d0","freq_resp","img/green_2bandit_a.png","70","70","test","","","","8","",""
"null","351629","pSARL_v2","pSARL_v2c863w8l5","5f5834134283933a1c3b42d0","fixation","img/fixation.png","null","","test","","","","","",""
"379","352012","pSARL_v2","pSARL_v2c863w8l5","5f5834134283933a1c3b42d0","reward","img/slot.png","74","","test","","","","","",""
"null","352766","pSARL_v2","pSARL_v2c863w8l5","5f5834134283933a1c3b42d0","points","<div class=""verylowPoints""> -4 </div>","null","na","test","","","","8","-4","7"
"276","353046","pSARL_v2","pSARL_v2c863w8l5","5f5834134283933a1c3b42d0","freq","img/green_2bandit_a2.png","70","70","test","1","188","188","9","",""
"null","353588","pSARL_v2","pSARL_v2c863w8l5","5f5834134283933a1c3b42d0","freq_resp","img/green_2bandit_a.png","70","70","test","","","","9","",""
"null","353747","pSARL_v2","pSARL_v2c863w8l5","5f5834134283933a1c3b42d0","fixation","img/fixation.png","null","","test","","","","","",""
"203","353955","pSARL_v2","pSARL_v2c863w8l5","5f5834134283933a1c3b42d0","freq","img/green_2bandit_a2.png","70","70","test","1","189","189","9","",""
"null","354559","pSARL_v2","pSARL_v2c863w8l5","5f5834134283933a1c3b42d0","freq_resp","img/green_2bandit_a.png","70","70","test","","","","9","",""
"null","354719","pSARL_v2","pSARL_v2c863w8l5","5f5834134283933a1c3b42d0","fixation","img/fixation.png","null","","test","","","","","",""
"241","354964","pSARL_v2","pSARL_v2c863w8l5","5f5834134283933a1c3b42d0","freq","img/green_2bandit_a2.png","70","70","test","1","190","190","9","",""
"null","355537","pSARL_v2","pSARL_v2c863w8l5","5f5834134283933a1c3b42d0","freq_resp","img/green_2bandit_a.png","70","70","test","","","","9","",""
"null","355696","pSARL_v2","pSARL_v2c863w8l5","5f5834134283933a1c3b42d0","fixation","img/fixation.png","null","","test","","","","","",""
"230","355929","pSARL_v2","pSARL_v2c863w8l5","5f5834134283933a1c3b42d0","freq","img/green_2bandit_a2.png","70","70","test","1","191","191","9","",""
"null","356518","pSARL_v2","pSARL_v2c863w8l5","5f5834134283933a1c3b42d0","freq_resp","img/green_2bandit_a.png","70","70","test","","","","9","",""
"null","356676","pSARL_v2","pSARL_v2c863w8l5","5f5834134283933a1c3b42d0","fixation","img/fixation.png","null","","test","","","","","",""
"250","356929","pSARL_v2","pSARL_v2c863w8l5","5f5834134283933a1c3b42d0","freq","img/green_2bandit_a2.png","70","70","test","1","192","192","9","",""
"null","357484","pSARL_v2","pSARL_v2c863w8l5","5f5834134283933a1c3b42d0","freq_resp","img/green_2bandit_a.png","70","70","test","","","","9","",""
"null","357642","pSARL_v2","pSARL_v2c863w8l5","5f5834134283933a1c3b42d0","fixation","img/fixation.png","null","","test","","","","","",""
"278","357923","pSARL_v2","pSARL_v2c863w8l5","5f5834134283933a1c3b42d0","freq","img/green_2bandit_a2.png","70","70","test","1","193","193","9","",""
"null","358463","pSARL_v2","pSARL_v2c863w8l5","5f5834134283933a1c3b42d0","freq_resp","img/green_2bandit_a.png","70","70","test","","","","9","",""
"null","358620","pSARL_v2","pSARL_v2c863w8l5","5f5834134283933a1c3b42d0","fixation","img/fixation.png","null","","test","","","","","",""
"301","358925","pSARL_v2","pSARL_v2c863w8l5","5f5834134283933a1c3b42d0","freq","img/green_2bandit_a2.png","70","70","test","1","194","194","9","",""
"null","359436","pSARL_v2","pSARL_v2c863w8l5","5f5834134283933a1c3b42d0","freq_resp","img/green_2bandit_a.png","70","70","test","","","","9","",""
"null","359593","pSARL_v2","pSARL_v2c863w8l5","5f5834134283933a1c3b42d0","fixation","img/fixation.png","null","","test","","","","","",""
"303","359900","pSARL_v2","pSARL_v2c863w8l5","5f5834134283933a1c3b42d0","freq","img/green_2bandit_a2.png","70","70","test","1","195","195","9","",""
"null","360401","pSARL_v2","pSARL_v2c863w8l5","5f5834134283933a1c3b42d0","freq_resp","img/green_2bandit_a.png","70","70","test","","","","9","",""
"null","360561","pSARL_v2","pSARL_v2c863w8l5","5f5834134283933a1c3b42d0","fixation","img/fixation.png","null","","test","","","","","",""
"234","360798","pSARL_v2","pSARL_v2c863w8l5","5f5834134283933a1c3b42d0","freq","img/green_2bandit_a2.png","70","70","test","1","196","196","9","",""
"null","361380","pSARL_v2","pSARL_v2c863w8l5","5f5834134283933a1c3b42d0","freq_resp","img/green_2bandit_a.png","70","70","test","","","","9","",""
"null","361535","pSARL_v2","pSARL_v2c863w8l5","5f5834134283933a1c3b42d0","fixation","img/fixation.png","null","","test","","","","","",""
"251","361789","pSARL_v2","pSARL_v2c863w8l5","5f5834134283933a1c3b42d0","freq","img/green_2bandit_a2.png","70","70","test","1","197","197","9","",""
"null","362356","pSARL_v2","pSARL_v2c863w8l5","5f5834134283933a1c3b42d0","freq_resp","img/green_2bandit_a.png","70","70","test","","","","9","",""
"null","362513","pSARL_v2","pSARL_v2c863w8l5","5f5834134283933a1c3b42d0","fixation","img/fixation.png","null","","test","","","","","",""
"263","362780","pSARL_v2","pSARL_v2c863w8l5","5f5834134283933a1c3b42d0","freq","img/green_2bandit_a2.png","70","70","test","1","198","198","9","",""
"null","363334","pSARL_v2","pSARL_v2c863w8l5","5f5834134283933a1c3b42d0","freq_resp","img/green_2bandit_a.png","70","70","test","","","","9","",""
"null","363493","pSARL_v2","pSARL_v2c863w8l5","5f5834134283933a1c3b42d0","fixation","img/fixation.png","null","","test","","","","","",""
"350","363848","pSARL_v2","pSARL_v2c863w8l5","5f5834134283933a1c3b42d0","infreq","img/orange_2bandit_a2.png","68","68","test","1","199","199","9","",""
"null","364310","pSARL_v2","pSARL_v2c863w8l5","5f5834134283933a1c3b42d0","infreq_resp","img/orange_2bandit_a.png","68","68","test","","","","9","",""
"null","364466","pSARL_v2","pSARL_v2c863w8l5","5f5834134283933a1c3b42d0","fixation","img/fixation.png","null","","test","","","","","",""
"268","364738","pSARL_v2","pSARL_v2c863w8l5","5f5834134283933a1c3b42d0","freq","img/green_2bandit_a2.png","70","70","test","1","200","200","9","",""
"null","365283","pSARL_v2","pSARL_v2c863w8l5","5f5834134283933a1c3b42d0","freq_resp","img/green_2bandit_a.png","70","70","test","","","","9","",""
"null","365441","pSARL_v2","pSARL_v2c863w8l5","5f5834134283933a1c3b42d0","fixation","img/fixation.png","null","","test","","","","","",""
"230","365676","pSARL_v2","pSARL_v2c863w8l5","5f5834134283933a1c3b42d0","freq","img/green_2bandit_a2.png","70","70","test","1","201","201","9","",""
"null","366258","pSARL_v2","pSARL_v2c863w8l5","5f5834134283933a1c3b42d0","freq_resp","img/green_2bandit_a.png","70","70","test","","","","9","",""
"null","366417","pSARL_v2","pSARL_v2c863w8l5","5f5834134283933a1c3b42d0","fixation","img/fixation.png","null","","test","","","","","",""
"270","366691","pSARL_v2","pSARL_v2c863w8l5","5f5834134283933a1c3b42d0","freq","img/green_2bandit_a2.png","70","70","test","1","202","202","9","",""
"null","367238","pSARL_v2","pSARL_v2c863w8l5","5f5834134283933a1c3b42d0","freq_resp","img/green_2bandit_a.png","70","70","test","","","","9","",""
"null","367395","pSARL_v2","pSARL_v2c863w8l5","5f5834134283933a1c3b42d0","fixation","img/fixation.png","null","","test","","","","","",""
"212","367611","pSARL_v2","pSARL_v2c863w8l5","5f5834134283933a1c3b42d0","freq","img/green_2bandit_a2.png","70","70","test","1","203","203","9","",""
"null","368218","pSARL_v2","pSARL_v2c863w8l5","5f5834134283933a1c3b42d0","freq_resp","img/green_2bandit_a.png","70","70","test","","","","9","",""
"null","368375","pSARL_v2","pSARL_v2c863w8l5","5f5834134283933a1c3b42d0","fixation","img/fixation.png","null","","test","","","","","",""
"275","368654","pSARL_v2","pSARL_v2c863w8l5","5f5834134283933a1c3b42d0","freq","img/green_2bandit_a2.png","70","70","test","1","204","204","9","",""
"null","369195","pSARL_v2","pSARL_v2c863w8l5","5f5834134283933a1c3b42d0","freq_resp","img/green_2bandit_a.png","70","70","test","","","","9","",""
"null","369354","pSARL_v2","pSARL_v2c863w8l5","5f5834134283933a1c3b42d0","fixation","img/fixation.png","null","","test","","","","","",""
"388","369744","pSARL_v2","pSARL_v2c863w8l5","5f5834134283933a1c3b42d0","infreq","img/orange_2bandit_a2.png","68","68","test","1","205","205","9","",""
"null","370174","pSARL_v2","pSARL_v2c863w8l5","5f5834134283933a1c3b42d0","infreq_resp","img/orange_2bandit_a.png","68","68","test","","","","9","",""
"null","370331","pSARL_v2","pSARL_v2c863w8l5","5f5834134283933a1c3b42d0","fixation","img/fixation.png","null","","test","","","","","",""
"432","370767","pSARL_v2","pSARL_v2c863w8l5","5f5834134283933a1c3b42d0","freq","img/green_2bandit_a2.png","70","70","test","1","206","206","9","",""
"null","371152","pSARL_v2","pSARL_v2c863w8l5","5f5834134283933a1c3b42d0","freq_resp","img/green_2bandit_a.png","70","70","test","","","","9","",""
"null","371312","pSARL_v2","pSARL_v2c863w8l5","5f5834134283933a1c3b42d0","fixation","img/fixation.png","null","","test","","","","","",""
"289","371604","pSARL_v2","pSARL_v2c863w8l5","5f5834134283933a1c3b42d0","freq","img/green_2bandit_a2.png","70","70","test","1","207","207","9","",""
"null","372134","pSARL_v2","pSARL_v2c863w8l5","5f5834134283933a1c3b42d0","freq_resp","img/green_2bandit_a.png","70","70","test","","","","9","",""
"null","372291","pSARL_v2","pSARL_v2c863w8l5","5f5834134283933a1c3b42d0","fixation","img/fixation.png","null","","test","","","","","",""
"237","372533","pSARL_v2","pSARL_v2c863w8l5","5f5834134283933a1c3b42d0","freq","img/green_2bandit_a2.png","70","70","test","1","208","208","9","",""
"null","373115","pSARL_v2","pSARL_v2c863w8l5","5f5834134283933a1c3b42d0","freq_resp","img/green_2bandit_a.png","70","70","test","","","","9","",""
"null","373274","pSARL_v2","pSARL_v2c863w8l5","5f5834134283933a1c3b42d0","fixation","img/fixation.png","null","","test","","","","","",""
"236","373515","pSARL_v2","pSARL_v2c863w8l5","5f5834134283933a1c3b42d0","freq","img/green_2bandit_a2.png","70","70","test","1","209","209","9","",""
"null","374093","pSARL_v2","pSARL_v2c863w8l5","5f5834134283933a1c3b42d0","freq_resp","img/green_2bandit_a.png","70","70","test","","","","9","",""
"null","374263","pSARL_v2","pSARL_v2c863w8l5","5f5834134283933a1c3b42d0","fixation","img/fixation.png","null","","test","","","","","",""
"444","374710","pSARL_v2","pSARL_v2c863w8l5","5f5834134283933a1c3b42d0","reward","img/slot.png","74","","test","","","","","",""
"null","375475","pSARL_v2","pSARL_v2c863w8l5","5f5834134283933a1c3b42d0","points","<div class=""verylowPoints""> -3 </div>","null","na","test","","","","9","-3","8"
"235","375715","pSARL_v2","pSARL_v2c863w8l5","5f5834134283933a1c3b42d0","freq","img/green_2bandit_a2.png","70","70","test","1","210","210","10","",""
"null","376295","pSARL_v2","pSARL_v2c863w8l5","5f5834134283933a1c3b42d0","freq_resp","img/green_2bandit_a.png","70","70","test","","","","10","",""
"null","376466","pSARL_v2","pSARL_v2c863w8l5","5f5834134283933a1c3b42d0","fixation","img/fixation.png","null","","test","","","","","",""
"218","376688","pSARL_v2","pSARL_v2c863w8l5","5f5834134283933a1c3b42d0","freq","img/green_2bandit_a2.png","70","70","test","1","211","211","10","",""
"null","377282","pSARL_v2","pSARL_v2c863w8l5","5f5834134283933a1c3b42d0","freq_resp","img/green_2bandit_a.png","70","70","test","","","","10","",""
