"rt","time_elapsed","expId","subject","prolificID","trialType","stimulus","key_press","corrresp","phase","corr","trialNum","attentionRunNum","blockNum","points","rlNum"
"7234.5","7239","pSARL_v2","pSARL_v24nsh6tjy","5ec47b2d91b37736ce88f3d6","","","","","","","","","","",""
"","9553","pSARL_v2","pSARL_v24nsh6tjy","5ec47b2d91b37736ce88f3d6","fullscreen","","","","","","","","","",""
"80746.19999999925","90301","pSARL_v2","pSARL_v24nsh6tjy","5ec47b2d91b37736ce88f3d6","","","","","","","","","","",""
"null","91118","pSARL_v2","pSARL_v24nsh6tjy","5ec47b2d91b37736ce88f3d6","freqPrac","img/green_2bandit_b2.png","null","70","prac","0","","","","",""
"null","92132","pSARL_v2","pSARL_v24nsh6tjy","5ec47b2d91b37736ce88f3d6","feedback","img/tooSlow.png","null","na","prac","","","","","",""
"null","92289","pSARL_v2","pSARL_v24nsh6tjy","5ec47b2d91b37736ce88f3d6","fixation","img/fixation.png","null","","prac","","","","","",""
"382.30000000074506","92674","pSARL_v2","pSARL_v24nsh6tjy","5ec47b2d91b37736ce88f3d6","infreqPrac","img/orange_2bandit_b2.png","68","68","prac","1","","","","",""
"382.30000000074506","93095","pSARL_v2","pSARL_v24nsh6tjy","5ec47b2d91b37736ce88f3d6","infreqPrac_resp","img/orange_2bandit_b.png","68","68","prac","","","","","",""
"null","93254","pSARL_v2","pSARL_v24nsh6tjy","5ec47b2d91b37736ce88f3d6","fixation","img/fixation.png","null","","prac","","","","","",""
"472.5","93729","pSARL_v2","pSARL_v24nsh6tjy","5ec47b2d91b37736ce88f3d6","freqPrac","img/green_2bandit_b2.png","70","70","prac","1","","","","",""
"472.5","94065","pSARL_v2","pSARL_v24nsh6tjy","5ec47b2d91b37736ce88f3d6","freqPrac_resp","img/green_2bandit_b.png","70","70","prac","","","","","",""
"null","94219","pSARL_v2","pSARL_v24nsh6tjy","5ec47b2d91b37736ce88f3d6","fixation","img/fixation.png","null","","prac","","","","","",""
"400.40000000037253","94622","pSARL_v2","pSARL_v24nsh6tjy","5ec47b2d91b37736ce88f3d6","infreqPrac","img/orange_2bandit_b2.png","68","68","prac","1","","","","",""
"400.40000000037253","95037","pSARL_v2","pSARL_v24nsh6tjy","5ec47b2d91b37736ce88f3d6","infreqPrac_resp","img/orange_2bandit_b.png","68","68","prac","","","","","",""
"null","95195","pSARL_v2","pSARL_v24nsh6tjy","5ec47b2d91b37736ce88f3d6","fixation","img/fixation.png","null","","prac","","","","","",""
"346.40000000037253","95544","pSARL_v2","pSARL_v24nsh6tjy","5ec47b2d91b37736ce88f3d6","infreqPrac","img/orange_2bandit_b2.png","68","68","prac","1","","","","",""
"346.40000000037253","96002","pSARL_v2","pSARL_v24nsh6tjy","5ec47b2d91b37736ce88f3d6","infreqPrac_resp","img/orange_2bandit_b.png","68","68","prac","","","","","",""
"null","96158","pSARL_v2","pSARL_v24nsh6tjy","5ec47b2d91b37736ce88f3d6","fixation","img/fixation.png","null","","prac","","","","","",""
"268.2000000011176","96429","pSARL_v2","pSARL_v24nsh6tjy","5ec47b2d91b37736ce88f3d6","infreqPrac","img/orange_2bandit_b2.png","68","68","prac","1","","","","",""
"268.2000000011176","96976","pSARL_v2","pSARL_v24nsh6tjy","5ec47b2d91b37736ce88f3d6","infreqPrac_resp","img/orange_2bandit_b.png","68","68","prac","","","","","",""
"null","97133","pSARL_v2","pSARL_v24nsh6tjy","5ec47b2d91b37736ce88f3d6","fixation","img/fixation.png","null","","prac","","","","","",""
"333.19999999925494","97469","pSARL_v2","pSARL_v24nsh6tjy","5ec47b2d91b37736ce88f3d6","freqPrac","img/green_2bandit_b2.png","70","70","prac","1","","","","",""
"333.19999999925494","97946","pSARL_v2","pSARL_v24nsh6tjy","5ec47b2d91b37736ce88f3d6","freqPrac_resp","img/green_2bandit_b.png","70","70","prac","","","","","",""
"null","98102","pSARL_v2","pSARL_v24nsh6tjy","5ec47b2d91b37736ce88f3d6","fixation","img/fixation.png","null","","prac","","","","","",""
"256.40000000037253","98361","pSARL_v2","pSARL_v24nsh6tjy","5ec47b2d91b37736ce88f3d6","infreqPrac","img/orange_2bandit_b2.png","68","68","prac","1","","","","",""
"256.40000000037253","98918","pSARL_v2","pSARL_v24nsh6tjy","5ec47b2d91b37736ce88f3d6","infreqPrac_resp","img/orange_2bandit_b.png","68","68","prac","","","","","",""
"null","99076","pSARL_v2","pSARL_v24nsh6tjy","5ec47b2d91b37736ce88f3d6","fixation","img/fixation.png","null","","prac","","","","","",""
"494.7999999988824","99573","pSARL_v2","pSARL_v24nsh6tjy","5ec47b2d91b37736ce88f3d6","freqPrac","img/green_2bandit_b2.png","70","70","prac","1","","","","",""
"494.7999999988824","99883","pSARL_v2","pSARL_v24nsh6tjy","5ec47b2d91b37736ce88f3d6","freqPrac_resp","img/green_2bandit_b.png","70","70","prac","","","","","",""
"null","100041","pSARL_v2","pSARL_v24nsh6tjy","5ec47b2d91b37736ce88f3d6","fixation","img/fixation.png","null","","prac","","","","","",""
"405.5","100450","pSARL_v2","pSARL_v24nsh6tjy","5ec47b2d91b37736ce88f3d6","freqPrac","img/green_2bandit_b2.png","70","70","prac","1","","","","",""
"405.5","100862","pSARL_v2","pSARL_v24nsh6tjy","5ec47b2d91b37736ce88f3d6","freqPrac_resp","img/green_2bandit_b.png","70","70","prac","","","","","",""
"null","101018","pSARL_v2","pSARL_v24nsh6tjy","5ec47b2d91b37736ce88f3d6","fixation","img/fixation.png","null","","prac","","","","","",""
"29216.099999999627","130237","pSARL_v2","pSARL_v24nsh6tjy","5ec47b2d91b37736ce88f3d6","","","","","prac","","","","","",""
"602.0999999996275","130842","pSARL_v2","pSARL_v24nsh6tjy","5ec47b2d91b37736ce88f3d6","rewardPractice","img/slot.png","74","","prac","","","","","",""
"null","131611","pSARL_v2","pSARL_v24nsh6tjy","5ec47b2d91b37736ce88f3d6","feedback","<div class=""veryhighPoints""> +15 </div>","null","na","prac","","","","","",""
"null","131768","pSARL_v2","pSARL_v24nsh6tjy","5ec47b2d91b37736ce88f3d6","fixation","img/fixation.png","null","","prac","","","","","",""
"20258.900000000373","152029","pSARL_v2","pSARL_v24nsh6tjy","5ec47b2d91b37736ce88f3d6","","","","","prac","","","","","",""
"525.1999999992549","152557","pSARL_v2","pSARL_v24nsh6tjy","5ec47b2d91b37736ce88f3d6","freq","img/green_2bandit_b2.png","70","70","test","1","1","1","1","",""
"null","152838","pSARL_v2","pSARL_v24nsh6tjy","5ec47b2d91b37736ce88f3d6","freq_resp","img/green_2bandit_b.png","70","70","test","","","","1","",""
"null","152996","pSARL_v2","pSARL_v24nsh6tjy","5ec47b2d91b37736ce88f3d6","fixation","img/fixation.png","null","","test","","","","","",""
"364.5","153362","pSARL_v2","pSARL_v24nsh6tjy","5ec47b2d91b37736ce88f3d6","freq","img/green_2bandit_b2.png","70","70","test","1","2","2","1","",""
"null","153813","pSARL_v2","pSARL_v24nsh6tjy","5ec47b2d91b37736ce88f3d6","freq_resp","img/green_2bandit_b.png","70","70","test","","","","1","",""
"null","153971","pSARL_v2","pSARL_v24nsh6tjy","5ec47b2d91b37736ce88f3d6","fixation","img/fixation.png","null","","test","","","","","",""
"332.30000000074506","154305","pSARL_v2","pSARL_v24nsh6tjy","5ec47b2d91b37736ce88f3d6","infreq","img/orange_2bandit_b2.png","68","68","test","1","3","3","1","",""
"null","154787","pSARL_v2","pSARL_v24nsh6tjy","5ec47b2d91b37736ce88f3d6","infreq_resp","img/orange_2bandit_b.png","68","68","test","","","","1","",""
"null","154942","pSARL_v2","pSARL_v24nsh6tjy","5ec47b2d91b37736ce88f3d6","fixation","img/fixation.png","null","","test","","","","","",""
"409","155354","pSARL_v2","pSARL_v24nsh6tjy","5ec47b2d91b37736ce88f3d6","freq","img/green_2bandit_b2.png","70","70","test","1","4","4","1","",""
"null","155750","pSARL_v2","pSARL_v24nsh6tjy","5ec47b2d91b37736ce88f3d6","freq_resp","img/green_2bandit_b.png","70","70","test","","","","1","",""
"null","155907","pSARL_v2","pSARL_v24nsh6tjy","5ec47b2d91b37736ce88f3d6","fixation","img/fixation.png","null","","test","","","","","",""
"272.09999999962747","156181","pSARL_v2","pSARL_v24nsh6tjy","5ec47b2d91b37736ce88f3d6","freq","img/green_2bandit_b2.png","70","70","test","1","5","5","1","",""
"null","156712","pSARL_v2","pSARL_v24nsh6tjy","5ec47b2d91b37736ce88f3d6","freq_resp","img/green_2bandit_b.png","70","70","test","","","","1","",""
"null","156868","pSARL_v2","pSARL_v24nsh6tjy","5ec47b2d91b37736ce88f3d6","fixation","img/fixation.png","null","","test","","","","","",""
"253.30000000074506","157123","pSARL_v2","pSARL_v24nsh6tjy","5ec47b2d91b37736ce88f3d6","freq","img/green_2bandit_b2.png","70","70","test","1","6","6","1","",""
"null","157678","pSARL_v2","pSARL_v24nsh6tjy","5ec47b2d91b37736ce88f3d6","freq_resp","img/green_2bandit_b.png","70","70","test","","","","1","",""
"null","157836","pSARL_v2","pSARL_v24nsh6tjy","5ec47b2d91b37736ce88f3d6","fixation","img/fixation.png","null","","test","","","","","",""
"302.69999999925494","158141","pSARL_v2","pSARL_v24nsh6tjy","5ec47b2d91b37736ce88f3d6","infreq","img/orange_2bandit_b2.png","68","68","test","1","7","7","1","",""
"null","158653","pSARL_v2","pSARL_v24nsh6tjy","5ec47b2d91b37736ce88f3d6","infreq_resp","img/orange_2bandit_b.png","68","68","test","","","","1","",""
"null","158810","pSARL_v2","pSARL_v24nsh6tjy","5ec47b2d91b37736ce88f3d6","fixation","img/fixation.png","null","","test","","","","","",""
"489","159301","pSARL_v2","pSARL_v24nsh6tjy","5ec47b2d91b37736ce88f3d6","freq","img/green_2bandit_b2.png","70","70","test","1","8","8","1","",""
"null","159621","pSARL_v2","pSARL_v24nsh6tjy","5ec47b2d91b37736ce88f3d6","freq_resp","img/green_2bandit_b.png","70","70","test","","","","1","",""
"null","159778","pSARL_v2","pSARL_v24nsh6tjy","5ec47b2d91b37736ce88f3d6","fixation","img/fixation.png","null","","test","","","","","",""
"328.8999999985099","160109","pSARL_v2","pSARL_v24nsh6tjy","5ec47b2d91b37736ce88f3d6","freq","img/green_2bandit_b2.png","70","70","test","1","9","9","1","",""
"null","160599","pSARL_v2","pSARL_v24nsh6tjy","5ec47b2d91b37736ce88f3d6","freq_resp","img/green_2bandit_b.png","70","70","test","","","","1","",""
"null","160755","pSARL_v2","pSARL_v24nsh6tjy","5ec47b2d91b37736ce88f3d6","fixation","img/fixation.png","null","","test","","","","","",""
"333.1000000014901","161091","pSARL_v2","pSARL_v24nsh6tjy","5ec47b2d91b37736ce88f3d6","freq","img/green_2bandit_b2.png","70","70","test","1","10","10","1","",""
"null","161575","pSARL_v2","pSARL_v24nsh6tjy","5ec47b2d91b37736ce88f3d6","freq_resp","img/green_2bandit_b.png","70","70","test","","","","1","",""
"null","161732","pSARL_v2","pSARL_v24nsh6tjy","5ec47b2d91b37736ce88f3d6","fixation","img/fixation.png","null","","test","","","","","",""
"358.90000000037253","162094","pSARL_v2","pSARL_v24nsh6tjy","5ec47b2d91b37736ce88f3d6","freq","img/green_2bandit_b2.png","70","70","test","1","11","11","1","",""
"null","162549","pSARL_v2","pSARL_v24nsh6tjy","5ec47b2d91b37736ce88f3d6","freq_resp","img/green_2bandit_b.png","70","70","test","","","","1","",""
"null","162705","pSARL_v2","pSARL_v24nsh6tjy","5ec47b2d91b37736ce88f3d6","fixation","img/fixation.png","null","","test","","","","","",""
"308.90000000037253","163016","pSARL_v2","pSARL_v24nsh6tjy","5ec47b2d91b37736ce88f3d6","freq","img/green_2bandit_b2.png","70","70","test","1","12","12","1","",""
"null","163518","pSARL_v2","pSARL_v24nsh6tjy","5ec47b2d91b37736ce88f3d6","freq_resp","img/green_2bandit_b.png","70","70","test","","","","1","",""
"null","163674","pSARL_v2","pSARL_v24nsh6tjy","5ec47b2d91b37736ce88f3d6","fixation","img/fixation.png","null","","test","","","","","",""
"248.89999999850988","163925","pSARL_v2","pSARL_v24nsh6tjy","5ec47b2d91b37736ce88f3d6","freq","img/green_2bandit_b2.png","70","70","test","1","13","13","1","",""
"null","164491","pSARL_v2","pSARL_v24nsh6tjy","5ec47b2d91b37736ce88f3d6","freq_resp","img/green_2bandit_b.png","70","70","test","","","","1","",""
"null","164648","pSARL_v2","pSARL_v24nsh6tjy","5ec47b2d91b37736ce88f3d6","fixation","img/fixation.png","null","","test","","","","","",""
"272.69999999925494","164922","pSARL_v2","pSARL_v24nsh6tjy","5ec47b2d91b37736ce88f3d6","freq","img/green_2bandit_b2.png","70","70","test","1","14","14","1","",""
"null","165469","pSARL_v2","pSARL_v24nsh6tjy","5ec47b2d91b37736ce88f3d6","freq_resp","img/green_2bandit_b.png","70","70","test","","","","1","",""
"null","165628","pSARL_v2","pSARL_v24nsh6tjy","5ec47b2d91b37736ce88f3d6","fixation","img/fixation.png","null","","test","","","","","",""
"278.59999999962747","165909","pSARL_v2","pSARL_v24nsh6tjy","5ec47b2d91b37736ce88f3d6","freq","img/green_2bandit_b2.png","70","70","test","1","15","15","1","",""
"null","166435","pSARL_v2","pSARL_v24nsh6tjy","5ec47b2d91b37736ce88f3d6","freq_resp","img/green_2bandit_b.png","70","70","test","","","","1","",""
"null","166593","pSARL_v2","pSARL_v24nsh6tjy","5ec47b2d91b37736ce88f3d6","fixation","img/fixation.png","null","","test","","","","","",""
"232.59999999962747","166828","pSARL_v2","pSARL_v24nsh6tjy","5ec47b2d91b37736ce88f3d6","freq","img/green_2bandit_b2.png","70","70","test","1","16","16","1","",""
"null","167398","pSARL_v2","pSARL_v24nsh6tjy","5ec47b2d91b37736ce88f3d6","freq_resp","img/green_2bandit_b.png","70","70","test","","","","1","",""
"null","167556","pSARL_v2","pSARL_v24nsh6tjy","5ec47b2d91b37736ce88f3d6","fixation","img/fixation.png","null","","test","","","","","",""
"376.40000000037253","167935","pSARL_v2","pSARL_v24nsh6tjy","5ec47b2d91b37736ce88f3d6","infreq","img/orange_2bandit_b2.png","68","68","test","1","17","17","1","",""
"null","168375","pSARL_v2","pSARL_v24nsh6tjy","5ec47b2d91b37736ce88f3d6","infreq_resp","img/orange_2bandit_b.png","68","68","test","","","","1","",""
"null","168534","pSARL_v2","pSARL_v24nsh6tjy","5ec47b2d91b37736ce88f3d6","fixation","img/fixation.png","null","","test","","","","","",""
"337.5","168874","pSARL_v2","pSARL_v24nsh6tjy","5ec47b2d91b37736ce88f3d6","freq","img/green_2bandit_b2.png","70","70","test","1","18","18","1","",""
"null","169343","pSARL_v2","pSARL_v24nsh6tjy","5ec47b2d91b37736ce88f3d6","freq_resp","img/green_2bandit_b.png","70","70","test","","","","1","",""
"null","169499","pSARL_v2","pSARL_v24nsh6tjy","5ec47b2d91b37736ce88f3d6","fixation","img/fixation.png","null","","test","","","","","",""
"298.40000000037253","169799","pSARL_v2","pSARL_v24nsh6tjy","5ec47b2d91b37736ce88f3d6","freq","img/green_2bandit_b2.png","70","70","test","1","19","19","1","",""
"null","170303","pSARL_v2","pSARL_v24nsh6tjy","5ec47b2d91b37736ce88f3d6","freq_resp","img/green_2bandit_b.png","70","70","test","","","","1","",""
"null","170461","pSARL_v2","pSARL_v24nsh6tjy","5ec47b2d91b37736ce88f3d6","fixation","img/fixation.png","null","","test","","","","","",""
"276.90000000037253","170740","pSARL_v2","pSARL_v24nsh6tjy","5ec47b2d91b37736ce88f3d6","freq","img/green_2bandit_b2.png","70","70","test","1","20","20","1","",""
"null","171275","pSARL_v2","pSARL_v24nsh6tjy","5ec47b2d91b37736ce88f3d6","freq_resp","img/green_2bandit_b.png","70","70","test","","","","1","",""
"null","171433","pSARL_v2","pSARL_v24nsh6tjy","5ec47b2d91b37736ce88f3d6","fixation","img/fixation.png","null","","test","","","","","",""
"618.2000000011176","172054","pSARL_v2","pSARL_v24nsh6tjy","5ec47b2d91b37736ce88f3d6","reward","img/slot.png","74","","test","","","","","",""
"null","172807","pSARL_v2","pSARL_v24nsh6tjy","5ec47b2d91b37736ce88f3d6","points","<div class=""verylowPoints""> -6 </div>","null","na","test","","","","1","-6","0"
"null","173612","pSARL_v2","pSARL_v24nsh6tjy","5ec47b2d91b37736ce88f3d6","freq","img/green_2bandit_b2.png","null","70","test","0","21","21","2","",""
"null","173771","pSARL_v2","pSARL_v24nsh6tjy","5ec47b2d91b37736ce88f3d6","fixation","img/fixation.png","null","","test","","","","","",""
"765.9000000003725","174539","pSARL_v2","pSARL_v24nsh6tjy","5ec47b2d91b37736ce88f3d6","freq","img/green_2bandit_b2.png","70","70","test","1","22","22","2","",""
"null","174583","pSARL_v2","pSARL_v24nsh6tjy","5ec47b2d91b37736ce88f3d6","freq_resp","img/green_2bandit_b.png","70","70","test","","","","2","",""
"null","174740","pSARL_v2","pSARL_v24nsh6tjy","5ec47b2d91b37736ce88f3d6","fixation","img/fixation.png","null","","test","","","","","",""
"645.6999999992549","175388","pSARL_v2","pSARL_v24nsh6tjy","5ec47b2d91b37736ce88f3d6","freq","img/green_2bandit_b2.png","70","70","test","1","23","23","2","",""
"null","175549","pSARL_v2","pSARL_v24nsh6tjy","5ec47b2d91b37736ce88f3d6","freq_resp","img/green_2bandit_b.png","70","70","test","","","","2","",""
"null","175705","pSARL_v2","pSARL_v24nsh6tjy","5ec47b2d91b37736ce88f3d6","fixation","img/fixation.png","null","","test","","","","","",""
"540.5","176248","pSARL_v2","pSARL_v24nsh6tjy","5ec47b2d91b37736ce88f3d6","freq","img/green_2bandit_b2.png","70","70","test","1","24","24","2","",""
"null","176512","pSARL_v2","pSARL_v24nsh6tjy","5ec47b2d91b37736ce88f3d6","freq_resp","img/green_2bandit_b.png","70","70","test","","","","2","",""
"null","176668","pSARL_v2","pSARL_v24nsh6tjy","5ec47b2d91b37736ce88f3d6","fixation","img/fixation.png","null","","test","","","","","",""
"406.59999999962747","177077","pSARL_v2","pSARL_v24nsh6tjy","5ec47b2d91b37736ce88f3d6","freq","img/green_2bandit_b2.png","70","70","test","1","25","25","2","",""
"null","177488","pSARL_v2","pSARL_v24nsh6tjy","5ec47b2d91b37736ce88f3d6","freq_resp","img/green_2bandit_b.png","70","70","test","","","","2","",""
"null","177644","pSARL_v2","pSARL_v24nsh6tjy","5ec47b2d91b37736ce88f3d6","fixation","img/fixation.png","null","","test","","","","","",""
"287.40000000037253","177934","pSARL_v2","pSARL_v24nsh6tjy","5ec47b2d91b37736ce88f3d6","freq","img/green_2bandit_b2.png","70","70","test","1","26","26","2","",""
"null","178463","pSARL_v2","pSARL_v24nsh6tjy","5ec47b2d91b37736ce88f3d6","freq_resp","img/green_2bandit_b.png","70","70","test","","","","2","",""
"null","178618","pSARL_v2","pSARL_v24nsh6tjy","5ec47b2d91b37736ce88f3d6","fixation","img/fixation.png","null","","test","","","","","",""
"241.19999999925494","178862","pSARL_v2","pSARL_v24nsh6tjy","5ec47b2d91b37736ce88f3d6","freq","img/green_2bandit_b2.png","70","70","test","1","27","27","2","",""
"null","179434","pSARL_v2","pSARL_v24nsh6tjy","5ec47b2d91b37736ce88f3d6","freq_resp","img/green_2bandit_b.png","70","70","test","","","","2","",""
"null","179590","pSARL_v2","pSARL_v24nsh6tjy","5ec47b2d91b37736ce88f3d6","fixation","img/fixation.png","null","","test","","","","","",""
"415.5","180008","pSARL_v2","pSARL_v24nsh6tjy","5ec47b2d91b37736ce88f3d6","infreq","img/orange_2bandit_b2.png","68","68","test","1","28","28","2","",""
"null","180394","pSARL_v2","pSARL_v24nsh6tjy","5ec47b2d91b37736ce88f3d6","infreq_resp","img/orange_2bandit_b.png","68","68","test","","","","2","",""
"null","180551","pSARL_v2","pSARL_v24nsh6tjy","5ec47b2d91b37736ce88f3d6","fixation","img/fixation.png","null","","test","","","","","",""
"339.3999999985099","180893","pSARL_v2","pSARL_v24nsh6tjy","5ec47b2d91b37736ce88f3d6","infreq","img/orange_2bandit_b2.png","68","68","test","1","29","29","2","",""
"null","181370","pSARL_v2","pSARL_v24nsh6tjy","5ec47b2d91b37736ce88f3d6","infreq_resp","img/orange_2bandit_b.png","68","68","test","","","","2","",""
"null","181525","pSARL_v2","pSARL_v24nsh6tjy","5ec47b2d91b37736ce88f3d6","fixation","img/fixation.png","null","","test","","","","","",""
"354","181881","pSARL_v2","pSARL_v24nsh6tjy","5ec47b2d91b37736ce88f3d6","freq","img/green_2bandit_b2.png","70","70","test","1","30","30","2","",""
"null","182343","pSARL_v2","pSARL_v24nsh6tjy","5ec47b2d91b37736ce88f3d6","freq_resp","img/green_2bandit_b.png","70","70","test","","","","2","",""
"null","182501","pSARL_v2","pSARL_v24nsh6tjy","5ec47b2d91b37736ce88f3d6","fixation","img/fixation.png","null","","test","","","","","",""
"273.2999999988824","182776","pSARL_v2","pSARL_v24nsh6tjy","5ec47b2d91b37736ce88f3d6","infreq","img/orange_2bandit_b2.png","70","68","test","0","31","31","2","",""
"null","183306","pSARL_v2","pSARL_v24nsh6tjy","5ec47b2d91b37736ce88f3d6","infreq_resp","img/orange_2bandit_b.png","70","68","test","","","","2","",""
"null","183464","pSARL_v2","pSARL_v24nsh6tjy","5ec47b2d91b37736ce88f3d6","fixation","img/fixation.png","null","","test","","","","","",""
"393.7000000011176","183860","pSARL_v2","pSARL_v24nsh6tjy","5ec47b2d91b37736ce88f3d6","freq","img/green_2bandit_b2.png","70","70","test","1","32","32","2","",""
"null","184277","pSARL_v2","pSARL_v24nsh6tjy","5ec47b2d91b37736ce88f3d6","freq_resp","img/green_2bandit_b.png","70","70","test","","","","2","",""
"null","184432","pSARL_v2","pSARL_v24nsh6tjy","5ec47b2d91b37736ce88f3d6","fixation","img/fixation.png","null","","test","","","","","",""
"364.1000000014901","184799","pSARL_v2","pSARL_v24nsh6tjy","5ec47b2d91b37736ce88f3d6","freq","img/green_2bandit_b2.png","70","70","test","1","33","33","2","",""
"null","185244","pSARL_v2","pSARL_v24nsh6tjy","5ec47b2d91b37736ce88f3d6","freq_resp","img/green_2bandit_b.png","70","70","test","","","","2","",""
"null","185402","pSARL_v2","pSARL_v24nsh6tjy","5ec47b2d91b37736ce88f3d6","fixation","img/fixation.png","null","","test","","","","","",""
"339.40000000037253","185744","pSARL_v2","pSARL_v24nsh6tjy","5ec47b2d91b37736ce88f3d6","freq","img/green_2bandit_b2.png","70","70","test","1","34","34","2","",""
"null","186207","pSARL_v2","pSARL_v24nsh6tjy","5ec47b2d91b37736ce88f3d6","freq_resp","img/green_2bandit_b.png","70","70","test","","","","2","",""
"null","186367","pSARL_v2","pSARL_v24nsh6tjy","5ec47b2d91b37736ce88f3d6","fixation","img/fixation.png","null","","test","","","","","",""
"319.30000000074506","186688","pSARL_v2","pSARL_v24nsh6tjy","5ec47b2d91b37736ce88f3d6","freq","img/green_2bandit_b2.png","70","70","test","1","35","35","2","",""
"null","187187","pSARL_v2","pSARL_v24nsh6tjy","5ec47b2d91b37736ce88f3d6","freq_resp","img/green_2bandit_b.png","70","70","test","","","","2","",""
"null","187344","pSARL_v2","pSARL_v24nsh6tjy","5ec47b2d91b37736ce88f3d6","fixation","img/fixation.png","null","","test","","","","","",""
"361.30000000074506","187707","pSARL_v2","pSARL_v24nsh6tjy","5ec47b2d91b37736ce88f3d6","freq","img/green_2bandit_b2.png","70","70","test","1","36","36","2","",""
"null","188163","pSARL_v2","pSARL_v24nsh6tjy","5ec47b2d91b37736ce88f3d6","freq_resp","img/green_2bandit_b.png","70","70","test","","","","2","",""
"null","188319","pSARL_v2","pSARL_v24nsh6tjy","5ec47b2d91b37736ce88f3d6","fixation","img/fixation.png","null","","test","","","","","",""
"289.80000000074506","188611","pSARL_v2","pSARL_v24nsh6tjy","5ec47b2d91b37736ce88f3d6","freq","img/green_2bandit_b2.png","70","70","test","1","37","37","2","",""
"null","189134","pSARL_v2","pSARL_v24nsh6tjy","5ec47b2d91b37736ce88f3d6","freq_resp","img/green_2bandit_b.png","70","70","test","","","","2","",""
"null","189292","pSARL_v2","pSARL_v24nsh6tjy","5ec47b2d91b37736ce88f3d6","fixation","img/fixation.png","null","","test","","","","","",""
"273.5","189568","pSARL_v2","pSARL_v24nsh6tjy","5ec47b2d91b37736ce88f3d6","freq","img/green_2bandit_b2.png","70","70","test","1","38","38","2","",""
"null","190099","pSARL_v2","pSARL_v24nsh6tjy","5ec47b2d91b37736ce88f3d6","freq_resp","img/green_2bandit_b.png","70","70","test","","","","2","",""
"null","190255","pSARL_v2","pSARL_v24nsh6tjy","5ec47b2d91b37736ce88f3d6","fixation","img/fixation.png","null","","test","","","","","",""
"275.40000000037253","190532","pSARL_v2","pSARL_v24nsh6tjy","5ec47b2d91b37736ce88f3d6","freq","img/green_2bandit_b2.png","70","70","test","1","39","39","2","",""
"null","191073","pSARL_v2","pSARL_v24nsh6tjy","5ec47b2d91b37736ce88f3d6","freq_resp","img/green_2bandit_b.png","70","70","test","","","","2","",""
"null","191231","pSARL_v2","pSARL_v24nsh6tjy","5ec47b2d91b37736ce88f3d6","fixation","img/fixation.png","null","","test","","","","","",""
"321.59999999962747","191555","pSARL_v2","pSARL_v24nsh6tjy","5ec47b2d91b37736ce88f3d6","freq","img/green_2bandit_b2.png","70","70","test","1","40","40","2","",""
"null","192048","pSARL_v2","pSARL_v24nsh6tjy","5ec47b2d91b37736ce88f3d6","freq_resp","img/green_2bandit_b.png","70","70","test","","","","2","",""
"null","192206","pSARL_v2","pSARL_v24nsh6tjy","5ec47b2d91b37736ce88f3d6","fixation","img/fixation.png","null","","test","","","","","",""
"283.69999999925494","192493","pSARL_v2","pSARL_v24nsh6tjy","5ec47b2d91b37736ce88f3d6","freq","img/green_2bandit_b2.png","70","70","test","1","41","41","2","",""
"null","193021","pSARL_v2","pSARL_v24nsh6tjy","5ec47b2d91b37736ce88f3d6","freq_resp","img/green_2bandit_b.png","70","70","test","","","","2","",""
"null","193177","pSARL_v2","pSARL_v24nsh6tjy","5ec47b2d91b37736ce88f3d6","fixation","img/fixation.png","null","","test","","","","","",""
"293.59999999962747","193473","pSARL_v2","pSARL_v24nsh6tjy","5ec47b2d91b37736ce88f3d6","freq","img/green_2bandit_b2.png","70","70","test","1","42","42","2","",""
"null","193989","pSARL_v2","pSARL_v24nsh6tjy","5ec47b2d91b37736ce88f3d6","freq_resp","img/green_2bandit_b.png","70","70","test","","","","2","",""
"null","194145","pSARL_v2","pSARL_v24nsh6tjy","5ec47b2d91b37736ce88f3d6","fixation","img/fixation.png","null","","test","","","","","",""
"515.9000000003725","194664","pSARL_v2","pSARL_v24nsh6tjy","5ec47b2d91b37736ce88f3d6","reward","img/slot.png","74","","test","","","","","",""
"null","195425","pSARL_v2","pSARL_v24nsh6tjy","5ec47b2d91b37736ce88f3d6","points","<div class=""verylowPoints""> -11 </div>","null","na","test","","","","2","-11","1"
"376","195803","pSARL_v2","pSARL_v24nsh6tjy","5ec47b2d91b37736ce88f3d6","freq","img/green_2bandit_b2.png","70","70","test","1","43","43","3","",""
"null","196230","pSARL_v2","pSARL_v24nsh6tjy","5ec47b2d91b37736ce88f3d6","freq_resp","img/green_2bandit_b.png","70","70","test","","","","3","",""
"null","196387","pSARL_v2","pSARL_v24nsh6tjy","5ec47b2d91b37736ce88f3d6","fixation","img/fixation.png","null","","test","","","","","",""
"320.19999999925494","196710","pSARL_v2","pSARL_v24nsh6tjy","5ec47b2d91b37736ce88f3d6","freq","img/green_2bandit_b2.png","70","70","test","1","44","44","3","",""
"null","197193","pSARL_v2","pSARL_v24nsh6tjy","5ec47b2d91b37736ce88f3d6","freq_resp","img/green_2bandit_b.png","70","70","test","","","","3","",""
"null","197352","pSARL_v2","pSARL_v24nsh6tjy","5ec47b2d91b37736ce88f3d6","fixation","img/fixation.png","null","","test","","","","","",""
"287.5","197642","pSARL_v2","pSARL_v24nsh6tjy","5ec47b2d91b37736ce88f3d6","freq","img/green_2bandit_b2.png","70","70","test","1","45","45","3","",""
"null","198159","pSARL_v2","pSARL_v24nsh6tjy","5ec47b2d91b37736ce88f3d6","freq_resp","img/green_2bandit_b.png","70","70","test","","","","3","",""
"null","198316","pSARL_v2","pSARL_v24nsh6tjy","5ec47b2d91b37736ce88f3d6","fixation","img/fixation.png","null","","test","","","","","",""
"262.69999999925494","198581","pSARL_v2","pSARL_v24nsh6tjy","5ec47b2d91b37736ce88f3d6","freq","img/green_2bandit_b2.png","70","70","test","1","46","46","3","",""
"null","199129","pSARL_v2","pSARL_v24nsh6tjy","5ec47b2d91b37736ce88f3d6","freq_resp","img/green_2bandit_b.png","70","70","test","","","","3","",""
"null","199286","pSARL_v2","pSARL_v24nsh6tjy","5ec47b2d91b37736ce88f3d6","fixation","img/fixation.png","null","","test","","","","","",""
"268.40000000037253","199557","pSARL_v2","pSARL_v24nsh6tjy","5ec47b2d91b37736ce88f3d6","freq","img/green_2bandit_b2.png","70","70","test","1","47","47","3","",""
"null","200106","pSARL_v2","pSARL_v24nsh6tjy","5ec47b2d91b37736ce88f3d6","freq_resp","img/green_2bandit_b.png","70","70","test","","","","3","",""
"null","200262","pSARL_v2","pSARL_v24nsh6tjy","5ec47b2d91b37736ce88f3d6","fixation","img/fixation.png","null","","test","","","","","",""
"336.19999999925494","200600","pSARL_v2","pSARL_v24nsh6tjy","5ec47b2d91b37736ce88f3d6","infreq","img/orange_2bandit_b2.png","68","68","test","1","48","48","3","",""
"null","201079","pSARL_v2","pSARL_v24nsh6tjy","5ec47b2d91b37736ce88f3d6","infreq_resp","img/orange_2bandit_b.png","68","68","test","","","","3","",""
"null","201235","pSARL_v2","pSARL_v24nsh6tjy","5ec47b2d91b37736ce88f3d6","fixation","img/fixation.png","null","","test","","","","","",""
"326.90000000037253","201564","pSARL_v2","pSARL_v24nsh6tjy","5ec47b2d91b37736ce88f3d6","freq","img/green_2bandit_b2.png","70","70","test","1","49","49","3","",""
"null","202042","pSARL_v2","pSARL_v24nsh6tjy","5ec47b2d91b37736ce88f3d6","freq_resp","img/green_2bandit_b.png","70","70","test","","","","3","",""
"null","202199","pSARL_v2","pSARL_v24nsh6tjy","5ec47b2d91b37736ce88f3d6","fixation","img/fixation.png","null","","test","","","","","",""
"364","202566","pSARL_v2","pSARL_v24nsh6tjy","5ec47b2d91b37736ce88f3d6","infreq","img/orange_2bandit_b2.png","68","68","test","1","50","50","3","",""
"null","203013","pSARL_v2","pSARL_v24nsh6tjy","5ec47b2d91b37736ce88f3d6","infreq_resp","img/orange_2bandit_b.png","68","68","test","","","","3","",""
"null","203171","pSARL_v2","pSARL_v24nsh6tjy","5ec47b2d91b37736ce88f3d6","fixation","img/fixation.png","null","","test","","","","","",""
"335.69999999925494","203509","pSARL_v2","pSARL_v24nsh6tjy","5ec47b2d91b37736ce88f3d6","freq","img/green_2bandit_b2.png","70","70","test","1","51","51","3","",""
"null","203976","pSARL_v2","pSARL_v24nsh6tjy","5ec47b2d91b37736ce88f3d6","freq_resp","img/green_2bandit_b.png","70","70","test","","","","3","",""
"null","204135","pSARL_v2","pSARL_v24nsh6tjy","5ec47b2d91b37736ce88f3d6","fixation","img/fixation.png","null","","test","","","","","",""
"308.90000000037253","204446","pSARL_v2","pSARL_v24nsh6tjy","5ec47b2d91b37736ce88f3d6","freq","img/green_2bandit_b2.png","70","70","test","1","52","52","3","",""
"null","204955","pSARL_v2","pSARL_v24nsh6tjy","5ec47b2d91b37736ce88f3d6","freq_resp","img/green_2bandit_b.png","70","70","test","","","","3","",""
"null","205113","pSARL_v2","pSARL_v24nsh6tjy","5ec47b2d91b37736ce88f3d6","fixation","img/fixation.png","null","","test","","","","","",""
"317.3999999985099","205433","pSARL_v2","pSARL_v24nsh6tjy","5ec47b2d91b37736ce88f3d6","freq","img/green_2bandit_b2.png","70","70","test","1","53","53","3","",""
"null","205931","pSARL_v2","pSARL_v24nsh6tjy","5ec47b2d91b37736ce88f3d6","freq_resp","img/green_2bandit_b.png","70","70","test","","","","3","",""
"null","206087","pSARL_v2","pSARL_v24nsh6tjy","5ec47b2d91b37736ce88f3d6","fixation","img/fixation.png","null","","test","","","","","",""
"268.19999999925494","206358","pSARL_v2","pSARL_v24nsh6tjy","5ec47b2d91b37736ce88f3d6","freq","img/green_2bandit_b2.png","70","70","test","1","54","54","3","",""
"null","206905","pSARL_v2","pSARL_v24nsh6tjy","5ec47b2d91b37736ce88f3d6","freq_resp","img/green_2bandit_b.png","70","70","test","","","","3","",""
"null","207064","pSARL_v2","pSARL_v24nsh6tjy","5ec47b2d91b37736ce88f3d6","fixation","img/fixation.png","null","","test","","","","","",""
"227.40000000037253","207293","pSARL_v2","pSARL_v24nsh6tjy","5ec47b2d91b37736ce88f3d6","freq","img/green_2bandit_b2.png","70","70","test","1","55","55","3","",""
"null","207881","pSARL_v2","pSARL_v24nsh6tjy","5ec47b2d91b37736ce88f3d6","freq_resp","img/green_2bandit_b.png","70","70","test","","","","3","",""
"null","208039","pSARL_v2","pSARL_v24nsh6tjy","5ec47b2d91b37736ce88f3d6","fixation","img/fixation.png","null","","test","","","","","",""
"237.19999999925494","208279","pSARL_v2","pSARL_v24nsh6tjy","5ec47b2d91b37736ce88f3d6","freq","img/green_2bandit_b2.png","70","70","test","1","56","56","3","",""
"null","208849","pSARL_v2","pSARL_v24nsh6tjy","5ec47b2d91b37736ce88f3d6","freq_resp","img/green_2bandit_b.png","70","70","test","","","","3","",""
"null","209005","pSARL_v2","pSARL_v24nsh6tjy","5ec47b2d91b37736ce88f3d6","fixation","img/fixation.png","null","","test","","","","","",""
"245.5","209253","pSARL_v2","pSARL_v24nsh6tjy","5ec47b2d91b37736ce88f3d6","freq","img/green_2bandit_b2.png","70","70","test","1","57","57","3","",""
"null","209821","pSARL_v2","pSARL_v24nsh6tjy","5ec47b2d91b37736ce88f3d6","freq_resp","img/green_2bandit_b.png","70","70","test","","","","3","",""
"null","209980","pSARL_v2","pSARL_v24nsh6tjy","5ec47b2d91b37736ce88f3d6","fixation","img/fixation.png","null","","test","","","","","",""
"244.5","210227","pSARL_v2","pSARL_v24nsh6tjy","5ec47b2d91b37736ce88f3d6","freq","img/green_2bandit_b2.png","70","70","test","1","58","58","3","",""
"null","210791","pSARL_v2","pSARL_v24nsh6tjy","5ec47b2d91b37736ce88f3d6","freq_resp","img/green_2bandit_b.png","70","70","test","","","","3","",""
"null","210948","pSARL_v2","pSARL_v24nsh6tjy","5ec47b2d91b37736ce88f3d6","fixation","img/fixation.png","null","","test","","","","","",""
"250.90000000037253","211202","pSARL_v2","pSARL_v24nsh6tjy","5ec47b2d91b37736ce88f3d6","freq","img/green_2bandit_b2.png","70","70","test","1","59","59","3","",""
"null","211769","pSARL_v2","pSARL_v24nsh6tjy","5ec47b2d91b37736ce88f3d6","freq_resp","img/green_2bandit_b.png","70","70","test","","","","3","",""
"null","211927","pSARL_v2","pSARL_v24nsh6tjy","5ec47b2d91b37736ce88f3d6","fixation","img/fixation.png","null","","test","","","","","",""
"243.59999999962747","212173","pSARL_v2","pSARL_v24nsh6tjy","5ec47b2d91b37736ce88f3d6","freq","img/green_2bandit_b2.png","70","70","test","1","60","60","3","",""
"null","212747","pSARL_v2","pSARL_v24nsh6tjy","5ec47b2d91b37736ce88f3d6","freq_resp","img/green_2bandit_b.png","70","70","test","","","","3","",""
"null","212904","pSARL_v2","pSARL_v24nsh6tjy","5ec47b2d91b37736ce88f3d6","fixation","img/fixation.png","null","","test","","","","","",""
"246","213152","pSARL_v2","pSARL_v24nsh6tjy","5ec47b2d91b37736ce88f3d6","freq","img/green_2bandit_b2.png","70","70","test","1","61","61","3","",""
"null","213719","pSARL_v2","pSARL_v24nsh6tjy","5ec47b2d91b37736ce88f3d6","freq_resp","img/green_2bandit_b.png","70","70","test","","","","3","",""
"null","213875","pSARL_v2","pSARL_v24nsh6tjy","5ec47b2d91b37736ce88f3d6","fixation","img/fixation.png","null","","test","","","","","",""
"230.09999999962747","214108","pSARL_v2","pSARL_v24nsh6tjy","5ec47b2d91b37736ce88f3d6","freq","img/green_2bandit_b2.png","70","70","test","1","62","62","3","",""
"null","214686","pSARL_v2","pSARL_v24nsh6tjy","5ec47b2d91b37736ce88f3d6","freq_resp","img/green_2bandit_b.png","70","70","test","","","","3","",""
"null","214842","pSARL_v2","pSARL_v24nsh6tjy","5ec47b2d91b37736ce88f3d6","fixation","img/fixation.png","null","","test","","","","","",""
"246.19999999925494","215091","pSARL_v2","pSARL_v24nsh6tjy","5ec47b2d91b37736ce88f3d6","freq","img/green_2bandit_b2.png","70","70","test","1","63","63","3","",""
"null","215654","pSARL_v2","pSARL_v24nsh6tjy","5ec47b2d91b37736ce88f3d6","freq_resp","img/green_2bandit_b.png","70","70","test","","","","3","",""
"null","215810","pSARL_v2","pSARL_v24nsh6tjy","5ec47b2d91b37736ce88f3d6","fixation","img/fixation.png","null","","test","","","","","",""
"222.09999999962747","216034","pSARL_v2","pSARL_v24nsh6tjy","5ec47b2d91b37736ce88f3d6","freq","img/green_2bandit_b2.png","70","70","test","1","64","64","3","",""
"null","216617","pSARL_v2","pSARL_v24nsh6tjy","5ec47b2d91b37736ce88f3d6","freq_resp","img/green_2bandit_b.png","70","70","test","","","","3","",""
"null","216774","pSARL_v2","pSARL_v24nsh6tjy","5ec47b2d91b37736ce88f3d6","fixation","img/fixation.png","null","","test","","","","","",""
"226.7000000011176","217003","pSARL_v2","pSARL_v24nsh6tjy","5ec47b2d91b37736ce88f3d6","freq","img/green_2bandit_b2.png","70","70","test","1","65","65","3","",""
"null","217591","pSARL_v2","pSARL_v24nsh6tjy","5ec47b2d91b37736ce88f3d6","freq_resp","img/green_2bandit_b.png","70","70","test","","","","3","",""
"null","217746","pSARL_v2","pSARL_v24nsh6tjy","5ec47b2d91b37736ce88f3d6","fixation","img/fixation.png","null","","test","","","","","",""
"230.2999999988824","217979","pSARL_v2","pSARL_v24nsh6tjy","5ec47b2d91b37736ce88f3d6","freq","img/green_2bandit_b2.png","70","70","test","1","66","66","3","",""
"null","218564","pSARL_v2","pSARL_v24nsh6tjy","5ec47b2d91b37736ce88f3d6","freq_resp","img/green_2bandit_b.png","70","70","test","","","","3","",""
"null","218719","pSARL_v2","pSARL_v24nsh6tjy","5ec47b2d91b37736ce88f3d6","fixation","img/fixation.png","null","","test","","","","","",""
"505","219226","pSARL_v2","pSARL_v24nsh6tjy","5ec47b2d91b37736ce88f3d6","reward","img/slot.png","74","","test","","","","","",""
"null","219990","pSARL_v2","pSARL_v24nsh6tjy","5ec47b2d91b37736ce88f3d6","points","<div class=""verylowPoints""> -7 </div>","null","na","test","","","","3","-7","2"
"291.5","220284","pSARL_v2","pSARL_v24nsh6tjy","5ec47b2d91b37736ce88f3d6","freq","img/green_2bandit_b2.png","70","70","test","1","67","67","4","",""
"null","220794","pSARL_v2","pSARL_v24nsh6tjy","5ec47b2d91b37736ce88f3d6","freq_resp","img/green_2bandit_b.png","70","70","test","","","","4","",""
"null","220954","pSARL_v2","pSARL_v24nsh6tjy","5ec47b2d91b37736ce88f3d6","fixation","img/fixation.png","null","","test","","","","","",""
"288.09999999962747","221245","pSARL_v2","pSARL_v24nsh6tjy","5ec47b2d91b37736ce88f3d6","freq","img/green_2bandit_b2.png","70","70","test","1","68","68","4","",""
"null","221770","pSARL_v2","pSARL_v24nsh6tjy","5ec47b2d91b37736ce88f3d6","freq_resp","img/green_2bandit_b.png","70","70","test","","","","4","",""
"null","221926","pSARL_v2","pSARL_v24nsh6tjy","5ec47b2d91b37736ce88f3d6","fixation","img/fixation.png","null","","test","","","","","",""
"252.2000000011176","222180","pSARL_v2","pSARL_v24nsh6tjy","5ec47b2d91b37736ce88f3d6","freq","img/green_2bandit_b2.png","70","70","test","1","69","69","4","",""
"null","222731","pSARL_v2","pSARL_v24nsh6tjy","5ec47b2d91b37736ce88f3d6","freq_resp","img/green_2bandit_b.png","70","70","test","","","","4","",""
"null","222888","pSARL_v2","pSARL_v24nsh6tjy","5ec47b2d91b37736ce88f3d6","fixation","img/fixation.png","null","","test","","","","","",""
"465.2000000011176","223356","pSARL_v2","pSARL_v24nsh6tjy","5ec47b2d91b37736ce88f3d6","infreq","img/orange_2bandit_b2.png","68","68","test","1","70","70","4","",""
"null","223702","pSARL_v2","pSARL_v24nsh6tjy","5ec47b2d91b37736ce88f3d6","infreq_resp","img/orange_2bandit_b.png","68","68","test","","","","4","",""
"null","223858","pSARL_v2","pSARL_v24nsh6tjy","5ec47b2d91b37736ce88f3d6","fixation","img/fixation.png","null","","test","","","","","",""
"385.5","224246","pSARL_v2","pSARL_v24nsh6tjy","5ec47b2d91b37736ce88f3d6","freq","img/green_2bandit_b2.png","70","70","test","1","71","71","4","",""
"null","224678","pSARL_v2","pSARL_v24nsh6tjy","5ec47b2d91b37736ce88f3d6","freq_resp","img/green_2bandit_b.png","70","70","test","","","","4","",""
"null","224835","pSARL_v2","pSARL_v24nsh6tjy","5ec47b2d91b37736ce88f3d6","fixation","img/fixation.png","null","","test","","","","","",""
"339.19999999925494","225177","pSARL_v2","pSARL_v24nsh6tjy","5ec47b2d91b37736ce88f3d6","freq","img/green_2bandit_b2.png","70","70","test","1","72","72","4","",""
"null","225649","pSARL_v2","pSARL_v24nsh6tjy","5ec47b2d91b37736ce88f3d6","freq_resp","img/green_2bandit_b.png","70","70","test","","","","4","",""
"null","225807","pSARL_v2","pSARL_v24nsh6tjy","5ec47b2d91b37736ce88f3d6","fixation","img/fixation.png","null","","test","","","","","",""
"249.30000000074506","226059","pSARL_v2","pSARL_v24nsh6tjy","5ec47b2d91b37736ce88f3d6","freq","img/green_2bandit_b2.png","70","70","test","1","73","73","4","",""
"null","226627","pSARL_v2","pSARL_v24nsh6tjy","5ec47b2d91b37736ce88f3d6","freq_resp","img/green_2bandit_b.png","70","70","test","","","","4","",""
"null","226784","pSARL_v2","pSARL_v24nsh6tjy","5ec47b2d91b37736ce88f3d6","fixation","img/fixation.png","null","","test","","","","","",""
"251.60000000149012","227038","pSARL_v2","pSARL_v24nsh6tjy","5ec47b2d91b37736ce88f3d6","freq","img/green_2bandit_b2.png","70","70","test","1","74","74","4","",""
"null","227597","pSARL_v2","pSARL_v24nsh6tjy","5ec47b2d91b37736ce88f3d6","freq_resp","img/green_2bandit_b.png","70","70","test","","","","4","",""
"null","227756","pSARL_v2","pSARL_v24nsh6tjy","5ec47b2d91b37736ce88f3d6","fixation","img/fixation.png","null","","test","","","","","",""
"304.59999999962747","228063","pSARL_v2","pSARL_v24nsh6tjy","5ec47b2d91b37736ce88f3d6","freq","img/green_2bandit_b2.png","70","70","test","1","75","75","4","",""
"null","228576","pSARL_v2","pSARL_v24nsh6tjy","5ec47b2d91b37736ce88f3d6","freq_resp","img/green_2bandit_b.png","70","70","test","","","","4","",""
"null","228730","pSARL_v2","pSARL_v24nsh6tjy","5ec47b2d91b37736ce88f3d6","fixation","img/fixation.png","null","","test","","","","","",""
"297.59999999962747","229030","pSARL_v2","pSARL_v24nsh6tjy","5ec47b2d91b37736ce88f3d6","freq","img/green_2bandit_b2.png","70","70","test","1","76","76","4","",""
"null","229549","pSARL_v2","pSARL_v24nsh6tjy","5ec47b2d91b37736ce88f3d6","freq_resp","img/green_2bandit_b.png","70","70","test","","","","4","",""
"null","229704","pSARL_v2","pSARL_v24nsh6tjy","5ec47b2d91b37736ce88f3d6","fixation","img/fixation.png","null","","test","","","","","",""
"356.19999999925494","230063","pSARL_v2","pSARL_v24nsh6tjy","5ec47b2d91b37736ce88f3d6","infreq","img/orange_2bandit_b2.png","70","68","test","0","77","77","4","",""
"null","230520","pSARL_v2","pSARL_v24nsh6tjy","5ec47b2d91b37736ce88f3d6","infreq_resp","img/orange_2bandit_b.png","70","68","test","","","","4","",""
"null","230678","pSARL_v2","pSARL_v24nsh6tjy","5ec47b2d91b37736ce88f3d6","fixation","img/fixation.png","null","","test","","","","","",""
"519.2999999988824","231199","pSARL_v2","pSARL_v24nsh6tjy","5ec47b2d91b37736ce88f3d6","infreq","img/orange_2bandit_b2.png","68","68","test","1","78","78","4","",""
"null","231495","pSARL_v2","pSARL_v24nsh6tjy","5ec47b2d91b37736ce88f3d6","infreq_resp","img/orange_2bandit_b.png","68","68","test","","","","4","",""
"null","231654","pSARL_v2","pSARL_v24nsh6tjy","5ec47b2d91b37736ce88f3d6","fixation","img/fixation.png","null","","test","","","","","",""
"371.2000000011176","232028","pSARL_v2","pSARL_v24nsh6tjy","5ec47b2d91b37736ce88f3d6","freq","img/green_2bandit_b2.png","70","70","test","1","79","79","4","",""
"null","232470","pSARL_v2","pSARL_v24nsh6tjy","5ec47b2d91b37736ce88f3d6","freq_resp","img/green_2bandit_b.png","70","70","test","","","","4","",""
"null","232626","pSARL_v2","pSARL_v24nsh6tjy","5ec47b2d91b37736ce88f3d6","fixation","img/fixation.png","null","","test","","","","","",""
"379.59999999962747","233008","pSARL_v2","pSARL_v24nsh6tjy","5ec47b2d91b37736ce88f3d6","freq","img/green_2bandit_b2.png","70","70","test","1","80","80","4","",""
"null","233444","pSARL_v2","pSARL_v24nsh6tjy","5ec47b2d91b37736ce88f3d6","freq_resp","img/green_2bandit_b.png","70","70","test","","","","4","",""
"null","233601","pSARL_v2","pSARL_v24nsh6tjy","5ec47b2d91b37736ce88f3d6","fixation","img/fixation.png","null","","test","","","","","",""
"347.09999999962747","233950","pSARL_v2","pSARL_v24nsh6tjy","5ec47b2d91b37736ce88f3d6","freq","img/green_2bandit_b2.png","70","70","test","1","81","81","4","",""
"null","234408","pSARL_v2","pSARL_v24nsh6tjy","5ec47b2d91b37736ce88f3d6","freq_resp","img/green_2bandit_b.png","70","70","test","","","","4","",""
"null","234567","pSARL_v2","pSARL_v24nsh6tjy","5ec47b2d91b37736ce88f3d6","fixation","img/fixation.png","null","","test","","","","","",""
"354.6000000014901","234925","pSARL_v2","pSARL_v24nsh6tjy","5ec47b2d91b37736ce88f3d6","freq","img/green_2bandit_b2.png","70","70","test","1","82","82","4","",""
"null","235383","pSARL_v2","pSARL_v24nsh6tjy","5ec47b2d91b37736ce88f3d6","freq_resp","img/green_2bandit_b.png","70","70","test","","","","4","",""
"null","235539","pSARL_v2","pSARL_v24nsh6tjy","5ec47b2d91b37736ce88f3d6","fixation","img/fixation.png","null","","test","","","","","",""
"328.5","235869","pSARL_v2","pSARL_v24nsh6tjy","5ec47b2d91b37736ce88f3d6","freq","img/green_2bandit_b2.png","70","70","test","1","83","83","4","",""
"null","236345","pSARL_v2","pSARL_v24nsh6tjy","5ec47b2d91b37736ce88f3d6","freq_resp","img/green_2bandit_b.png","70","70","test","","","","4","",""
"null","236502","pSARL_v2","pSARL_v24nsh6tjy","5ec47b2d91b37736ce88f3d6","fixation","img/fixation.png","null","","test","","","","","",""
"278.1000000014901","236783","pSARL_v2","pSARL_v24nsh6tjy","5ec47b2d91b37736ce88f3d6","freq","img/green_2bandit_b2.png","70","70","test","1","84","84","4","",""
"null","237318","pSARL_v2","pSARL_v24nsh6tjy","5ec47b2d91b37736ce88f3d6","freq_resp","img/green_2bandit_b.png","70","70","test","","","","4","",""
"null","237476","pSARL_v2","pSARL_v24nsh6tjy","5ec47b2d91b37736ce88f3d6","fixation","img/fixation.png","null","","test","","","","","",""
"296.90000000037253","237775","pSARL_v2","pSARL_v24nsh6tjy","5ec47b2d91b37736ce88f3d6","freq","img/green_2bandit_b2.png","70","70","test","1","85","85","4","",""
"null","238295","pSARL_v2","pSARL_v24nsh6tjy","5ec47b2d91b37736ce88f3d6","freq_resp","img/green_2bandit_b.png","70","70","test","","","","4","",""
"null","238450","pSARL_v2","pSARL_v24nsh6tjy","5ec47b2d91b37736ce88f3d6","fixation","img/fixation.png","null","","test","","","","","",""
"266","238719","pSARL_v2","pSARL_v24nsh6tjy","5ec47b2d91b37736ce88f3d6","freq","img/green_2bandit_b2.png","70","70","test","1","86","86","4","",""
"null","239263","pSARL_v2","pSARL_v24nsh6tjy","5ec47b2d91b37736ce88f3d6","freq_resp","img/green_2bandit_b.png","70","70","test","","","","4","",""
"null","239421","pSARL_v2","pSARL_v24nsh6tjy","5ec47b2d91b37736ce88f3d6","fixation","img/fixation.png","null","","test","","","","","",""
"492.5","239916","pSARL_v2","pSARL_v24nsh6tjy","5ec47b2d91b37736ce88f3d6","reward","img/slot.png","74","","test","","","","","",""
"null","240677","pSARL_v2","pSARL_v24nsh6tjy","5ec47b2d91b37736ce88f3d6","points","<div class=""verylowPoints""> -3 </div>","null","na","test","","","","4","-3","3"
"334.19999999925494","241013","pSARL_v2","pSARL_v24nsh6tjy","5ec47b2d91b37736ce88f3d6","freq","img/green_2bandit_b2.png","70","70","test","1","87","87","5","",""
"null","241494","pSARL_v2","pSARL_v24nsh6tjy","5ec47b2d91b37736ce88f3d6","freq_resp","img/green_2bandit_b.png","70","70","test","","","","5","",""
"null","241651","pSARL_v2","pSARL_v24nsh6tjy","5ec47b2d91b37736ce88f3d6","fixation","img/fixation.png","null","","test","","","","","",""
"324.40000000037253","241978","pSARL_v2","pSARL_v24nsh6tjy","5ec47b2d91b37736ce88f3d6","freq","img/green_2bandit_b2.png","70","70","test","1","88","88","5","",""
"null","242466","pSARL_v2","pSARL_v24nsh6tjy","5ec47b2d91b37736ce88f3d6","freq_resp","img/green_2bandit_b.png","70","70","test","","","","5","",""
"null","242623","pSARL_v2","pSARL_v24nsh6tjy","5ec47b2d91b37736ce88f3d6","fixation","img/fixation.png","null","","test","","","","","",""
"542.5999999996275","243168","pSARL_v2","pSARL_v24nsh6tjy","5ec47b2d91b37736ce88f3d6","infreq","img/orange_2bandit_b2.png","68","68","test","1","89","89","5","",""
"null","243441","pSARL_v2","pSARL_v24nsh6tjy","5ec47b2d91b37736ce88f3d6","infreq_resp","img/orange_2bandit_b.png","68","68","test","","","","5","",""
"null","243601","pSARL_v2","pSARL_v24nsh6tjy","5ec47b2d91b37736ce88f3d6","fixation","img/fixation.png","null","","test","","","","","",""
"370.69999999925494","243974","pSARL_v2","pSARL_v24nsh6tjy","5ec47b2d91b37736ce88f3d6","freq","img/green_2bandit_b2.png","70","70","test","1","90","90","5","",""
"null","244415","pSARL_v2","pSARL_v24nsh6tjy","5ec47b2d91b37736ce88f3d6","freq_resp","img/green_2bandit_b.png","70","70","test","","","","5","",""
"null","244571","pSARL_v2","pSARL_v24nsh6tjy","5ec47b2d91b37736ce88f3d6","fixation","img/fixation.png","null","","test","","","","","",""
"323.40000000037253","244896","pSARL_v2","pSARL_v24nsh6tjy","5ec47b2d91b37736ce88f3d6","freq","img/green_2bandit_b2.png","70","70","test","1","91","91","5","",""
"null","245376","pSARL_v2","pSARL_v24nsh6tjy","5ec47b2d91b37736ce88f3d6","freq_resp","img/green_2bandit_b.png","70","70","test","","","","5","",""
"null","245535","pSARL_v2","pSARL_v24nsh6tjy","5ec47b2d91b37736ce88f3d6","fixation","img/fixation.png","null","","test","","","","","",""
"319.69999999925494","245857","pSARL_v2","pSARL_v24nsh6tjy","5ec47b2d91b37736ce88f3d6","freq","img/green_2bandit_b2.png","70","70","test","1","92","92","5","",""
"null","246355","pSARL_v2","pSARL_v24nsh6tjy","5ec47b2d91b37736ce88f3d6","freq_resp","img/green_2bandit_b.png","70","70","test","","","","5","",""
"null","246514","pSARL_v2","pSARL_v24nsh6tjy","5ec47b2d91b37736ce88f3d6","fixation","img/fixation.png","null","","test","","","","","",""
"325.7999999988824","246842","pSARL_v2","pSARL_v24nsh6tjy","5ec47b2d91b37736ce88f3d6","freq","img/green_2bandit_b2.png","70","70","test","1","93","93","5","",""
"null","247333","pSARL_v2","pSARL_v24nsh6tjy","5ec47b2d91b37736ce88f3d6","freq_resp","img/green_2bandit_b.png","70","70","test","","","","5","",""
"null","247490","pSARL_v2","pSARL_v24nsh6tjy","5ec47b2d91b37736ce88f3d6","fixation","img/fixation.png","null","","test","","","","","",""
"309.2999999988824","247802","pSARL_v2","pSARL_v24nsh6tjy","5ec47b2d91b37736ce88f3d6","freq","img/green_2bandit_b2.png","70","70","test","1","94","94","5","",""
"null","248299","pSARL_v2","pSARL_v24nsh6tjy","5ec47b2d91b37736ce88f3d6","freq_resp","img/green_2bandit_b.png","70","70","test","","","","5","",""
"null","248456","pSARL_v2","pSARL_v24nsh6tjy","5ec47b2d91b37736ce88f3d6","fixation","img/fixation.png","null","","test","","","","","",""
"276.19999999925494","248735","pSARL_v2","pSARL_v24nsh6tjy","5ec47b2d91b37736ce88f3d6","freq","img/green_2bandit_b2.png","70","70","test","1","95","95","5","",""
"null","249270","pSARL_v2","pSARL_v24nsh6tjy","5ec47b2d91b37736ce88f3d6","freq_resp","img/green_2bandit_b.png","70","70","test","","","","5","",""
"null","249429","pSARL_v2","pSARL_v24nsh6tjy","5ec47b2d91b37736ce88f3d6","fixation","img/fixation.png","null","","test","","","","","",""
"262","249694","pSARL_v2","pSARL_v24nsh6tjy","5ec47b2d91b37736ce88f3d6","freq","img/green_2bandit_b2.png","70","70","test","1","96","96","5","",""
"null","250248","pSARL_v2","pSARL_v24nsh6tjy","5ec47b2d91b37736ce88f3d6","freq_resp","img/green_2bandit_b.png","70","70","test","","","","5","",""
"null","250403","pSARL_v2","pSARL_v24nsh6tjy","5ec47b2d91b37736ce88f3d6","fixation","img/fixation.png","null","","test","","","","","",""
"261","250667","pSARL_v2","pSARL_v24nsh6tjy","5ec47b2d91b37736ce88f3d6","freq","img/green_2bandit_b2.png","70","70","test","1","97","97","5","",""
"null","251224","pSARL_v2","pSARL_v24nsh6tjy","5ec47b2d91b37736ce88f3d6","freq_resp","img/green_2bandit_b.png","70","70","test","","","","5","",""
"null","251380","pSARL_v2","pSARL_v24nsh6tjy","5ec47b2d91b37736ce88f3d6","fixation","img/fixation.png","null","","test","","","","","",""
"280","251663","pSARL_v2","pSARL_v24nsh6tjy","5ec47b2d91b37736ce88f3d6","freq","img/green_2bandit_b2.png","70","70","test","1","98","98","5","",""
"null","252200","pSARL_v2","pSARL_v24nsh6tjy","5ec47b2d91b37736ce88f3d6","freq_resp","img/green_2bandit_b.png","70","70","test","","","","5","",""
"null","252359","pSARL_v2","pSARL_v24nsh6tjy","5ec47b2d91b37736ce88f3d6","fixation","img/fixation.png","null","","test","","","","","",""
"255.69999999925494","252617","pSARL_v2","pSARL_v24nsh6tjy","5ec47b2d91b37736ce88f3d6","freq","img/green_2bandit_b2.png","70","70","test","1","99","99","5","",""
"null","253175","pSARL_v2","pSARL_v24nsh6tjy","5ec47b2d91b37736ce88f3d6","freq_resp","img/green_2bandit_b.png","70","70","test","","","","5","",""
"null","253332","pSARL_v2","pSARL_v24nsh6tjy","5ec47b2d91b37736ce88f3d6","fixation","img/fixation.png","null","","test","","","","","",""
"251.2000000011176","253586","pSARL_v2","pSARL_v24nsh6tjy","5ec47b2d91b37736ce88f3d6","freq","img/green_2bandit_b2.png","70","70","test","1","100","100","5","",""
"null","254143","pSARL_v2","pSARL_v24nsh6tjy","5ec47b2d91b37736ce88f3d6","freq_resp","img/green_2bandit_b.png","70","70","test","","","","5","",""
"null","254301","pSARL_v2","pSARL_v24nsh6tjy","5ec47b2d91b37736ce88f3d6","fixation","img/fixation.png","null","","test","","","","","",""
"260.59999999962747","254564","pSARL_v2","pSARL_v24nsh6tjy","5ec47b2d91b37736ce88f3d6","freq","img/green_2bandit_b2.png","70","70","test","1","101","101","5","",""
"null","255120","pSARL_v2","pSARL_v24nsh6tjy","5ec47b2d91b37736ce88f3d6","freq_resp","img/green_2bandit_b.png","70","70","test","","","","5","",""
"null","255276","pSARL_v2","pSARL_v24nsh6tjy","5ec47b2d91b37736ce88f3d6","fixation","img/fixation.png","null","","test","","","","","",""
"254.80000000074506","255533","pSARL_v2","pSARL_v24nsh6tjy","5ec47b2d91b37736ce88f3d6","freq","img/green_2bandit_b2.png","70","70","test","1","102","102","5","",""
"null","256095","pSARL_v2","pSARL_v24nsh6tjy","5ec47b2d91b37736ce88f3d6","freq_resp","img/green_2bandit_b.png","70","70","test","","","","5","",""
"null","256253","pSARL_v2","pSARL_v24nsh6tjy","5ec47b2d91b37736ce88f3d6","fixation","img/fixation.png","null","","test","","","","","",""
"277.2999999988824","256533","pSARL_v2","pSARL_v24nsh6tjy","5ec47b2d91b37736ce88f3d6","freq","img/green_2bandit_b2.png","70","70","test","1","103","103","5","",""
"null","257061","pSARL_v2","pSARL_v24nsh6tjy","5ec47b2d91b37736ce88f3d6","freq_resp","img/green_2bandit_b.png","70","70","test","","","","5","",""
"null","257217","pSARL_v2","pSARL_v24nsh6tjy","5ec47b2d91b37736ce88f3d6","fixation","img/fixation.png","null","","test","","","","","",""
"291.19999999925494","257511","pSARL_v2","pSARL_v24nsh6tjy","5ec47b2d91b37736ce88f3d6","infreq","img/orange_2bandit_b2.png","70","68","test","0","104","104","5","",""
"null","258023","pSARL_v2","pSARL_v24nsh6tjy","5ec47b2d91b37736ce88f3d6","infreq_resp","img/orange_2bandit_b.png","70","68","test","","","","5","",""
"null","258180","pSARL_v2","pSARL_v24nsh6tjy","5ec47b2d91b37736ce88f3d6","fixation","img/fixation.png","null","","test","","","","","",""
"325.2999999988824","258508","pSARL_v2","pSARL_v24nsh6tjy","5ec47b2d91b37736ce88f3d6","freq","img/green_2bandit_b2.png","70","70","test","1","105","105","5","",""
"null","258992","pSARL_v2","pSARL_v24nsh6tjy","5ec47b2d91b37736ce88f3d6","freq_resp","img/green_2bandit_b.png","70","70","test","","","","5","",""
"null","259150","pSARL_v2","pSARL_v24nsh6tjy","5ec47b2d91b37736ce88f3d6","fixation","img/fixation.png","null","","test","","","","","",""
"319.5","259472","pSARL_v2","pSARL_v24nsh6tjy","5ec47b2d91b37736ce88f3d6","freq","img/green_2bandit_b2.png","70","70","test","1","106","106","5","",""
"null","259969","pSARL_v2","pSARL_v24nsh6tjy","5ec47b2d91b37736ce88f3d6","freq_resp","img/green_2bandit_b.png","70","70","test","","","","5","",""
"null","260128","pSARL_v2","pSARL_v24nsh6tjy","5ec47b2d91b37736ce88f3d6","fixation","img/fixation.png","null","","test","","","","","",""
"302.2000000011176","260433","pSARL_v2","pSARL_v24nsh6tjy","5ec47b2d91b37736ce88f3d6","freq","img/green_2bandit_b2.png","70","70","test","1","107","107","5","",""
"null","260948","pSARL_v2","pSARL_v24nsh6tjy","5ec47b2d91b37736ce88f3d6","freq_resp","img/green_2bandit_b.png","70","70","test","","","","5","",""
"null","261105","pSARL_v2","pSARL_v24nsh6tjy","5ec47b2d91b37736ce88f3d6","fixation","img/fixation.png","null","","test","","","","","",""
"337.19999999925494","261444","pSARL_v2","pSARL_v24nsh6tjy","5ec47b2d91b37736ce88f3d6","freq","img/green_2bandit_b2.png","70","70","test","1","108","108","5","",""
"null","261923","pSARL_v2","pSARL_v24nsh6tjy","5ec47b2d91b37736ce88f3d6","freq_resp","img/green_2bandit_b.png","70","70","test","","","","5","",""
"null","262079","pSARL_v2","pSARL_v24nsh6tjy","5ec47b2d91b37736ce88f3d6","fixation","img/fixation.png","null","","test","","","","","",""
"482.19999999925494","262564","pSARL_v2","pSARL_v24nsh6tjy","5ec47b2d91b37736ce88f3d6","reward","img/slot.png","74","","test","","","","","",""
"null","263330","pSARL_v2","pSARL_v24nsh6tjy","5ec47b2d91b37736ce88f3d6","points","<div class=""veryhighPoints""> +1 </div>","null","na","test","","","","5","1","4"
"447.7000000011176","263780","pSARL_v2","pSARL_v24nsh6tjy","5ec47b2d91b37736ce88f3d6","freq","img/green_2bandit_b2.png","70","70","test","1","109","109","6","",""
"null","264148","pSARL_v2","pSARL_v24nsh6tjy","5ec47b2d91b37736ce88f3d6","freq_resp","img/green_2bandit_b.png","70","70","test","","","","6","",""
"null","264303","pSARL_v2","pSARL_v24nsh6tjy","5ec47b2d91b37736ce88f3d6","fixation","img/fixation.png","null","","test","","","","","",""
"429.5","264735","pSARL_v2","pSARL_v24nsh6tjy","5ec47b2d91b37736ce88f3d6","freq","img/green_2bandit_b2.png","70","70","test","1","110","110","6","",""
"null","265121","pSARL_v2","pSARL_v24nsh6tjy","5ec47b2d91b37736ce88f3d6","freq_resp","img/green_2bandit_b.png","70","70","test","","","","6","",""
"null","265280","pSARL_v2","pSARL_v24nsh6tjy","5ec47b2d91b37736ce88f3d6","fixation","img/fixation.png","null","","test","","","","","",""
"431.59999999962747","265714","pSARL_v2","pSARL_v24nsh6tjy","5ec47b2d91b37736ce88f3d6","freq","img/green_2bandit_b2.png","70","70","test","1","111","111","6","",""
"null","266087","pSARL_v2","pSARL_v24nsh6tjy","5ec47b2d91b37736ce88f3d6","freq_resp","img/green_2bandit_b.png","70","70","test","","","","6","",""
"null","266246","pSARL_v2","pSARL_v24nsh6tjy","5ec47b2d91b37736ce88f3d6","fixation","img/fixation.png","null","","test","","","","","",""
"537.6000000014901","266786","pSARL_v2","pSARL_v24nsh6tjy","5ec47b2d91b37736ce88f3d6","infreq","img/orange_2bandit_b2.png","68","68","test","1","112","112","6","",""
"null","267064","pSARL_v2","pSARL_v24nsh6tjy","5ec47b2d91b37736ce88f3d6","infreq_resp","img/orange_2bandit_b.png","68","68","test","","","","6","",""
"null","267218","pSARL_v2","pSARL_v24nsh6tjy","5ec47b2d91b37736ce88f3d6","fixation","img/fixation.png","null","","test","","","","","",""
"396.09999999962747","267617","pSARL_v2","pSARL_v24nsh6tjy","5ec47b2d91b37736ce88f3d6","freq","img/green_2bandit_b2.png","70","70","test","1","113","113","6","",""
"null","268038","pSARL_v2","pSARL_v24nsh6tjy","5ec47b2d91b37736ce88f3d6","freq_resp","img/green_2bandit_b.png","70","70","test","","","","6","",""
"null","268196","pSARL_v2","pSARL_v24nsh6tjy","5ec47b2d91b37736ce88f3d6","fixation","img/fixation.png","null","","test","","","","","",""
"366.80000000074506","268565","pSARL_v2","pSARL_v24nsh6tjy","5ec47b2d91b37736ce88f3d6","freq","img/green_2bandit_b2.png","70","70","test","1","114","114","6","",""
"null","269005","pSARL_v2","pSARL_v24nsh6tjy","5ec47b2d91b37736ce88f3d6","freq_resp","img/green_2bandit_b.png","70","70","test","","","","6","",""
"null","269161","pSARL_v2","pSARL_v24nsh6tjy","5ec47b2d91b37736ce88f3d6","fixation","img/fixation.png","null","","test","","","","","",""
"455","269618","pSARL_v2","pSARL_v24nsh6tjy","5ec47b2d91b37736ce88f3d6","freq","img/green_2bandit_b2.png","70","70","test","1","115","115","6","",""
"null","269979","pSARL_v2","pSARL_v24nsh6tjy","5ec47b2d91b37736ce88f3d6","freq_resp","img/green_2bandit_b.png","70","70","test","","","","6","",""
"null","270137","pSARL_v2","pSARL_v24nsh6tjy","5ec47b2d91b37736ce88f3d6","fixation","img/fixation.png","null","","test","","","","","",""
"452.90000000037253","270592","pSARL_v2","pSARL_v24nsh6tjy","5ec47b2d91b37736ce88f3d6","freq","img/green_2bandit_b2.png","70","70","test","1","116","116","6","",""
"null","270951","pSARL_v2","pSARL_v24nsh6tjy","5ec47b2d91b37736ce88f3d6","freq_resp","img/green_2bandit_b.png","70","70","test","","","","6","",""
"null","271110","pSARL_v2","pSARL_v24nsh6tjy","5ec47b2d91b37736ce88f3d6","fixation","img/fixation.png","null","","test","","","","","",""
"525.0999999996275","271637","pSARL_v2","pSARL_v24nsh6tjy","5ec47b2d91b37736ce88f3d6","freq","img/green_2bandit_b2.png","70","70","test","1","117","117","6","",""
"null","271915","pSARL_v2","pSARL_v24nsh6tjy","5ec47b2d91b37736ce88f3d6","freq_resp","img/green_2bandit_b.png","70","70","test","","","","6","",""
"null","272072","pSARL_v2","pSARL_v24nsh6tjy","5ec47b2d91b37736ce88f3d6","fixation","img/fixation.png","null","","test","","","","","",""
"522.5999999996275","272597","pSARL_v2","pSARL_v24nsh6tjy","5ec47b2d91b37736ce88f3d6","freq","img/green_2bandit_b2.png","70","70","test","1","118","118","6","",""
"null","272887","pSARL_v2","pSARL_v24nsh6tjy","5ec47b2d91b37736ce88f3d6","freq_resp","img/green_2bandit_b.png","70","70","test","","","","6","",""
"null","273043","pSARL_v2","pSARL_v24nsh6tjy","5ec47b2d91b37736ce88f3d6","fixation","img/fixation.png","null","","test","","","","","",""
"420.40000000037253","273466","pSARL_v2","pSARL_v24nsh6tjy","5ec47b2d91b37736ce88f3d6","freq","img/green_2bandit_b2.png","70","70","test","1","119","119","6","",""
"null","273852","pSARL_v2","pSARL_v24nsh6tjy","5ec47b2d91b37736ce88f3d6","freq_resp","img/green_2bandit_b.png","70","70","test","","","","6","",""
"null","274010","pSARL_v2","pSARL_v24nsh6tjy","5ec47b2d91b37736ce88f3d6","fixation","img/fixation.png","null","","test","","","","","",""
"445.09999999962747","274458","pSARL_v2","pSARL_v24nsh6tjy","5ec47b2d91b37736ce88f3d6","freq","img/green_2bandit_b2.png","70","70","test","1","120","120","6","",""
"null","274818","pSARL_v2","pSARL_v24nsh6tjy","5ec47b2d91b37736ce88f3d6","freq_resp","img/green_2bandit_b.png","70","70","test","","","","6","",""
"null","274974","pSARL_v2","pSARL_v24nsh6tjy","5ec47b2d91b37736ce88f3d6","fixation","img/fixation.png","null","","test","","","","","",""
"486.59999999962747","275463","pSARL_v2","pSARL_v24nsh6tjy","5ec47b2d91b37736ce88f3d6","freq","img/green_2bandit_b2.png","70","70","test","1","121","121","6","",""
"null","275778","pSARL_v2","pSARL_v24nsh6tjy","5ec47b2d91b37736ce88f3d6","freq_resp","img/green_2bandit_b.png","70","70","test","","","","6","",""
"null","275936","pSARL_v2","pSARL_v24nsh6tjy","5ec47b2d91b37736ce88f3d6","fixation","img/fixation.png","null","","test","","","","","",""
"505.59999999962747","276444","pSARL_v2","pSARL_v24nsh6tjy","5ec47b2d91b37736ce88f3d6","freq","img/green_2bandit_b2.png","70","70","test","1","122","122","6","",""
"null","276745","pSARL_v2","pSARL_v24nsh6tjy","5ec47b2d91b37736ce88f3d6","freq_resp","img/green_2bandit_b.png","70","70","test","","","","6","",""
"null","276902","pSARL_v2","pSARL_v24nsh6tjy","5ec47b2d91b37736ce88f3d6","fixation","img/fixation.png","null","","test","","","","","",""
"445.19999999925494","277350","pSARL_v2","pSARL_v24nsh6tjy","5ec47b2d91b37736ce88f3d6","infreq","img/orange_2bandit_b2.png","68","68","test","1","123","123","6","",""
"null","277718","pSARL_v2","pSARL_v24nsh6tjy","5ec47b2d91b37736ce88f3d6","infreq_resp","img/orange_2bandit_b.png","68","68","test","","","","6","",""
"null","277876","pSARL_v2","pSARL_v24nsh6tjy","5ec47b2d91b37736ce88f3d6","fixation","img/fixation.png","null","","test","","","","","",""
"340.69999999925494","278219","pSARL_v2","pSARL_v24nsh6tjy","5ec47b2d91b37736ce88f3d6","freq","img/green_2bandit_b2.png","70","70","test","1","124","124","6","",""
"null","278692","pSARL_v2","pSARL_v24nsh6tjy","5ec47b2d91b37736ce88f3d6","freq_resp","img/green_2bandit_b.png","70","70","test","","","","6","",""
"null","278848","pSARL_v2","pSARL_v24nsh6tjy","5ec47b2d91b37736ce88f3d6","fixation","img/fixation.png","null","","test","","","","","",""
"338.6000000014901","279189","pSARL_v2","pSARL_v24nsh6tjy","5ec47b2d91b37736ce88f3d6","freq","img/green_2bandit_b2.png","70","70","test","1","125","125","6","",""
"null","279669","pSARL_v2","pSARL_v24nsh6tjy","5ec47b2d91b37736ce88f3d6","freq_resp","img/green_2bandit_b.png","70","70","test","","","","6","",""
"null","279827","pSARL_v2","pSARL_v24nsh6tjy","5ec47b2d91b37736ce88f3d6","fixation","img/fixation.png","null","","test","","","","","",""
"320.90000000037253","280150","pSARL_v2","pSARL_v24nsh6tjy","5ec47b2d91b37736ce88f3d6","freq","img/green_2bandit_b2.png","70","70","test","1","126","126","6","",""
"null","280632","pSARL_v2","pSARL_v24nsh6tjy","5ec47b2d91b37736ce88f3d6","freq_resp","img/green_2bandit_b.png","70","70","test","","","","6","",""
"null","280788","pSARL_v2","pSARL_v24nsh6tjy","5ec47b2d91b37736ce88f3d6","fixation","img/fixation.png","null","","test","","","","","",""
"297.30000000074506","281088","pSARL_v2","pSARL_v24nsh6tjy","5ec47b2d91b37736ce88f3d6","freq","img/green_2bandit_b2.png","70","70","test","1","127","127","6","",""
"null","281608","pSARL_v2","pSARL_v24nsh6tjy","5ec47b2d91b37736ce88f3d6","freq_resp","img/green_2bandit_b.png","70","70","test","","","","6","",""
"null","281767","pSARL_v2","pSARL_v24nsh6tjy","5ec47b2d91b37736ce88f3d6","fixation","img/fixation.png","null","","test","","","","","",""
"346","282115","pSARL_v2","pSARL_v24nsh6tjy","5ec47b2d91b37736ce88f3d6","freq","img/green_2bandit_b2.png","70","70","test","1","128","128","6","",""
"null","282578","pSARL_v2","pSARL_v24nsh6tjy","5ec47b2d91b37736ce88f3d6","freq_resp","img/green_2bandit_b.png","70","70","test","","","","6","",""
"null","282733","pSARL_v2","pSARL_v24nsh6tjy","5ec47b2d91b37736ce88f3d6","fixation","img/fixation.png","null","","test","","","","","",""
"476.59999999962747","283212","pSARL_v2","pSARL_v24nsh6tjy","5ec47b2d91b37736ce88f3d6","reward","img/slot.png","74","","test","","","","","",""
"null","283969","pSARL_v2","pSARL_v24nsh6tjy","5ec47b2d91b37736ce88f3d6","points","<div class=""verylowPoints""> -7 </div>","null","na","test","","","","6","-7","5"
"267.90000000037253","284239","pSARL_v2","pSARL_v24nsh6tjy","5ec47b2d91b37736ce88f3d6","freq","img/green_2bandit_b2.png","70","70","test","1","129","129","7","",""
"null","284788","pSARL_v2","pSARL_v24nsh6tjy","5ec47b2d91b37736ce88f3d6","freq_resp","img/green_2bandit_b.png","70","70","test","","","","7","",""
"null","284945","pSARL_v2","pSARL_v24nsh6tjy","5ec47b2d91b37736ce88f3d6","fixation","img/fixation.png","null","","test","","","","","",""
"246.69999999925494","285194","pSARL_v2","pSARL_v24nsh6tjy","5ec47b2d91b37736ce88f3d6","freq","img/green_2bandit_b2.png","70","70","test","1","130","130","7","",""
"null","285765","pSARL_v2","pSARL_v24nsh6tjy","5ec47b2d91b37736ce88f3d6","freq_resp","img/green_2bandit_b.png","70","70","test","","","","7","",""
"null","285922","pSARL_v2","pSARL_v24nsh6tjy","5ec47b2d91b37736ce88f3d6","fixation","img/fixation.png","null","","test","","","","","",""
"249","286174","pSARL_v2","pSARL_v24nsh6tjy","5ec47b2d91b37736ce88f3d6","freq","img/green_2bandit_b2.png","70","70","test","1","131","131","7","",""
"null","286746","pSARL_v2","pSARL_v24nsh6tjy","5ec47b2d91b37736ce88f3d6","freq_resp","img/green_2bandit_b.png","70","70","test","","","","7","",""
"null","286899","pSARL_v2","pSARL_v24nsh6tjy","5ec47b2d91b37736ce88f3d6","fixation","img/fixation.png","null","","test","","","","","",""
"298.30000000074506","287200","pSARL_v2","pSARL_v24nsh6tjy","5ec47b2d91b37736ce88f3d6","freq","img/green_2bandit_b2.png","70","70","test","1","132","132","7","",""
"null","287719","pSARL_v2","pSARL_v24nsh6tjy","5ec47b2d91b37736ce88f3d6","freq_resp","img/green_2bandit_b.png","70","70","test","","","","7","",""
"null","287876","pSARL_v2","pSARL_v24nsh6tjy","5ec47b2d91b37736ce88f3d6","fixation","img/fixation.png","null","","test","","","","","",""
"321.2000000011176","288199","pSARL_v2","pSARL_v24nsh6tjy","5ec47b2d91b37736ce88f3d6","freq","img/green_2bandit_b2.png","70","70","test","1","133","133","7","",""
"null","288688","pSARL_v2","pSARL_v24nsh6tjy","5ec47b2d91b37736ce88f3d6","freq_resp","img/green_2bandit_b.png","70","70","test","","","","7","",""
"null","288845","pSARL_v2","pSARL_v24nsh6tjy","5ec47b2d91b37736ce88f3d6","fixation","img/fixation.png","null","","test","","","","","",""
"301.80000000074506","289149","pSARL_v2","pSARL_v24nsh6tjy","5ec47b2d91b37736ce88f3d6","freq","img/green_2bandit_b2.png","70","70","test","1","134","134","7","",""
"null","289661","pSARL_v2","pSARL_v24nsh6tjy","5ec47b2d91b37736ce88f3d6","freq_resp","img/green_2bandit_b.png","70","70","test","","","","7","",""
"null","289821","pSARL_v2","pSARL_v24nsh6tjy","5ec47b2d91b37736ce88f3d6","fixation","img/fixation.png","null","","test","","","","","",""
"333.2000000011176","290157","pSARL_v2","pSARL_v24nsh6tjy","5ec47b2d91b37736ce88f3d6","freq","img/green_2bandit_b2.png","70","70","test","1","135","135","7","",""
"null","290636","pSARL_v2","pSARL_v24nsh6tjy","5ec47b2d91b37736ce88f3d6","freq_resp","img/green_2bandit_b.png","70","70","test","","","","7","",""
"null","290791","pSARL_v2","pSARL_v24nsh6tjy","5ec47b2d91b37736ce88f3d6","fixation","img/fixation.png","null","","test","","","","","",""
"378.30000000074506","291172","pSARL_v2","pSARL_v24nsh6tjy","5ec47b2d91b37736ce88f3d6","freq","img/green_2bandit_b2.png","70","70","test","1","136","136","7","",""
"null","291596","pSARL_v2","pSARL_v24nsh6tjy","5ec47b2d91b37736ce88f3d6","freq_resp","img/green_2bandit_b.png","70","70","test","","","","7","",""
"null","291754","pSARL_v2","pSARL_v24nsh6tjy","5ec47b2d91b37736ce88f3d6","fixation","img/fixation.png","null","","test","","","","","",""
"342.1000000014901","292099","pSARL_v2","pSARL_v24nsh6tjy","5ec47b2d91b37736ce88f3d6","freq","img/green_2bandit_b2.png","70","70","test","1","137","137","7","",""
"null","292573","pSARL_v2","pSARL_v24nsh6tjy","5ec47b2d91b37736ce88f3d6","freq_resp","img/green_2bandit_b.png","70","70","test","","","","7","",""
"null","292731","pSARL_v2","pSARL_v24nsh6tjy","5ec47b2d91b37736ce88f3d6","fixation","img/fixation.png","null","","test","","","","","",""
"297.2000000011176","293031","pSARL_v2","pSARL_v24nsh6tjy","5ec47b2d91b37736ce88f3d6","freq","img/green_2bandit_b2.png","70","70","test","1","138","138","7","",""
"null","293544","pSARL_v2","pSARL_v24nsh6tjy","5ec47b2d91b37736ce88f3d6","freq_resp","img/green_2bandit_b.png","70","70","test","","","","7","",""
"null","293700","pSARL_v2","pSARL_v24nsh6tjy","5ec47b2d91b37736ce88f3d6","fixation","img/fixation.png","null","","test","","","","","",""
"227.30000000074506","293930","pSARL_v2","pSARL_v24nsh6tjy","5ec47b2d91b37736ce88f3d6","freq","img/green_2bandit_b2.png","70","70","test","1","139","139","7","",""
"null","294514","pSARL_v2","pSARL_v24nsh6tjy","5ec47b2d91b37736ce88f3d6","freq_resp","img/green_2bandit_b.png","70","70","test","","","","7","",""
"null","294671","pSARL_v2","pSARL_v24nsh6tjy","5ec47b2d91b37736ce88f3d6","fixation","img/fixation.png","null","","test","","","","","",""
"231.30000000074506","294905","pSARL_v2","pSARL_v24nsh6tjy","5ec47b2d91b37736ce88f3d6","freq","img/green_2bandit_b2.png","70","70","test","1","140","140","7","",""
"null","295480","pSARL_v2","pSARL_v24nsh6tjy","5ec47b2d91b37736ce88f3d6","freq_resp","img/green_2bandit_b.png","70","70","test","","","","7","",""
"null","295638","pSARL_v2","pSARL_v24nsh6tjy","5ec47b2d91b37736ce88f3d6","fixation","img/fixation.png","null","","test","","","","","",""
"297.80000000074506","295938","pSARL_v2","pSARL_v24nsh6tjy","5ec47b2d91b37736ce88f3d6","freq","img/green_2bandit_b2.png","70","70","test","1","141","141","7","",""
"null","296447","pSARL_v2","pSARL_v24nsh6tjy","5ec47b2d91b37736ce88f3d6","freq_resp","img/green_2bandit_b.png","70","70","test","","","","7","",""
"null","296606","pSARL_v2","pSARL_v24nsh6tjy","5ec47b2d91b37736ce88f3d6","fixation","img/fixation.png","null","","test","","","","","",""
"248.19999999925494","296857","pSARL_v2","pSARL_v24nsh6tjy","5ec47b2d91b37736ce88f3d6","freq","img/green_2bandit_b2.png","70","70","test","1","142","142","7","",""
"null","297413","pSARL_v2","pSARL_v24nsh6tjy","5ec47b2d91b37736ce88f3d6","freq_resp","img/green_2bandit_b.png","70","70","test","","","","7","",""
"null","297569","pSARL_v2","pSARL_v24nsh6tjy","5ec47b2d91b37736ce88f3d6","fixation","img/fixation.png","null","","test","","","","","",""
"406.7999999988824","297979","pSARL_v2","pSARL_v24nsh6tjy","5ec47b2d91b37736ce88f3d6","infreq","img/orange_2bandit_b2.png","68","68","test","1","143","143","7","",""
"null","298376","pSARL_v2","pSARL_v24nsh6tjy","5ec47b2d91b37736ce88f3d6","infreq_resp","img/orange_2bandit_b.png","68","68","test","","","","7","",""
"null","298534","pSARL_v2","pSARL_v24nsh6tjy","5ec47b2d91b37736ce88f3d6","fixation","img/fixation.png","null","","test","","","","","",""
"288","298824","pSARL_v2","pSARL_v24nsh6tjy","5ec47b2d91b37736ce88f3d6","freq","img/green_2bandit_b2.png","70","70","test","1","144","144","7","",""
"null","299342","pSARL_v2","pSARL_v24nsh6tjy","5ec47b2d91b37736ce88f3d6","freq_resp","img/green_2bandit_b.png","70","70","test","","","","7","",""
"null","299498","pSARL_v2","pSARL_v24nsh6tjy","5ec47b2d91b37736ce88f3d6","fixation","img/fixation.png","null","","test","","","","","",""
"276.59999999962747","299777","pSARL_v2","pSARL_v24nsh6tjy","5ec47b2d91b37736ce88f3d6","freq","img/green_2bandit_b2.png","70","70","test","1","145","145","7","",""
"null","300311","pSARL_v2","pSARL_v24nsh6tjy","5ec47b2d91b37736ce88f3d6","freq_resp","img/green_2bandit_b.png","70","70","test","","","","7","",""
"null","300469","pSARL_v2","pSARL_v24nsh6tjy","5ec47b2d91b37736ce88f3d6","fixation","img/fixation.png","null","","test","","","","","",""
"233.10000000149012","300705","pSARL_v2","pSARL_v24nsh6tjy","5ec47b2d91b37736ce88f3d6","freq","img/green_2bandit_b2.png","70","70","test","1","146","146","7","",""
"null","301281","pSARL_v2","pSARL_v24nsh6tjy","5ec47b2d91b37736ce88f3d6","freq_resp","img/green_2bandit_b.png","70","70","test","","","","7","",""
"null","301440","pSARL_v2","pSARL_v24nsh6tjy","5ec47b2d91b37736ce88f3d6","fixation","img/fixation.png","null","","test","","","","","",""
"250.09999999962747","301693","pSARL_v2","pSARL_v24nsh6tjy","5ec47b2d91b37736ce88f3d6","freq","img/green_2bandit_b2.png","70","70","test","1","147","147","7","",""
"null","302260","pSARL_v2","pSARL_v24nsh6tjy","5ec47b2d91b37736ce88f3d6","freq_resp","img/green_2bandit_b.png","70","70","test","","","","7","",""
"null","302418","pSARL_v2","pSARL_v24nsh6tjy","5ec47b2d91b37736ce88f3d6","fixation","img/fixation.png","null","","test","","","","","",""
"289.59999999962747","302709","pSARL_v2","pSARL_v24nsh6tjy","5ec47b2d91b37736ce88f3d6","freq","img/green_2bandit_b2.png","70","70","test","1","148","148","7","",""
"null","303238","pSARL_v2","pSARL_v24nsh6tjy","5ec47b2d91b37736ce88f3d6","freq_resp","img/green_2bandit_b.png","70","70","test","","","","7","",""
"null","303396","pSARL_v2","pSARL_v24nsh6tjy","5ec47b2d91b37736ce88f3d6","fixation","img/fixation.png","null","","test","","","","","",""
"376.09999999962747","303774","pSARL_v2","pSARL_v24nsh6tjy","5ec47b2d91b37736ce88f3d6","infreq","img/orange_2bandit_b2.png","68","68","test","1","149","149","7","",""
"null","304212","pSARL_v2","pSARL_v24nsh6tjy","5ec47b2d91b37736ce88f3d6","infreq_resp","img/orange_2bandit_b.png","68","68","test","","","","7","",""
"null","304369","pSARL_v2","pSARL_v24nsh6tjy","5ec47b2d91b37736ce88f3d6","fixation","img/fixation.png","null","","test","","","","","",""
"253.89999999850988","304625","pSARL_v2","pSARL_v24nsh6tjy","5ec47b2d91b37736ce88f3d6","freq","img/green_2bandit_b2.png","70","70","test","1","150","150","7","",""
"null","305175","pSARL_v2","pSARL_v24nsh6tjy","5ec47b2d91b37736ce88f3d6","freq_resp","img/green_2bandit_b.png","70","70","test","","","","7","",""
"null","305332","pSARL_v2","pSARL_v24nsh6tjy","5ec47b2d91b37736ce88f3d6","fixation","img/fixation.png","null","","test","","","","","",""
"270.90000000037253","305605","pSARL_v2","pSARL_v24nsh6tjy","5ec47b2d91b37736ce88f3d6","freq","img/green_2bandit_b2.png","70","70","test","1","151","151","7","",""
"null","306152","pSARL_v2","pSARL_v24nsh6tjy","5ec47b2d91b37736ce88f3d6","freq_resp","img/green_2bandit_b.png","70","70","test","","","","7","",""
"null","306310","pSARL_v2","pSARL_v24nsh6tjy","5ec47b2d91b37736ce88f3d6","fixation","img/fixation.png","null","","test","","","","","",""
"260.59999999962747","306573","pSARL_v2","pSARL_v24nsh6tjy","5ec47b2d91b37736ce88f3d6","freq","img/green_2bandit_b2.png","70","70","test","1","152","152","7","",""
"null","307116","pSARL_v2","pSARL_v24nsh6tjy","5ec47b2d91b37736ce88f3d6","freq_resp","img/green_2bandit_b.png","70","70","test","","","","7","",""
"null","307275","pSARL_v2","pSARL_v24nsh6tjy","5ec47b2d91b37736ce88f3d6","fixation","img/fixation.png","null","","test","","","","","",""
"286.59999999962747","307564","pSARL_v2","pSARL_v24nsh6tjy","5ec47b2d91b37736ce88f3d6","freq","img/green_2bandit_b2.png","70","70","test","1","153","153","7","",""
"null","308096","pSARL_v2","pSARL_v24nsh6tjy","5ec47b2d91b37736ce88f3d6","freq_resp","img/green_2bandit_b.png","70","70","test","","","","7","",""
"null","308253","pSARL_v2","pSARL_v24nsh6tjy","5ec47b2d91b37736ce88f3d6","fixation","img/fixation.png","null","","test","","","","","",""
"317.09999999962747","308572","pSARL_v2","pSARL_v24nsh6tjy","5ec47b2d91b37736ce88f3d6","freq","img/green_2bandit_b2.png","70","70","test","1","154","154","7","",""
"null","309068","pSARL_v2","pSARL_v24nsh6tjy","5ec47b2d91b37736ce88f3d6","freq_resp","img/green_2bandit_b.png","70","70","test","","","","7","",""
"null","309224","pSARL_v2","pSARL_v24nsh6tjy","5ec47b2d91b37736ce88f3d6","fixation","img/fixation.png","null","","test","","","","","",""
"457.19999999925494","309684","pSARL_v2","pSARL_v24nsh6tjy","5ec47b2d91b37736ce88f3d6","reward","img/slot.png","74","","test","","","","","",""
"null","310439","pSARL_v2","pSARL_v24nsh6tjy","5ec47b2d91b37736ce88f3d6","points","<div class=""verylowPoints""> -6 </div>","null","na","test","","","","7","-6","6"
"263.1000000014901","310704","pSARL_v2","pSARL_v24nsh6tjy","5ec47b2d91b37736ce88f3d6","freq","img/green_2bandit_b2.png","70","70","test","1","155","155","8","",""
"null","311243","pSARL_v2","pSARL_v24nsh6tjy","5ec47b2d91b37736ce88f3d6","freq_resp","img/green_2bandit_b.png","70","70","test","","","","8","",""
"null","311401","pSARL_v2","pSARL_v24nsh6tjy","5ec47b2d91b37736ce88f3d6","fixation","img/fixation.png","null","","test","","","","","",""
"256.30000000074506","311660","pSARL_v2","pSARL_v24nsh6tjy","5ec47b2d91b37736ce88f3d6","freq","img/green_2bandit_b2.png","70","70","test","1","156","156","8","",""
"null","312210","pSARL_v2","pSARL_v24nsh6tjy","5ec47b2d91b37736ce88f3d6","freq_resp","img/green_2bandit_b.png","70","70","test","","","","8","",""
"null","312368","pSARL_v2","pSARL_v24nsh6tjy","5ec47b2d91b37736ce88f3d6","fixation","img/fixation.png","null","","test","","","","","",""
"261.80000000074506","312633","pSARL_v2","pSARL_v24nsh6tjy","5ec47b2d91b37736ce88f3d6","freq","img/green_2bandit_b2.png","70","70","test","1","157","157","8","",""
"null","313175","pSARL_v2","pSARL_v24nsh6tjy","5ec47b2d91b37736ce88f3d6","freq_resp","img/green_2bandit_b.png","70","70","test","","","","8","",""
"null","313332","pSARL_v2","pSARL_v24nsh6tjy","5ec47b2d91b37736ce88f3d6","fixation","img/fixation.png","null","","test","","","","","",""
"278.1000000014901","313612","pSARL_v2","pSARL_v24nsh6tjy","5ec47b2d91b37736ce88f3d6","freq","img/green_2bandit_b2.png","70","70","test","1","158","158","8","",""
"null","314142","pSARL_v2","pSARL_v24nsh6tjy","5ec47b2d91b37736ce88f3d6","freq_resp","img/green_2bandit_b.png","70","70","test","","","","8","",""
"null","314300","pSARL_v2","pSARL_v24nsh6tjy","5ec47b2d91b37736ce88f3d6","fixation","img/fixation.png","null","","test","","","","","",""
"282.30000000074506","314584","pSARL_v2","pSARL_v24nsh6tjy","5ec47b2d91b37736ce88f3d6","freq","img/green_2bandit_b2.png","70","70","test","1","159","159","8","",""
"null","315116","pSARL_v2","pSARL_v24nsh6tjy","5ec47b2d91b37736ce88f3d6","freq_resp","img/green_2bandit_b.png","70","70","test","","","","8","",""
"null","315271","pSARL_v2","pSARL_v24nsh6tjy","5ec47b2d91b37736ce88f3d6","fixation","img/fixation.png","null","","test","","","","","",""
"433.30000000074506","315707","pSARL_v2","pSARL_v24nsh6tjy","5ec47b2d91b37736ce88f3d6","infreq","img/orange_2bandit_b2.png","68","68","test","1","160","160","8","",""
"null","316091","pSARL_v2","pSARL_v24nsh6tjy","5ec47b2d91b37736ce88f3d6","infreq_resp","img/orange_2bandit_b.png","68","68","test","","","","8","",""
"null","316250","pSARL_v2","pSARL_v24nsh6tjy","5ec47b2d91b37736ce88f3d6","fixation","img/fixation.png","null","","test","","","","","",""
"319.7999999988824","316572","pSARL_v2","pSARL_v24nsh6tjy","5ec47b2d91b37736ce88f3d6","freq","img/green_2bandit_b2.png","70","70","test","1","161","161","8","",""
"null","317065","pSARL_v2","pSARL_v24nsh6tjy","5ec47b2d91b37736ce88f3d6","freq_resp","img/green_2bandit_b.png","70","70","test","","","","8","",""
"null","317221","pSARL_v2","pSARL_v24nsh6tjy","5ec47b2d91b37736ce88f3d6","fixation","img/fixation.png","null","","test","","","","","",""
"269.69999999925494","317493","pSARL_v2","pSARL_v24nsh6tjy","5ec47b2d91b37736ce88f3d6","freq","img/green_2bandit_b2.png","70","70","test","1","162","162","8","",""
"null","318041","pSARL_v2","pSARL_v24nsh6tjy","5ec47b2d91b37736ce88f3d6","freq_resp","img/green_2bandit_b.png","70","70","test","","","","8","",""
"null","318197","pSARL_v2","pSARL_v24nsh6tjy","5ec47b2d91b37736ce88f3d6","fixation","img/fixation.png","null","","test","","","","","",""
"262.40000000037253","318462","pSARL_v2","pSARL_v24nsh6tjy","5ec47b2d91b37736ce88f3d6","freq","img/green_2bandit_b2.png","70","70","test","1","163","163","8","",""
"null","319010","pSARL_v2","pSARL_v24nsh6tjy","5ec47b2d91b37736ce88f3d6","freq_resp","img/green_2bandit_b.png","70","70","test","","","","8","",""
"null","319166","pSARL_v2","pSARL_v24nsh6tjy","5ec47b2d91b37736ce88f3d6","fixation","img/fixation.png","null","","test","","","","","",""
"262.90000000037253","319432","pSARL_v2","pSARL_v24nsh6tjy","5ec47b2d91b37736ce88f3d6","freq","img/green_2bandit_b2.png","70","70","test","1","164","164","8","",""
"null","319977","pSARL_v2","pSARL_v24nsh6tjy","5ec47b2d91b37736ce88f3d6","freq_resp","img/green_2bandit_b.png","70","70","test","","","","8","",""
"null","320134","pSARL_v2","pSARL_v24nsh6tjy","5ec47b2d91b37736ce88f3d6","fixation","img/fixation.png","null","","test","","","","","",""
"268.5","320405","pSARL_v2","pSARL_v24nsh6tjy","5ec47b2d91b37736ce88f3d6","freq","img/green_2bandit_b2.png","70","70","test","1","165","165","8","",""
"null","320953","pSARL_v2","pSARL_v24nsh6tjy","5ec47b2d91b37736ce88f3d6","freq_resp","img/green_2bandit_b.png","70","70","test","","","","8","",""
"null","321110","pSARL_v2","pSARL_v24nsh6tjy","5ec47b2d91b37736ce88f3d6","fixation","img/fixation.png","null","","test","","","","","",""
"310.1000000014901","321423","pSARL_v2","pSARL_v24nsh6tjy","5ec47b2d91b37736ce88f3d6","freq","img/green_2bandit_b2.png","70","70","test","1","166","166","8","",""
"null","321930","pSARL_v2","pSARL_v24nsh6tjy","5ec47b2d91b37736ce88f3d6","freq_resp","img/green_2bandit_b.png","70","70","test","","","","8","",""
"null","322086","pSARL_v2","pSARL_v24nsh6tjy","5ec47b2d91b37736ce88f3d6","fixation","img/fixation.png","null","","test","","","","","",""
"287.6000000014901","322376","pSARL_v2","pSARL_v24nsh6tjy","5ec47b2d91b37736ce88f3d6","freq","img/green_2bandit_b2.png","70","70","test","1","167","167","8","",""
"null","322906","pSARL_v2","pSARL_v24nsh6tjy","5ec47b2d91b37736ce88f3d6","freq_resp","img/green_2bandit_b.png","70","70","test","","","","8","",""
"null","323063","pSARL_v2","pSARL_v24nsh6tjy","5ec47b2d91b37736ce88f3d6","fixation","img/fixation.png","null","","test","","","","","",""
"309.2000000011176","323374","pSARL_v2","pSARL_v24nsh6tjy","5ec47b2d91b37736ce88f3d6","freq","img/green_2bandit_b2.png","70","70","test","1","168","168","8","",""
"null","323873","pSARL_v2","pSARL_v24nsh6tjy","5ec47b2d91b37736ce88f3d6","freq_resp","img/green_2bandit_b.png","70","70","test","","","","8","",""
"null","324028","pSARL_v2","pSARL_v24nsh6tjy","5ec47b2d91b37736ce88f3d6","fixation","img/fixation.png","null","","test","","","","","",""
"357.1000000014901","324388","pSARL_v2","pSARL_v24nsh6tjy","5ec47b2d91b37736ce88f3d6","freq","img/green_2bandit_b2.png","70","70","test","1","169","169","8","",""
"null","324834","pSARL_v2","pSARL_v24nsh6tjy","5ec47b2d91b37736ce88f3d6","freq_resp","img/green_2bandit_b.png","70","70","test","","","","8","",""
"null","324991","pSARL_v2","pSARL_v24nsh6tjy","5ec47b2d91b37736ce88f3d6","fixation","img/fixation.png","null","","test","","","","","",""
"338","325331","pSARL_v2","pSARL_v24nsh6tjy","5ec47b2d91b37736ce88f3d6","freq","img/green_2bandit_b2.png","70","70","test","1","170","170","8","",""
"null","325808","pSARL_v2","pSARL_v24nsh6tjy","5ec47b2d91b37736ce88f3d6","freq_resp","img/green_2bandit_b.png","70","70","test","","","","8","",""
"null","325967","pSARL_v2","pSARL_v24nsh6tjy","5ec47b2d91b37736ce88f3d6","fixation","img/fixation.png","null","","test","","","","","",""
"435.09999999962747","326404","pSARL_v2","pSARL_v24nsh6tjy","5ec47b2d91b37736ce88f3d6","infreq","img/orange_2bandit_b2.png","68","68","test","1","171","171","8","",""
"null","326786","pSARL_v2","pSARL_v24nsh6tjy","5ec47b2d91b37736ce88f3d6","infreq_resp","img/orange_2bandit_b.png","68","68","test","","","","8","",""
"null","326944","pSARL_v2","pSARL_v24nsh6tjy","5ec47b2d91b37736ce88f3d6","fixation","img/fixation.png","null","","test","","","","","",""
"259.09999999962747","327205","pSARL_v2","pSARL_v24nsh6tjy","5ec47b2d91b37736ce88f3d6","freq","img/green_2bandit_b2.png","70","70","test","1","172","172","8","",""
"null","327749","pSARL_v2","pSARL_v24nsh6tjy","5ec47b2d91b37736ce88f3d6","freq_resp","img/green_2bandit_b.png","70","70","test","","","","8","",""
"null","327905","pSARL_v2","pSARL_v24nsh6tjy","5ec47b2d91b37736ce88f3d6","fixation","img/fixation.png","null","","test","","","","","",""
"269.09999999962747","328177","pSARL_v2","pSARL_v24nsh6tjy","5ec47b2d91b37736ce88f3d6","freq","img/green_2bandit_b2.png","70","70","test","1","173","173","8","",""
"null","328719","pSARL_v2","pSARL_v24nsh6tjy","5ec47b2d91b37736ce88f3d6","freq_resp","img/green_2bandit_b.png","70","70","test","","","","8","",""
"null","328873","pSARL_v2","pSARL_v24nsh6tjy","5ec47b2d91b37736ce88f3d6","fixation","img/fixation.png","null","","test","","","","","",""
"284.59999999962747","329160","pSARL_v2","pSARL_v24nsh6tjy","5ec47b2d91b37736ce88f3d6","freq","img/green_2bandit_b2.png","70","70","test","1","174","174","8","",""
"null","329689","pSARL_v2","pSARL_v24nsh6tjy","5ec47b2d91b37736ce88f3d6","freq_resp","img/green_2bandit_b.png","70","70","test","","","","8","",""
"null","329849","pSARL_v2","pSARL_v24nsh6tjy","5ec47b2d91b37736ce88f3d6","fixation","img/fixation.png","null","","test","","","","","",""
"309.19999999925494","330161","pSARL_v2","pSARL_v24nsh6tjy","5ec47b2d91b37736ce88f3d6","freq","img/green_2bandit_b2.png","70","70","test","1","175","175","8","",""
"null","330655","pSARL_v2","pSARL_v24nsh6tjy","5ec47b2d91b37736ce88f3d6","freq_resp","img/green_2bandit_b.png","70","70","test","","","","8","",""
"null","330811","pSARL_v2","pSARL_v24nsh6tjy","5ec47b2d91b37736ce88f3d6","fixation","img/fixation.png","null","","test","","","","","",""
"286.90000000037253","331101","pSARL_v2","pSARL_v24nsh6tjy","5ec47b2d91b37736ce88f3d6","freq","img/green_2bandit_b2.png","70","70","test","1","176","176","8","",""
"null","331632","pSARL_v2","pSARL_v24nsh6tjy","5ec47b2d91b37736ce88f3d6","freq_resp","img/green_2bandit_b.png","70","70","test","","","","8","",""
"null","331789","pSARL_v2","pSARL_v24nsh6tjy","5ec47b2d91b37736ce88f3d6","fixation","img/fixation.png","null","","test","","","","","",""
"793","332584","pSARL_v2","pSARL_v24nsh6tjy","5ec47b2d91b37736ce88f3d6","reward","img/slot.png","74","","test","","","","","",""
"null","333353","pSARL_v2","pSARL_v24nsh6tjy","5ec47b2d91b37736ce88f3d6","points","<div class=""verylowPoints""> -4 </div>","null","na","test","","","","8","-4","7"
"703.9000000003725","334059","pSARL_v2","pSARL_v24nsh6tjy","5ec47b2d91b37736ce88f3d6","freq","img/green_2bandit_b2.png","70","70","test","1","177","177","9","",""
"null","334167","pSARL_v2","pSARL_v24nsh6tjy","5ec47b2d91b37736ce88f3d6","freq_resp","img/green_2bandit_b.png","70","70","test","","","","9","",""
"null","334325","pSARL_v2","pSARL_v24nsh6tjy","5ec47b2d91b37736ce88f3d6","fixation","img/fixation.png","null","","test","","","","","",""
"550.4000000003725","334878","pSARL_v2","pSARL_v24nsh6tjy","5ec47b2d91b37736ce88f3d6","infreq","img/orange_2bandit_b2.png","68","68","test","1","178","178","9","",""
"null","335129","pSARL_v2","pSARL_v24nsh6tjy","5ec47b2d91b37736ce88f3d6","infreq_resp","img/orange_2bandit_b.png","68","68","test","","","","9","",""
"null","335288","pSARL_v2","pSARL_v24nsh6tjy","5ec47b2d91b37736ce88f3d6","fixation","img/fixation.png","null","","test","","","","","",""
"401.90000000037253","335692","pSARL_v2","pSARL_v24nsh6tjy","5ec47b2d91b37736ce88f3d6","freq","img/green_2bandit_b2.png","70","70","test","1","179","179","9","",""
"null","336106","pSARL_v2","pSARL_v24nsh6tjy","5ec47b2d91b37736ce88f3d6","freq_resp","img/green_2bandit_b.png","70","70","test","","","","9","",""
"null","336263","pSARL_v2","pSARL_v24nsh6tjy","5ec47b2d91b37736ce88f3d6","fixation","img/fixation.png","null","","test","","","","","",""
"312","336578","pSARL_v2","pSARL_v24nsh6tjy","5ec47b2d91b37736ce88f3d6","freq","img/green_2bandit_b2.png","70","70","test","1","180","180","9","",""
"null","337084","pSARL_v2","pSARL_v24nsh6tjy","5ec47b2d91b37736ce88f3d6","freq_resp","img/green_2bandit_b.png","70","70","test","","","","9","",""
"null","337242","pSARL_v2","pSARL_v24nsh6tjy","5ec47b2d91b37736ce88f3d6","fixation","img/fixation.png","null","","test","","","","","",""
"284.59999999962747","337529","pSARL_v2","pSARL_v24nsh6tjy","5ec47b2d91b37736ce88f3d6","freq","img/green_2bandit_b2.png","70","70","test","1","181","181","9","",""
"null","338058","pSARL_v2","pSARL_v24nsh6tjy","5ec47b2d91b37736ce88f3d6","freq_resp","img/green_2bandit_b.png","70","70","test","","","","9","",""
"null","338215","pSARL_v2","pSARL_v24nsh6tjy","5ec47b2d91b37736ce88f3d6","fixation","img/fixation.png","null","","test","","","","","",""
"218.09999999962747","338435","pSARL_v2","pSARL_v24nsh6tjy","5ec47b2d91b37736ce88f3d6","freq","img/green_2bandit_b2.png","70","70","test","1","182","182","9","",""
"null","339024","pSARL_v2","pSARL_v24nsh6tjy","5ec47b2d91b37736ce88f3d6","freq_resp","img/green_2bandit_b.png","70","70","test","","","","9","",""
"null","339180","pSARL_v2","pSARL_v24nsh6tjy","5ec47b2d91b37736ce88f3d6","fixation","img/fixation.png","null","","test","","","","","",""
"236","339418","pSARL_v2","pSARL_v24nsh6tjy","5ec47b2d91b37736ce88f3d6","infreq","img/orange_2bandit_b2.png","70","68","test","0","183","183","9","",""
"null","339998","pSARL_v2","pSARL_v24nsh6tjy","5ec47b2d91b37736ce88f3d6","infreq_resp","img/orange_2bandit_b.png","70","68","test","","","","9","",""
"null","340157","pSARL_v2","pSARL_v24nsh6tjy","5ec47b2d91b37736ce88f3d6","fixation","img/fixation.png","null","","test","","","","","",""
"296.90000000037253","340456","pSARL_v2","pSARL_v24nsh6tjy","5ec47b2d91b37736ce88f3d6","freq","img/green_2bandit_b2.png","70","70","test","1","184","184","9","",""
"null","340975","pSARL_v2","pSARL_v24nsh6tjy","5ec47b2d91b37736ce88f3d6","freq_resp","img/green_2bandit_b.png","70","70","test","","","","9","",""
"null","341134","pSARL_v2","pSARL_v24nsh6tjy","5ec47b2d91b37736ce88f3d6","fixation","img/fixation.png","null","","test","","","","","",""
"261.40000000037253","341398","pSARL_v2","pSARL_v24nsh6tjy","5ec47b2d91b37736ce88f3d6","freq","img/green_2bandit_b2.png","70","70","test","1","185","185","9","",""
"null","341943","pSARL_v2","pSARL_v24nsh6tjy","5ec47b2d91b37736ce88f3d6","freq_resp","img/green_2bandit_b.png","70","70","test","","","","9","",""
"null","342100","pSARL_v2","pSARL_v24nsh6tjy","5ec47b2d91b37736ce88f3d6","fixation","img/fixation.png","null","","test","","","","","",""
"305.90000000037253","342408","pSARL_v2","pSARL_v24nsh6tjy","5ec47b2d91b37736ce88f3d6","freq","img/green_2bandit_b2.png","70","70","test","1","186","186","9","",""
"null","342920","pSARL_v2","pSARL_v24nsh6tjy","5ec47b2d91b37736ce88f3d6","freq_resp","img/green_2bandit_b.png","70","70","test","","","","9","",""
"null","343078","pSARL_v2","pSARL_v24nsh6tjy","5ec47b2d91b37736ce88f3d6","fixation","img/fixation.png","null","","test","","","","","",""
"281.7000000011176","343362","pSARL_v2","pSARL_v24nsh6tjy","5ec47b2d91b37736ce88f3d6","freq","img/green_2bandit_b2.png","70","70","test","1","187","187","9","",""
"null","343885","pSARL_v2","pSARL_v24nsh6tjy","5ec47b2d91b37736ce88f3d6","freq_resp","img/green_2bandit_b.png","70","70","test","","","","9","",""
"null","344038","pSARL_v2","pSARL_v24nsh6tjy","5ec47b2d91b37736ce88f3d6","fixation","img/fixation.png","null","","test","","","","","",""
"288.5","344329","pSARL_v2","pSARL_v24nsh6tjy","5ec47b2d91b37736ce88f3d6","freq","img/green_2bandit_b2.png","70","70","test","1","188","188","9","",""
"null","344857","pSARL_v2","pSARL_v24nsh6tjy","5ec47b2d91b37736ce88f3d6","freq_resp","img/green_2bandit_b.png","70","70","test","","","","9","",""
"null","345013","pSARL_v2","pSARL_v24nsh6tjy","5ec47b2d91b37736ce88f3d6","fixation","img/fixation.png","null","","test","","","","","",""
"295.69999999925494","345311","pSARL_v2","pSARL_v24nsh6tjy","5ec47b2d91b37736ce88f3d6","freq","img/green_2bandit_b2.png","70","70","test","1","189","189","9","",""
"null","345821","pSARL_v2","pSARL_v24nsh6tjy","5ec47b2d91b37736ce88f3d6","freq_resp","img/green_2bandit_b.png","70","70","test","","","","9","",""
"null","345980","pSARL_v2","pSARL_v24nsh6tjy","5ec47b2d91b37736ce88f3d6","fixation","img/fixation.png","null","","test","","","","","",""
"259.3999999985099","346242","pSARL_v2","pSARL_v24nsh6tjy","5ec47b2d91b37736ce88f3d6","freq","img/green_2bandit_b2.png","70","70","test","1","190","190","9","",""
"null","346793","pSARL_v2","pSARL_v24nsh6tjy","5ec47b2d91b37736ce88f3d6","freq_resp","img/green_2bandit_b.png","70","70","test","","","","9","",""
"null","346950","pSARL_v2","pSARL_v24nsh6tjy","5ec47b2d91b37736ce88f3d6","fixation","img/fixation.png","null","","test","","","","","",""
"255.69999999925494","347208","pSARL_v2","pSARL_v24nsh6tjy","5ec47b2d91b37736ce88f3d6","freq","img/green_2bandit_b2.png","70","70","test","1","191","191","9","",""
"null","347756","pSARL_v2","pSARL_v24nsh6tjy","5ec47b2d91b37736ce88f3d6","freq_resp","img/green_2bandit_b.png","70","70","test","","","","9","",""
"null","347913","pSARL_v2","pSARL_v24nsh6tjy","5ec47b2d91b37736ce88f3d6","fixation","img/fixation.png","null","","test","","","","","",""
"313.7999999988824","348229","pSARL_v2","pSARL_v24nsh6tjy","5ec47b2d91b37736ce88f3d6","freq","img/green_2bandit_b2.png","70","70","test","1","192","192","9","",""
"null","348738","pSARL_v2","pSARL_v24nsh6tjy","5ec47b2d91b37736ce88f3d6","freq_resp","img/green_2bandit_b.png","70","70","test","","","","9","",""
"null","348892","pSARL_v2","pSARL_v24nsh6tjy","5ec47b2d91b37736ce88f3d6","fixation","img/fixation.png","null","","test","","","","","",""
"261.30000000074506","349156","pSARL_v2","pSARL_v24nsh6tjy","5ec47b2d91b37736ce88f3d6","freq","img/green_2bandit_b2.png","70","70","test","1","193","193","9","",""
"null","349698","pSARL_v2","pSARL_v24nsh6tjy","5ec47b2d91b37736ce88f3d6","freq_resp","img/green_2bandit_b.png","70","70","test","","","","9","",""
"null","349858","pSARL_v2","pSARL_v24nsh6tjy","5ec47b2d91b37736ce88f3d6","fixation","img/fixation.png","null","","test","","","","","",""
"375.69999999925494","350236","pSARL_v2","pSARL_v24nsh6tjy","5ec47b2d91b37736ce88f3d6","freq","img/green_2bandit_b2.png","70","70","test","1","194","194","9","",""
"null","350674","pSARL_v2","pSARL_v24nsh6tjy","5ec47b2d91b37736ce88f3d6","freq_resp","img/green_2bandit_b.png","70","70","test","","","","9","",""
"null","350832","pSARL_v2","pSARL_v24nsh6tjy","5ec47b2d91b37736ce88f3d6","fixation","img/fixation.png","null","","test","","","","","",""
"265.5","351100","pSARL_v2","pSARL_v24nsh6tjy","5ec47b2d91b37736ce88f3d6","freq","img/green_2bandit_b2.png","70","70","test","1","195","195","9","",""
"null","351641","pSARL_v2","pSARL_v24nsh6tjy","5ec47b2d91b37736ce88f3d6","freq_resp","img/green_2bandit_b.png","70","70","test","","","","9","",""
"null","351797","pSARL_v2","pSARL_v24nsh6tjy","5ec47b2d91b37736ce88f3d6","fixation","img/fixation.png","null","","test","","","","","",""
"244","352044","pSARL_v2","pSARL_v24nsh6tjy","5ec47b2d91b37736ce88f3d6","freq","img/green_2bandit_b2.png","70","70","test","1","196","196","9","",""
"null","352603","pSARL_v2","pSARL_v24nsh6tjy","5ec47b2d91b37736ce88f3d6","freq_resp","img/green_2bandit_b.png","70","70","test","","","","9","",""
"null","352760","pSARL_v2","pSARL_v24nsh6tjy","5ec47b2d91b37736ce88f3d6","fixation","img/fixation.png","null","","test","","","","","",""
"280.40000000037253","353043","pSARL_v2","pSARL_v24nsh6tjy","5ec47b2d91b37736ce88f3d6","freq","img/green_2bandit_b2.png","70","70","test","1","197","197","9","",""
"null","353572","pSARL_v2","pSARL_v24nsh6tjy","5ec47b2d91b37736ce88f3d6","freq_resp","img/green_2bandit_b.png","70","70","test","","","","9","",""
"null","353728","pSARL_v2","pSARL_v24nsh6tjy","5ec47b2d91b37736ce88f3d6","fixation","img/fixation.png","null","","test","","","","","",""
"287.90000000037253","354018","pSARL_v2","pSARL_v24nsh6tjy","5ec47b2d91b37736ce88f3d6","freq","img/green_2bandit_b2.png","70","70","test","1","198","198","9","",""
"null","354544","pSARL_v2","pSARL_v24nsh6tjy","5ec47b2d91b37736ce88f3d6","freq_resp","img/green_2bandit_b.png","70","70","test","","","","9","",""
"null","354701","pSARL_v2","pSARL_v24nsh6tjy","5ec47b2d91b37736ce88f3d6","fixation","img/fixation.png","null","","test","","","","","",""
"273","354976","pSARL_v2","pSARL_v24nsh6tjy","5ec47b2d91b37736ce88f3d6","freq","img/green_2bandit_b2.png","70","70","test","1","199","199","9","",""
"null","355508","pSARL_v2","pSARL_v24nsh6tjy","5ec47b2d91b37736ce88f3d6","freq_resp","img/green_2bandit_b.png","70","70","test","","","","9","",""
"null","355665","pSARL_v2","pSARL_v24nsh6tjy","5ec47b2d91b37736ce88f3d6","fixation","img/fixation.png","null","","test","","","","","",""
"425.5","356093","pSARL_v2","pSARL_v24nsh6tjy","5ec47b2d91b37736ce88f3d6","infreq","img/orange_2bandit_b2.png","68","68","test","1","200","200","9","",""
"null","356480","pSARL_v2","pSARL_v24nsh6tjy","5ec47b2d91b37736ce88f3d6","infreq_resp","img/orange_2bandit_b.png","68","68","test","","","","9","",""
"null","356636","pSARL_v2","pSARL_v24nsh6tjy","5ec47b2d91b37736ce88f3d6","fixation","img/fixation.png","null","","test","","","","","",""
"335.80000000074506","356974","pSARL_v2","pSARL_v24nsh6tjy","5ec47b2d91b37736ce88f3d6","freq","img/green_2bandit_b2.png","70","70","test","1","201","201","9","",""
"null","357455","pSARL_v2","pSARL_v24nsh6tjy","5ec47b2d91b37736ce88f3d6","freq_resp","img/green_2bandit_b.png","70","70","test","","","","9","",""
"null","357613","pSARL_v2","pSARL_v24nsh6tjy","5ec47b2d91b37736ce88f3d6","fixation","img/fixation.png","null","","test","","","","","",""
"293.59999999962747","357909","pSARL_v2","pSARL_v24nsh6tjy","5ec47b2d91b37736ce88f3d6","freq","img/green_2bandit_b2.png","70","70","test","1","202","202","9","",""
"null","358433","pSARL_v2","pSARL_v24nsh6tjy","5ec47b2d91b37736ce88f3d6","freq_resp","img/green_2bandit_b.png","70","70","test","","","","9","",""
"null","358587","pSARL_v2","pSARL_v24nsh6tjy","5ec47b2d91b37736ce88f3d6","fixation","img/fixation.png","null","","test","","","","","",""
"293.6000000014901","358883","pSARL_v2","pSARL_v24nsh6tjy","5ec47b2d91b37736ce88f3d6","freq","img/green_2bandit_b2.png","70","70","test","1","203","203","9","",""
"null","359400","pSARL_v2","pSARL_v24nsh6tjy","5ec47b2d91b37736ce88f3d6","freq_resp","img/green_2bandit_b.png","70","70","test","","","","9","",""
"null","359559","pSARL_v2","pSARL_v24nsh6tjy","5ec47b2d91b37736ce88f3d6","fixation","img/fixation.png","null","","test","","","","","",""
"395.7000000011176","359957","pSARL_v2","pSARL_v24nsh6tjy","5ec47b2d91b37736ce88f3d6","reward","img/slot.png","74","","test","","","","","",""
"null","360714","pSARL_v2","pSARL_v24nsh6tjy","5ec47b2d91b37736ce88f3d6","points","<div class=""verylowPoints""> -3 </div>","null","na","test","","","","9","-3","8"
"301","361017","pSARL_v2","pSARL_v24nsh6tjy","5ec47b2d91b37736ce88f3d6","freq","img/green_2bandit_b2.png","70","70","test","1","204","204","10","",""
"null","361522","pSARL_v2","pSARL_v24nsh6tjy","5ec47b2d91b37736ce88f3d6","freq_resp","img/green_2bandit_b.png","70","70","test","","","","10","",""
"null","361681","pSARL_v2","pSARL_v24nsh6tjy","5ec47b2d91b37736ce88f3d6","fixation","img/fixation.png","null","","test","","","","","",""
"285.80000000074506","361969","pSARL_v2","pSARL_v24nsh6tjy","5ec47b2d91b37736ce88f3d6","freq","img/green_2bandit_b2.png","70","70","test","1","205","205","10","",""
"null","362486","pSARL_v2","pSARL_v24nsh6tjy","5ec47b2d91b37736ce88f3d6","freq_resp","img/green_2bandit_b.png","70","70","test","","","","10","",""
"null","362644","pSARL_v2","pSARL_v24nsh6tjy","5ec47b2d91b37736ce88f3d6","fixation","img/fixation.png","null","","test","","","","","",""
"476.5","363123","pSARL_v2","pSARL_v24nsh6tjy","5ec47b2d91b37736ce88f3d6","infreq","img/orange_2bandit_b2.png","68","68","test","1","206","206","10","",""
