"rt","time_elapsed","expId","subject","prolificID","trialType","stimulus","key_press","corrresp","phase","corr","trialNum","attentionRunNum","blockNum","points","rlNum"
"2159.4000000953674","2171","pSARL_v2","pSARL_v2nn2s2kpj","6135752aa4ee5158b0708670","","","","","","","","","","",""
"","4029","pSARL_v2","pSARL_v2nn2s2kpj","6135752aa4ee5158b0708670","fullscreen","","","","","","","","","",""
"41832.5","45871","pSARL_v2","pSARL_v2nn2s2kpj","6135752aa4ee5158b0708670","","","","","","","","","","",""
"null","46696","pSARL_v2","pSARL_v2nn2s2kpj","6135752aa4ee5158b0708670","freqPrac","img/orange_2bandit_a2.png","null","70","prac","0","","","","",""
"null","47715","pSARL_v2","pSARL_v2nn2s2kpj","6135752aa4ee5158b0708670","feedback","img/tooSlow.png","null","na","prac","","","","","",""
"null","47883","pSARL_v2","pSARL_v2nn2s2kpj","6135752aa4ee5158b0708670","fixation","img/fixation.png","null","","prac","","","","","",""
"501.2000000476837","48395","pSARL_v2","pSARL_v2nn2s2kpj","6135752aa4ee5158b0708670","infreqPrac","img/green_2bandit_a2.png","68","68","prac","1","","","","",""
"501.2000000476837","48712","pSARL_v2","pSARL_v2nn2s2kpj","6135752aa4ee5158b0708670","infreqPrac_resp","img/green_2bandit_a.png","68","68","prac","","","","","",""
"null","48885","pSARL_v2","pSARL_v2nn2s2kpj","6135752aa4ee5158b0708670","fixation","img/fixation.png","null","","prac","","","","","",""
"null","49707","pSARL_v2","pSARL_v2nn2s2kpj","6135752aa4ee5158b0708670","freqPrac","img/orange_2bandit_a2.png","null","70","prac","0","","","","",""
"null","50724","pSARL_v2","pSARL_v2nn2s2kpj","6135752aa4ee5158b0708670","feedback","img/tooSlow.png","null","na","prac","","","","","",""
"null","50896","pSARL_v2","pSARL_v2nn2s2kpj","6135752aa4ee5158b0708670","fixation","img/fixation.png","null","","prac","","","","","",""
"520.4000000953674","51426","pSARL_v2","pSARL_v2nn2s2kpj","6135752aa4ee5158b0708670","infreqPrac","img/green_2bandit_a2.png","70","68","prac","0","","","","",""
"520.4000000953674","51722","pSARL_v2","pSARL_v2nn2s2kpj","6135752aa4ee5158b0708670","infreqPrac_resp","img/green_2bandit_a.png","70","68","prac","","","","","",""
"null","52736","pSARL_v2","pSARL_v2nn2s2kpj","6135752aa4ee5158b0708670","feedback","img/wrongKey.png","null","na","prac","","","","","",""
"null","52905","pSARL_v2","pSARL_v2nn2s2kpj","6135752aa4ee5158b0708670","fixation","img/fixation.png","null","","prac","","","","","",""
"624","53537","pSARL_v2","pSARL_v2nn2s2kpj","6135752aa4ee5158b0708670","infreqPrac","img/green_2bandit_a2.png","68","68","prac","1","","","","",""
"624","53726","pSARL_v2","pSARL_v2nn2s2kpj","6135752aa4ee5158b0708670","infreqPrac_resp","img/green_2bandit_a.png","68","68","prac","","","","","",""
"null","53895","pSARL_v2","pSARL_v2nn2s2kpj","6135752aa4ee5158b0708670","fixation","img/fixation.png","null","","prac","","","","","",""
"526.5","54429","pSARL_v2","pSARL_v2nn2s2kpj","6135752aa4ee5158b0708670","infreqPrac","img/green_2bandit_a2.png","68","68","prac","1","","","","",""
"526.5","54716","pSARL_v2","pSARL_v2nn2s2kpj","6135752aa4ee5158b0708670","infreqPrac_resp","img/green_2bandit_a.png","68","68","prac","","","","","",""
"null","54886","pSARL_v2","pSARL_v2nn2s2kpj","6135752aa4ee5158b0708670","fixation","img/fixation.png","null","","prac","","","","","",""
"378.60000002384186","55272","pSARL_v2","pSARL_v2nn2s2kpj","6135752aa4ee5158b0708670","freqPrac","img/orange_2bandit_a2.png","70","70","prac","1","","","","",""
"378.60000002384186","55707","pSARL_v2","pSARL_v2nn2s2kpj","6135752aa4ee5158b0708670","freqPrac_resp","img/orange_2bandit_a.png","70","70","prac","","","","","",""
"null","55878","pSARL_v2","pSARL_v2nn2s2kpj","6135752aa4ee5158b0708670","fixation","img/fixation.png","null","","prac","","","","","",""
"608.3999999761581","56497","pSARL_v2","pSARL_v2nn2s2kpj","6135752aa4ee5158b0708670","infreqPrac","img/green_2bandit_a2.png","68","68","prac","1","","","","",""
"608.3999999761581","56702","pSARL_v2","pSARL_v2nn2s2kpj","6135752aa4ee5158b0708670","infreqPrac_resp","img/green_2bandit_a.png","68","68","prac","","","","","",""
"null","56873","pSARL_v2","pSARL_v2nn2s2kpj","6135752aa4ee5158b0708670","fixation","img/fixation.png","null","","prac","","","","","",""
"518.5","57400","pSARL_v2","pSARL_v2nn2s2kpj","6135752aa4ee5158b0708670","freqPrac","img/orange_2bandit_a2.png","70","70","prac","1","","","","",""
"518.5","57692","pSARL_v2","pSARL_v2nn2s2kpj","6135752aa4ee5158b0708670","freqPrac_resp","img/orange_2bandit_a.png","70","70","prac","","","","","",""
"null","57866","pSARL_v2","pSARL_v2nn2s2kpj","6135752aa4ee5158b0708670","fixation","img/fixation.png","null","","prac","","","","","",""
"316.60000002384186","58193","pSARL_v2","pSARL_v2nn2s2kpj","6135752aa4ee5158b0708670","freqPrac","img/orange_2bandit_a2.png","70","70","prac","1","","","","",""
"316.60000002384186","58686","pSARL_v2","pSARL_v2nn2s2kpj","6135752aa4ee5158b0708670","freqPrac_resp","img/orange_2bandit_a.png","70","70","prac","","","","","",""
"null","58866","pSARL_v2","pSARL_v2nn2s2kpj","6135752aa4ee5158b0708670","fixation","img/fixation.png","null","","prac","","","","","",""
"2563.6999999284744","61437","pSARL_v2","pSARL_v2nn2s2kpj","6135752aa4ee5158b0708670","","","","","prac","","","","","",""
"44215.299999952316","105663","pSARL_v2","pSARL_v2nn2s2kpj","6135752aa4ee5158b0708670","rewardPractice","img/slot.png","74","","prac","","","","","",""
"null","106429","pSARL_v2","pSARL_v2nn2s2kpj","6135752aa4ee5158b0708670","feedback","<div class=""veryhighPoints""> +15 </div>","null","na","prac","","","","","",""
"null","106597","pSARL_v2","pSARL_v2nn2s2kpj","6135752aa4ee5158b0708670","fixation","img/fixation.png","null","","prac","","","","","",""
"19395.900000095367","126002","pSARL_v2","pSARL_v2nn2s2kpj","6135752aa4ee5158b0708670","","","","","prac","","","","","",""
"759.7999999523163","126770","pSARL_v2","pSARL_v2nn2s2kpj","6135752aa4ee5158b0708670","freq","img/orange_2bandit_a2.png","70","70","test","1","1","1","1","",""
"null","126818","pSARL_v2","pSARL_v2nn2s2kpj","6135752aa4ee5158b0708670","freq_resp","img/orange_2bandit_a.png","70","70","test","","","","1","",""
"null","126990","pSARL_v2","pSARL_v2nn2s2kpj","6135752aa4ee5158b0708670","fixation","img/fixation.png","null","","test","","","","","",""
"431.60000002384186","127433","pSARL_v2","pSARL_v2nn2s2kpj","6135752aa4ee5158b0708670","freq","img/orange_2bandit_a2.png","70","70","test","1","2","2","1","",""
"null","127812","pSARL_v2","pSARL_v2nn2s2kpj","6135752aa4ee5158b0708670","freq_resp","img/orange_2bandit_a.png","70","70","test","","","","1","",""
"null","127985","pSARL_v2","pSARL_v2nn2s2kpj","6135752aa4ee5158b0708670","fixation","img/fixation.png","null","","test","","","","","",""
"430.89999997615814","128424","pSARL_v2","pSARL_v2nn2s2kpj","6135752aa4ee5158b0708670","infreq","img/green_2bandit_a2.png","68","68","test","1","3","3","1","",""
"null","128811","pSARL_v2","pSARL_v2nn2s2kpj","6135752aa4ee5158b0708670","infreq_resp","img/green_2bandit_a.png","68","68","test","","","","1","",""
"null","128979","pSARL_v2","pSARL_v2nn2s2kpj","6135752aa4ee5158b0708670","fixation","img/fixation.png","null","","test","","","","","",""
"532.7000000476837","129522","pSARL_v2","pSARL_v2nn2s2kpj","6135752aa4ee5158b0708670","freq","img/orange_2bandit_a2.png","70","70","test","1","4","4","1","",""
"null","129801","pSARL_v2","pSARL_v2nn2s2kpj","6135752aa4ee5158b0708670","freq_resp","img/orange_2bandit_a.png","70","70","test","","","","1","",""
"null","129974","pSARL_v2","pSARL_v2nn2s2kpj","6135752aa4ee5158b0708670","fixation","img/fixation.png","null","","test","","","","","",""
"393.89999997615814","130378","pSARL_v2","pSARL_v2nn2s2kpj","6135752aa4ee5158b0708670","freq","img/orange_2bandit_a2.png","70","70","test","1","5","5","1","",""
"null","130808","pSARL_v2","pSARL_v2nn2s2kpj","6135752aa4ee5158b0708670","freq_resp","img/orange_2bandit_a.png","70","70","test","","","","1","",""
"null","130978","pSARL_v2","pSARL_v2nn2s2kpj","6135752aa4ee5158b0708670","fixation","img/fixation.png","null","","test","","","","","",""
"549.1000000238419","131536","pSARL_v2","pSARL_v2nn2s2kpj","6135752aa4ee5158b0708670","freq","img/orange_2bandit_a2.png","70","70","test","1","6","6","1","",""
"null","131812","pSARL_v2","pSARL_v2nn2s2kpj","6135752aa4ee5158b0708670","freq_resp","img/orange_2bandit_a.png","70","70","test","","","","1","",""
"null","131981","pSARL_v2","pSARL_v2nn2s2kpj","6135752aa4ee5158b0708670","fixation","img/fixation.png","null","","test","","","","","",""
"420.5","132409","pSARL_v2","pSARL_v2nn2s2kpj","6135752aa4ee5158b0708670","infreq","img/green_2bandit_a2.png","68","68","test","1","7","7","1","",""
"null","132808","pSARL_v2","pSARL_v2nn2s2kpj","6135752aa4ee5158b0708670","infreq_resp","img/green_2bandit_a.png","68","68","test","","","","1","",""
"null","132979","pSARL_v2","pSARL_v2nn2s2kpj","6135752aa4ee5158b0708670","fixation","img/fixation.png","null","","test","","","","","",""
"476.89999997615814","133463","pSARL_v2","pSARL_v2nn2s2kpj","6135752aa4ee5158b0708670","freq","img/orange_2bandit_a2.png","70","70","test","1","8","8","1","",""
"null","133799","pSARL_v2","pSARL_v2nn2s2kpj","6135752aa4ee5158b0708670","freq_resp","img/orange_2bandit_a.png","70","70","test","","","","1","",""
"null","133973","pSARL_v2","pSARL_v2nn2s2kpj","6135752aa4ee5158b0708670","fixation","img/fixation.png","null","","test","","","","","",""
"427.8000000715256","134409","pSARL_v2","pSARL_v2nn2s2kpj","6135752aa4ee5158b0708670","freq","img/orange_2bandit_a2.png","70","70","test","1","9","9","1","",""
"null","134797","pSARL_v2","pSARL_v2nn2s2kpj","6135752aa4ee5158b0708670","freq_resp","img/orange_2bandit_a.png","70","70","test","","","","1","",""
"null","134967","pSARL_v2","pSARL_v2nn2s2kpj","6135752aa4ee5158b0708670","fixation","img/fixation.png","null","","test","","","","","",""
"642.3999999761581","135620","pSARL_v2","pSARL_v2nn2s2kpj","6135752aa4ee5158b0708670","freq","img/orange_2bandit_a2.png","70","70","test","1","10","10","1","",""
"null","135789","pSARL_v2","pSARL_v2nn2s2kpj","6135752aa4ee5158b0708670","freq_resp","img/orange_2bandit_a.png","70","70","test","","","","1","",""
"null","135961","pSARL_v2","pSARL_v2nn2s2kpj","6135752aa4ee5158b0708670","fixation","img/fixation.png","null","","test","","","","","",""
"664.7999999523163","136636","pSARL_v2","pSARL_v2nn2s2kpj","6135752aa4ee5158b0708670","freq","img/orange_2bandit_a2.png","70","70","test","1","11","11","1","",""
"null","136794","pSARL_v2","pSARL_v2nn2s2kpj","6135752aa4ee5158b0708670","freq_resp","img/orange_2bandit_a.png","70","70","test","","","","1","",""
"null","136964","pSARL_v2","pSARL_v2nn2s2kpj","6135752aa4ee5158b0708670","fixation","img/fixation.png","null","","test","","","","","",""
"null","137788","pSARL_v2","pSARL_v2nn2s2kpj","6135752aa4ee5158b0708670","freq","img/orange_2bandit_a2.png","null","70","test","0","12","12","1","",""
"null","137959","pSARL_v2","pSARL_v2nn2s2kpj","6135752aa4ee5158b0708670","fixation","img/fixation.png","null","","test","","","","","",""
"448.10000002384186","138415","pSARL_v2","pSARL_v2nn2s2kpj","6135752aa4ee5158b0708670","freq","img/orange_2bandit_a2.png","70","70","test","1","13","13","1","",""
"null","138786","pSARL_v2","pSARL_v2nn2s2kpj","6135752aa4ee5158b0708670","freq_resp","img/orange_2bandit_a.png","70","70","test","","","","1","",""
"null","138954","pSARL_v2","pSARL_v2nn2s2kpj","6135752aa4ee5158b0708670","fixation","img/fixation.png","null","","test","","","","","",""
"null","139773","pSARL_v2","pSARL_v2nn2s2kpj","6135752aa4ee5158b0708670","freq","img/orange_2bandit_a2.png","null","70","test","0","14","14","1","",""
"null","139942","pSARL_v2","pSARL_v2nn2s2kpj","6135752aa4ee5158b0708670","fixation","img/fixation.png","null","","test","","","","","",""
"null","140755","pSARL_v2","pSARL_v2nn2s2kpj","6135752aa4ee5158b0708670","freq","img/orange_2bandit_a2.png","null","70","test","0","15","15","1","",""
"null","140923","pSARL_v2","pSARL_v2nn2s2kpj","6135752aa4ee5158b0708670","fixation","img/fixation.png","null","","test","","","","","",""
"null","141748","pSARL_v2","pSARL_v2nn2s2kpj","6135752aa4ee5158b0708670","freq","img/orange_2bandit_a2.png","null","70","test","0","16","16","1","",""
"null","141921","pSARL_v2","pSARL_v2nn2s2kpj","6135752aa4ee5158b0708670","fixation","img/fixation.png","null","","test","","","","","",""
"724.5999999046326","142656","pSARL_v2","pSARL_v2nn2s2kpj","6135752aa4ee5158b0708670","infreq","img/green_2bandit_a2.png","70","68","test","0","17","17","1","",""
"null","142743","pSARL_v2","pSARL_v2nn2s2kpj","6135752aa4ee5158b0708670","infreq_resp","img/green_2bandit_a.png","70","68","test","","","","1","",""
"null","142905","pSARL_v2","pSARL_v2nn2s2kpj","6135752aa4ee5158b0708670","fixation","img/fixation.png","null","","test","","","","","",""
"307.89999997615814","143223","pSARL_v2","pSARL_v2nn2s2kpj","6135752aa4ee5158b0708670","freq","img/orange_2bandit_a2.png","68","70","test","0","18","18","1","",""
"null","143732","pSARL_v2","pSARL_v2nn2s2kpj","6135752aa4ee5158b0708670","freq_resp","img/orange_2bandit_a.png","68","70","test","","","","1","",""
"null","143901","pSARL_v2","pSARL_v2nn2s2kpj","6135752aa4ee5158b0708670","fixation","img/fixation.png","null","","test","","","","","",""
"585.5","144496","pSARL_v2","pSARL_v2nn2s2kpj","6135752aa4ee5158b0708670","freq","img/orange_2bandit_a2.png","70","70","test","1","19","19","1","",""
"null","144726","pSARL_v2","pSARL_v2nn2s2kpj","6135752aa4ee5158b0708670","freq_resp","img/orange_2bandit_a.png","70","70","test","","","","1","",""
"null","144901","pSARL_v2","pSARL_v2nn2s2kpj","6135752aa4ee5158b0708670","fixation","img/fixation.png","null","","test","","","","","",""
"537.2000000476837","145447","pSARL_v2","pSARL_v2nn2s2kpj","6135752aa4ee5158b0708670","freq","img/orange_2bandit_a2.png","70","70","test","1","20","20","1","",""
"null","145727","pSARL_v2","pSARL_v2nn2s2kpj","6135752aa4ee5158b0708670","freq_resp","img/orange_2bandit_a.png","70","70","test","","","","1","",""
"null","145899","pSARL_v2","pSARL_v2nn2s2kpj","6135752aa4ee5158b0708670","fixation","img/fixation.png","null","","test","","","","","",""
"8893.100000023842","154802","pSARL_v2","pSARL_v2nn2s2kpj","6135752aa4ee5158b0708670","reward","img/slot.png","74","","test","","","","","",""
"null","155563","pSARL_v2","pSARL_v2nn2s2kpj","6135752aa4ee5158b0708670","points","<div class=""verylowPoints""> -6 </div>","null","na","test","","","","1","-6","0"
"null","156383","pSARL_v2","pSARL_v2nn2s2kpj","6135752aa4ee5158b0708670","freq","img/orange_2bandit_a2.png","null","70","test","0","21","21","2","",""
"null","156553","pSARL_v2","pSARL_v2nn2s2kpj","6135752aa4ee5158b0708670","fixation","img/fixation.png","null","","test","","","","","",""
"601.8999999761581","157162","pSARL_v2","pSARL_v2nn2s2kpj","6135752aa4ee5158b0708670","freq","img/orange_2bandit_a2.png","70","70","test","1","22","22","2","",""
"null","157378","pSARL_v2","pSARL_v2nn2s2kpj","6135752aa4ee5158b0708670","freq_resp","img/orange_2bandit_a.png","70","70","test","","","","2","",""
"null","157550","pSARL_v2","pSARL_v2nn2s2kpj","6135752aa4ee5158b0708670","fixation","img/fixation.png","null","","test","","","","","",""
"383","157941","pSARL_v2","pSARL_v2nn2s2kpj","6135752aa4ee5158b0708670","freq","img/orange_2bandit_a2.png","70","70","test","1","23","23","2","",""
"null","158376","pSARL_v2","pSARL_v2nn2s2kpj","6135752aa4ee5158b0708670","freq_resp","img/orange_2bandit_a.png","70","70","test","","","","2","",""
"null","158547","pSARL_v2","pSARL_v2nn2s2kpj","6135752aa4ee5158b0708670","fixation","img/fixation.png","null","","test","","","","","",""
"null","159357","pSARL_v2","pSARL_v2nn2s2kpj","6135752aa4ee5158b0708670","freq","img/orange_2bandit_a2.png","null","70","test","0","24","24","2","",""
"null","159529","pSARL_v2","pSARL_v2nn2s2kpj","6135752aa4ee5158b0708670","fixation","img/fixation.png","null","","test","","","","","",""
"550.4000000953674","160087","pSARL_v2","pSARL_v2nn2s2kpj","6135752aa4ee5158b0708670","freq","img/orange_2bandit_a2.png","70","70","test","1","25","25","2","",""
"null","160351","pSARL_v2","pSARL_v2nn2s2kpj","6135752aa4ee5158b0708670","freq_resp","img/orange_2bandit_a.png","70","70","test","","","","2","",""
"null","160524","pSARL_v2","pSARL_v2nn2s2kpj","6135752aa4ee5158b0708670","fixation","img/fixation.png","null","","test","","","","","",""
"405.40000009536743","160937","pSARL_v2","pSARL_v2nn2s2kpj","6135752aa4ee5158b0708670","freq","img/orange_2bandit_a2.png","70","70","test","1","26","26","2","",""
"null","161353","pSARL_v2","pSARL_v2nn2s2kpj","6135752aa4ee5158b0708670","freq_resp","img/orange_2bandit_a.png","70","70","test","","","","2","",""
"null","161523","pSARL_v2","pSARL_v2nn2s2kpj","6135752aa4ee5158b0708670","fixation","img/fixation.png","null","","test","","","","","",""
"261.1999999284744","161791","pSARL_v2","pSARL_v2nn2s2kpj","6135752aa4ee5158b0708670","freq","img/orange_2bandit_a2.png","70","70","test","1","27","27","2","",""
"null","162351","pSARL_v2","pSARL_v2nn2s2kpj","6135752aa4ee5158b0708670","freq_resp","img/orange_2bandit_a.png","70","70","test","","","","2","",""
"null","162519","pSARL_v2","pSARL_v2nn2s2kpj","6135752aa4ee5158b0708670","fixation","img/fixation.png","null","","test","","","","","",""
"49.39999997615814","162575","pSARL_v2","pSARL_v2nn2s2kpj","6135752aa4ee5158b0708670","infreq","img/green_2bandit_a2.png","70","68","test","0","28","28","2","",""
"null","163337","pSARL_v2","pSARL_v2nn2s2kpj","6135752aa4ee5158b0708670","infreq_resp","img/green_2bandit_a.png","70","68","test","","","","2","",""
"null","163506","pSARL_v2","pSARL_v2nn2s2kpj","6135752aa4ee5158b0708670","fixation","img/fixation.png","null","","test","","","","","",""
"522.6000000238419","164036","pSARL_v2","pSARL_v2nn2s2kpj","6135752aa4ee5158b0708670","infreq","img/green_2bandit_a2.png","68","68","test","1","29","29","2","",""
"null","164331","pSARL_v2","pSARL_v2nn2s2kpj","6135752aa4ee5158b0708670","infreq_resp","img/green_2bandit_a.png","68","68","test","","","","2","",""
"null","164504","pSARL_v2","pSARL_v2nn2s2kpj","6135752aa4ee5158b0708670","fixation","img/fixation.png","null","","test","","","","","",""
"609.6000000238419","165123","pSARL_v2","pSARL_v2nn2s2kpj","6135752aa4ee5158b0708670","freq","img/orange_2bandit_a2.png","70","70","test","1","30","30","2","",""
"null","165326","pSARL_v2","pSARL_v2nn2s2kpj","6135752aa4ee5158b0708670","freq_resp","img/orange_2bandit_a.png","70","70","test","","","","2","",""
"null","165496","pSARL_v2","pSARL_v2nn2s2kpj","6135752aa4ee5158b0708670","fixation","img/fixation.png","null","","test","","","","","",""
"null","166318","pSARL_v2","pSARL_v2nn2s2kpj","6135752aa4ee5158b0708670","infreq","img/green_2bandit_a2.png","null","68","test","0","31","31","2","",""
"null","166489","pSARL_v2","pSARL_v2nn2s2kpj","6135752aa4ee5158b0708670","fixation","img/fixation.png","null","","test","","","","","",""
"null","167302","pSARL_v2","pSARL_v2nn2s2kpj","6135752aa4ee5158b0708670","freq","img/orange_2bandit_a2.png","null","70","test","0","32","32","2","",""
"null","167470","pSARL_v2","pSARL_v2nn2s2kpj","6135752aa4ee5158b0708670","fixation","img/fixation.png","null","","test","","","","","",""
"null","168284","pSARL_v2","pSARL_v2nn2s2kpj","6135752aa4ee5158b0708670","freq","img/orange_2bandit_a2.png","null","70","test","0","33","33","2","",""
"null","168455","pSARL_v2","pSARL_v2nn2s2kpj","6135752aa4ee5158b0708670","fixation","img/fixation.png","null","","test","","","","","",""
"480.5","168942","pSARL_v2","pSARL_v2nn2s2kpj","6135752aa4ee5158b0708670","freq","img/orange_2bandit_a2.png","70","70","test","1","34","34","2","",""
"null","169284","pSARL_v2","pSARL_v2nn2s2kpj","6135752aa4ee5158b0708670","freq_resp","img/orange_2bandit_a.png","70","70","test","","","","2","",""
"null","169454","pSARL_v2","pSARL_v2nn2s2kpj","6135752aa4ee5158b0708670","fixation","img/fixation.png","null","","test","","","","","",""
"425.39999997615814","169886","pSARL_v2","pSARL_v2nn2s2kpj","6135752aa4ee5158b0708670","freq","img/orange_2bandit_a2.png","70","70","test","1","35","35","2","",""
"null","170280","pSARL_v2","pSARL_v2nn2s2kpj","6135752aa4ee5158b0708670","freq_resp","img/orange_2bandit_a.png","70","70","test","","","","2","",""
"null","170448","pSARL_v2","pSARL_v2nn2s2kpj","6135752aa4ee5158b0708670","fixation","img/fixation.png","null","","test","","","","","",""
"384.7999999523163","170841","pSARL_v2","pSARL_v2nn2s2kpj","6135752aa4ee5158b0708670","freq","img/orange_2bandit_a2.png","70","70","test","1","36","36","2","",""
"null","171266","pSARL_v2","pSARL_v2nn2s2kpj","6135752aa4ee5158b0708670","freq_resp","img/orange_2bandit_a.png","70","70","test","","","","2","",""
"null","171426","pSARL_v2","pSARL_v2nn2s2kpj","6135752aa4ee5158b0708670","fixation","img/fixation.png","null","","test","","","","","",""
"380.1999999284744","171814","pSARL_v2","pSARL_v2nn2s2kpj","6135752aa4ee5158b0708670","freq","img/orange_2bandit_a2.png","70","70","test","1","37","37","2","",""
"null","172257","pSARL_v2","pSARL_v2nn2s2kpj","6135752aa4ee5158b0708670","freq_resp","img/orange_2bandit_a.png","70","70","test","","","","2","",""
"null","172425","pSARL_v2","pSARL_v2nn2s2kpj","6135752aa4ee5158b0708670","fixation","img/fixation.png","null","","test","","","","","",""
"583.3999999761581","173019","pSARL_v2","pSARL_v2nn2s2kpj","6135752aa4ee5158b0708670","freq","img/orange_2bandit_a2.png","70","70","test","1","38","38","2","",""
"null","173250","pSARL_v2","pSARL_v2nn2s2kpj","6135752aa4ee5158b0708670","freq_resp","img/orange_2bandit_a.png","70","70","test","","","","2","",""
"null","173421","pSARL_v2","pSARL_v2nn2s2kpj","6135752aa4ee5158b0708670","fixation","img/fixation.png","null","","test","","","","","",""
"null","174231","pSARL_v2","pSARL_v2nn2s2kpj","6135752aa4ee5158b0708670","freq","img/orange_2bandit_a2.png","null","70","test","0","39","39","2","",""
"null","174403","pSARL_v2","pSARL_v2nn2s2kpj","6135752aa4ee5158b0708670","fixation","img/fixation.png","null","","test","","","","","",""
"null","175224","pSARL_v2","pSARL_v2nn2s2kpj","6135752aa4ee5158b0708670","freq","img/orange_2bandit_a2.png","null","70","test","0","40","40","2","",""
"null","175383","pSARL_v2","pSARL_v2nn2s2kpj","6135752aa4ee5158b0708670","fixation","img/fixation.png","null","","test","","","","","",""
"156.40000009536743","175547","pSARL_v2","pSARL_v2nn2s2kpj","6135752aa4ee5158b0708670","freq","img/orange_2bandit_a2.png","70","70","test","1","41","41","2","",""
"null","176200","pSARL_v2","pSARL_v2nn2s2kpj","6135752aa4ee5158b0708670","freq_resp","img/orange_2bandit_a.png","70","70","test","","","","2","",""
"null","176369","pSARL_v2","pSARL_v2nn2s2kpj","6135752aa4ee5158b0708670","fixation","img/fixation.png","null","","test","","","","","",""
"null","177194","pSARL_v2","pSARL_v2nn2s2kpj","6135752aa4ee5158b0708670","freq","img/orange_2bandit_a2.png","null","70","test","0","42","42","2","",""
"null","177362","pSARL_v2","pSARL_v2nn2s2kpj","6135752aa4ee5158b0708670","fixation","img/fixation.png","null","","test","","","","","",""
"2762.6999999284744","180133","pSARL_v2","pSARL_v2nn2s2kpj","6135752aa4ee5158b0708670","reward","img/slot.png","74","","test","","","","","",""
"null","180896","pSARL_v2","pSARL_v2nn2s2kpj","6135752aa4ee5158b0708670","points","<div class=""verylowPoints""> -11 </div>","null","na","test","","","","2","-11","1"
"317.09999990463257","181223","pSARL_v2","pSARL_v2nn2s2kpj","6135752aa4ee5158b0708670","freq","img/orange_2bandit_a2.png","70","70","test","1","43","43","3","",""
"null","181719","pSARL_v2","pSARL_v2nn2s2kpj","6135752aa4ee5158b0708670","freq_resp","img/orange_2bandit_a.png","70","70","test","","","","3","",""
"null","181892","pSARL_v2","pSARL_v2nn2s2kpj","6135752aa4ee5158b0708670","fixation","img/fixation.png","null","","test","","","","","",""
"264.5","182164","pSARL_v2","pSARL_v2nn2s2kpj","6135752aa4ee5158b0708670","freq","img/orange_2bandit_a2.png","70","70","test","1","44","44","3","",""
"null","182717","pSARL_v2","pSARL_v2nn2s2kpj","6135752aa4ee5158b0708670","freq_resp","img/orange_2bandit_a.png","70","70","test","","","","3","",""
"null","182888","pSARL_v2","pSARL_v2nn2s2kpj","6135752aa4ee5158b0708670","fixation","img/fixation.png","null","","test","","","","","",""
"343.1999999284744","183238","pSARL_v2","pSARL_v2nn2s2kpj","6135752aa4ee5158b0708670","freq","img/orange_2bandit_a2.png","70","70","test","1","45","45","3","",""
"null","183712","pSARL_v2","pSARL_v2nn2s2kpj","6135752aa4ee5158b0708670","freq_resp","img/orange_2bandit_a.png","70","70","test","","","","3","",""
"null","183884","pSARL_v2","pSARL_v2nn2s2kpj","6135752aa4ee5158b0708670","fixation","img/fixation.png","null","","test","","","","","",""
"653.7000000476837","184547","pSARL_v2","pSARL_v2nn2s2kpj","6135752aa4ee5158b0708670","freq","img/orange_2bandit_a2.png","70","70","test","1","46","46","3","",""
"null","184708","pSARL_v2","pSARL_v2nn2s2kpj","6135752aa4ee5158b0708670","freq_resp","img/orange_2bandit_a.png","70","70","test","","","","3","",""
"null","184880","pSARL_v2","pSARL_v2nn2s2kpj","6135752aa4ee5158b0708670","fixation","img/fixation.png","null","","test","","","","","",""
"742.1999999284744","185630","pSARL_v2","pSARL_v2nn2s2kpj","6135752aa4ee5158b0708670","freq","img/orange_2bandit_a2.png","70","70","test","1","47","47","3","",""
"null","185701","pSARL_v2","pSARL_v2nn2s2kpj","6135752aa4ee5158b0708670","freq_resp","img/orange_2bandit_a.png","70","70","test","","","","3","",""
"null","185869","pSARL_v2","pSARL_v2nn2s2kpj","6135752aa4ee5158b0708670","fixation","img/fixation.png","null","","test","","","","","",""
"638.3999999761581","186515","pSARL_v2","pSARL_v2nn2s2kpj","6135752aa4ee5158b0708670","infreq","img/green_2bandit_a2.png","68","68","test","1","48","48","3","",""
"null","186695","pSARL_v2","pSARL_v2nn2s2kpj","6135752aa4ee5158b0708670","infreq_resp","img/green_2bandit_a.png","68","68","test","","","","3","",""
"null","186864","pSARL_v2","pSARL_v2nn2s2kpj","6135752aa4ee5158b0708670","fixation","img/fixation.png","null","","test","","","","","",""
"810.7000000476837","187682","pSARL_v2","pSARL_v2nn2s2kpj","6135752aa4ee5158b0708670","freq","img/orange_2bandit_a2.png","68","70","test","0","49","49","3","",""
"null","187843","pSARL_v2","pSARL_v2nn2s2kpj","6135752aa4ee5158b0708670","fixation","img/fixation.png","null","","test","","","","","",""
"611.5","188463","pSARL_v2","pSARL_v2nn2s2kpj","6135752aa4ee5158b0708670","infreq","img/green_2bandit_a2.png","70","68","test","0","50","50","3","",""
"null","188669","pSARL_v2","pSARL_v2nn2s2kpj","6135752aa4ee5158b0708670","infreq_resp","img/green_2bandit_a.png","70","68","test","","","","3","",""
"null","188844","pSARL_v2","pSARL_v2nn2s2kpj","6135752aa4ee5158b0708670","fixation","img/fixation.png","null","","test","","","","","",""
"738.6000000238419","189591","pSARL_v2","pSARL_v2nn2s2kpj","6135752aa4ee5158b0708670","freq","img/orange_2bandit_a2.png","70","70","test","1","51","51","3","",""
"null","189662","pSARL_v2","pSARL_v2nn2s2kpj","6135752aa4ee5158b0708670","freq_resp","img/orange_2bandit_a.png","70","70","test","","","","3","",""
"null","189835","pSARL_v2","pSARL_v2nn2s2kpj","6135752aa4ee5158b0708670","fixation","img/fixation.png","null","","test","","","","","",""
"550.9000000953674","190393","pSARL_v2","pSARL_v2nn2s2kpj","6135752aa4ee5158b0708670","freq","img/orange_2bandit_a2.png","70","70","test","1","52","52","3","",""
"null","190663","pSARL_v2","pSARL_v2nn2s2kpj","6135752aa4ee5158b0708670","freq_resp","img/orange_2bandit_a.png","70","70","test","","","","3","",""
"null","190838","pSARL_v2","pSARL_v2nn2s2kpj","6135752aa4ee5158b0708670","fixation","img/fixation.png","null","","test","","","","","",""
"463","191308","pSARL_v2","pSARL_v2nn2s2kpj","6135752aa4ee5158b0708670","freq","img/orange_2bandit_a2.png","70","70","test","1","53","53","3","",""
"null","191666","pSARL_v2","pSARL_v2nn2s2kpj","6135752aa4ee5158b0708670","freq_resp","img/orange_2bandit_a.png","70","70","test","","","","3","",""
"null","191836","pSARL_v2","pSARL_v2nn2s2kpj","6135752aa4ee5158b0708670","fixation","img/fixation.png","null","","test","","","","","",""
"480.60000002384186","192325","pSARL_v2","pSARL_v2nn2s2kpj","6135752aa4ee5158b0708670","freq","img/orange_2bandit_a2.png","70","70","test","1","54","54","3","",""
"null","192661","pSARL_v2","pSARL_v2nn2s2kpj","6135752aa4ee5158b0708670","freq_resp","img/orange_2bandit_a.png","70","70","test","","","","3","",""
"null","192830","pSARL_v2","pSARL_v2nn2s2kpj","6135752aa4ee5158b0708670","fixation","img/fixation.png","null","","test","","","","","",""
"573.2999999523163","193410","pSARL_v2","pSARL_v2nn2s2kpj","6135752aa4ee5158b0708670","freq","img/orange_2bandit_a2.png","70","70","test","1","55","55","3","",""
"null","193660","pSARL_v2","pSARL_v2nn2s2kpj","6135752aa4ee5158b0708670","freq_resp","img/orange_2bandit_a.png","70","70","test","","","","3","",""
"null","193831","pSARL_v2","pSARL_v2nn2s2kpj","6135752aa4ee5158b0708670","fixation","img/fixation.png","null","","test","","","","","",""
"676.7000000476837","194514","pSARL_v2","pSARL_v2nn2s2kpj","6135752aa4ee5158b0708670","freq","img/orange_2bandit_a2.png","70","70","test","1","56","56","3","",""
"null","194648","pSARL_v2","pSARL_v2nn2s2kpj","6135752aa4ee5158b0708670","freq_resp","img/orange_2bandit_a.png","70","70","test","","","","3","",""
"null","194818","pSARL_v2","pSARL_v2nn2s2kpj","6135752aa4ee5158b0708670","fixation","img/fixation.png","null","","test","","","","","",""
"605.6000000238419","195433","pSARL_v2","pSARL_v2nn2s2kpj","6135752aa4ee5158b0708670","freq","img/orange_2bandit_a2.png","68","70","test","0","57","57","3","",""
"null","195647","pSARL_v2","pSARL_v2nn2s2kpj","6135752aa4ee5158b0708670","freq_resp","img/orange_2bandit_a.png","68","70","test","","","","3","",""
"null","195817","pSARL_v2","pSARL_v2nn2s2kpj","6135752aa4ee5158b0708670","fixation","img/fixation.png","null","","test","","","","","",""
"null","196627","pSARL_v2","pSARL_v2nn2s2kpj","6135752aa4ee5158b0708670","freq","img/orange_2bandit_a2.png","null","70","test","0","58","58","3","",""
"null","196799","pSARL_v2","pSARL_v2nn2s2kpj","6135752aa4ee5158b0708670","fixation","img/fixation.png","null","","test","","","","","",""
"null","197619","pSARL_v2","pSARL_v2nn2s2kpj","6135752aa4ee5158b0708670","freq","img/orange_2bandit_a2.png","null","70","test","0","59","59","3","",""
"null","197788","pSARL_v2","pSARL_v2nn2s2kpj","6135752aa4ee5158b0708670","fixation","img/fixation.png","null","","test","","","","","",""
"null","198608","pSARL_v2","pSARL_v2nn2s2kpj","6135752aa4ee5158b0708670","freq","img/orange_2bandit_a2.png","null","70","test","0","60","60","3","",""
"null","198777","pSARL_v2","pSARL_v2nn2s2kpj","6135752aa4ee5158b0708670","fixation","img/fixation.png","null","","test","","","","","",""
"6.799999952316284","198793","pSARL_v2","pSARL_v2nn2s2kpj","6135752aa4ee5158b0708670","freq","img/orange_2bandit_a2.png","70","70","test","1","61","61","3","",""
"null","199608","pSARL_v2","pSARL_v2nn2s2kpj","6135752aa4ee5158b0708670","freq_resp","img/orange_2bandit_a.png","70","70","test","","","","3","",""
"null","199775","pSARL_v2","pSARL_v2nn2s2kpj","6135752aa4ee5158b0708670","fixation","img/fixation.png","null","","test","","","","","",""
"null","200588","pSARL_v2","pSARL_v2nn2s2kpj","6135752aa4ee5158b0708670","freq","img/orange_2bandit_a2.png","null","70","test","0","62","62","3","",""
"null","200758","pSARL_v2","pSARL_v2nn2s2kpj","6135752aa4ee5158b0708670","fixation","img/fixation.png","null","","test","","","","","",""
"null","201572","pSARL_v2","pSARL_v2nn2s2kpj","6135752aa4ee5158b0708670","freq","img/orange_2bandit_a2.png","null","70","test","0","63","63","3","",""
"null","201742","pSARL_v2","pSARL_v2nn2s2kpj","6135752aa4ee5158b0708670","fixation","img/fixation.png","null","","test","","","","","",""
"199.40000009536743","201948","pSARL_v2","pSARL_v2nn2s2kpj","6135752aa4ee5158b0708670","freq","img/orange_2bandit_a2.png","70","70","test","1","64","64","3","",""
"null","202568","pSARL_v2","pSARL_v2nn2s2kpj","6135752aa4ee5158b0708670","freq_resp","img/orange_2bandit_a.png","70","70","test","","","","3","",""
"null","202741","pSARL_v2","pSARL_v2nn2s2kpj","6135752aa4ee5158b0708670","fixation","img/fixation.png","null","","test","","","","","",""
"204.5","202953","pSARL_v2","pSARL_v2nn2s2kpj","6135752aa4ee5158b0708670","freq","img/orange_2bandit_a2.png","70","70","test","1","65","65","3","",""
"null","203560","pSARL_v2","pSARL_v2nn2s2kpj","6135752aa4ee5158b0708670","freq_resp","img/orange_2bandit_a.png","70","70","test","","","","3","",""
"null","203730","pSARL_v2","pSARL_v2nn2s2kpj","6135752aa4ee5158b0708670","fixation","img/fixation.png","null","","test","","","","","",""
"593.3999999761581","204332","pSARL_v2","pSARL_v2nn2s2kpj","6135752aa4ee5158b0708670","freq","img/orange_2bandit_a2.png","70","70","test","1","66","66","3","",""
"null","204555","pSARL_v2","pSARL_v2nn2s2kpj","6135752aa4ee5158b0708670","freq_resp","img/orange_2bandit_a.png","70","70","test","","","","3","",""
"null","204723","pSARL_v2","pSARL_v2nn2s2kpj","6135752aa4ee5158b0708670","fixation","img/fixation.png","null","","test","","","","","",""
"12190","216923","pSARL_v2","pSARL_v2nn2s2kpj","6135752aa4ee5158b0708670","reward","img/slot.png","74","","test","","","","","",""
"null","217700","pSARL_v2","pSARL_v2nn2s2kpj","6135752aa4ee5158b0708670","points","<div class=""verylowPoints""> -7 </div>","null","na","test","","","","3","-7","2"
"657","218368","pSARL_v2","pSARL_v2nn2s2kpj","6135752aa4ee5158b0708670","freq","img/orange_2bandit_a2.png","70","70","test","1","67","67","4","",""
"null","218532","pSARL_v2","pSARL_v2nn2s2kpj","6135752aa4ee5158b0708670","freq_resp","img/orange_2bandit_a.png","70","70","test","","","","4","",""
"null","218701","pSARL_v2","pSARL_v2nn2s2kpj","6135752aa4ee5158b0708670","fixation","img/fixation.png","null","","test","","","","","",""
"632.4000000953674","219342","pSARL_v2","pSARL_v2nn2s2kpj","6135752aa4ee5158b0708670","freq","img/orange_2bandit_a2.png","70","70","test","1","68","68","4","",""
"null","219528","pSARL_v2","pSARL_v2nn2s2kpj","6135752aa4ee5158b0708670","freq_resp","img/orange_2bandit_a.png","70","70","test","","","","4","",""
"null","219699","pSARL_v2","pSARL_v2nn2s2kpj","6135752aa4ee5158b0708670","fixation","img/fixation.png","null","","test","","","","","",""
"434.7999999523163","220144","pSARL_v2","pSARL_v2nn2s2kpj","6135752aa4ee5158b0708670","freq","img/orange_2bandit_a2.png","70","70","test","1","69","69","4","",""
"null","220522","pSARL_v2","pSARL_v2nn2s2kpj","6135752aa4ee5158b0708670","freq_resp","img/orange_2bandit_a.png","70","70","test","","","","4","",""
"null","220690","pSARL_v2","pSARL_v2nn2s2kpj","6135752aa4ee5158b0708670","fixation","img/fixation.png","null","","test","","","","","",""
"511.60000002384186","221211","pSARL_v2","pSARL_v2nn2s2kpj","6135752aa4ee5158b0708670","infreq","img/green_2bandit_a2.png","68","68","test","1","70","70","4","",""
"null","221518","pSARL_v2","pSARL_v2nn2s2kpj","6135752aa4ee5158b0708670","infreq_resp","img/green_2bandit_a.png","68","68","test","","","","4","",""
"null","221687","pSARL_v2","pSARL_v2nn2s2kpj","6135752aa4ee5158b0708670","fixation","img/fixation.png","null","","test","","","","","",""
"null","222506","pSARL_v2","pSARL_v2nn2s2kpj","6135752aa4ee5158b0708670","freq","img/orange_2bandit_a2.png","null","70","test","0","71","71","4","",""
"null","222677","pSARL_v2","pSARL_v2nn2s2kpj","6135752aa4ee5158b0708670","fixation","img/fixation.png","null","","test","","","","","",""
"653.6000000238419","223339","pSARL_v2","pSARL_v2nn2s2kpj","6135752aa4ee5158b0708670","freq","img/orange_2bandit_a2.png","70","70","test","1","72","72","4","",""
"null","223498","pSARL_v2","pSARL_v2nn2s2kpj","6135752aa4ee5158b0708670","freq_resp","img/orange_2bandit_a.png","70","70","test","","","","4","",""
"null","223672","pSARL_v2","pSARL_v2nn2s2kpj","6135752aa4ee5158b0708670","fixation","img/fixation.png","null","","test","","","","","",""
"469.5","224150","pSARL_v2","pSARL_v2nn2s2kpj","6135752aa4ee5158b0708670","freq","img/orange_2bandit_a2.png","70","70","test","1","73","73","4","",""
"null","224492","pSARL_v2","pSARL_v2nn2s2kpj","6135752aa4ee5158b0708670","freq_resp","img/orange_2bandit_a.png","70","70","test","","","","4","",""
"null","224665","pSARL_v2","pSARL_v2nn2s2kpj","6135752aa4ee5158b0708670","fixation","img/fixation.png","null","","test","","","","","",""
"null","225474","pSARL_v2","pSARL_v2nn2s2kpj","6135752aa4ee5158b0708670","freq","img/orange_2bandit_a2.png","null","70","test","0","74","74","4","",""
"null","225647","pSARL_v2","pSARL_v2nn2s2kpj","6135752aa4ee5158b0708670","fixation","img/fixation.png","null","","test","","","","","",""
"257.10000002384186","225914","pSARL_v2","pSARL_v2nn2s2kpj","6135752aa4ee5158b0708670","freq","img/orange_2bandit_a2.png","70","70","test","1","75","75","4","",""
"null","226474","pSARL_v2","pSARL_v2nn2s2kpj","6135752aa4ee5158b0708670","freq_resp","img/orange_2bandit_a.png","70","70","test","","","","4","",""
"null","226648","pSARL_v2","pSARL_v2nn2s2kpj","6135752aa4ee5158b0708670","fixation","img/fixation.png","null","","test","","","","","",""
"406.5","227065","pSARL_v2","pSARL_v2nn2s2kpj","6135752aa4ee5158b0708670","freq","img/orange_2bandit_a2.png","70","70","test","1","76","76","4","",""
"null","227484","pSARL_v2","pSARL_v2nn2s2kpj","6135752aa4ee5158b0708670","freq_resp","img/orange_2bandit_a.png","70","70","test","","","","4","",""
"null","227651","pSARL_v2","pSARL_v2nn2s2kpj","6135752aa4ee5158b0708670","fixation","img/fixation.png","null","","test","","","","","",""
"699","228358","pSARL_v2","pSARL_v2nn2s2kpj","6135752aa4ee5158b0708670","infreq","img/green_2bandit_a2.png","68","68","test","1","77","77","4","",""
"null","228474","pSARL_v2","pSARL_v2nn2s2kpj","6135752aa4ee5158b0708670","infreq_resp","img/green_2bandit_a.png","68","68","test","","","","4","",""
"null","228648","pSARL_v2","pSARL_v2nn2s2kpj","6135752aa4ee5158b0708670","fixation","img/fixation.png","null","","test","","","","","",""
"null","229468","pSARL_v2","pSARL_v2nn2s2kpj","6135752aa4ee5158b0708670","infreq","img/green_2bandit_a2.png","null","68","test","0","78","78","4","",""
"null","229639","pSARL_v2","pSARL_v2nn2s2kpj","6135752aa4ee5158b0708670","fixation","img/fixation.png","null","","test","","","","","",""
"420.60000002384186","230067","pSARL_v2","pSARL_v2nn2s2kpj","6135752aa4ee5158b0708670","freq","img/orange_2bandit_a2.png","68","70","test","0","79","79","4","",""
"null","230463","pSARL_v2","pSARL_v2nn2s2kpj","6135752aa4ee5158b0708670","freq_resp","img/orange_2bandit_a.png","68","70","test","","","","4","",""
"null","230636","pSARL_v2","pSARL_v2nn2s2kpj","6135752aa4ee5158b0708670","fixation","img/fixation.png","null","","test","","","","","",""
"614.6000000238419","231260","pSARL_v2","pSARL_v2nn2s2kpj","6135752aa4ee5158b0708670","freq","img/orange_2bandit_a2.png","70","70","test","1","80","80","4","",""
"null","231463","pSARL_v2","pSARL_v2nn2s2kpj","6135752aa4ee5158b0708670","freq_resp","img/orange_2bandit_a.png","70","70","test","","","","4","",""
"null","231633","pSARL_v2","pSARL_v2nn2s2kpj","6135752aa4ee5158b0708670","fixation","img/fixation.png","null","","test","","","","","",""
"471.5","232112","pSARL_v2","pSARL_v2nn2s2kpj","6135752aa4ee5158b0708670","freq","img/orange_2bandit_a2.png","70","70","test","1","81","81","4","",""
"null","232459","pSARL_v2","pSARL_v2nn2s2kpj","6135752aa4ee5158b0708670","freq_resp","img/orange_2bandit_a.png","70","70","test","","","","4","",""
"null","232630","pSARL_v2","pSARL_v2nn2s2kpj","6135752aa4ee5158b0708670","fixation","img/fixation.png","null","","test","","","","","",""
"350.7000000476837","232989","pSARL_v2","pSARL_v2nn2s2kpj","6135752aa4ee5158b0708670","freq","img/orange_2bandit_a2.png","70","70","test","1","82","82","4","",""
"null","233451","pSARL_v2","pSARL_v2nn2s2kpj","6135752aa4ee5158b0708670","freq_resp","img/orange_2bandit_a.png","70","70","test","","","","4","",""
"null","233623","pSARL_v2","pSARL_v2nn2s2kpj","6135752aa4ee5158b0708670","fixation","img/fixation.png","null","","test","","","","","",""
"624.2999999523163","234256","pSARL_v2","pSARL_v2nn2s2kpj","6135752aa4ee5158b0708670","freq","img/orange_2bandit_a2.png","70","70","test","1","83","83","4","",""
"null","234441","pSARL_v2","pSARL_v2nn2s2kpj","6135752aa4ee5158b0708670","freq_resp","img/orange_2bandit_a.png","70","70","test","","","","4","",""
"null","234615","pSARL_v2","pSARL_v2nn2s2kpj","6135752aa4ee5158b0708670","fixation","img/fixation.png","null","","test","","","","","",""
"349.10000002384186","234972","pSARL_v2","pSARL_v2nn2s2kpj","6135752aa4ee5158b0708670","freq","img/orange_2bandit_a2.png","70","70","test","1","84","84","4","",""
"null","235442","pSARL_v2","pSARL_v2nn2s2kpj","6135752aa4ee5158b0708670","freq_resp","img/orange_2bandit_a.png","70","70","test","","","","4","",""
"null","235616","pSARL_v2","pSARL_v2nn2s2kpj","6135752aa4ee5158b0708670","fixation","img/fixation.png","null","","test","","","","","",""
"342.2000000476837","235968","pSARL_v2","pSARL_v2nn2s2kpj","6135752aa4ee5158b0708670","freq","img/orange_2bandit_a2.png","70","70","test","1","85","85","4","",""
"null","236444","pSARL_v2","pSARL_v2nn2s2kpj","6135752aa4ee5158b0708670","freq_resp","img/orange_2bandit_a.png","70","70","test","","","","4","",""
"null","236613","pSARL_v2","pSARL_v2nn2s2kpj","6135752aa4ee5158b0708670","fixation","img/fixation.png","null","","test","","","","","",""
"300.10000002384186","236922","pSARL_v2","pSARL_v2nn2s2kpj","6135752aa4ee5158b0708670","freq","img/orange_2bandit_a2.png","70","70","test","1","86","86","4","",""
"null","237436","pSARL_v2","pSARL_v2nn2s2kpj","6135752aa4ee5158b0708670","freq_resp","img/orange_2bandit_a.png","70","70","test","","","","4","",""
"null","237607","pSARL_v2","pSARL_v2nn2s2kpj","6135752aa4ee5158b0708670","fixation","img/fixation.png","null","","test","","","","","",""
"1493.6000000238419","239108","pSARL_v2","pSARL_v2nn2s2kpj","6135752aa4ee5158b0708670","reward","img/slot.png","74","","test","","","","","",""
"null","239870","pSARL_v2","pSARL_v2nn2s2kpj","6135752aa4ee5158b0708670","points","<div class=""verylowPoints""> -3 </div>","null","na","test","","","","4","-3","3"
"611.9000000953674","240492","pSARL_v2","pSARL_v2nn2s2kpj","6135752aa4ee5158b0708670","freq","img/orange_2bandit_a2.png","70","70","test","1","87","87","5","",""
"null","240697","pSARL_v2","pSARL_v2nn2s2kpj","6135752aa4ee5158b0708670","freq_resp","img/orange_2bandit_a.png","70","70","test","","","","5","",""
"null","240870","pSARL_v2","pSARL_v2nn2s2kpj","6135752aa4ee5158b0708670","fixation","img/fixation.png","null","","test","","","","","",""
"428.90000009536743","241310","pSARL_v2","pSARL_v2nn2s2kpj","6135752aa4ee5158b0708670","freq","img/orange_2bandit_a2.png","70","70","test","1","88","88","5","",""
"null","241694","pSARL_v2","pSARL_v2nn2s2kpj","6135752aa4ee5158b0708670","freq_resp","img/orange_2bandit_a.png","70","70","test","","","","5","",""
"null","241865","pSARL_v2","pSARL_v2nn2s2kpj","6135752aa4ee5158b0708670","fixation","img/fixation.png","null","","test","","","","","",""
"487.89999997615814","242361","pSARL_v2","pSARL_v2nn2s2kpj","6135752aa4ee5158b0708670","infreq","img/green_2bandit_a2.png","68","68","test","1","89","89","5","",""
"null","242693","pSARL_v2","pSARL_v2nn2s2kpj","6135752aa4ee5158b0708670","infreq_resp","img/green_2bandit_a.png","68","68","test","","","","5","",""
"null","242865","pSARL_v2","pSARL_v2nn2s2kpj","6135752aa4ee5158b0708670","fixation","img/fixation.png","null","","test","","","","","",""
"null","243681","pSARL_v2","pSARL_v2nn2s2kpj","6135752aa4ee5158b0708670","freq","img/orange_2bandit_a2.png","null","70","test","0","90","90","5","",""
"null","243849","pSARL_v2","pSARL_v2nn2s2kpj","6135752aa4ee5158b0708670","fixation","img/fixation.png","null","","test","","","","","",""
"198.69999992847443","244056","pSARL_v2","pSARL_v2nn2s2kpj","6135752aa4ee5158b0708670","freq","img/orange_2bandit_a2.png","68","70","test","0","91","91","5","",""
"null","244680","pSARL_v2","pSARL_v2nn2s2kpj","6135752aa4ee5158b0708670","freq_resp","img/orange_2bandit_a.png","68","70","test","","","","5","",""
"null","244853","pSARL_v2","pSARL_v2nn2s2kpj","6135752aa4ee5158b0708670","fixation","img/fixation.png","null","","test","","","","","",""
"87","244948","pSARL_v2","pSARL_v2nn2s2kpj","6135752aa4ee5158b0708670","freq","img/orange_2bandit_a2.png","70","70","test","1","92","92","5","",""
"null","245674","pSARL_v2","pSARL_v2nn2s2kpj","6135752aa4ee5158b0708670","freq_resp","img/orange_2bandit_a.png","70","70","test","","","","5","",""
"null","245844","pSARL_v2","pSARL_v2nn2s2kpj","6135752aa4ee5158b0708670","fixation","img/fixation.png","null","","test","","","","","",""
"null","246667","pSARL_v2","pSARL_v2nn2s2kpj","6135752aa4ee5158b0708670","freq","img/orange_2bandit_a2.png","null","70","test","0","93","93","5","",""
"null","246837","pSARL_v2","pSARL_v2nn2s2kpj","6135752aa4ee5158b0708670","fixation","img/fixation.png","null","","test","","","","","",""
"710.7000000476837","247558","pSARL_v2","pSARL_v2nn2s2kpj","6135752aa4ee5158b0708670","freq","img/orange_2bandit_a2.png","70","70","test","1","94","94","5","",""
"null","247659","pSARL_v2","pSARL_v2nn2s2kpj","6135752aa4ee5158b0708670","freq_resp","img/orange_2bandit_a.png","70","70","test","","","","5","",""
"null","247820","pSARL_v2","pSARL_v2nn2s2kpj","6135752aa4ee5158b0708670","fixation","img/fixation.png","null","","test","","","","","",""
"510.1999999284744","248338","pSARL_v2","pSARL_v2nn2s2kpj","6135752aa4ee5158b0708670","freq","img/orange_2bandit_a2.png","70","70","test","1","95","95","5","",""
"null","248644","pSARL_v2","pSARL_v2nn2s2kpj","6135752aa4ee5158b0708670","freq_resp","img/orange_2bandit_a.png","70","70","test","","","","5","",""
"null","248812","pSARL_v2","pSARL_v2nn2s2kpj","6135752aa4ee5158b0708670","fixation","img/fixation.png","null","","test","","","","","",""
"393.2000000476837","249216","pSARL_v2","pSARL_v2nn2s2kpj","6135752aa4ee5158b0708670","freq","img/orange_2bandit_a2.png","70","70","test","1","96","96","5","",""
"null","249638","pSARL_v2","pSARL_v2nn2s2kpj","6135752aa4ee5158b0708670","freq_resp","img/orange_2bandit_a.png","70","70","test","","","","5","",""
"null","249809","pSARL_v2","pSARL_v2nn2s2kpj","6135752aa4ee5158b0708670","fixation","img/fixation.png","null","","test","","","","","",""
"307.90000009536743","250128","pSARL_v2","pSARL_v2nn2s2kpj","6135752aa4ee5158b0708670","freq","img/orange_2bandit_a2.png","70","70","test","1","97","97","5","",""
"null","250645","pSARL_v2","pSARL_v2nn2s2kpj","6135752aa4ee5158b0708670","freq_resp","img/orange_2bandit_a.png","70","70","test","","","","5","",""
"null","250813","pSARL_v2","pSARL_v2nn2s2kpj","6135752aa4ee5158b0708670","fixation","img/fixation.png","null","","test","","","","","",""
"245.80000007152557","251067","pSARL_v2","pSARL_v2nn2s2kpj","6135752aa4ee5158b0708670","freq","img/orange_2bandit_a2.png","70","70","test","1","98","98","5","",""
"null","251642","pSARL_v2","pSARL_v2nn2s2kpj","6135752aa4ee5158b0708670","freq_resp","img/orange_2bandit_a.png","70","70","test","","","","5","",""
"null","251811","pSARL_v2","pSARL_v2nn2s2kpj","6135752aa4ee5158b0708670","fixation","img/fixation.png","null","","test","","","","","",""
"282.8000000715256","252102","pSARL_v2","pSARL_v2nn2s2kpj","6135752aa4ee5158b0708670","freq","img/orange_2bandit_a2.png","70","70","test","1","99","99","5","",""
"null","252633","pSARL_v2","pSARL_v2nn2s2kpj","6135752aa4ee5158b0708670","freq_resp","img/orange_2bandit_a.png","70","70","test","","","","5","",""
"null","252805","pSARL_v2","pSARL_v2nn2s2kpj","6135752aa4ee5158b0708670","fixation","img/fixation.png","null","","test","","","","","",""
"327.1999999284744","253143","pSARL_v2","pSARL_v2nn2s2kpj","6135752aa4ee5158b0708670","freq","img/orange_2bandit_a2.png","70","70","test","1","100","100","5","",""
"null","253628","pSARL_v2","pSARL_v2nn2s2kpj","6135752aa4ee5158b0708670","freq_resp","img/orange_2bandit_a.png","70","70","test","","","","5","",""
"null","253797","pSARL_v2","pSARL_v2nn2s2kpj","6135752aa4ee5158b0708670","fixation","img/fixation.png","null","","test","","","","","",""
"361.40000009536743","254166","pSARL_v2","pSARL_v2nn2s2kpj","6135752aa4ee5158b0708670","freq","img/orange_2bandit_a2.png","70","70","test","1","101","101","5","",""
"null","254622","pSARL_v2","pSARL_v2nn2s2kpj","6135752aa4ee5158b0708670","freq_resp","img/orange_2bandit_a.png","70","70","test","","","","5","",""
"null","254793","pSARL_v2","pSARL_v2nn2s2kpj","6135752aa4ee5158b0708670","fixation","img/fixation.png","null","","test","","","","","",""
"603.9000000953674","255404","pSARL_v2","pSARL_v2nn2s2kpj","6135752aa4ee5158b0708670","freq","img/orange_2bandit_a2.png","70","70","test","1","102","102","5","",""
"null","255616","pSARL_v2","pSARL_v2nn2s2kpj","6135752aa4ee5158b0708670","freq_resp","img/orange_2bandit_a.png","70","70","test","","","","5","",""
"null","255788","pSARL_v2","pSARL_v2nn2s2kpj","6135752aa4ee5158b0708670","fixation","img/fixation.png","null","","test","","","","","",""
"369.6999999284744","256165","pSARL_v2","pSARL_v2nn2s2kpj","6135752aa4ee5158b0708670","freq","img/orange_2bandit_a2.png","70","70","test","1","103","103","5","",""
"null","256611","pSARL_v2","pSARL_v2nn2s2kpj","6135752aa4ee5158b0708670","freq_resp","img/orange_2bandit_a.png","70","70","test","","","","5","",""
"null","256782","pSARL_v2","pSARL_v2nn2s2kpj","6135752aa4ee5158b0708670","fixation","img/fixation.png","null","","test","","","","","",""
"475.8000000715256","257268","pSARL_v2","pSARL_v2nn2s2kpj","6135752aa4ee5158b0708670","infreq","img/green_2bandit_a2.png","68","68","test","1","104","104","5","",""
"null","257607","pSARL_v2","pSARL_v2nn2s2kpj","6135752aa4ee5158b0708670","infreq_resp","img/green_2bandit_a.png","68","68","test","","","","5","",""
"null","257781","pSARL_v2","pSARL_v2nn2s2kpj","6135752aa4ee5158b0708670","fixation","img/fixation.png","null","","test","","","","","",""
"672.1999999284744","258463","pSARL_v2","pSARL_v2nn2s2kpj","6135752aa4ee5158b0708670","freq","img/orange_2bandit_a2.png","70","70","test","1","105","105","5","",""
"null","258599","pSARL_v2","pSARL_v2nn2s2kpj","6135752aa4ee5158b0708670","freq_resp","img/orange_2bandit_a.png","70","70","test","","","","5","",""
"null","258772","pSARL_v2","pSARL_v2nn2s2kpj","6135752aa4ee5158b0708670","fixation","img/fixation.png","null","","test","","","","","",""
"null","259595","pSARL_v2","pSARL_v2nn2s2kpj","6135752aa4ee5158b0708670","freq","img/orange_2bandit_a2.png","null","70","test","0","106","106","5","",""
"null","259764","pSARL_v2","pSARL_v2nn2s2kpj","6135752aa4ee5158b0708670","fixation","img/fixation.png","null","","test","","","","","",""
"559","260331","pSARL_v2","pSARL_v2nn2s2kpj","6135752aa4ee5158b0708670","freq","img/orange_2bandit_a2.png","70","70","test","1","107","107","5","",""
"null","260591","pSARL_v2","pSARL_v2nn2s2kpj","6135752aa4ee5158b0708670","freq_resp","img/orange_2bandit_a.png","70","70","test","","","","5","",""
"null","260763","pSARL_v2","pSARL_v2nn2s2kpj","6135752aa4ee5158b0708670","fixation","img/fixation.png","null","","test","","","","","",""
"378.1999999284744","261150","pSARL_v2","pSARL_v2nn2s2kpj","6135752aa4ee5158b0708670","freq","img/orange_2bandit_a2.png","70","70","test","1","108","108","5","",""
"null","261590","pSARL_v2","pSARL_v2nn2s2kpj","6135752aa4ee5158b0708670","freq_resp","img/orange_2bandit_a.png","70","70","test","","","","5","",""
"null","261756","pSARL_v2","pSARL_v2nn2s2kpj","6135752aa4ee5158b0708670","fixation","img/fixation.png","null","","test","","","","","",""
"1948.6999999284744","263713","pSARL_v2","pSARL_v2nn2s2kpj","6135752aa4ee5158b0708670","reward","img/slot.png","74","","test","","","","","",""
"null","264478","pSARL_v2","pSARL_v2nn2s2kpj","6135752aa4ee5158b0708670","points","<div class=""veryhighPoints""> +1 </div>","null","na","test","","","","5","1","4"
"560.1000000238419","265045","pSARL_v2","pSARL_v2nn2s2kpj","6135752aa4ee5158b0708670","freq","img/orange_2bandit_a2.png","70","70","test","1","109","109","6","",""
"null","265294","pSARL_v2","pSARL_v2nn2s2kpj","6135752aa4ee5158b0708670","freq_resp","img/orange_2bandit_a.png","70","70","test","","","","6","",""
"null","265465","pSARL_v2","pSARL_v2nn2s2kpj","6135752aa4ee5158b0708670","fixation","img/fixation.png","null","","test","","","","","",""
"458.7000000476837","265933","pSARL_v2","pSARL_v2nn2s2kpj","6135752aa4ee5158b0708670","freq","img/orange_2bandit_a2.png","70","70","test","1","110","110","6","",""
"null","266288","pSARL_v2","pSARL_v2nn2s2kpj","6135752aa4ee5158b0708670","freq_resp","img/orange_2bandit_a.png","70","70","test","","","","6","",""
"null","266456","pSARL_v2","pSARL_v2nn2s2kpj","6135752aa4ee5158b0708670","fixation","img/fixation.png","null","","test","","","","","",""
"362.7000000476837","266828","pSARL_v2","pSARL_v2nn2s2kpj","6135752aa4ee5158b0708670","freq","img/orange_2bandit_a2.png","70","70","test","1","111","111","6","",""
"null","267278","pSARL_v2","pSARL_v2nn2s2kpj","6135752aa4ee5158b0708670","freq_resp","img/orange_2bandit_a.png","70","70","test","","","","6","",""
"null","267449","pSARL_v2","pSARL_v2nn2s2kpj","6135752aa4ee5158b0708670","fixation","img/fixation.png","null","","test","","","","","",""
"453.39999997615814","267911","pSARL_v2","pSARL_v2nn2s2kpj","6135752aa4ee5158b0708670","infreq","img/green_2bandit_a2.png","68","68","test","1","112","112","6","",""
"null","268277","pSARL_v2","pSARL_v2nn2s2kpj","6135752aa4ee5158b0708670","infreq_resp","img/green_2bandit_a.png","68","68","test","","","","6","",""
"null","268446","pSARL_v2","pSARL_v2nn2s2kpj","6135752aa4ee5158b0708670","fixation","img/fixation.png","null","","test","","","","","",""
"502.2999999523163","268958","pSARL_v2","pSARL_v2nn2s2kpj","6135752aa4ee5158b0708670","freq","img/orange_2bandit_a2.png","70","70","test","1","113","113","6","",""
"null","269268","pSARL_v2","pSARL_v2nn2s2kpj","6135752aa4ee5158b0708670","freq_resp","img/orange_2bandit_a.png","70","70","test","","","","6","",""
"null","269441","pSARL_v2","pSARL_v2nn2s2kpj","6135752aa4ee5158b0708670","fixation","img/fixation.png","null","","test","","","","","",""
"361.89999997615814","269813","pSARL_v2","pSARL_v2nn2s2kpj","6135752aa4ee5158b0708670","freq","img/orange_2bandit_a2.png","70","70","test","1","114","114","6","",""
"null","270273","pSARL_v2","pSARL_v2nn2s2kpj","6135752aa4ee5158b0708670","freq_resp","img/orange_2bandit_a.png","70","70","test","","","","6","",""
"null","270444","pSARL_v2","pSARL_v2nn2s2kpj","6135752aa4ee5158b0708670","fixation","img/fixation.png","null","","test","","","","","",""
"330.10000002384186","270784","pSARL_v2","pSARL_v2nn2s2kpj","6135752aa4ee5158b0708670","freq","img/orange_2bandit_a2.png","70","70","test","1","115","115","6","",""
"null","271274","pSARL_v2","pSARL_v2nn2s2kpj","6135752aa4ee5158b0708670","freq_resp","img/orange_2bandit_a.png","70","70","test","","","","6","",""
"null","271444","pSARL_v2","pSARL_v2nn2s2kpj","6135752aa4ee5158b0708670","fixation","img/fixation.png","null","","test","","","","","",""
"418.1999999284744","271873","pSARL_v2","pSARL_v2nn2s2kpj","6135752aa4ee5158b0708670","freq","img/orange_2bandit_a2.png","70","70","test","1","116","116","6","",""
"null","272265","pSARL_v2","pSARL_v2nn2s2kpj","6135752aa4ee5158b0708670","freq_resp","img/orange_2bandit_a.png","70","70","test","","","","6","",""
"null","272436","pSARL_v2","pSARL_v2nn2s2kpj","6135752aa4ee5158b0708670","fixation","img/fixation.png","null","","test","","","","","",""
"465.7000000476837","272914","pSARL_v2","pSARL_v2nn2s2kpj","6135752aa4ee5158b0708670","freq","img/orange_2bandit_a2.png","70","70","test","1","117","117","6","",""
"null","273269","pSARL_v2","pSARL_v2nn2s2kpj","6135752aa4ee5158b0708670","freq_resp","img/orange_2bandit_a.png","70","70","test","","","","6","",""
"null","273439","pSARL_v2","pSARL_v2nn2s2kpj","6135752aa4ee5158b0708670","fixation","img/fixation.png","null","","test","","","","","",""
"295.60000002384186","273745","pSARL_v2","pSARL_v2nn2s2kpj","6135752aa4ee5158b0708670","freq","img/orange_2bandit_a2.png","70","70","test","1","118","118","6","",""
"null","274262","pSARL_v2","pSARL_v2nn2s2kpj","6135752aa4ee5158b0708670","freq_resp","img/orange_2bandit_a.png","70","70","test","","","","6","",""
"null","274431","pSARL_v2","pSARL_v2nn2s2kpj","6135752aa4ee5158b0708670","fixation","img/fixation.png","null","","test","","","","","",""
"447.89999997615814","274887","pSARL_v2","pSARL_v2nn2s2kpj","6135752aa4ee5158b0708670","freq","img/orange_2bandit_a2.png","70","70","test","1","119","119","6","",""
"null","275256","pSARL_v2","pSARL_v2nn2s2kpj","6135752aa4ee5158b0708670","freq_resp","img/orange_2bandit_a.png","70","70","test","","","","6","",""
"null","275417","pSARL_v2","pSARL_v2nn2s2kpj","6135752aa4ee5158b0708670","fixation","img/fixation.png","null","","test","","","","","",""
"539.1000000238419","275967","pSARL_v2","pSARL_v2nn2s2kpj","6135752aa4ee5158b0708670","freq","img/orange_2bandit_a2.png","70","70","test","1","120","120","6","",""
"null","276239","pSARL_v2","pSARL_v2nn2s2kpj","6135752aa4ee5158b0708670","freq_resp","img/orange_2bandit_a.png","70","70","test","","","","6","",""
"null","276408","pSARL_v2","pSARL_v2nn2s2kpj","6135752aa4ee5158b0708670","fixation","img/fixation.png","null","","test","","","","","",""
"392.5","276809","pSARL_v2","pSARL_v2nn2s2kpj","6135752aa4ee5158b0708670","freq","img/orange_2bandit_a2.png","70","70","test","1","121","121","6","",""
"null","277236","pSARL_v2","pSARL_v2nn2s2kpj","6135752aa4ee5158b0708670","freq_resp","img/orange_2bandit_a.png","70","70","test","","","","6","",""
"null","277408","pSARL_v2","pSARL_v2nn2s2kpj","6135752aa4ee5158b0708670","fixation","img/fixation.png","null","","test","","","","","",""
"340.5","277756","pSARL_v2","pSARL_v2nn2s2kpj","6135752aa4ee5158b0708670","freq","img/orange_2bandit_a2.png","70","70","test","1","122","122","6","",""
"null","278233","pSARL_v2","pSARL_v2nn2s2kpj","6135752aa4ee5158b0708670","freq_resp","img/orange_2bandit_a.png","70","70","test","","","","6","",""
"null","278405","pSARL_v2","pSARL_v2nn2s2kpj","6135752aa4ee5158b0708670","fixation","img/fixation.png","null","","test","","","","","",""
"561.8000000715256","278975","pSARL_v2","pSARL_v2nn2s2kpj","6135752aa4ee5158b0708670","infreq","img/green_2bandit_a2.png","68","68","test","1","123","123","6","",""
"null","279228","pSARL_v2","pSARL_v2nn2s2kpj","6135752aa4ee5158b0708670","infreq_resp","img/green_2bandit_a.png","68","68","test","","","","6","",""
"null","279403","pSARL_v2","pSARL_v2nn2s2kpj","6135752aa4ee5158b0708670","fixation","img/fixation.png","null","","test","","","","","",""
"439.89999997615814","279853","pSARL_v2","pSARL_v2nn2s2kpj","6135752aa4ee5158b0708670","freq","img/orange_2bandit_a2.png","68","70","test","0","124","124","6","",""
"null","280223","pSARL_v2","pSARL_v2nn2s2kpj","6135752aa4ee5158b0708670","freq_resp","img/orange_2bandit_a.png","68","70","test","","","","6","",""
"null","280393","pSARL_v2","pSARL_v2nn2s2kpj","6135752aa4ee5158b0708670","fixation","img/fixation.png","null","","test","","","","","",""
"341.7000000476837","280744","pSARL_v2","pSARL_v2nn2s2kpj","6135752aa4ee5158b0708670","freq","img/orange_2bandit_a2.png","68","70","test","0","125","125","6","",""
"null","281220","pSARL_v2","pSARL_v2nn2s2kpj","6135752aa4ee5158b0708670","freq_resp","img/orange_2bandit_a.png","68","70","test","","","","6","",""
"null","281390","pSARL_v2","pSARL_v2nn2s2kpj","6135752aa4ee5158b0708670","fixation","img/fixation.png","null","","test","","","","","",""
"356","281753","pSARL_v2","pSARL_v2nn2s2kpj","6135752aa4ee5158b0708670","freq","img/orange_2bandit_a2.png","68","70","test","0","126","126","6","",""
"null","282216","pSARL_v2","pSARL_v2nn2s2kpj","6135752aa4ee5158b0708670","freq_resp","img/orange_2bandit_a.png","68","70","test","","","","6","",""
"null","282385","pSARL_v2","pSARL_v2nn2s2kpj","6135752aa4ee5158b0708670","fixation","img/fixation.png","null","","test","","","","","",""
"405.7000000476837","282800","pSARL_v2","pSARL_v2nn2s2kpj","6135752aa4ee5158b0708670","freq","img/orange_2bandit_a2.png","68","70","test","0","127","127","6","",""
"null","283210","pSARL_v2","pSARL_v2nn2s2kpj","6135752aa4ee5158b0708670","freq_resp","img/orange_2bandit_a.png","68","70","test","","","","6","",""
"null","283379","pSARL_v2","pSARL_v2nn2s2kpj","6135752aa4ee5158b0708670","fixation","img/fixation.png","null","","test","","","","","",""
"315.3000000715256","283705","pSARL_v2","pSARL_v2nn2s2kpj","6135752aa4ee5158b0708670","freq","img/orange_2bandit_a2.png","68","70","test","0","128","128","6","",""
"null","284207","pSARL_v2","pSARL_v2nn2s2kpj","6135752aa4ee5158b0708670","freq_resp","img/orange_2bandit_a.png","68","70","test","","","","6","",""
"null","284374","pSARL_v2","pSARL_v2nn2s2kpj","6135752aa4ee5158b0708670","fixation","img/fixation.png","null","","test","","","","","",""
"978.3999999761581","285363","pSARL_v2","pSARL_v2nn2s2kpj","6135752aa4ee5158b0708670","reward","img/slot.png","74","","test","","","","","",""
"null","286136","pSARL_v2","pSARL_v2nn2s2kpj","6135752aa4ee5158b0708670","points","<div class=""verylowPoints""> -7 </div>","null","na","test","","","","6","-7","5"
"624.8000000715256","286770","pSARL_v2","pSARL_v2nn2s2kpj","6135752aa4ee5158b0708670","freq","img/orange_2bandit_a2.png","70","70","test","1","129","129","7","",""
"null","286972","pSARL_v2","pSARL_v2nn2s2kpj","6135752aa4ee5158b0708670","freq_resp","img/orange_2bandit_a.png","70","70","test","","","","7","",""
"null","287138","pSARL_v2","pSARL_v2nn2s2kpj","6135752aa4ee5158b0708670","fixation","img/fixation.png","null","","test","","","","","",""
"696.4000000953674","287843","pSARL_v2","pSARL_v2nn2s2kpj","6135752aa4ee5158b0708670","freq","img/orange_2bandit_a2.png","70","70","test","1","130","130","7","",""
"null","287971","pSARL_v2","pSARL_v2nn2s2kpj","6135752aa4ee5158b0708670","freq_resp","img/orange_2bandit_a.png","70","70","test","","","","7","",""
"null","288136","pSARL_v2","pSARL_v2nn2s2kpj","6135752aa4ee5158b0708670","fixation","img/fixation.png","null","","test","","","","","",""
"399.5","288543","pSARL_v2","pSARL_v2nn2s2kpj","6135752aa4ee5158b0708670","freq","img/orange_2bandit_a2.png","70","70","test","1","131","131","7","",""
"null","288957","pSARL_v2","pSARL_v2nn2s2kpj","6135752aa4ee5158b0708670","freq_resp","img/orange_2bandit_a.png","70","70","test","","","","7","",""
"null","289131","pSARL_v2","pSARL_v2nn2s2kpj","6135752aa4ee5158b0708670","fixation","img/fixation.png","null","","test","","","","","",""
"275.89999997615814","289416","pSARL_v2","pSARL_v2nn2s2kpj","6135752aa4ee5158b0708670","freq","img/orange_2bandit_a2.png","70","70","test","1","132","132","7","",""
"null","289951","pSARL_v2","pSARL_v2nn2s2kpj","6135752aa4ee5158b0708670","freq_resp","img/orange_2bandit_a.png","70","70","test","","","","7","",""
"null","290126","pSARL_v2","pSARL_v2nn2s2kpj","6135752aa4ee5158b0708670","fixation","img/fixation.png","null","","test","","","","","",""
"387.7000000476837","290523","pSARL_v2","pSARL_v2nn2s2kpj","6135752aa4ee5158b0708670","freq","img/orange_2bandit_a2.png","70","70","test","1","133","133","7","",""
"null","290952","pSARL_v2","pSARL_v2nn2s2kpj","6135752aa4ee5158b0708670","freq_resp","img/orange_2bandit_a.png","70","70","test","","","","7","",""
"null","291127","pSARL_v2","pSARL_v2nn2s2kpj","6135752aa4ee5158b0708670","fixation","img/fixation.png","null","","test","","","","","",""
"556.7999999523163","291695","pSARL_v2","pSARL_v2nn2s2kpj","6135752aa4ee5158b0708670","freq","img/orange_2bandit_a2.png","70","70","test","1","134","134","7","",""
"null","291957","pSARL_v2","pSARL_v2nn2s2kpj","6135752aa4ee5158b0708670","freq_resp","img/orange_2bandit_a.png","70","70","test","","","","7","",""
"null","292131","pSARL_v2","pSARL_v2nn2s2kpj","6135752aa4ee5158b0708670","fixation","img/fixation.png","null","","test","","","","","",""
"446.89999997615814","292588","pSARL_v2","pSARL_v2nn2s2kpj","6135752aa4ee5158b0708670","freq","img/orange_2bandit_a2.png","70","70","test","1","135","135","7","",""
"null","292951","pSARL_v2","pSARL_v2nn2s2kpj","6135752aa4ee5158b0708670","freq_resp","img/orange_2bandit_a.png","70","70","test","","","","7","",""
"null","293123","pSARL_v2","pSARL_v2nn2s2kpj","6135752aa4ee5158b0708670","fixation","img/fixation.png","null","","test","","","","","",""
"381.10000002384186","293515","pSARL_v2","pSARL_v2nn2s2kpj","6135752aa4ee5158b0708670","freq","img/orange_2bandit_a2.png","70","70","test","1","136","136","7","",""
"null","293949","pSARL_v2","pSARL_v2nn2s2kpj","6135752aa4ee5158b0708670","freq_resp","img/orange_2bandit_a.png","70","70","test","","","","7","",""
"null","294119","pSARL_v2","pSARL_v2nn2s2kpj","6135752aa4ee5158b0708670","fixation","img/fixation.png","null","","test","","","","","",""
"555.2999999523163","294689","pSARL_v2","pSARL_v2nn2s2kpj","6135752aa4ee5158b0708670","freq","img/orange_2bandit_a2.png","70","70","test","1","137","137","7","",""
"null","294948","pSARL_v2","pSARL_v2nn2s2kpj","6135752aa4ee5158b0708670","freq_resp","img/orange_2bandit_a.png","70","70","test","","","","7","",""
"null","295117","pSARL_v2","pSARL_v2nn2s2kpj","6135752aa4ee5158b0708670","fixation","img/fixation.png","null","","test","","","","","",""
"null","295928","pSARL_v2","pSARL_v2nn2s2kpj","6135752aa4ee5158b0708670","freq","img/orange_2bandit_a2.png","null","70","test","0","138","138","7","",""
"null","296101","pSARL_v2","pSARL_v2nn2s2kpj","6135752aa4ee5158b0708670","fixation","img/fixation.png","null","","test","","","","","",""
"50.39999997615814","296161","pSARL_v2","pSARL_v2nn2s2kpj","6135752aa4ee5158b0708670","freq","img/orange_2bandit_a2.png","70","70","test","1","139","139","7","",""
"null","296927","pSARL_v2","pSARL_v2nn2s2kpj","6135752aa4ee5158b0708670","freq_resp","img/orange_2bandit_a.png","70","70","test","","","","7","",""
"null","297099","pSARL_v2","pSARL_v2nn2s2kpj","6135752aa4ee5158b0708670","fixation","img/fixation.png","null","","test","","","","","",""
"372.5","297483","pSARL_v2","pSARL_v2nn2s2kpj","6135752aa4ee5158b0708670","freq","img/orange_2bandit_a2.png","70","70","test","1","140","140","7","",""
"null","297928","pSARL_v2","pSARL_v2nn2s2kpj","6135752aa4ee5158b0708670","freq_resp","img/orange_2bandit_a.png","70","70","test","","","","7","",""
"null","298098","pSARL_v2","pSARL_v2nn2s2kpj","6135752aa4ee5158b0708670","fixation","img/fixation.png","null","","test","","","","","",""
"294.10000002384186","298401","pSARL_v2","pSARL_v2nn2s2kpj","6135752aa4ee5158b0708670","freq","img/orange_2bandit_a2.png","70","70","test","1","141","141","7","",""
"null","298925","pSARL_v2","pSARL_v2nn2s2kpj","6135752aa4ee5158b0708670","freq_resp","img/orange_2bandit_a.png","70","70","test","","","","7","",""
"null","299095","pSARL_v2","pSARL_v2nn2s2kpj","6135752aa4ee5158b0708670","fixation","img/fixation.png","null","","test","","","","","",""
"332.89999997615814","299437","pSARL_v2","pSARL_v2nn2s2kpj","6135752aa4ee5158b0708670","freq","img/orange_2bandit_a2.png","70","70","test","1","142","142","7","",""
"null","299923","pSARL_v2","pSARL_v2nn2s2kpj","6135752aa4ee5158b0708670","freq_resp","img/orange_2bandit_a.png","70","70","test","","","","7","",""
"null","300094","pSARL_v2","pSARL_v2nn2s2kpj","6135752aa4ee5158b0708670","fixation","img/fixation.png","null","","test","","","","","",""
"502.1999999284744","300606","pSARL_v2","pSARL_v2nn2s2kpj","6135752aa4ee5158b0708670","infreq","img/green_2bandit_a2.png","68","68","test","1","143","143","7","",""
"null","300925","pSARL_v2","pSARL_v2nn2s2kpj","6135752aa4ee5158b0708670","infreq_resp","img/green_2bandit_a.png","68","68","test","","","","7","",""
"null","301093","pSARL_v2","pSARL_v2nn2s2kpj","6135752aa4ee5158b0708670","fixation","img/fixation.png","null","","test","","","","","",""
"667.3000000715256","301769","pSARL_v2","pSARL_v2nn2s2kpj","6135752aa4ee5158b0708670","freq","img/orange_2bandit_a2.png","70","70","test","1","144","144","7","",""
"null","301922","pSARL_v2","pSARL_v2nn2s2kpj","6135752aa4ee5158b0708670","freq_resp","img/orange_2bandit_a.png","70","70","test","","","","7","",""
"null","302090","pSARL_v2","pSARL_v2nn2s2kpj","6135752aa4ee5158b0708670","fixation","img/fixation.png","null","","test","","","","","",""
"409.8000000715256","302507","pSARL_v2","pSARL_v2nn2s2kpj","6135752aa4ee5158b0708670","freq","img/orange_2bandit_a2.png","70","70","test","1","145","145","7","",""
"null","302919","pSARL_v2","pSARL_v2nn2s2kpj","6135752aa4ee5158b0708670","freq_resp","img/orange_2bandit_a.png","70","70","test","","","","7","",""
"null","303088","pSARL_v2","pSARL_v2nn2s2kpj","6135752aa4ee5158b0708670","fixation","img/fixation.png","null","","test","","","","","",""
"487.6999999284744","303583","pSARL_v2","pSARL_v2nn2s2kpj","6135752aa4ee5158b0708670","freq","img/orange_2bandit_a2.png","70","70","test","1","146","146","7","",""
"null","303915","pSARL_v2","pSARL_v2nn2s2kpj","6135752aa4ee5158b0708670","freq_resp","img/orange_2bandit_a.png","70","70","test","","","","7","",""
"null","304085","pSARL_v2","pSARL_v2nn2s2kpj","6135752aa4ee5158b0708670","fixation","img/fixation.png","null","","test","","","","","",""
"566.8999999761581","304663","pSARL_v2","pSARL_v2nn2s2kpj","6135752aa4ee5158b0708670","freq","img/orange_2bandit_a2.png","70","70","test","1","147","147","7","",""
"null","304914","pSARL_v2","pSARL_v2nn2s2kpj","6135752aa4ee5158b0708670","freq_resp","img/orange_2bandit_a.png","70","70","test","","","","7","",""
"null","305085","pSARL_v2","pSARL_v2nn2s2kpj","6135752aa4ee5158b0708670","fixation","img/fixation.png","null","","test","","","","","",""
"501.09999990463257","305597","pSARL_v2","pSARL_v2nn2s2kpj","6135752aa4ee5158b0708670","freq","img/orange_2bandit_a2.png","70","70","test","1","148","148","7","",""
"null","305907","pSARL_v2","pSARL_v2nn2s2kpj","6135752aa4ee5158b0708670","freq_resp","img/orange_2bandit_a.png","70","70","test","","","","7","",""
"null","306076","pSARL_v2","pSARL_v2nn2s2kpj","6135752aa4ee5158b0708670","fixation","img/fixation.png","null","","test","","","","","",""
"524.2999999523163","306609","pSARL_v2","pSARL_v2nn2s2kpj","6135752aa4ee5158b0708670","infreq","img/green_2bandit_a2.png","68","68","test","1","149","149","7","",""
"null","306901","pSARL_v2","pSARL_v2nn2s2kpj","6135752aa4ee5158b0708670","infreq_resp","img/green_2bandit_a.png","68","68","test","","","","7","",""
"null","307075","pSARL_v2","pSARL_v2nn2s2kpj","6135752aa4ee5158b0708670","fixation","img/fixation.png","null","","test","","","","","",""
"741.5999999046326","307827","pSARL_v2","pSARL_v2nn2s2kpj","6135752aa4ee5158b0708670","freq","img/orange_2bandit_a2.png","70","70","test","1","150","150","7","",""
"null","307896","pSARL_v2","pSARL_v2nn2s2kpj","6135752aa4ee5158b0708670","freq_resp","img/orange_2bandit_a.png","70","70","test","","","","7","",""
"null","308065","pSARL_v2","pSARL_v2nn2s2kpj","6135752aa4ee5158b0708670","fixation","img/fixation.png","null","","test","","","","","",""
"null","308884","pSARL_v2","pSARL_v2nn2s2kpj","6135752aa4ee5158b0708670","freq","img/orange_2bandit_a2.png","null","70","test","0","151","151","7","",""
"null","309053","pSARL_v2","pSARL_v2nn2s2kpj","6135752aa4ee5158b0708670","fixation","img/fixation.png","null","","test","","","","","",""
"652.1999999284744","309712","pSARL_v2","pSARL_v2nn2s2kpj","6135752aa4ee5158b0708670","freq","img/orange_2bandit_a2.png","68","70","test","0","152","152","7","",""
"null","309876","pSARL_v2","pSARL_v2nn2s2kpj","6135752aa4ee5158b0708670","freq_resp","img/orange_2bandit_a.png","68","70","test","","","","7","",""
"null","310038","pSARL_v2","pSARL_v2nn2s2kpj","6135752aa4ee5158b0708670","fixation","img/fixation.png","null","","test","","","","","",""
"611.3999999761581","310659","pSARL_v2","pSARL_v2nn2s2kpj","6135752aa4ee5158b0708670","freq","img/orange_2bandit_a2.png","70","70","test","1","153","153","7","",""
"null","310869","pSARL_v2","pSARL_v2nn2s2kpj","6135752aa4ee5158b0708670","freq_resp","img/orange_2bandit_a.png","70","70","test","","","","7","",""
"null","311041","pSARL_v2","pSARL_v2nn2s2kpj","6135752aa4ee5158b0708670","fixation","img/fixation.png","null","","test","","","","","",""
"370.89999997615814","311420","pSARL_v2","pSARL_v2nn2s2kpj","6135752aa4ee5158b0708670","freq","img/orange_2bandit_a2.png","70","70","test","1","154","154","7","",""
"null","311867","pSARL_v2","pSARL_v2nn2s2kpj","6135752aa4ee5158b0708670","freq_resp","img/orange_2bandit_a.png","70","70","test","","","","7","",""
"null","312036","pSARL_v2","pSARL_v2nn2s2kpj","6135752aa4ee5158b0708670","fixation","img/fixation.png","null","","test","","","","","",""
"999.3999999761581","313046","pSARL_v2","pSARL_v2nn2s2kpj","6135752aa4ee5158b0708670","reward","img/slot.png","74","","test","","","","","",""
"null","313813","pSARL_v2","pSARL_v2nn2s2kpj","6135752aa4ee5158b0708670","points","<div class=""verylowPoints""> -6 </div>","null","na","test","","","","7","-6","6"
"612.6000000238419","314435","pSARL_v2","pSARL_v2nn2s2kpj","6135752aa4ee5158b0708670","freq","img/orange_2bandit_a2.png","70","70","test","1","155","155","8","",""
"null","314639","pSARL_v2","pSARL_v2nn2s2kpj","6135752aa4ee5158b0708670","freq_resp","img/orange_2bandit_a.png","70","70","test","","","","8","",""
"null","314811","pSARL_v2","pSARL_v2nn2s2kpj","6135752aa4ee5158b0708670","fixation","img/fixation.png","null","","test","","","","","",""
"380","315201","pSARL_v2","pSARL_v2nn2s2kpj","6135752aa4ee5158b0708670","freq","img/orange_2bandit_a2.png","70","70","test","1","156","156","8","",""
"null","315636","pSARL_v2","pSARL_v2nn2s2kpj","6135752aa4ee5158b0708670","freq_resp","img/orange_2bandit_a.png","70","70","test","","","","8","",""
"null","315806","pSARL_v2","pSARL_v2nn2s2kpj","6135752aa4ee5158b0708670","fixation","img/fixation.png","null","","test","","","","","",""
"429.39999997615814","316245","pSARL_v2","pSARL_v2nn2s2kpj","6135752aa4ee5158b0708670","freq","img/orange_2bandit_a2.png","70","70","test","1","157","157","8","",""
"null","316630","pSARL_v2","pSARL_v2nn2s2kpj","6135752aa4ee5158b0708670","freq_resp","img/orange_2bandit_a.png","70","70","test","","","","8","",""
"null","316799","pSARL_v2","pSARL_v2nn2s2kpj","6135752aa4ee5158b0708670","fixation","img/fixation.png","null","","test","","","","","",""
"372.40000009536743","317180","pSARL_v2","pSARL_v2nn2s2kpj","6135752aa4ee5158b0708670","freq","img/orange_2bandit_a2.png","70","70","test","1","158","158","8","",""
"null","317626","pSARL_v2","pSARL_v2nn2s2kpj","6135752aa4ee5158b0708670","freq_resp","img/orange_2bandit_a.png","70","70","test","","","","8","",""
"null","317795","pSARL_v2","pSARL_v2nn2s2kpj","6135752aa4ee5158b0708670","fixation","img/fixation.png","null","","test","","","","","",""
"265.40000009536743","318069","pSARL_v2","pSARL_v2nn2s2kpj","6135752aa4ee5158b0708670","freq","img/orange_2bandit_a2.png","70","70","test","1","159","159","8","",""
"null","318622","pSARL_v2","pSARL_v2nn2s2kpj","6135752aa4ee5158b0708670","freq_resp","img/orange_2bandit_a.png","70","70","test","","","","8","",""
"null","318792","pSARL_v2","pSARL_v2nn2s2kpj","6135752aa4ee5158b0708670","fixation","img/fixation.png","null","","test","","","","","",""
"201.5","319002","pSARL_v2","pSARL_v2nn2s2kpj","6135752aa4ee5158b0708670","infreq","img/green_2bandit_a2.png","70","68","test","0","160","160","8","",""
"null","319616","pSARL_v2","pSARL_v2nn2s2kpj","6135752aa4ee5158b0708670","infreq_resp","img/green_2bandit_a.png","70","68","test","","","","8","",""
"null","319788","pSARL_v2","pSARL_v2nn2s2kpj","6135752aa4ee5158b0708670","fixation","img/fixation.png","null","","test","","","","","",""
"187.29999995231628","319985","pSARL_v2","pSARL_v2nn2s2kpj","6135752aa4ee5158b0708670","freq","img/orange_2bandit_a2.png","68","70","test","0","161","161","8","",""
"null","320614","pSARL_v2","pSARL_v2nn2s2kpj","6135752aa4ee5158b0708670","freq_resp","img/orange_2bandit_a.png","68","70","test","","","","8","",""
"null","320789","pSARL_v2","pSARL_v2nn2s2kpj","6135752aa4ee5158b0708670","fixation","img/fixation.png","null","","test","","","","","",""
"422","321221","pSARL_v2","pSARL_v2nn2s2kpj","6135752aa4ee5158b0708670","freq","img/orange_2bandit_a2.png","70","70","test","1","162","162","8","",""
"null","321618","pSARL_v2","pSARL_v2nn2s2kpj","6135752aa4ee5158b0708670","freq_resp","img/orange_2bandit_a.png","70","70","test","","","","8","",""
"null","321785","pSARL_v2","pSARL_v2nn2s2kpj","6135752aa4ee5158b0708670","fixation","img/fixation.png","null","","test","","","","","",""
"373.6999999284744","322169","pSARL_v2","pSARL_v2nn2s2kpj","6135752aa4ee5158b0708670","freq","img/orange_2bandit_a2.png","70","70","test","1","163","163","8","",""
"null","322608","pSARL_v2","pSARL_v2nn2s2kpj","6135752aa4ee5158b0708670","freq_resp","img/orange_2bandit_a.png","70","70","test","","","","8","",""
"null","322777","pSARL_v2","pSARL_v2nn2s2kpj","6135752aa4ee5158b0708670","fixation","img/fixation.png","null","","test","","","","","",""
"444.8000000715256","323231","pSARL_v2","pSARL_v2nn2s2kpj","6135752aa4ee5158b0708670","freq","img/orange_2bandit_a2.png","70","70","test","1","164","164","8","",""
"null","323601","pSARL_v2","pSARL_v2nn2s2kpj","6135752aa4ee5158b0708670","freq_resp","img/orange_2bandit_a.png","70","70","test","","","","8","",""
"null","323771","pSARL_v2","pSARL_v2nn2s2kpj","6135752aa4ee5158b0708670","fixation","img/fixation.png","null","","test","","","","","",""
"774.3000000715256","324555","pSARL_v2","pSARL_v2nn2s2kpj","6135752aa4ee5158b0708670","freq","img/orange_2bandit_a2.png","70","70","test","1","165","165","8","",""
"null","324589","pSARL_v2","pSARL_v2nn2s2kpj","6135752aa4ee5158b0708670","freq_resp","img/orange_2bandit_a.png","70","70","test","","","","8","",""
"null","324748","pSARL_v2","pSARL_v2nn2s2kpj","6135752aa4ee5158b0708670","fixation","img/fixation.png","null","","test","","","","","",""
"null","325564","pSARL_v2","pSARL_v2nn2s2kpj","6135752aa4ee5158b0708670","freq","img/orange_2bandit_a2.png","null","70","test","0","166","166","8","",""
"null","325732","pSARL_v2","pSARL_v2nn2s2kpj","6135752aa4ee5158b0708670","fixation","img/fixation.png","null","","test","","","","","",""
"780.5","326524","pSARL_v2","pSARL_v2nn2s2kpj","6135752aa4ee5158b0708670","freq","img/orange_2bandit_a2.png","70","70","test","1","167","167","8","",""
"null","326553","pSARL_v2","pSARL_v2nn2s2kpj","6135752aa4ee5158b0708670","freq_resp","img/orange_2bandit_a.png","70","70","test","","","","8","",""
"null","326717","pSARL_v2","pSARL_v2nn2s2kpj","6135752aa4ee5158b0708670","fixation","img/fixation.png","null","","test","","","","","",""
"393.89999997615814","327120","pSARL_v2","pSARL_v2nn2s2kpj","6135752aa4ee5158b0708670","freq","img/orange_2bandit_a2.png","70","70","test","1","168","168","8","",""
"null","327546","pSARL_v2","pSARL_v2nn2s2kpj","6135752aa4ee5158b0708670","freq_resp","img/orange_2bandit_a.png","70","70","test","","","","8","",""
"null","327720","pSARL_v2","pSARL_v2nn2s2kpj","6135752aa4ee5158b0708670","fixation","img/fixation.png","null","","test","","","","","",""
"352.60000002384186","328081","pSARL_v2","pSARL_v2nn2s2kpj","6135752aa4ee5158b0708670","freq","img/orange_2bandit_a2.png","70","70","test","1","169","169","8","",""
"null","328539","pSARL_v2","pSARL_v2nn2s2kpj","6135752aa4ee5158b0708670","freq_resp","img/orange_2bandit_a.png","70","70","test","","","","8","",""
"null","328711","pSARL_v2","pSARL_v2nn2s2kpj","6135752aa4ee5158b0708670","fixation","img/fixation.png","null","","test","","","","","",""
"377.60000002384186","329097","pSARL_v2","pSARL_v2nn2s2kpj","6135752aa4ee5158b0708670","freq","img/orange_2bandit_a2.png","70","70","test","1","170","170","8","",""
"null","329533","pSARL_v2","pSARL_v2nn2s2kpj","6135752aa4ee5158b0708670","freq_resp","img/orange_2bandit_a.png","70","70","test","","","","8","",""
"null","329704","pSARL_v2","pSARL_v2nn2s2kpj","6135752aa4ee5158b0708670","fixation","img/fixation.png","null","","test","","","","","",""
"494.39999997615814","330206","pSARL_v2","pSARL_v2nn2s2kpj","6135752aa4ee5158b0708670","infreq","img/green_2bandit_a2.png","68","68","test","1","171","171","8","",""
"null","330525","pSARL_v2","pSARL_v2nn2s2kpj","6135752aa4ee5158b0708670","infreq_resp","img/green_2bandit_a.png","68","68","test","","","","8","",""
"null","330694","pSARL_v2","pSARL_v2nn2s2kpj","6135752aa4ee5158b0708670","fixation","img/fixation.png","null","","test","","","","","",""
"559.5999999046326","331263","pSARL_v2","pSARL_v2nn2s2kpj","6135752aa4ee5158b0708670","freq","img/orange_2bandit_a2.png","70","70","test","1","172","172","8","",""
"null","331519","pSARL_v2","pSARL_v2nn2s2kpj","6135752aa4ee5158b0708670","freq_resp","img/orange_2bandit_a.png","70","70","test","","","","8","",""
"null","331687","pSARL_v2","pSARL_v2nn2s2kpj","6135752aa4ee5158b0708670","fixation","img/fixation.png","null","","test","","","","","",""
"520.1999999284744","332218","pSARL_v2","pSARL_v2nn2s2kpj","6135752aa4ee5158b0708670","freq","img/orange_2bandit_a2.png","70","70","test","1","173","173","8","",""
"null","332513","pSARL_v2","pSARL_v2nn2s2kpj","6135752aa4ee5158b0708670","freq_resp","img/orange_2bandit_a.png","70","70","test","","","","8","",""
"null","332684","pSARL_v2","pSARL_v2nn2s2kpj","6135752aa4ee5158b0708670","fixation","img/fixation.png","null","","test","","","","","",""
"443.39999997615814","333138","pSARL_v2","pSARL_v2nn2s2kpj","6135752aa4ee5158b0708670","freq","img/orange_2bandit_a2.png","70","70","test","1","174","174","8","",""
"null","333515","pSARL_v2","pSARL_v2nn2s2kpj","6135752aa4ee5158b0708670","freq_resp","img/orange_2bandit_a.png","70","70","test","","","","8","",""
"null","333687","pSARL_v2","pSARL_v2nn2s2kpj","6135752aa4ee5158b0708670","fixation","img/fixation.png","null","","test","","","","","",""
"314.2000000476837","334009","pSARL_v2","pSARL_v2nn2s2kpj","6135752aa4ee5158b0708670","freq","img/orange_2bandit_a2.png","70","70","test","1","175","175","8","",""
"null","334511","pSARL_v2","pSARL_v2nn2s2kpj","6135752aa4ee5158b0708670","freq_resp","img/orange_2bandit_a.png","70","70","test","","","","8","",""
"null","334680","pSARL_v2","pSARL_v2nn2s2kpj","6135752aa4ee5158b0708670","fixation","img/fixation.png","null","","test","","","","","",""
"303.89999997615814","334999","pSARL_v2","pSARL_v2nn2s2kpj","6135752aa4ee5158b0708670","freq","img/orange_2bandit_a2.png","70","70","test","1","176","176","8","",""
"null","335522","pSARL_v2","pSARL_v2nn2s2kpj","6135752aa4ee5158b0708670","freq_resp","img/orange_2bandit_a.png","70","70","test","","","","8","",""
"null","335691","pSARL_v2","pSARL_v2nn2s2kpj","6135752aa4ee5158b0708670","fixation","img/fixation.png","null","","test","","","","","",""
"3051.100000023842","338751","pSARL_v2","pSARL_v2nn2s2kpj","6135752aa4ee5158b0708670","reward","img/slot.png","74","","test","","","","","",""
"null","339514","pSARL_v2","pSARL_v2nn2s2kpj","6135752aa4ee5158b0708670","points","<div class=""verylowPoints""> -4 </div>","null","na","test","","","","8","-4","7"
"481","340004","pSARL_v2","pSARL_v2nn2s2kpj","6135752aa4ee5158b0708670","freq","img/orange_2bandit_a2.png","70","70","test","1","177","177","9","",""
"null","340336","pSARL_v2","pSARL_v2nn2s2kpj","6135752aa4ee5158b0708670","freq_resp","img/orange_2bandit_a.png","70","70","test","","","","9","",""
"null","340507","pSARL_v2","pSARL_v2nn2s2kpj","6135752aa4ee5158b0708670","fixation","img/fixation.png","null","","test","","","","","",""
"472.6999999284744","340989","pSARL_v2","pSARL_v2nn2s2kpj","6135752aa4ee5158b0708670","infreq","img/green_2bandit_a2.png","68","68","test","1","178","178","9","",""
"null","341341","pSARL_v2","pSARL_v2nn2s2kpj","6135752aa4ee5158b0708670","infreq_resp","img/green_2bandit_a.png","68","68","test","","","","9","",""
"null","341515","pSARL_v2","pSARL_v2nn2s2kpj","6135752aa4ee5158b0708670","fixation","img/fixation.png","null","","test","","","","","",""
"634.2000000476837","342157","pSARL_v2","pSARL_v2nn2s2kpj","6135752aa4ee5158b0708670","freq","img/orange_2bandit_a2.png","70","70","test","1","179","179","9","",""
"null","342341","pSARL_v2","pSARL_v2nn2s2kpj","6135752aa4ee5158b0708670","freq_resp","img/orange_2bandit_a.png","70","70","test","","","","9","",""
"null","342511","pSARL_v2","pSARL_v2nn2s2kpj","6135752aa4ee5158b0708670","fixation","img/fixation.png","null","","test","","","","","",""
"330.89999997615814","342852","pSARL_v2","pSARL_v2nn2s2kpj","6135752aa4ee5158b0708670","freq","img/orange_2bandit_a2.png","70","70","test","1","180","180","9","",""
"null","343338","pSARL_v2","pSARL_v2nn2s2kpj","6135752aa4ee5158b0708670","freq_resp","img/orange_2bandit_a.png","70","70","test","","","","9","",""
"null","343507","pSARL_v2","pSARL_v2nn2s2kpj","6135752aa4ee5158b0708670","fixation","img/fixation.png","null","","test","","","","","",""
"330","343845","pSARL_v2","pSARL_v2nn2s2kpj","6135752aa4ee5158b0708670","freq","img/orange_2bandit_a2.png","70","70","test","1","181","181","9","",""
"null","344337","pSARL_v2","pSARL_v2nn2s2kpj","6135752aa4ee5158b0708670","freq_resp","img/orange_2bandit_a.png","70","70","test","","","","9","",""
"null","344505","pSARL_v2","pSARL_v2nn2s2kpj","6135752aa4ee5158b0708670","fixation","img/fixation.png","null","","test","","","","","",""
"295","344811","pSARL_v2","pSARL_v2nn2s2kpj","6135752aa4ee5158b0708670","freq","img/orange_2bandit_a2.png","70","70","test","1","182","182","9","",""
"null","345332","pSARL_v2","pSARL_v2nn2s2kpj","6135752aa4ee5158b0708670","freq_resp","img/orange_2bandit_a.png","70","70","test","","","","9","",""
"null","345501","pSARL_v2","pSARL_v2nn2s2kpj","6135752aa4ee5158b0708670","fixation","img/fixation.png","null","","test","","","","","",""
"597.2999999523163","346108","pSARL_v2","pSARL_v2nn2s2kpj","6135752aa4ee5158b0708670","infreq","img/green_2bandit_a2.png","68","68","test","1","183","183","9","",""
"null","346327","pSARL_v2","pSARL_v2nn2s2kpj","6135752aa4ee5158b0708670","infreq_resp","img/green_2bandit_a.png","68","68","test","","","","9","",""
"null","346501","pSARL_v2","pSARL_v2nn2s2kpj","6135752aa4ee5158b0708670","fixation","img/fixation.png","null","","test","","","","","",""
"418.6999999284744","346931","pSARL_v2","pSARL_v2nn2s2kpj","6135752aa4ee5158b0708670","freq","img/orange_2bandit_a2.png","70","70","test","1","184","184","9","",""
"null","347336","pSARL_v2","pSARL_v2nn2s2kpj","6135752aa4ee5158b0708670","freq_resp","img/orange_2bandit_a.png","70","70","test","","","","9","",""
"null","347507","pSARL_v2","pSARL_v2nn2s2kpj","6135752aa4ee5158b0708670","fixation","img/fixation.png","null","","test","","","","","",""
"308.39999997615814","347825","pSARL_v2","pSARL_v2nn2s2kpj","6135752aa4ee5158b0708670","freq","img/orange_2bandit_a2.png","70","70","test","1","185","185","9","",""
"null","348336","pSARL_v2","pSARL_v2nn2s2kpj","6135752aa4ee5158b0708670","freq_resp","img/orange_2bandit_a.png","70","70","test","","","","9","",""
"null","348505","pSARL_v2","pSARL_v2nn2s2kpj","6135752aa4ee5158b0708670","fixation","img/fixation.png","null","","test","","","","","",""
"325.3000000715256","348839","pSARL_v2","pSARL_v2nn2s2kpj","6135752aa4ee5158b0708670","freq","img/orange_2bandit_a2.png","70","70","test","1","186","186","9","",""
"null","349331","pSARL_v2","pSARL_v2nn2s2kpj","6135752aa4ee5158b0708670","freq_resp","img/orange_2bandit_a.png","70","70","test","","","","9","",""
"null","349497","pSARL_v2","pSARL_v2nn2s2kpj","6135752aa4ee5158b0708670","fixation","img/fixation.png","null","","test","","","","","",""
"318.60000002384186","349825","pSARL_v2","pSARL_v2nn2s2kpj","6135752aa4ee5158b0708670","freq","img/orange_2bandit_a2.png","70","70","test","1","187","187","9","",""
"null","350319","pSARL_v2","pSARL_v2nn2s2kpj","6135752aa4ee5158b0708670","freq_resp","img/orange_2bandit_a.png","70","70","test","","","","9","",""
"null","350488","pSARL_v2","pSARL_v2nn2s2kpj","6135752aa4ee5158b0708670","fixation","img/fixation.png","null","","test","","","","","",""
"382.2999999523163","350881","pSARL_v2","pSARL_v2nn2s2kpj","6135752aa4ee5158b0708670","freq","img/orange_2bandit_a2.png","70","70","test","1","188","188","9","",""
"null","351319","pSARL_v2","pSARL_v2nn2s2kpj","6135752aa4ee5158b0708670","freq_resp","img/orange_2bandit_a.png","70","70","test","","","","9","",""
"null","351491","pSARL_v2","pSARL_v2nn2s2kpj","6135752aa4ee5158b0708670","fixation","img/fixation.png","null","","test","","","","","",""
"322.5","351824","pSARL_v2","pSARL_v2nn2s2kpj","6135752aa4ee5158b0708670","freq","img/orange_2bandit_a2.png","70","70","test","1","189","189","9","",""
"null","352319","pSARL_v2","pSARL_v2nn2s2kpj","6135752aa4ee5158b0708670","freq_resp","img/orange_2bandit_a.png","70","70","test","","","","9","",""
"null","352491","pSARL_v2","pSARL_v2nn2s2kpj","6135752aa4ee5158b0708670","fixation","img/fixation.png","null","","test","","","","","",""
"329","352829","pSARL_v2","pSARL_v2nn2s2kpj","6135752aa4ee5158b0708670","freq","img/orange_2bandit_a2.png","70","70","test","1","190","190","9","",""
"null","353323","pSARL_v2","pSARL_v2nn2s2kpj","6135752aa4ee5158b0708670","freq_resp","img/orange_2bandit_a.png","70","70","test","","","","9","",""
"null","353492","pSARL_v2","pSARL_v2nn2s2kpj","6135752aa4ee5158b0708670","fixation","img/fixation.png","null","","test","","","","","",""
"353.90000009536743","353855","pSARL_v2","pSARL_v2nn2s2kpj","6135752aa4ee5158b0708670","freq","img/orange_2bandit_a2.png","70","70","test","1","191","191","9","",""
"null","354321","pSARL_v2","pSARL_v2nn2s2kpj","6135752aa4ee5158b0708670","freq_resp","img/orange_2bandit_a.png","70","70","test","","","","9","",""
"null","354492","pSARL_v2","pSARL_v2nn2s2kpj","6135752aa4ee5158b0708670","fixation","img/fixation.png","null","","test","","","","","",""
"800.5","355301","pSARL_v2","pSARL_v2nn2s2kpj","6135752aa4ee5158b0708670","freq","img/orange_2bandit_a2.png","70","70","test","1","192","192","9","",""
"null","355474","pSARL_v2","pSARL_v2nn2s2kpj","6135752aa4ee5158b0708670","fixation","img/fixation.png","null","","test","","","","","",""
"661","356145","pSARL_v2","pSARL_v2nn2s2kpj","6135752aa4ee5158b0708670","freq","img/orange_2bandit_a2.png","70","70","test","1","193","193","9","",""
"null","356299","pSARL_v2","pSARL_v2nn2s2kpj","6135752aa4ee5158b0708670","freq_resp","img/orange_2bandit_a.png","70","70","test","","","","9","",""
"null","356469","pSARL_v2","pSARL_v2nn2s2kpj","6135752aa4ee5158b0708670","fixation","img/fixation.png","null","","test","","","","","",""
"548.3000000715256","357028","pSARL_v2","pSARL_v2nn2s2kpj","6135752aa4ee5158b0708670","freq","img/orange_2bandit_a2.png","70","70","test","1","194","194","9","",""
"null","357293","pSARL_v2","pSARL_v2nn2s2kpj","6135752aa4ee5158b0708670","freq_resp","img/orange_2bandit_a.png","70","70","test","","","","9","",""
"null","357464","pSARL_v2","pSARL_v2nn2s2kpj","6135752aa4ee5158b0708670","fixation","img/fixation.png","null","","test","","","","","",""
"436.89999997615814","357912","pSARL_v2","pSARL_v2nn2s2kpj","6135752aa4ee5158b0708670","freq","img/orange_2bandit_a2.png","70","70","test","1","195","195","9","",""
"null","358290","pSARL_v2","pSARL_v2nn2s2kpj","6135752aa4ee5158b0708670","freq_resp","img/orange_2bandit_a.png","70","70","test","","","","9","",""
"null","358464","pSARL_v2","pSARL_v2nn2s2kpj","6135752aa4ee5158b0708670","fixation","img/fixation.png","null","","test","","","","","",""
"459.60000002384186","358931","pSARL_v2","pSARL_v2nn2s2kpj","6135752aa4ee5158b0708670","freq","img/orange_2bandit_a2.png","70","70","test","1","196","196","9","",""
"null","359284","pSARL_v2","pSARL_v2nn2s2kpj","6135752aa4ee5158b0708670","freq_resp","img/orange_2bandit_a.png","70","70","test","","","","9","",""
"null","359445","pSARL_v2","pSARL_v2nn2s2kpj","6135752aa4ee5158b0708670","fixation","img/fixation.png","null","","test","","","","","",""
"423","359878","pSARL_v2","pSARL_v2nn2s2kpj","6135752aa4ee5158b0708670","freq","img/orange_2bandit_a2.png","70","70","test","1","197","197","9","",""
"null","360267","pSARL_v2","pSARL_v2nn2s2kpj","6135752aa4ee5158b0708670","freq_resp","img/orange_2bandit_a.png","70","70","test","","","","9","",""
"null","360439","pSARL_v2","pSARL_v2nn2s2kpj","6135752aa4ee5158b0708670","fixation","img/fixation.png","null","","test","","","","","",""
"322","360771","pSARL_v2","pSARL_v2nn2s2kpj","6135752aa4ee5158b0708670","freq","img/orange_2bandit_a2.png","70","70","test","1","198","198","9","",""
"null","361264","pSARL_v2","pSARL_v2nn2s2kpj","6135752aa4ee5158b0708670","freq_resp","img/orange_2bandit_a.png","70","70","test","","","","9","",""
"null","361433","pSARL_v2","pSARL_v2nn2s2kpj","6135752aa4ee5158b0708670","fixation","img/fixation.png","null","","test","","","","","",""
"220.70000004768372","361665","pSARL_v2","pSARL_v2nn2s2kpj","6135752aa4ee5158b0708670","freq","img/orange_2bandit_a2.png","70","70","test","1","199","199","9","",""
"null","362267","pSARL_v2","pSARL_v2nn2s2kpj","6135752aa4ee5158b0708670","freq_resp","img/orange_2bandit_a.png","70","70","test","","","","9","",""
"null","362436","pSARL_v2","pSARL_v2nn2s2kpj","6135752aa4ee5158b0708670","fixation","img/fixation.png","null","","test","","","","","",""
"459.7000000476837","362904","pSARL_v2","pSARL_v2nn2s2kpj","6135752aa4ee5158b0708670","infreq","img/green_2bandit_a2.png","68","68","test","1","200","200","9","",""
"null","363259","pSARL_v2","pSARL_v2nn2s2kpj","6135752aa4ee5158b0708670","infreq_resp","img/green_2bandit_a.png","68","68","test","","","","9","",""
"null","363431","pSARL_v2","pSARL_v2nn2s2kpj","6135752aa4ee5158b0708670","fixation","img/fixation.png","null","","test","","","","","",""
"469.5","363912","pSARL_v2","pSARL_v2nn2s2kpj","6135752aa4ee5158b0708670","freq","img/orange_2bandit_a2.png","70","70","test","1","201","201","9","",""
"null","364257","pSARL_v2","pSARL_v2nn2s2kpj","6135752aa4ee5158b0708670","freq_resp","img/orange_2bandit_a.png","70","70","test","","","","9","",""
"null","364415","pSARL_v2","pSARL_v2nn2s2kpj","6135752aa4ee5158b0708670","fixation","img/fixation.png","null","","test","","","","","",""
"332.40000009536743","364754","pSARL_v2","pSARL_v2nn2s2kpj","6135752aa4ee5158b0708670","freq","img/orange_2bandit_a2.png","70","70","test","1","202","202","9","",""
"null","365234","pSARL_v2","pSARL_v2nn2s2kpj","6135752aa4ee5158b0708670","freq_resp","img/orange_2bandit_a.png","70","70","test","","","","9","",""
"null","365393","pSARL_v2","pSARL_v2nn2s2kpj","6135752aa4ee5158b0708670","fixation","img/fixation.png","null","","test","","","","","",""
"311.2999999523163","365713","pSARL_v2","pSARL_v2nn2s2kpj","6135752aa4ee5158b0708670","freq","img/orange_2bandit_a2.png","70","70","test","1","203","203","9","",""
"null","366212","pSARL_v2","pSARL_v2nn2s2kpj","6135752aa4ee5158b0708670","freq_resp","img/orange_2bandit_a.png","70","70","test","","","","9","",""
"null","366383","pSARL_v2","pSARL_v2nn2s2kpj","6135752aa4ee5158b0708670","fixation","img/fixation.png","null","","test","","","","","",""
"740.1000000238419","367133","pSARL_v2","pSARL_v2nn2s2kpj","6135752aa4ee5158b0708670","reward","img/slot.png","74","","test","","","","","",""
"null","367896","pSARL_v2","pSARL_v2nn2s2kpj","6135752aa4ee5158b0708670","points","<div class=""verylowPoints""> -3 </div>","null","na","test","","","","9","-3","8"
"430.09999990463257","368335","pSARL_v2","pSARL_v2nn2s2kpj","6135752aa4ee5158b0708670","freq","img/orange_2bandit_a2.png","70","70","test","1","204","204","10","",""
"null","368722","pSARL_v2","pSARL_v2nn2s2kpj","6135752aa4ee5158b0708670","freq_resp","img/orange_2bandit_a.png","70","70","test","","","","10","",""
"null","368892","pSARL_v2","pSARL_v2nn2s2kpj","6135752aa4ee5158b0708670","fixation","img/fixation.png","null","","test","","","","","",""
"265.8000000715256","369168","pSARL_v2","pSARL_v2nn2s2kpj","6135752aa4ee5158b0708670","freq","img/orange_2bandit_a2.png","70","70","test","1","205","205","10","",""
"null","369716","pSARL_v2","pSARL_v2nn2s2kpj","6135752aa4ee5158b0708670","freq_resp","img/orange_2bandit_a.png","70","70","test","","","","10","",""
"null","369889","pSARL_v2","pSARL_v2nn2s2kpj","6135752aa4ee5158b0708670","fixation","img/fixation.png","null","","test","","","","","",""
"129.10000002384186","370028","pSARL_v2","pSARL_v2nn2s2kpj","6135752aa4ee5158b0708670","infreq","img/green_2bandit_a2.png","70","68","test","0","206","206","10","",""
"null","370717","pSARL_v2","pSARL_v2nn2s2kpj","6135752aa4ee5158b0708670","infreq_resp","img/green_2bandit_a.png","70","68","test","","","","10","",""
"null","370887","pSARL_v2","pSARL_v2nn2s2kpj","6135752aa4ee5158b0708670","fixation","img/fixation.png","null","","test","","","","","",""
"557.1000000238419","371453","pSARL_v2","pSARL_v2nn2s2kpj","6135752aa4ee5158b0708670","freq","img/orange_2bandit_a2.png","70","70","test","1","207","207","10","",""
"null","371712","pSARL_v2","pSARL_v2nn2s2kpj","6135752aa4ee5158b0708670","freq_resp","img/orange_2bandit_a.png","70","70","test","","","","10","",""
"null","371882","pSARL_v2","pSARL_v2nn2s2kpj","6135752aa4ee5158b0708670","fixation","img/fixation.png","null","","test","","","","","",""
"483","372375","pSARL_v2","pSARL_v2nn2s2kpj","6135752aa4ee5158b0708670","infreq","img/green_2bandit_a2.png","68","68","test","1","208","208","10","",""
"null","372709","pSARL_v2","pSARL_v2nn2s2kpj","6135752aa4ee5158b0708670","infreq_resp","img/green_2bandit_a.png","68","68","test","","","","10","",""
"null","372879","pSARL_v2","pSARL_v2nn2s2kpj","6135752aa4ee5158b0708670","fixation","img/fixation.png","null","","test","","","","","",""
"410.2000000476837","373299","pSARL_v2","pSARL_v2nn2s2kpj","6135752aa4ee5158b0708670","freq","img/orange_2bandit_a2.png","70","70","test","1","209","209","10","",""
"null","373703","pSARL_v2","pSARL_v2nn2s2kpj","6135752aa4ee5158b0708670","freq_resp","img/orange_2bandit_a.png","70","70","test","","","","10","",""
"null","373874","pSARL_v2","pSARL_v2nn2s2kpj","6135752aa4ee5158b0708670","fixation","img/fixation.png","null","","test","","","","","",""
"587.6000000238419","374470","pSARL_v2","pSARL_v2nn2s2kpj","6135752aa4ee5158b0708670","freq","img/orange_2bandit_a2.png","68","70","test","0","210","210","10","",""
"null","374702","pSARL_v2","pSARL_v2nn2s2kpj","6135752aa4ee5158b0708670","freq_resp","img/orange_2bandit_a.png","68","70","test","","","","10","",""
"null","374874","pSARL_v2","pSARL_v2nn2s2kpj","6135752aa4ee5158b0708670","fixation","img/fixation.png","null","","test","","","","","",""
"665.3999999761581","375548","pSARL_v2","pSARL_v2nn2s2kpj","6135752aa4ee5158b0708670","freq","img/orange_2bandit_a2.png","68","70","test","0","211","211","10","",""
"null","375697","pSARL_v2","pSARL_v2nn2s2kpj","6135752aa4ee5158b0708670","freq_resp","img/orange_2bandit_a.png","68","70","test","","","","10","",""
"null","375869","pSARL_v2","pSARL_v2nn2s2kpj","6135752aa4ee5158b0708670","fixation","img/fixation.png","null","","test","","","","","",""
"632.7999999523163","376512","pSARL_v2","pSARL_v2nn2s2kpj","6135752aa4ee5158b0708670","freq","img/orange_2bandit_a2.png","70","70","test","1","212","212","10","",""
"null","376695","pSARL_v2","pSARL_v2nn2s2kpj","6135752aa4ee5158b0708670","freq_resp","img/orange_2bandit_a.png","70","70","test","","","","10","",""
"null","376864","pSARL_v2","pSARL_v2nn2s2kpj","6135752aa4ee5158b0708670","fixation","img/fixation.png","null","","test","","","","","",""
"387.60000002384186","377259","pSARL_v2","pSARL_v2nn2s2kpj","6135752aa4ee5158b0708670","freq","img/orange_2bandit_a2.png","70","70","test","1","213","213","10","",""
"null","377694","pSARL_v2","pSARL_v2nn2s2kpj","6135752aa4ee5158b0708670","freq_resp","img/orange_2bandit_a.png","70","70","test","","","","10","",""
"null","377864","pSARL_v2","pSARL_v2nn2s2kpj","6135752aa4ee5158b0708670","fixation","img/fixation.png","null","","test","","","","","",""
"365.60000002384186","378239","pSARL_v2","pSARL_v2nn2s2kpj","6135752aa4ee5158b0708670","freq","img/orange_2bandit_a2.png","70","70","test","1","214","214","10","",""
"null","378685","pSARL_v2","pSARL_v2nn2s2kpj","6135752aa4ee5158b0708670","freq_resp","img/orange_2bandit_a.png","70","70","test","","","","10","",""
"null","378854","pSARL_v2","pSARL_v2nn2s2kpj","6135752aa4ee5158b0708670","fixation","img/fixation.png","null","","test","","","","","",""
