"rt","time_elapsed","expId","subject","prolificID","trialType","stimulus","key_press","corrresp","phase","corr","trialNum","attentionRunNum","blockNum","points","rlNum"
"6794.699999988079","6800","pSARL_v2","pSARL_v2bl2xrasr","5edeb6bc0fb0721619b474d0","","","","","","","","","","",""
"","10017","pSARL_v2","pSARL_v2bl2xrasr","5edeb6bc0fb0721619b474d0","fullscreen","","","","","","","","","",""
"59078","69107","pSARL_v2","pSARL_v2bl2xrasr","5edeb6bc0fb0721619b474d0","","","","","","","","","","",""
"478.10000002384186","69595","pSARL_v2","pSARL_v2bl2xrasr","5edeb6bc0fb0721619b474d0","freqPrac","img/orange_2bandit_b2.png","70","70","prac","1","","","","",""
"478.10000002384186","69926","pSARL_v2","pSARL_v2bl2xrasr","5edeb6bc0fb0721619b474d0","freqPrac_resp","img/orange_2bandit_b.png","70","70","prac","","","","","",""
"null","70098","pSARL_v2","pSARL_v2bl2xrasr","5edeb6bc0fb0721619b474d0","fixation","img/fixation.png","null","","prac","","","","","",""
"408.69999998807907","70514","pSARL_v2","pSARL_v2bl2xrasr","5edeb6bc0fb0721619b474d0","infreqPrac","img/green_2bandit_b2.png","68","68","prac","1","","","","",""
"408.69999998807907","70923","pSARL_v2","pSARL_v2bl2xrasr","5edeb6bc0fb0721619b474d0","infreqPrac_resp","img/green_2bandit_b.png","68","68","prac","","","","","",""
"null","71083","pSARL_v2","pSARL_v2bl2xrasr","5edeb6bc0fb0721619b474d0","fixation","img/fixation.png","null","","prac","","","","","",""
"414.5","71504","pSARL_v2","pSARL_v2bl2xrasr","5edeb6bc0fb0721619b474d0","freqPrac","img/orange_2bandit_b2.png","70","70","prac","1","","","","",""
"414.5","71905","pSARL_v2","pSARL_v2bl2xrasr","5edeb6bc0fb0721619b474d0","freqPrac_resp","img/orange_2bandit_b.png","70","70","prac","","","","","",""
"null","72066","pSARL_v2","pSARL_v2bl2xrasr","5edeb6bc0fb0721619b474d0","fixation","img/fixation.png","null","","prac","","","","","",""
"424.30000001192093","72497","pSARL_v2","pSARL_v2bl2xrasr","5edeb6bc0fb0721619b474d0","infreqPrac","img/green_2bandit_b2.png","68","68","prac","1","","","","",""
"424.30000001192093","72890","pSARL_v2","pSARL_v2bl2xrasr","5edeb6bc0fb0721619b474d0","infreqPrac_resp","img/green_2bandit_b.png","68","68","prac","","","","","",""
"null","73050","pSARL_v2","pSARL_v2bl2xrasr","5edeb6bc0fb0721619b474d0","fixation","img/fixation.png","null","","prac","","","","","",""
"336.0999999642372","73393","pSARL_v2","pSARL_v2bl2xrasr","5edeb6bc0fb0721619b474d0","infreqPrac","img/green_2bandit_b2.png","68","68","prac","1","","","","",""
"336.0999999642372","73867","pSARL_v2","pSARL_v2bl2xrasr","5edeb6bc0fb0721619b474d0","infreqPrac_resp","img/green_2bandit_b.png","68","68","prac","","","","","",""
"null","74034","pSARL_v2","pSARL_v2bl2xrasr","5edeb6bc0fb0721619b474d0","fixation","img/fixation.png","null","","prac","","","","","",""
"335.69999998807907","74376","pSARL_v2","pSARL_v2bl2xrasr","5edeb6bc0fb0721619b474d0","infreqPrac","img/green_2bandit_b2.png","68","68","prac","1","","","","",""
"335.69999998807907","74855","pSARL_v2","pSARL_v2bl2xrasr","5edeb6bc0fb0721619b474d0","infreqPrac_resp","img/green_2bandit_b.png","68","68","prac","","","","","",""
"null","75018","pSARL_v2","pSARL_v2bl2xrasr","5edeb6bc0fb0721619b474d0","fixation","img/fixation.png","null","","prac","","","","","",""
"319.69999998807907","75345","pSARL_v2","pSARL_v2bl2xrasr","5edeb6bc0fb0721619b474d0","freqPrac","img/orange_2bandit_b2.png","70","70","prac","1","","","","",""
"319.69999998807907","75838","pSARL_v2","pSARL_v2bl2xrasr","5edeb6bc0fb0721619b474d0","freqPrac_resp","img/orange_2bandit_b.png","70","70","prac","","","","","",""
"null","76004","pSARL_v2","pSARL_v2bl2xrasr","5edeb6bc0fb0721619b474d0","fixation","img/fixation.png","null","","prac","","","","","",""
"325.69999998807907","76336","pSARL_v2","pSARL_v2bl2xrasr","5edeb6bc0fb0721619b474d0","infreqPrac","img/green_2bandit_b2.png","68","68","prac","1","","","","",""
"325.69999998807907","76821","pSARL_v2","pSARL_v2bl2xrasr","5edeb6bc0fb0721619b474d0","infreqPrac_resp","img/green_2bandit_b.png","68","68","prac","","","","","",""
"null","76987","pSARL_v2","pSARL_v2bl2xrasr","5edeb6bc0fb0721619b474d0","fixation","img/fixation.png","null","","prac","","","","","",""
"286.69999998807907","77281","pSARL_v2","pSARL_v2bl2xrasr","5edeb6bc0fb0721619b474d0","freqPrac","img/orange_2bandit_b2.png","70","70","prac","1","","","","",""
"286.69999998807907","77806","pSARL_v2","pSARL_v2bl2xrasr","5edeb6bc0fb0721619b474d0","freqPrac_resp","img/orange_2bandit_b.png","70","70","prac","","","","","",""
"null","77965","pSARL_v2","pSARL_v2bl2xrasr","5edeb6bc0fb0721619b474d0","fixation","img/fixation.png","null","","prac","","","","","",""
"285.10000002384186","78256","pSARL_v2","pSARL_v2bl2xrasr","5edeb6bc0fb0721619b474d0","freqPrac","img/orange_2bandit_b2.png","70","70","prac","1","","","","",""
"285.10000002384186","78789","pSARL_v2","pSARL_v2bl2xrasr","5edeb6bc0fb0721619b474d0","freqPrac_resp","img/orange_2bandit_b.png","70","70","prac","","","","","",""
"null","78956","pSARL_v2","pSARL_v2bl2xrasr","5edeb6bc0fb0721619b474d0","fixation","img/fixation.png","null","","prac","","","","","",""
"17718.5","96680","pSARL_v2","pSARL_v2bl2xrasr","5edeb6bc0fb0721619b474d0","","","","","prac","","","","","",""
"585.6000000238419","97272","pSARL_v2","pSARL_v2bl2xrasr","5edeb6bc0fb0721619b474d0","rewardPractice","img/slot.png","74","","prac","","","","","",""
"null","98045","pSARL_v2","pSARL_v2bl2xrasr","5edeb6bc0fb0721619b474d0","feedback","<div class=""veryhighPoints""> +15 </div>","null","na","prac","","","","","",""
"null","98209","pSARL_v2","pSARL_v2bl2xrasr","5edeb6bc0fb0721619b474d0","fixation","img/fixation.png","null","","prac","","","","","",""
"9292.699999988079","107507","pSARL_v2","pSARL_v2bl2xrasr","5edeb6bc0fb0721619b474d0","","","","","prac","","","","","",""
"null","108318","pSARL_v2","pSARL_v2bl2xrasr","5edeb6bc0fb0721619b474d0","freq","img/orange_2bandit_b2.png","null","70","test","0","1","1","1","",""
"null","108492","pSARL_v2","pSARL_v2bl2xrasr","5edeb6bc0fb0721619b474d0","fixation","img/fixation.png","null","","test","","","","","",""
"278","108777","pSARL_v2","pSARL_v2bl2xrasr","5edeb6bc0fb0721619b474d0","freq","img/orange_2bandit_b2.png","70","70","test","1","2","2","1","",""
"null","109306","pSARL_v2","pSARL_v2bl2xrasr","5edeb6bc0fb0721619b474d0","freq_resp","img/orange_2bandit_b.png","70","70","test","","","","1","",""
"null","109470","pSARL_v2","pSARL_v2bl2xrasr","5edeb6bc0fb0721619b474d0","fixation","img/fixation.png","null","","test","","","","","",""
"284.39999997615814","109759","pSARL_v2","pSARL_v2bl2xrasr","5edeb6bc0fb0721619b474d0","freq","img/orange_2bandit_b2.png","70","70","test","1","3","3","1","",""
"null","110290","pSARL_v2","pSARL_v2bl2xrasr","5edeb6bc0fb0721619b474d0","freq_resp","img/orange_2bandit_b.png","70","70","test","","","","1","",""
"null","110454","pSARL_v2","pSARL_v2bl2xrasr","5edeb6bc0fb0721619b474d0","fixation","img/fixation.png","null","","test","","","","","",""
"275.69999998807907","110737","pSARL_v2","pSARL_v2bl2xrasr","5edeb6bc0fb0721619b474d0","freq","img/orange_2bandit_b2.png","70","70","test","1","4","4","1","",""
"null","111271","pSARL_v2","pSARL_v2bl2xrasr","5edeb6bc0fb0721619b474d0","freq_resp","img/orange_2bandit_b.png","70","70","test","","","","1","",""
"null","111438","pSARL_v2","pSARL_v2bl2xrasr","5edeb6bc0fb0721619b474d0","fixation","img/fixation.png","null","","test","","","","","",""
"269.19999998807907","111714","pSARL_v2","pSARL_v2bl2xrasr","5edeb6bc0fb0721619b474d0","freq","img/orange_2bandit_b2.png","70","70","test","1","5","5","1","",""
"null","112264","pSARL_v2","pSARL_v2bl2xrasr","5edeb6bc0fb0721619b474d0","freq_resp","img/orange_2bandit_b.png","70","70","test","","","","1","",""
"null","112423","pSARL_v2","pSARL_v2bl2xrasr","5edeb6bc0fb0721619b474d0","fixation","img/fixation.png","null","","test","","","","","",""
"411.10000002384186","112842","pSARL_v2","pSARL_v2bl2xrasr","5edeb6bc0fb0721619b474d0","infreq","img/green_2bandit_b2.png","68","68","test","1","6","6","1","",""
"null","113245","pSARL_v2","pSARL_v2bl2xrasr","5edeb6bc0fb0721619b474d0","infreq_resp","img/green_2bandit_b.png","68","68","test","","","","1","",""
"null","113406","pSARL_v2","pSARL_v2bl2xrasr","5edeb6bc0fb0721619b474d0","fixation","img/fixation.png","null","","test","","","","","",""
"291.5999999642372","113703","pSARL_v2","pSARL_v2bl2xrasr","5edeb6bc0fb0721619b474d0","infreq","img/green_2bandit_b2.png","68","68","test","1","7","7","1","",""
"null","114226","pSARL_v2","pSARL_v2bl2xrasr","5edeb6bc0fb0721619b474d0","infreq_resp","img/green_2bandit_b.png","68","68","test","","","","1","",""
"null","114391","pSARL_v2","pSARL_v2bl2xrasr","5edeb6bc0fb0721619b474d0","fixation","img/fixation.png","null","","test","","","","","",""
"387.39999997615814","114786","pSARL_v2","pSARL_v2bl2xrasr","5edeb6bc0fb0721619b474d0","freq","img/orange_2bandit_b2.png","70","70","test","1","8","8","1","",""
"null","115216","pSARL_v2","pSARL_v2bl2xrasr","5edeb6bc0fb0721619b474d0","freq_resp","img/orange_2bandit_b.png","70","70","test","","","","1","",""
"null","115375","pSARL_v2","pSARL_v2bl2xrasr","5edeb6bc0fb0721619b474d0","fixation","img/fixation.png","null","","test","","","","","",""
"331","115712","pSARL_v2","pSARL_v2bl2xrasr","5edeb6bc0fb0721619b474d0","freq","img/orange_2bandit_b2.png","70","70","test","1","9","9","1","",""
"null","116196","pSARL_v2","pSARL_v2bl2xrasr","5edeb6bc0fb0721619b474d0","freq_resp","img/orange_2bandit_b.png","70","70","test","","","","1","",""
"null","116361","pSARL_v2","pSARL_v2bl2xrasr","5edeb6bc0fb0721619b474d0","fixation","img/fixation.png","null","","test","","","","","",""
"321.19999998807907","116687","pSARL_v2","pSARL_v2bl2xrasr","5edeb6bc0fb0721619b474d0","freq","img/orange_2bandit_b2.png","70","70","test","1","10","10","1","",""
"null","117177","pSARL_v2","pSARL_v2bl2xrasr","5edeb6bc0fb0721619b474d0","freq_resp","img/orange_2bandit_b.png","70","70","test","","","","1","",""
"null","117346","pSARL_v2","pSARL_v2bl2xrasr","5edeb6bc0fb0721619b474d0","fixation","img/fixation.png","null","","test","","","","","",""
"276.30000001192093","117628","pSARL_v2","pSARL_v2bl2xrasr","5edeb6bc0fb0721619b474d0","freq","img/orange_2bandit_b2.png","70","70","test","1","11","11","1","",""
"null","118164","pSARL_v2","pSARL_v2bl2xrasr","5edeb6bc0fb0721619b474d0","freq_resp","img/orange_2bandit_b.png","70","70","test","","","","1","",""
"null","118330","pSARL_v2","pSARL_v2bl2xrasr","5edeb6bc0fb0721619b474d0","fixation","img/fixation.png","null","","test","","","","","",""
"279.5999999642372","118617","pSARL_v2","pSARL_v2bl2xrasr","5edeb6bc0fb0721619b474d0","freq","img/orange_2bandit_b2.png","70","70","test","1","12","12","1","",""
"null","119147","pSARL_v2","pSARL_v2bl2xrasr","5edeb6bc0fb0721619b474d0","freq_resp","img/orange_2bandit_b.png","70","70","test","","","","1","",""
"null","119313","pSARL_v2","pSARL_v2bl2xrasr","5edeb6bc0fb0721619b474d0","fixation","img/fixation.png","null","","test","","","","","",""
"264.69999998807907","119584","pSARL_v2","pSARL_v2bl2xrasr","5edeb6bc0fb0721619b474d0","freq","img/orange_2bandit_b2.png","70","70","test","1","13","13","1","",""
"null","120138","pSARL_v2","pSARL_v2bl2xrasr","5edeb6bc0fb0721619b474d0","freq_resp","img/orange_2bandit_b.png","70","70","test","","","","1","",""
"null","120296","pSARL_v2","pSARL_v2bl2xrasr","5edeb6bc0fb0721619b474d0","fixation","img/fixation.png","null","","test","","","","","",""
"258.5999999642372","120560","pSARL_v2","pSARL_v2bl2xrasr","5edeb6bc0fb0721619b474d0","freq","img/orange_2bandit_b2.png","70","70","test","1","14","14","1","",""
"null","121124","pSARL_v2","pSARL_v2bl2xrasr","5edeb6bc0fb0721619b474d0","freq_resp","img/orange_2bandit_b.png","70","70","test","","","","1","",""
"null","121280","pSARL_v2","pSARL_v2bl2xrasr","5edeb6bc0fb0721619b474d0","fixation","img/fixation.png","null","","test","","","","","",""
"281.39999997615814","121567","pSARL_v2","pSARL_v2bl2xrasr","5edeb6bc0fb0721619b474d0","freq","img/orange_2bandit_b2.png","70","70","test","1","15","15","1","",""
"null","122098","pSARL_v2","pSARL_v2bl2xrasr","5edeb6bc0fb0721619b474d0","freq_resp","img/orange_2bandit_b.png","70","70","test","","","","1","",""
"null","122267","pSARL_v2","pSARL_v2bl2xrasr","5edeb6bc0fb0721619b474d0","fixation","img/fixation.png","null","","test","","","","","",""
"246","122519","pSARL_v2","pSARL_v2bl2xrasr","5edeb6bc0fb0721619b474d0","freq","img/orange_2bandit_b2.png","70","70","test","1","16","16","1","",""
"null","123092","pSARL_v2","pSARL_v2bl2xrasr","5edeb6bc0fb0721619b474d0","freq_resp","img/orange_2bandit_b.png","70","70","test","","","","1","",""
"null","123250","pSARL_v2","pSARL_v2bl2xrasr","5edeb6bc0fb0721619b474d0","fixation","img/fixation.png","null","","test","","","","","",""
"278.5999999642372","123535","pSARL_v2","pSARL_v2bl2xrasr","5edeb6bc0fb0721619b474d0","freq","img/orange_2bandit_b2.png","70","70","test","1","17","17","1","",""
"null","124068","pSARL_v2","pSARL_v2bl2xrasr","5edeb6bc0fb0721619b474d0","freq_resp","img/orange_2bandit_b.png","70","70","test","","","","1","",""
"null","124234","pSARL_v2","pSARL_v2bl2xrasr","5edeb6bc0fb0721619b474d0","fixation","img/fixation.png","null","","test","","","","","",""
"271.69999998807907","124513","pSARL_v2","pSARL_v2bl2xrasr","5edeb6bc0fb0721619b474d0","freq","img/orange_2bandit_b2.png","70","70","test","1","18","18","1","",""
"null","125050","pSARL_v2","pSARL_v2bl2xrasr","5edeb6bc0fb0721619b474d0","freq_resp","img/orange_2bandit_b.png","70","70","test","","","","1","",""
"null","125217","pSARL_v2","pSARL_v2bl2xrasr","5edeb6bc0fb0721619b474d0","fixation","img/fixation.png","null","","test","","","","","",""
"256.30000001192093","125481","pSARL_v2","pSARL_v2bl2xrasr","5edeb6bc0fb0721619b474d0","freq","img/orange_2bandit_b2.png","70","70","test","1","19","19","1","",""
"null","126038","pSARL_v2","pSARL_v2bl2xrasr","5edeb6bc0fb0721619b474d0","freq_resp","img/orange_2bandit_b.png","70","70","test","","","","1","",""
"null","126202","pSARL_v2","pSARL_v2bl2xrasr","5edeb6bc0fb0721619b474d0","fixation","img/fixation.png","null","","test","","","","","",""
"246.80000001192093","126456","pSARL_v2","pSARL_v2bl2xrasr","5edeb6bc0fb0721619b474d0","freq","img/orange_2bandit_b2.png","70","70","test","1","20","20","1","",""
"null","127030","pSARL_v2","pSARL_v2bl2xrasr","5edeb6bc0fb0721619b474d0","freq_resp","img/orange_2bandit_b.png","70","70","test","","","","1","",""
"null","127203","pSARL_v2","pSARL_v2bl2xrasr","5edeb6bc0fb0721619b474d0","fixation","img/fixation.png","null","","test","","","","","",""
"230.19999998807907","127440","pSARL_v2","pSARL_v2bl2xrasr","5edeb6bc0fb0721619b474d0","freq","img/orange_2bandit_b2.png","70","70","test","1","21","21","1","",""
"null","128031","pSARL_v2","pSARL_v2bl2xrasr","5edeb6bc0fb0721619b474d0","freq_resp","img/orange_2bandit_b.png","70","70","test","","","","1","",""
"null","128204","pSARL_v2","pSARL_v2bl2xrasr","5edeb6bc0fb0721619b474d0","fixation","img/fixation.png","null","","test","","","","","",""
"465.39999997615814","128677","pSARL_v2","pSARL_v2bl2xrasr","5edeb6bc0fb0721619b474d0","reward","img/slot.png","74","","test","","","","","",""
"null","129446","pSARL_v2","pSARL_v2bl2xrasr","5edeb6bc0fb0721619b474d0","points","<div class=""verylowPoints""> -6 </div>","null","na","test","","","","1","-6","0"
"531.6000000238419","129983","pSARL_v2","pSARL_v2bl2xrasr","5edeb6bc0fb0721619b474d0","freq","img/orange_2bandit_b2.png","70","70","test","1","22","22","2","",""
"null","130271","pSARL_v2","pSARL_v2bl2xrasr","5edeb6bc0fb0721619b474d0","freq_resp","img/orange_2bandit_b.png","70","70","test","","","","2","",""
"null","130439","pSARL_v2","pSARL_v2bl2xrasr","5edeb6bc0fb0721619b474d0","fixation","img/fixation.png","null","","test","","","","","",""
"394.7999999523163","130839","pSARL_v2","pSARL_v2bl2xrasr","5edeb6bc0fb0721619b474d0","infreq","img/green_2bandit_b2.png","68","68","test","1","23","23","2","",""
"null","131261","pSARL_v2","pSARL_v2bl2xrasr","5edeb6bc0fb0721619b474d0","infreq_resp","img/green_2bandit_b.png","68","68","test","","","","2","",""
"null","131424","pSARL_v2","pSARL_v2bl2xrasr","5edeb6bc0fb0721619b474d0","fixation","img/fixation.png","null","","test","","","","","",""
"345.69999998807907","131777","pSARL_v2","pSARL_v2bl2xrasr","5edeb6bc0fb0721619b474d0","freq","img/orange_2bandit_b2.png","70","70","test","1","24","24","2","",""
"null","132245","pSARL_v2","pSARL_v2bl2xrasr","5edeb6bc0fb0721619b474d0","freq_resp","img/orange_2bandit_b.png","70","70","test","","","","2","",""
"null","132410","pSARL_v2","pSARL_v2bl2xrasr","5edeb6bc0fb0721619b474d0","fixation","img/fixation.png","null","","test","","","","","",""
"271.5999999642372","132688","pSARL_v2","pSARL_v2bl2xrasr","5edeb6bc0fb0721619b474d0","freq","img/orange_2bandit_b2.png","70","70","test","1","25","25","2","",""
"null","133228","pSARL_v2","pSARL_v2bl2xrasr","5edeb6bc0fb0721619b474d0","freq_resp","img/orange_2bandit_b.png","70","70","test","","","","2","",""
"null","133392","pSARL_v2","pSARL_v2bl2xrasr","5edeb6bc0fb0721619b474d0","fixation","img/fixation.png","null","","test","","","","","",""
"264.80000001192093","133663","pSARL_v2","pSARL_v2bl2xrasr","5edeb6bc0fb0721619b474d0","freq","img/orange_2bandit_b2.png","70","70","test","1","26","26","2","",""
"null","134211","pSARL_v2","pSARL_v2bl2xrasr","5edeb6bc0fb0721619b474d0","freq_resp","img/orange_2bandit_b.png","70","70","test","","","","2","",""
"null","134378","pSARL_v2","pSARL_v2bl2xrasr","5edeb6bc0fb0721619b474d0","fixation","img/fixation.png","null","","test","","","","","",""
"247.30000001192093","134631","pSARL_v2","pSARL_v2bl2xrasr","5edeb6bc0fb0721619b474d0","freq","img/orange_2bandit_b2.png","70","70","test","1","27","27","2","",""
"null","135202","pSARL_v2","pSARL_v2bl2xrasr","5edeb6bc0fb0721619b474d0","freq_resp","img/orange_2bandit_b.png","70","70","test","","","","2","",""
"null","135362","pSARL_v2","pSARL_v2bl2xrasr","5edeb6bc0fb0721619b474d0","fixation","img/fixation.png","null","","test","","","","","",""
"223.5","135592","pSARL_v2","pSARL_v2bl2xrasr","5edeb6bc0fb0721619b474d0","freq","img/orange_2bandit_b2.png","70","70","test","1","28","28","2","",""
"null","136185","pSARL_v2","pSARL_v2bl2xrasr","5edeb6bc0fb0721619b474d0","freq_resp","img/orange_2bandit_b.png","70","70","test","","","","2","",""
"null","136346","pSARL_v2","pSARL_v2bl2xrasr","5edeb6bc0fb0721619b474d0","fixation","img/fixation.png","null","","test","","","","","",""
"246.69999998807907","136599","pSARL_v2","pSARL_v2bl2xrasr","5edeb6bc0fb0721619b474d0","freq","img/orange_2bandit_b2.png","70","70","test","1","29","29","2","",""
"null","137172","pSARL_v2","pSARL_v2bl2xrasr","5edeb6bc0fb0721619b474d0","freq_resp","img/orange_2bandit_b.png","70","70","test","","","","2","",""
"null","137330","pSARL_v2","pSARL_v2bl2xrasr","5edeb6bc0fb0721619b474d0","fixation","img/fixation.png","null","","test","","","","","",""
"263.30000001192093","137600","pSARL_v2","pSARL_v2bl2xrasr","5edeb6bc0fb0721619b474d0","freq","img/orange_2bandit_b2.png","70","70","test","1","30","30","2","",""
"null","138152","pSARL_v2","pSARL_v2bl2xrasr","5edeb6bc0fb0721619b474d0","freq_resp","img/orange_2bandit_b.png","70","70","test","","","","2","",""
"null","138314","pSARL_v2","pSARL_v2bl2xrasr","5edeb6bc0fb0721619b474d0","fixation","img/fixation.png","null","","test","","","","","",""
"239.69999998807907","138559","pSARL_v2","pSARL_v2bl2xrasr","5edeb6bc0fb0721619b474d0","freq","img/orange_2bandit_b2.png","70","70","test","1","31","31","2","",""
"null","139140","pSARL_v2","pSARL_v2bl2xrasr","5edeb6bc0fb0721619b474d0","freq_resp","img/orange_2bandit_b.png","70","70","test","","","","2","",""
"null","139299","pSARL_v2","pSARL_v2bl2xrasr","5edeb6bc0fb0721619b474d0","fixation","img/fixation.png","null","","test","","","","","",""
"251.30000001192093","139556","pSARL_v2","pSARL_v2bl2xrasr","5edeb6bc0fb0721619b474d0","freq","img/orange_2bandit_b2.png","70","70","test","1","32","32","2","",""
"null","140125","pSARL_v2","pSARL_v2bl2xrasr","5edeb6bc0fb0721619b474d0","freq_resp","img/orange_2bandit_b.png","70","70","test","","","","2","",""
"null","140282","pSARL_v2","pSARL_v2bl2xrasr","5edeb6bc0fb0721619b474d0","fixation","img/fixation.png","null","","test","","","","","",""
"255.10000002384186","140544","pSARL_v2","pSARL_v2bl2xrasr","5edeb6bc0fb0721619b474d0","freq","img/orange_2bandit_b2.png","70","70","test","1","33","33","2","",""
"null","141109","pSARL_v2","pSARL_v2bl2xrasr","5edeb6bc0fb0721619b474d0","freq_resp","img/orange_2bandit_b.png","70","70","test","","","","2","",""
"null","141267","pSARL_v2","pSARL_v2bl2xrasr","5edeb6bc0fb0721619b474d0","fixation","img/fixation.png","null","","test","","","","","",""
"237.5999999642372","141512","pSARL_v2","pSARL_v2bl2xrasr","5edeb6bc0fb0721619b474d0","freq","img/orange_2bandit_b2.png","70","70","test","1","34","34","2","",""
"null","142093","pSARL_v2","pSARL_v2bl2xrasr","5edeb6bc0fb0721619b474d0","freq_resp","img/orange_2bandit_b.png","70","70","test","","","","2","",""
"null","142253","pSARL_v2","pSARL_v2bl2xrasr","5edeb6bc0fb0721619b474d0","fixation","img/fixation.png","null","","test","","","","","",""
"243.29999995231628","142503","pSARL_v2","pSARL_v2bl2xrasr","5edeb6bc0fb0721619b474d0","freq","img/orange_2bandit_b2.png","70","70","test","1","35","35","2","",""
"null","143076","pSARL_v2","pSARL_v2bl2xrasr","5edeb6bc0fb0721619b474d0","freq_resp","img/orange_2bandit_b.png","70","70","test","","","","2","",""
"null","143236","pSARL_v2","pSARL_v2bl2xrasr","5edeb6bc0fb0721619b474d0","fixation","img/fixation.png","null","","test","","","","","",""
"197.19999998807907","143440","pSARL_v2","pSARL_v2bl2xrasr","5edeb6bc0fb0721619b474d0","infreq","img/green_2bandit_b2.png","70","68","test","0","36","36","2","",""
"null","144061","pSARL_v2","pSARL_v2bl2xrasr","5edeb6bc0fb0721619b474d0","infreq_resp","img/green_2bandit_b.png","70","68","test","","","","2","",""
"null","144220","pSARL_v2","pSARL_v2bl2xrasr","5edeb6bc0fb0721619b474d0","fixation","img/fixation.png","null","","test","","","","","",""
"365","144592","pSARL_v2","pSARL_v2bl2xrasr","5edeb6bc0fb0721619b474d0","freq","img/orange_2bandit_b2.png","70","70","test","1","37","37","2","",""
"null","145042","pSARL_v2","pSARL_v2bl2xrasr","5edeb6bc0fb0721619b474d0","freq_resp","img/orange_2bandit_b.png","70","70","test","","","","2","",""
"null","145205","pSARL_v2","pSARL_v2bl2xrasr","5edeb6bc0fb0721619b474d0","fixation","img/fixation.png","null","","test","","","","","",""
"379.60000002384186","145591","pSARL_v2","pSARL_v2bl2xrasr","5edeb6bc0fb0721619b474d0","freq","img/orange_2bandit_b2.png","70","70","test","1","38","38","2","",""
"null","146027","pSARL_v2","pSARL_v2bl2xrasr","5edeb6bc0fb0721619b474d0","freq_resp","img/orange_2bandit_b.png","70","70","test","","","","2","",""
"null","146190","pSARL_v2","pSARL_v2bl2xrasr","5edeb6bc0fb0721619b474d0","fixation","img/fixation.png","null","","test","","","","","",""
"259.19999998807907","146455","pSARL_v2","pSARL_v2bl2xrasr","5edeb6bc0fb0721619b474d0","freq","img/orange_2bandit_b2.png","70","70","test","1","39","39","2","",""
"null","147014","pSARL_v2","pSARL_v2bl2xrasr","5edeb6bc0fb0721619b474d0","freq_resp","img/orange_2bandit_b.png","70","70","test","","","","2","",""
"null","147174","pSARL_v2","pSARL_v2bl2xrasr","5edeb6bc0fb0721619b474d0","fixation","img/fixation.png","null","","test","","","","","",""
"267.60000002384186","147449","pSARL_v2","pSARL_v2bl2xrasr","5edeb6bc0fb0721619b474d0","freq","img/orange_2bandit_b2.png","70","70","test","1","40","40","2","",""
"null","147992","pSARL_v2","pSARL_v2bl2xrasr","5edeb6bc0fb0721619b474d0","freq_resp","img/orange_2bandit_b.png","70","70","test","","","","2","",""
"null","148157","pSARL_v2","pSARL_v2bl2xrasr","5edeb6bc0fb0721619b474d0","fixation","img/fixation.png","null","","test","","","","","",""
"275.80000001192093","148439","pSARL_v2","pSARL_v2bl2xrasr","5edeb6bc0fb0721619b474d0","freq","img/orange_2bandit_b2.png","70","70","test","1","41","41","2","",""
"null","148977","pSARL_v2","pSARL_v2bl2xrasr","5edeb6bc0fb0721619b474d0","freq_resp","img/orange_2bandit_b.png","70","70","test","","","","2","",""
"null","149142","pSARL_v2","pSARL_v2bl2xrasr","5edeb6bc0fb0721619b474d0","fixation","img/fixation.png","null","","test","","","","","",""
"274.5","149423","pSARL_v2","pSARL_v2bl2xrasr","5edeb6bc0fb0721619b474d0","freq","img/orange_2bandit_b2.png","70","70","test","1","42","42","2","",""
"null","149961","pSARL_v2","pSARL_v2bl2xrasr","5edeb6bc0fb0721619b474d0","freq_resp","img/orange_2bandit_b.png","70","70","test","","","","2","",""
"null","150127","pSARL_v2","pSARL_v2bl2xrasr","5edeb6bc0fb0721619b474d0","fixation","img/fixation.png","null","","test","","","","","",""
"280.5","150414","pSARL_v2","pSARL_v2bl2xrasr","5edeb6bc0fb0721619b474d0","freq","img/orange_2bandit_b2.png","70","70","test","1","43","43","2","",""
"null","150944","pSARL_v2","pSARL_v2bl2xrasr","5edeb6bc0fb0721619b474d0","freq_resp","img/orange_2bandit_b.png","70","70","test","","","","2","",""
"null","151110","pSARL_v2","pSARL_v2bl2xrasr","5edeb6bc0fb0721619b474d0","fixation","img/fixation.png","null","","test","","","","","",""
"491.39999997615814","151608","pSARL_v2","pSARL_v2bl2xrasr","5edeb6bc0fb0721619b474d0","reward","img/slot.png","74","","test","","","","","",""
"null","152369","pSARL_v2","pSARL_v2bl2xrasr","5edeb6bc0fb0721619b474d0","points","<div class=""verylowPoints""> -11 </div>","null","na","test","","","","2","-11","1"
"528.4000000357628","152903","pSARL_v2","pSARL_v2bl2xrasr","5edeb6bc0fb0721619b474d0","freq","img/orange_2bandit_b2.png","70","70","test","1","44","44","3","",""
"null","153193","pSARL_v2","pSARL_v2bl2xrasr","5edeb6bc0fb0721619b474d0","freq_resp","img/orange_2bandit_b.png","70","70","test","","","","3","",""
"null","153362","pSARL_v2","pSARL_v2bl2xrasr","5edeb6bc0fb0721619b474d0","fixation","img/fixation.png","null","","test","","","","","",""
"335","153703","pSARL_v2","pSARL_v2bl2xrasr","5edeb6bc0fb0721619b474d0","freq","img/orange_2bandit_b2.png","70","70","test","1","45","45","3","",""
"null","154184","pSARL_v2","pSARL_v2bl2xrasr","5edeb6bc0fb0721619b474d0","freq_resp","img/orange_2bandit_b.png","70","70","test","","","","3","",""
"null","154348","pSARL_v2","pSARL_v2bl2xrasr","5edeb6bc0fb0721619b474d0","fixation","img/fixation.png","null","","test","","","","","",""
"301.69999998807907","154656","pSARL_v2","pSARL_v2bl2xrasr","5edeb6bc0fb0721619b474d0","freq","img/orange_2bandit_b2.png","70","70","test","1","46","46","3","",""
"null","155165","pSARL_v2","pSARL_v2bl2xrasr","5edeb6bc0fb0721619b474d0","freq_resp","img/orange_2bandit_b.png","70","70","test","","","","3","",""
"null","155332","pSARL_v2","pSARL_v2bl2xrasr","5edeb6bc0fb0721619b474d0","fixation","img/fixation.png","null","","test","","","","","",""
"276.5","155615","pSARL_v2","pSARL_v2bl2xrasr","5edeb6bc0fb0721619b474d0","freq","img/orange_2bandit_b2.png","70","70","test","1","47","47","3","",""
"null","156150","pSARL_v2","pSARL_v2bl2xrasr","5edeb6bc0fb0721619b474d0","freq_resp","img/orange_2bandit_b.png","70","70","test","","","","3","",""
"null","156317","pSARL_v2","pSARL_v2bl2xrasr","5edeb6bc0fb0721619b474d0","fixation","img/fixation.png","null","","test","","","","","",""
"284.5","156607","pSARL_v2","pSARL_v2bl2xrasr","5edeb6bc0fb0721619b474d0","freq","img/orange_2bandit_b2.png","70","70","test","1","48","48","3","",""
"null","157132","pSARL_v2","pSARL_v2bl2xrasr","5edeb6bc0fb0721619b474d0","freq_resp","img/orange_2bandit_b.png","70","70","test","","","","3","",""
"null","157301","pSARL_v2","pSARL_v2bl2xrasr","5edeb6bc0fb0721619b474d0","fixation","img/fixation.png","null","","test","","","","","",""
"267.0999999642372","157575","pSARL_v2","pSARL_v2bl2xrasr","5edeb6bc0fb0721619b474d0","freq","img/orange_2bandit_b2.png","70","70","test","1","49","49","3","",""
"null","158116","pSARL_v2","pSARL_v2bl2xrasr","5edeb6bc0fb0721619b474d0","freq_resp","img/orange_2bandit_b.png","70","70","test","","","","3","",""
"null","158285","pSARL_v2","pSARL_v2bl2xrasr","5edeb6bc0fb0721619b474d0","fixation","img/fixation.png","null","","test","","","","","",""
"267.9000000357628","158558","pSARL_v2","pSARL_v2bl2xrasr","5edeb6bc0fb0721619b474d0","freq","img/orange_2bandit_b2.png","70","70","test","1","50","50","3","",""
"null","159110","pSARL_v2","pSARL_v2bl2xrasr","5edeb6bc0fb0721619b474d0","freq_resp","img/orange_2bandit_b.png","70","70","test","","","","3","",""
"null","159268","pSARL_v2","pSARL_v2bl2xrasr","5edeb6bc0fb0721619b474d0","fixation","img/fixation.png","null","","test","","","","","",""
"260.69999998807907","159537","pSARL_v2","pSARL_v2bl2xrasr","5edeb6bc0fb0721619b474d0","freq","img/orange_2bandit_b2.png","70","70","test","1","51","51","3","",""
"null","160087","pSARL_v2","pSARL_v2bl2xrasr","5edeb6bc0fb0721619b474d0","freq_resp","img/orange_2bandit_b.png","70","70","test","","","","3","",""
"null","160253","pSARL_v2","pSARL_v2bl2xrasr","5edeb6bc0fb0721619b474d0","fixation","img/fixation.png","null","","test","","","","","",""
"319","160580","pSARL_v2","pSARL_v2bl2xrasr","5edeb6bc0fb0721619b474d0","freq","img/orange_2bandit_b2.png","70","70","test","1","52","52","3","",""
"null","161071","pSARL_v2","pSARL_v2bl2xrasr","5edeb6bc0fb0721619b474d0","freq_resp","img/orange_2bandit_b.png","70","70","test","","","","3","",""
"null","161238","pSARL_v2","pSARL_v2bl2xrasr","5edeb6bc0fb0721619b474d0","fixation","img/fixation.png","null","","test","","","","","",""
"299.19999998807907","161542","pSARL_v2","pSARL_v2bl2xrasr","5edeb6bc0fb0721619b474d0","freq","img/orange_2bandit_b2.png","70","70","test","1","53","53","3","",""
"null","162056","pSARL_v2","pSARL_v2bl2xrasr","5edeb6bc0fb0721619b474d0","freq_resp","img/orange_2bandit_b.png","70","70","test","","","","3","",""
"null","162220","pSARL_v2","pSARL_v2bl2xrasr","5edeb6bc0fb0721619b474d0","fixation","img/fixation.png","null","","test","","","","","",""
"365.0999999642372","162590","pSARL_v2","pSARL_v2bl2xrasr","5edeb6bc0fb0721619b474d0","freq","img/orange_2bandit_b2.png","70","70","test","1","54","54","3","",""
"null","163042","pSARL_v2","pSARL_v2bl2xrasr","5edeb6bc0fb0721619b474d0","freq_resp","img/orange_2bandit_b.png","70","70","test","","","","3","",""
"null","163206","pSARL_v2","pSARL_v2bl2xrasr","5edeb6bc0fb0721619b474d0","fixation","img/fixation.png","null","","test","","","","","",""
"347.5999999642372","163559","pSARL_v2","pSARL_v2bl2xrasr","5edeb6bc0fb0721619b474d0","freq","img/orange_2bandit_b2.png","70","70","test","1","55","55","3","",""
"null","164025","pSARL_v2","pSARL_v2bl2xrasr","5edeb6bc0fb0721619b474d0","freq_resp","img/orange_2bandit_b.png","70","70","test","","","","3","",""
"null","164190","pSARL_v2","pSARL_v2bl2xrasr","5edeb6bc0fb0721619b474d0","fixation","img/fixation.png","null","","test","","","","","",""
"387.0999999642372","164582","pSARL_v2","pSARL_v2bl2xrasr","5edeb6bc0fb0721619b474d0","freq","img/orange_2bandit_b2.png","70","70","test","1","56","56","3","",""
"null","165012","pSARL_v2","pSARL_v2bl2xrasr","5edeb6bc0fb0721619b474d0","freq_resp","img/orange_2bandit_b.png","70","70","test","","","","3","",""
"null","165174","pSARL_v2","pSARL_v2bl2xrasr","5edeb6bc0fb0721619b474d0","fixation","img/fixation.png","null","","test","","","","","",""
"395.5","165577","pSARL_v2","pSARL_v2bl2xrasr","5edeb6bc0fb0721619b474d0","freq","img/orange_2bandit_b2.png","70","70","test","1","57","57","3","",""
"null","165998","pSARL_v2","pSARL_v2bl2xrasr","5edeb6bc0fb0721619b474d0","freq_resp","img/orange_2bandit_b.png","70","70","test","","","","3","",""
"null","166159","pSARL_v2","pSARL_v2bl2xrasr","5edeb6bc0fb0721619b474d0","fixation","img/fixation.png","null","","test","","","","","",""
"442.39999997615814","166607","pSARL_v2","pSARL_v2bl2xrasr","5edeb6bc0fb0721619b474d0","infreq","img/green_2bandit_b2.png","68","68","test","1","58","58","3","",""
"null","166984","pSARL_v2","pSARL_v2bl2xrasr","5edeb6bc0fb0721619b474d0","infreq_resp","img/green_2bandit_b.png","68","68","test","","","","3","",""
"null","167145","pSARL_v2","pSARL_v2bl2xrasr","5edeb6bc0fb0721619b474d0","fixation","img/fixation.png","null","","test","","","","","",""
"280.10000002384186","167431","pSARL_v2","pSARL_v2bl2xrasr","5edeb6bc0fb0721619b474d0","freq","img/orange_2bandit_b2.png","70","70","test","1","59","59","3","",""
"null","167973","pSARL_v2","pSARL_v2bl2xrasr","5edeb6bc0fb0721619b474d0","freq_resp","img/orange_2bandit_b.png","70","70","test","","","","3","",""
"null","168143","pSARL_v2","pSARL_v2bl2xrasr","5edeb6bc0fb0721619b474d0","fixation","img/fixation.png","null","","test","","","","","",""
"217.4000000357628","168366","pSARL_v2","pSARL_v2bl2xrasr","5edeb6bc0fb0721619b474d0","freq","img/orange_2bandit_b2.png","70","70","test","1","60","60","3","",""
"null","168968","pSARL_v2","pSARL_v2bl2xrasr","5edeb6bc0fb0721619b474d0","freq_resp","img/orange_2bandit_b.png","70","70","test","","","","3","",""
"null","169129","pSARL_v2","pSARL_v2bl2xrasr","5edeb6bc0fb0721619b474d0","fixation","img/fixation.png","null","","test","","","","","",""
"263.7999999523163","169399","pSARL_v2","pSARL_v2bl2xrasr","5edeb6bc0fb0721619b474d0","freq","img/orange_2bandit_b2.png","70","70","test","1","61","61","3","",""
"null","169954","pSARL_v2","pSARL_v2bl2xrasr","5edeb6bc0fb0721619b474d0","freq_resp","img/orange_2bandit_b.png","70","70","test","","","","3","",""
"null","170112","pSARL_v2","pSARL_v2bl2xrasr","5edeb6bc0fb0721619b474d0","fixation","img/fixation.png","null","","test","","","","","",""
"241","170361","pSARL_v2","pSARL_v2bl2xrasr","5edeb6bc0fb0721619b474d0","freq","img/orange_2bandit_b2.png","70","70","test","1","62","62","3","",""
"null","170938","pSARL_v2","pSARL_v2bl2xrasr","5edeb6bc0fb0721619b474d0","freq_resp","img/orange_2bandit_b.png","70","70","test","","","","3","",""
"null","171099","pSARL_v2","pSARL_v2bl2xrasr","5edeb6bc0fb0721619b474d0","fixation","img/fixation.png","null","","test","","","","","",""
"195.10000002384186","171300","pSARL_v2","pSARL_v2bl2xrasr","5edeb6bc0fb0721619b474d0","freq","img/orange_2bandit_b2.png","70","70","test","1","63","63","3","",""
"null","171922","pSARL_v2","pSARL_v2bl2xrasr","5edeb6bc0fb0721619b474d0","freq_resp","img/orange_2bandit_b.png","70","70","test","","","","3","",""
"null","172082","pSARL_v2","pSARL_v2bl2xrasr","5edeb6bc0fb0721619b474d0","fixation","img/fixation.png","null","","test","","","","","",""
"231.0999999642372","172320","pSARL_v2","pSARL_v2bl2xrasr","5edeb6bc0fb0721619b474d0","freq","img/orange_2bandit_b2.png","70","70","test","1","64","64","3","",""
"null","172906","pSARL_v2","pSARL_v2bl2xrasr","5edeb6bc0fb0721619b474d0","freq_resp","img/orange_2bandit_b.png","70","70","test","","","","3","",""
"null","173066","pSARL_v2","pSARL_v2bl2xrasr","5edeb6bc0fb0721619b474d0","fixation","img/fixation.png","null","","test","","","","","",""
"254.9000000357628","173327","pSARL_v2","pSARL_v2bl2xrasr","5edeb6bc0fb0721619b474d0","infreq","img/green_2bandit_b2.png","70","68","test","0","65","65","3","",""
"null","173884","pSARL_v2","pSARL_v2bl2xrasr","5edeb6bc0fb0721619b474d0","infreq_resp","img/green_2bandit_b.png","70","68","test","","","","3","",""
"null","174048","pSARL_v2","pSARL_v2bl2xrasr","5edeb6bc0fb0721619b474d0","fixation","img/fixation.png","null","","test","","","","","",""
"473.80000001192093","174528","pSARL_v2","pSARL_v2bl2xrasr","5edeb6bc0fb0721619b474d0","freq","img/orange_2bandit_b2.png","70","70","test","1","66","66","3","",""
"null","174877","pSARL_v2","pSARL_v2bl2xrasr","5edeb6bc0fb0721619b474d0","freq_resp","img/orange_2bandit_b.png","70","70","test","","","","3","",""
"null","175035","pSARL_v2","pSARL_v2bl2xrasr","5edeb6bc0fb0721619b474d0","fixation","img/fixation.png","null","","test","","","","","",""
"502.60000002384186","175544","pSARL_v2","pSARL_v2bl2xrasr","5edeb6bc0fb0721619b474d0","reward","img/slot.png","74","","test","","","","","",""
"null","176312","pSARL_v2","pSARL_v2bl2xrasr","5edeb6bc0fb0721619b474d0","points","<div class=""verylowPoints""> -7 </div>","null","na","test","","","","3","-7","2"
"449.89999997615814","176771","pSARL_v2","pSARL_v2bl2xrasr","5edeb6bc0fb0721619b474d0","freq","img/orange_2bandit_b2.png","70","70","test","1","67","67","4","",""
"null","177143","pSARL_v2","pSARL_v2bl2xrasr","5edeb6bc0fb0721619b474d0","freq_resp","img/orange_2bandit_b.png","70","70","test","","","","4","",""
"null","177302","pSARL_v2","pSARL_v2bl2xrasr","5edeb6bc0fb0721619b474d0","fixation","img/fixation.png","null","","test","","","","","",""
"259.5","177569","pSARL_v2","pSARL_v2bl2xrasr","5edeb6bc0fb0721619b474d0","freq","img/orange_2bandit_b2.png","70","70","test","1","68","68","4","",""
"null","178119","pSARL_v2","pSARL_v2bl2xrasr","5edeb6bc0fb0721619b474d0","freq_resp","img/orange_2bandit_b.png","70","70","test","","","","4","",""
"null","178289","pSARL_v2","pSARL_v2bl2xrasr","5edeb6bc0fb0721619b474d0","fixation","img/fixation.png","null","","test","","","","","",""
"96.09999996423721","178391","pSARL_v2","pSARL_v2bl2xrasr","5edeb6bc0fb0721619b474d0","freq","img/orange_2bandit_b2.png","70","70","test","1","69","69","4","",""
"null","179106","pSARL_v2","pSARL_v2bl2xrasr","5edeb6bc0fb0721619b474d0","freq_resp","img/orange_2bandit_b.png","70","70","test","","","","4","",""
"null","179271","pSARL_v2","pSARL_v2bl2xrasr","5edeb6bc0fb0721619b474d0","fixation","img/fixation.png","null","","test","","","","","",""
"113.60000002384186","179391","pSARL_v2","pSARL_v2bl2xrasr","5edeb6bc0fb0721619b474d0","freq","img/orange_2bandit_b2.png","70","70","test","1","70","70","4","",""
"null","180096","pSARL_v2","pSARL_v2bl2xrasr","5edeb6bc0fb0721619b474d0","freq_resp","img/orange_2bandit_b.png","70","70","test","","","","4","",""
"null","180255","pSARL_v2","pSARL_v2bl2xrasr","5edeb6bc0fb0721619b474d0","fixation","img/fixation.png","null","","test","","","","","",""
"218","180479","pSARL_v2","pSARL_v2bl2xrasr","5edeb6bc0fb0721619b474d0","freq","img/orange_2bandit_b2.png","70","70","test","1","71","71","4","",""
"null","181082","pSARL_v2","pSARL_v2bl2xrasr","5edeb6bc0fb0721619b474d0","freq_resp","img/orange_2bandit_b.png","70","70","test","","","","4","",""
"null","181240","pSARL_v2","pSARL_v2bl2xrasr","5edeb6bc0fb0721619b474d0","fixation","img/fixation.png","null","","test","","","","","",""
"229.69999998807907","181476","pSARL_v2","pSARL_v2bl2xrasr","5edeb6bc0fb0721619b474d0","freq","img/orange_2bandit_b2.png","70","70","test","1","72","72","4","",""
"null","182063","pSARL_v2","pSARL_v2bl2xrasr","5edeb6bc0fb0721619b474d0","freq_resp","img/orange_2bandit_b.png","70","70","test","","","","4","",""
"null","182225","pSARL_v2","pSARL_v2bl2xrasr","5edeb6bc0fb0721619b474d0","fixation","img/fixation.png","null","","test","","","","","",""
"200.69999998807907","182432","pSARL_v2","pSARL_v2bl2xrasr","5edeb6bc0fb0721619b474d0","freq","img/orange_2bandit_b2.png","70","70","test","1","73","73","4","",""
"null","183049","pSARL_v2","pSARL_v2bl2xrasr","5edeb6bc0fb0721619b474d0","freq_resp","img/orange_2bandit_b.png","70","70","test","","","","4","",""
"null","183211","pSARL_v2","pSARL_v2bl2xrasr","5edeb6bc0fb0721619b474d0","fixation","img/fixation.png","null","","test","","","","","",""
"263","183481","pSARL_v2","pSARL_v2bl2xrasr","5edeb6bc0fb0721619b474d0","infreq","img/green_2bandit_b2.png","70","68","test","0","74","74","4","",""
"null","184036","pSARL_v2","pSARL_v2bl2xrasr","5edeb6bc0fb0721619b474d0","infreq_resp","img/green_2bandit_b.png","70","68","test","","","","4","",""
"null","184195","pSARL_v2","pSARL_v2bl2xrasr","5edeb6bc0fb0721619b474d0","fixation","img/fixation.png","null","","test","","","","","",""
"294.5999999642372","184495","pSARL_v2","pSARL_v2bl2xrasr","5edeb6bc0fb0721619b474d0","freq","img/orange_2bandit_b2.png","70","70","test","1","75","75","4","",""
"null","185013","pSARL_v2","pSARL_v2bl2xrasr","5edeb6bc0fb0721619b474d0","freq_resp","img/orange_2bandit_b.png","70","70","test","","","","4","",""
"null","185178","pSARL_v2","pSARL_v2bl2xrasr","5edeb6bc0fb0721619b474d0","fixation","img/fixation.png","null","","test","","","","","",""
"215.5","185399","pSARL_v2","pSARL_v2bl2xrasr","5edeb6bc0fb0721619b474d0","freq","img/orange_2bandit_b2.png","70","70","test","1","76","76","4","",""
"null","186002","pSARL_v2","pSARL_v2bl2xrasr","5edeb6bc0fb0721619b474d0","freq_resp","img/orange_2bandit_b.png","70","70","test","","","","4","",""
"null","186163","pSARL_v2","pSARL_v2bl2xrasr","5edeb6bc0fb0721619b474d0","fixation","img/fixation.png","null","","test","","","","","",""
"302.19999998807907","186472","pSARL_v2","pSARL_v2bl2xrasr","5edeb6bc0fb0721619b474d0","freq","img/orange_2bandit_b2.png","70","70","test","1","77","77","4","",""
"null","186983","pSARL_v2","pSARL_v2bl2xrasr","5edeb6bc0fb0721619b474d0","freq_resp","img/orange_2bandit_b.png","70","70","test","","","","4","",""
"null","187147","pSARL_v2","pSARL_v2bl2xrasr","5edeb6bc0fb0721619b474d0","fixation","img/fixation.png","null","","test","","","","","",""
"271.30000001192093","187424","pSARL_v2","pSARL_v2bl2xrasr","5edeb6bc0fb0721619b474d0","freq","img/orange_2bandit_b2.png","70","70","test","1","78","78","4","",""
"null","187963","pSARL_v2","pSARL_v2bl2xrasr","5edeb6bc0fb0721619b474d0","freq_resp","img/orange_2bandit_b.png","70","70","test","","","","4","",""
"null","188132","pSARL_v2","pSARL_v2bl2xrasr","5edeb6bc0fb0721619b474d0","fixation","img/fixation.png","null","","test","","","","","",""
"190.5","188329","pSARL_v2","pSARL_v2bl2xrasr","5edeb6bc0fb0721619b474d0","freq","img/orange_2bandit_b2.png","70","70","test","1","79","79","4","",""
"null","188954","pSARL_v2","pSARL_v2bl2xrasr","5edeb6bc0fb0721619b474d0","freq_resp","img/orange_2bandit_b.png","70","70","test","","","","4","",""
"null","189116","pSARL_v2","pSARL_v2bl2xrasr","5edeb6bc0fb0721619b474d0","fixation","img/fixation.png","null","","test","","","","","",""
"133.69999998807907","189255","pSARL_v2","pSARL_v2bl2xrasr","5edeb6bc0fb0721619b474d0","freq","img/orange_2bandit_b2.png","70","70","test","1","80","80","4","",""
"null","189938","pSARL_v2","pSARL_v2bl2xrasr","5edeb6bc0fb0721619b474d0","freq_resp","img/orange_2bandit_b.png","70","70","test","","","","4","",""
"null","190101","pSARL_v2","pSARL_v2bl2xrasr","5edeb6bc0fb0721619b474d0","fixation","img/fixation.png","null","","test","","","","","",""
"228.60000002384186","190337","pSARL_v2","pSARL_v2bl2xrasr","5edeb6bc0fb0721619b474d0","freq","img/orange_2bandit_b2.png","70","70","test","1","81","81","4","",""
"null","190922","pSARL_v2","pSARL_v2bl2xrasr","5edeb6bc0fb0721619b474d0","freq_resp","img/orange_2bandit_b.png","70","70","test","","","","4","",""
"null","191085","pSARL_v2","pSARL_v2bl2xrasr","5edeb6bc0fb0721619b474d0","fixation","img/fixation.png","null","","test","","","","","",""
"237","191329","pSARL_v2","pSARL_v2bl2xrasr","5edeb6bc0fb0721619b474d0","freq","img/orange_2bandit_b2.png","70","70","test","1","82","82","4","",""
"null","191911","pSARL_v2","pSARL_v2bl2xrasr","5edeb6bc0fb0721619b474d0","freq_resp","img/orange_2bandit_b.png","70","70","test","","","","4","",""
"null","192069","pSARL_v2","pSARL_v2bl2xrasr","5edeb6bc0fb0721619b474d0","fixation","img/fixation.png","null","","test","","","","","",""
"290.39999997615814","192366","pSARL_v2","pSARL_v2bl2xrasr","5edeb6bc0fb0721619b474d0","freq","img/orange_2bandit_b2.png","70","70","test","1","83","83","4","",""
"null","192889","pSARL_v2","pSARL_v2bl2xrasr","5edeb6bc0fb0721619b474d0","freq_resp","img/orange_2bandit_b.png","70","70","test","","","","4","",""
"null","193053","pSARL_v2","pSARL_v2bl2xrasr","5edeb6bc0fb0721619b474d0","fixation","img/fixation.png","null","","test","","","","","",""
"357.0999999642372","193416","pSARL_v2","pSARL_v2bl2xrasr","5edeb6bc0fb0721619b474d0","infreq","img/green_2bandit_b2.png","68","68","test","1","84","84","4","",""
"null","193873","pSARL_v2","pSARL_v2bl2xrasr","5edeb6bc0fb0721619b474d0","infreq_resp","img/green_2bandit_b.png","68","68","test","","","","4","",""
"null","194036","pSARL_v2","pSARL_v2bl2xrasr","5edeb6bc0fb0721619b474d0","fixation","img/fixation.png","null","","test","","","","","",""
"278.30000001192093","194321","pSARL_v2","pSARL_v2bl2xrasr","5edeb6bc0fb0721619b474d0","freq","img/orange_2bandit_b2.png","70","70","test","1","85","85","4","",""
"null","194854","pSARL_v2","pSARL_v2bl2xrasr","5edeb6bc0fb0721619b474d0","freq_resp","img/orange_2bandit_b.png","70","70","test","","","","4","",""
"null","195023","pSARL_v2","pSARL_v2bl2xrasr","5edeb6bc0fb0721619b474d0","fixation","img/fixation.png","null","","test","","","","","",""
"211.5","195240","pSARL_v2","pSARL_v2bl2xrasr","5edeb6bc0fb0721619b474d0","freq","img/orange_2bandit_b2.png","70","70","test","1","86","86","4","",""
"null","195848","pSARL_v2","pSARL_v2bl2xrasr","5edeb6bc0fb0721619b474d0","freq_resp","img/orange_2bandit_b.png","70","70","test","","","","4","",""
"null","196007","pSARL_v2","pSARL_v2bl2xrasr","5edeb6bc0fb0721619b474d0","fixation","img/fixation.png","null","","test","","","","","",""
"291.0999999642372","196305","pSARL_v2","pSARL_v2bl2xrasr","5edeb6bc0fb0721619b474d0","freq","img/orange_2bandit_b2.png","70","70","test","1","87","87","4","",""
"null","196824","pSARL_v2","pSARL_v2bl2xrasr","5edeb6bc0fb0721619b474d0","freq_resp","img/orange_2bandit_b.png","70","70","test","","","","4","",""
"null","196991","pSARL_v2","pSARL_v2bl2xrasr","5edeb6bc0fb0721619b474d0","fixation","img/fixation.png","null","","test","","","","","",""
"195.30000001192093","197193","pSARL_v2","pSARL_v2bl2xrasr","5edeb6bc0fb0721619b474d0","freq","img/orange_2bandit_b2.png","70","70","test","1","88","88","4","",""
"null","197808","pSARL_v2","pSARL_v2bl2xrasr","5edeb6bc0fb0721619b474d0","freq_resp","img/orange_2bandit_b.png","70","70","test","","","","4","",""
"null","197975","pSARL_v2","pSARL_v2bl2xrasr","5edeb6bc0fb0721619b474d0","fixation","img/fixation.png","null","","test","","","","","",""
"155.19999998807907","198136","pSARL_v2","pSARL_v2bl2xrasr","5edeb6bc0fb0721619b474d0","freq","img/orange_2bandit_b2.png","70","70","test","1","89","89","4","",""
"null","198801","pSARL_v2","pSARL_v2bl2xrasr","5edeb6bc0fb0721619b474d0","freq_resp","img/orange_2bandit_b.png","70","70","test","","","","4","",""
"null","198958","pSARL_v2","pSARL_v2bl2xrasr","5edeb6bc0fb0721619b474d0","fixation","img/fixation.png","null","","test","","","","","",""
"131.80000001192093","199097","pSARL_v2","pSARL_v2bl2xrasr","5edeb6bc0fb0721619b474d0","freq","img/orange_2bandit_b2.png","70","70","test","1","90","90","4","",""
"null","199784","pSARL_v2","pSARL_v2bl2xrasr","5edeb6bc0fb0721619b474d0","freq_resp","img/orange_2bandit_b.png","70","70","test","","","","4","",""
"null","199943","pSARL_v2","pSARL_v2bl2xrasr","5edeb6bc0fb0721619b474d0","fixation","img/fixation.png","null","","test","","","","","",""
"322.4000000357628","200271","pSARL_v2","pSARL_v2bl2xrasr","5edeb6bc0fb0721619b474d0","freq","img/orange_2bandit_b2.png","70","70","test","1","91","91","4","",""
"null","200769","pSARL_v2","pSARL_v2bl2xrasr","5edeb6bc0fb0721619b474d0","freq_resp","img/orange_2bandit_b.png","70","70","test","","","","4","",""
"null","200938","pSARL_v2","pSARL_v2bl2xrasr","5edeb6bc0fb0721619b474d0","fixation","img/fixation.png","null","","test","","","","","",""
"608.5","201552","pSARL_v2","pSARL_v2bl2xrasr","5edeb6bc0fb0721619b474d0","reward","img/slot.png","74","","test","","","","","",""
"null","202319","pSARL_v2","pSARL_v2bl2xrasr","5edeb6bc0fb0721619b474d0","points","<div class=""verylowPoints""> -3 </div>","null","na","test","","","","4","-3","3"
"535.8000000119209","202861","pSARL_v2","pSARL_v2bl2xrasr","5edeb6bc0fb0721619b474d0","freq","img/orange_2bandit_b2.png","70","70","test","1","92","92","5","",""
"null","203144","pSARL_v2","pSARL_v2bl2xrasr","5edeb6bc0fb0721619b474d0","freq_resp","img/orange_2bandit_b.png","70","70","test","","","","5","",""
"null","203311","pSARL_v2","pSARL_v2bl2xrasr","5edeb6bc0fb0721619b474d0","fixation","img/fixation.png","null","","test","","","","","",""
"322.5","203641","pSARL_v2","pSARL_v2bl2xrasr","5edeb6bc0fb0721619b474d0","freq","img/orange_2bandit_b2.png","70","70","test","1","93","93","5","",""
"null","204139","pSARL_v2","pSARL_v2bl2xrasr","5edeb6bc0fb0721619b474d0","freq_resp","img/orange_2bandit_b.png","70","70","test","","","","5","",""
"null","204309","pSARL_v2","pSARL_v2bl2xrasr","5edeb6bc0fb0721619b474d0","fixation","img/fixation.png","null","","test","","","","","",""
"244.69999998807907","204560","pSARL_v2","pSARL_v2bl2xrasr","5edeb6bc0fb0721619b474d0","freq","img/orange_2bandit_b2.png","70","70","test","1","94","94","5","",""
"null","205134","pSARL_v2","pSARL_v2bl2xrasr","5edeb6bc0fb0721619b474d0","freq_resp","img/orange_2bandit_b.png","70","70","test","","","","5","",""
"null","205297","pSARL_v2","pSARL_v2bl2xrasr","5edeb6bc0fb0721619b474d0","fixation","img/fixation.png","null","","test","","","","","",""
"400.5","205705","pSARL_v2","pSARL_v2bl2xrasr","5edeb6bc0fb0721619b474d0","infreq","img/green_2bandit_b2.png","68","68","test","1","95","95","5","",""
"null","206114","pSARL_v2","pSARL_v2bl2xrasr","5edeb6bc0fb0721619b474d0","infreq_resp","img/green_2bandit_b.png","68","68","test","","","","5","",""
"null","206279","pSARL_v2","pSARL_v2bl2xrasr","5edeb6bc0fb0721619b474d0","fixation","img/fixation.png","null","","test","","","","","",""
"267","206553","pSARL_v2","pSARL_v2bl2xrasr","5edeb6bc0fb0721619b474d0","freq","img/orange_2bandit_b2.png","70","70","test","1","96","96","5","",""
"null","207105","pSARL_v2","pSARL_v2bl2xrasr","5edeb6bc0fb0721619b474d0","freq_resp","img/orange_2bandit_b.png","70","70","test","","","","5","",""
"null","207264","pSARL_v2","pSARL_v2bl2xrasr","5edeb6bc0fb0721619b474d0","fixation","img/fixation.png","null","","test","","","","","",""
"385.69999998807907","207656","pSARL_v2","pSARL_v2bl2xrasr","5edeb6bc0fb0721619b474d0","infreq","img/green_2bandit_b2.png","68","68","test","1","97","97","5","",""
"null","208081","pSARL_v2","pSARL_v2bl2xrasr","5edeb6bc0fb0721619b474d0","infreq_resp","img/green_2bandit_b.png","68","68","test","","","","5","",""
"null","208247","pSARL_v2","pSARL_v2bl2xrasr","5edeb6bc0fb0721619b474d0","fixation","img/fixation.png","null","","test","","","","","",""
"275.5","208528","pSARL_v2","pSARL_v2bl2xrasr","5edeb6bc0fb0721619b474d0","freq","img/orange_2bandit_b2.png","70","70","test","1","98","98","5","",""
"null","209075","pSARL_v2","pSARL_v2bl2xrasr","5edeb6bc0fb0721619b474d0","freq_resp","img/orange_2bandit_b.png","70","70","test","","","","5","",""
"null","209247","pSARL_v2","pSARL_v2bl2xrasr","5edeb6bc0fb0721619b474d0","fixation","img/fixation.png","null","","test","","","","","",""
"250.60000002384186","209504","pSARL_v2","pSARL_v2bl2xrasr","5edeb6bc0fb0721619b474d0","freq","img/orange_2bandit_b2.png","70","70","test","1","99","99","5","",""
"null","210076","pSARL_v2","pSARL_v2bl2xrasr","5edeb6bc0fb0721619b474d0","freq_resp","img/orange_2bandit_b.png","70","70","test","","","","5","",""
"null","210250","pSARL_v2","pSARL_v2bl2xrasr","5edeb6bc0fb0721619b474d0","fixation","img/fixation.png","null","","test","","","","","",""
"232","210488","pSARL_v2","pSARL_v2bl2xrasr","5edeb6bc0fb0721619b474d0","freq","img/orange_2bandit_b2.png","70","70","test","1","100","100","5","",""
"null","211073","pSARL_v2","pSARL_v2bl2xrasr","5edeb6bc0fb0721619b474d0","freq_resp","img/orange_2bandit_b.png","70","70","test","","","","5","",""
"null","211234","pSARL_v2","pSARL_v2bl2xrasr","5edeb6bc0fb0721619b474d0","fixation","img/fixation.png","null","","test","","","","","",""
"287.0999999642372","211527","pSARL_v2","pSARL_v2bl2xrasr","5edeb6bc0fb0721619b474d0","freq","img/orange_2bandit_b2.png","68","70","test","0","101","101","5","",""
"null","212046","pSARL_v2","pSARL_v2bl2xrasr","5edeb6bc0fb0721619b474d0","freq_resp","img/orange_2bandit_b.png","68","70","test","","","","5","",""
"null","212219","pSARL_v2","pSARL_v2bl2xrasr","5edeb6bc0fb0721619b474d0","fixation","img/fixation.png","null","","test","","","","","",""
"638.3000000119209","212863","pSARL_v2","pSARL_v2bl2xrasr","5edeb6bc0fb0721619b474d0","freq","img/orange_2bandit_b2.png","70","70","test","1","102","102","5","",""
"null","213035","pSARL_v2","pSARL_v2bl2xrasr","5edeb6bc0fb0721619b474d0","freq_resp","img/orange_2bandit_b.png","70","70","test","","","","5","",""
"null","213201","pSARL_v2","pSARL_v2bl2xrasr","5edeb6bc0fb0721619b474d0","fixation","img/fixation.png","null","","test","","","","","",""
"503","213710","pSARL_v2","pSARL_v2bl2xrasr","5edeb6bc0fb0721619b474d0","freq","img/orange_2bandit_b2.png","70","70","test","1","103","103","5","",""
"null","214027","pSARL_v2","pSARL_v2bl2xrasr","5edeb6bc0fb0721619b474d0","freq_resp","img/orange_2bandit_b.png","70","70","test","","","","5","",""
"null","214189","pSARL_v2","pSARL_v2bl2xrasr","5edeb6bc0fb0721619b474d0","fixation","img/fixation.png","null","","test","","","","","",""
"244.69999998807907","214440","pSARL_v2","pSARL_v2bl2xrasr","5edeb6bc0fb0721619b474d0","freq","img/orange_2bandit_b2.png","70","70","test","1","104","104","5","",""
"null","215012","pSARL_v2","pSARL_v2bl2xrasr","5edeb6bc0fb0721619b474d0","freq_resp","img/orange_2bandit_b.png","70","70","test","","","","5","",""
"null","215171","pSARL_v2","pSARL_v2bl2xrasr","5edeb6bc0fb0721619b474d0","fixation","img/fixation.png","null","","test","","","","","",""
"262.4000000357628","215440","pSARL_v2","pSARL_v2bl2xrasr","5edeb6bc0fb0721619b474d0","freq","img/orange_2bandit_b2.png","70","70","test","1","105","105","5","",""
"null","215996","pSARL_v2","pSARL_v2bl2xrasr","5edeb6bc0fb0721619b474d0","freq_resp","img/orange_2bandit_b.png","70","70","test","","","","5","",""
"null","216158","pSARL_v2","pSARL_v2bl2xrasr","5edeb6bc0fb0721619b474d0","fixation","img/fixation.png","null","","test","","","","","",""
"115.90000003576279","216279","pSARL_v2","pSARL_v2bl2xrasr","5edeb6bc0fb0721619b474d0","freq","img/orange_2bandit_b2.png","70","70","test","1","106","106","5","",""
"null","216976","pSARL_v2","pSARL_v2bl2xrasr","5edeb6bc0fb0721619b474d0","freq_resp","img/orange_2bandit_b.png","70","70","test","","","","5","",""
"null","217139","pSARL_v2","pSARL_v2bl2xrasr","5edeb6bc0fb0721619b474d0","fixation","img/fixation.png","null","","test","","","","","",""
"278.80000001192093","217424","pSARL_v2","pSARL_v2bl2xrasr","5edeb6bc0fb0721619b474d0","freq","img/orange_2bandit_b2.png","70","70","test","1","107","107","5","",""
"null","217966","pSARL_v2","pSARL_v2bl2xrasr","5edeb6bc0fb0721619b474d0","freq_resp","img/orange_2bandit_b.png","70","70","test","","","","5","",""
"null","218124","pSARL_v2","pSARL_v2bl2xrasr","5edeb6bc0fb0721619b474d0","fixation","img/fixation.png","null","","test","","","","","",""
"277.89999997615814","218408","pSARL_v2","pSARL_v2bl2xrasr","5edeb6bc0fb0721619b474d0","freq","img/orange_2bandit_b2.png","70","70","test","1","108","108","5","",""
"null","218951","pSARL_v2","pSARL_v2bl2xrasr","5edeb6bc0fb0721619b474d0","freq_resp","img/orange_2bandit_b.png","70","70","test","","","","5","",""
"null","219110","pSARL_v2","pSARL_v2bl2xrasr","5edeb6bc0fb0721619b474d0","fixation","img/fixation.png","null","","test","","","","","",""
"268.30000001192093","219384","pSARL_v2","pSARL_v2bl2xrasr","5edeb6bc0fb0721619b474d0","freq","img/orange_2bandit_b2.png","70","70","test","1","109","109","5","",""
"null","219933","pSARL_v2","pSARL_v2bl2xrasr","5edeb6bc0fb0721619b474d0","freq_resp","img/orange_2bandit_b.png","70","70","test","","","","5","",""
"null","220094","pSARL_v2","pSARL_v2bl2xrasr","5edeb6bc0fb0721619b474d0","fixation","img/fixation.png","null","","test","","","","","",""
"283.80000001192093","220384","pSARL_v2","pSARL_v2bl2xrasr","5edeb6bc0fb0721619b474d0","freq","img/orange_2bandit_b2.png","70","70","test","1","110","110","5","",""
"null","220925","pSARL_v2","pSARL_v2bl2xrasr","5edeb6bc0fb0721619b474d0","freq_resp","img/orange_2bandit_b.png","70","70","test","","","","5","",""
"null","221094","pSARL_v2","pSARL_v2bl2xrasr","5edeb6bc0fb0721619b474d0","fixation","img/fixation.png","null","","test","","","","","",""
"251.69999998807907","221352","pSARL_v2","pSARL_v2bl2xrasr","5edeb6bc0fb0721619b474d0","freq","img/orange_2bandit_b2.png","70","70","test","1","111","111","5","",""
"null","221917","pSARL_v2","pSARL_v2bl2xrasr","5edeb6bc0fb0721619b474d0","freq_resp","img/orange_2bandit_b.png","70","70","test","","","","5","",""
"null","222077","pSARL_v2","pSARL_v2bl2xrasr","5edeb6bc0fb0721619b474d0","fixation","img/fixation.png","null","","test","","","","","",""
"340.39999997615814","222424","pSARL_v2","pSARL_v2bl2xrasr","5edeb6bc0fb0721619b474d0","infreq","img/green_2bandit_b2.png","68","68","test","1","112","112","5","",""
"null","222892","pSARL_v2","pSARL_v2bl2xrasr","5edeb6bc0fb0721619b474d0","infreq_resp","img/green_2bandit_b.png","68","68","test","","","","5","",""
"null","223064","pSARL_v2","pSARL_v2bl2xrasr","5edeb6bc0fb0721619b474d0","fixation","img/fixation.png","null","","test","","","","","",""
"273.60000002384186","223344","pSARL_v2","pSARL_v2bl2xrasr","5edeb6bc0fb0721619b474d0","freq","img/orange_2bandit_b2.png","70","70","test","1","113","113","5","",""
"null","223891","pSARL_v2","pSARL_v2bl2xrasr","5edeb6bc0fb0721619b474d0","freq_resp","img/orange_2bandit_b.png","70","70","test","","","","5","",""
"null","224063","pSARL_v2","pSARL_v2bl2xrasr","5edeb6bc0fb0721619b474d0","fixation","img/fixation.png","null","","test","","","","","",""
"231.19999998807907","224301","pSARL_v2","pSARL_v2bl2xrasr","5edeb6bc0fb0721619b474d0","freq","img/orange_2bandit_b2.png","70","70","test","1","114","114","5","",""
"null","224890","pSARL_v2","pSARL_v2bl2xrasr","5edeb6bc0fb0721619b474d0","freq_resp","img/orange_2bandit_b.png","70","70","test","","","","5","",""
"null","225050","pSARL_v2","pSARL_v2bl2xrasr","5edeb6bc0fb0721619b474d0","fixation","img/fixation.png","null","","test","","","","","",""
"408","225464","pSARL_v2","pSARL_v2bl2xrasr","5edeb6bc0fb0721619b474d0","reward","img/slot.png","74","","test","","","","","",""
"null","226229","pSARL_v2","pSARL_v2bl2xrasr","5edeb6bc0fb0721619b474d0","points","<div class=""veryhighPoints""> +1 </div>","null","na","test","","","","5","1","4"
"493.30000001192093","226728","pSARL_v2","pSARL_v2bl2xrasr","5edeb6bc0fb0721619b474d0","freq","img/orange_2bandit_b2.png","70","70","test","1","115","115","6","",""
"null","227055","pSARL_v2","pSARL_v2bl2xrasr","5edeb6bc0fb0721619b474d0","freq_resp","img/orange_2bandit_b.png","70","70","test","","","","6","",""
"null","227217","pSARL_v2","pSARL_v2bl2xrasr","5edeb6bc0fb0721619b474d0","fixation","img/fixation.png","null","","test","","","","","",""
"280.30000001192093","227505","pSARL_v2","pSARL_v2bl2xrasr","5edeb6bc0fb0721619b474d0","freq","img/orange_2bandit_b2.png","70","70","test","1","116","116","6","",""
"null","228034","pSARL_v2","pSARL_v2bl2xrasr","5edeb6bc0fb0721619b474d0","freq_resp","img/orange_2bandit_b.png","70","70","test","","","","6","",""
"null","228199","pSARL_v2","pSARL_v2bl2xrasr","5edeb6bc0fb0721619b474d0","fixation","img/fixation.png","null","","test","","","","","",""
"282.4000000357628","228489","pSARL_v2","pSARL_v2bl2xrasr","5edeb6bc0fb0721619b474d0","freq","img/orange_2bandit_b2.png","70","70","test","1","117","117","6","",""
"null","229028","pSARL_v2","pSARL_v2bl2xrasr","5edeb6bc0fb0721619b474d0","freq_resp","img/orange_2bandit_b.png","70","70","test","","","","6","",""
"null","229186","pSARL_v2","pSARL_v2bl2xrasr","5edeb6bc0fb0721619b474d0","fixation","img/fixation.png","null","","test","","","","","",""
"255.9000000357628","229449","pSARL_v2","pSARL_v2bl2xrasr","5edeb6bc0fb0721619b474d0","freq","img/orange_2bandit_b2.png","70","70","test","1","118","118","6","",""
"null","230012","pSARL_v2","pSARL_v2bl2xrasr","5edeb6bc0fb0721619b474d0","freq_resp","img/orange_2bandit_b.png","70","70","test","","","","6","",""
"null","230185","pSARL_v2","pSARL_v2bl2xrasr","5edeb6bc0fb0721619b474d0","fixation","img/fixation.png","null","","test","","","","","",""
"393.19999998807907","230585","pSARL_v2","pSARL_v2bl2xrasr","5edeb6bc0fb0721619b474d0","infreq","img/green_2bandit_b2.png","68","68","test","1","119","119","6","",""
"null","231007","pSARL_v2","pSARL_v2bl2xrasr","5edeb6bc0fb0721619b474d0","infreq_resp","img/green_2bandit_b.png","68","68","test","","","","6","",""
"null","231171","pSARL_v2","pSARL_v2bl2xrasr","5edeb6bc0fb0721619b474d0","fixation","img/fixation.png","null","","test","","","","","",""
"286.80000001192093","231463","pSARL_v2","pSARL_v2bl2xrasr","5edeb6bc0fb0721619b474d0","freq","img/orange_2bandit_b2.png","70","70","test","1","120","120","6","",""
"null","231998","pSARL_v2","pSARL_v2bl2xrasr","5edeb6bc0fb0721619b474d0","freq_resp","img/orange_2bandit_b.png","70","70","test","","","","6","",""
"null","232171","pSARL_v2","pSARL_v2bl2xrasr","5edeb6bc0fb0721619b474d0","fixation","img/fixation.png","null","","test","","","","","",""
"238.5999999642372","232417","pSARL_v2","pSARL_v2bl2xrasr","5edeb6bc0fb0721619b474d0","freq","img/orange_2bandit_b2.png","70","70","test","1","121","121","6","",""
"null","232996","pSARL_v2","pSARL_v2bl2xrasr","5edeb6bc0fb0721619b474d0","freq_resp","img/orange_2bandit_b.png","70","70","test","","","","6","",""
"null","233157","pSARL_v2","pSARL_v2bl2xrasr","5edeb6bc0fb0721619b474d0","fixation","img/fixation.png","null","","test","","","","","",""
"228.69999998807907","233392","pSARL_v2","pSARL_v2bl2xrasr","5edeb6bc0fb0721619b474d0","freq","img/orange_2bandit_b2.png","70","70","test","1","122","122","6","",""
"null","233980","pSARL_v2","pSARL_v2bl2xrasr","5edeb6bc0fb0721619b474d0","freq_resp","img/orange_2bandit_b.png","70","70","test","","","","6","",""
"null","234142","pSARL_v2","pSARL_v2bl2xrasr","5edeb6bc0fb0721619b474d0","fixation","img/fixation.png","null","","test","","","","","",""
"272.5999999642372","234421","pSARL_v2","pSARL_v2bl2xrasr","5edeb6bc0fb0721619b474d0","freq","img/orange_2bandit_b2.png","70","70","test","1","123","123","6","",""
"null","234967","pSARL_v2","pSARL_v2bl2xrasr","5edeb6bc0fb0721619b474d0","freq_resp","img/orange_2bandit_b.png","70","70","test","","","","6","",""
"null","235125","pSARL_v2","pSARL_v2bl2xrasr","5edeb6bc0fb0721619b474d0","fixation","img/fixation.png","null","","test","","","","","",""
"236.5","235369","pSARL_v2","pSARL_v2bl2xrasr","5edeb6bc0fb0721619b474d0","freq","img/orange_2bandit_b2.png","70","70","test","1","124","124","6","",""
"null","235948","pSARL_v2","pSARL_v2bl2xrasr","5edeb6bc0fb0721619b474d0","freq_resp","img/orange_2bandit_b.png","70","70","test","","","","6","",""
"null","236110","pSARL_v2","pSARL_v2bl2xrasr","5edeb6bc0fb0721619b474d0","fixation","img/fixation.png","null","","test","","","","","",""
"163.5","236280","pSARL_v2","pSARL_v2bl2xrasr","5edeb6bc0fb0721619b474d0","freq","img/orange_2bandit_b2.png","70","70","test","1","125","125","6","",""
"null","236930","pSARL_v2","pSARL_v2bl2xrasr","5edeb6bc0fb0721619b474d0","freq_resp","img/orange_2bandit_b.png","70","70","test","","","","6","",""
"null","237094","pSARL_v2","pSARL_v2bl2xrasr","5edeb6bc0fb0721619b474d0","fixation","img/fixation.png","null","","test","","","","","",""
"227.5","237328","pSARL_v2","pSARL_v2bl2xrasr","5edeb6bc0fb0721619b474d0","freq","img/orange_2bandit_b2.png","70","70","test","1","126","126","6","",""
"null","237916","pSARL_v2","pSARL_v2bl2xrasr","5edeb6bc0fb0721619b474d0","freq_resp","img/orange_2bandit_b.png","70","70","test","","","","6","",""
"null","238076","pSARL_v2","pSARL_v2bl2xrasr","5edeb6bc0fb0721619b474d0","fixation","img/fixation.png","null","","test","","","","","",""
"269.60000002384186","238353","pSARL_v2","pSARL_v2bl2xrasr","5edeb6bc0fb0721619b474d0","freq","img/orange_2bandit_b2.png","70","70","test","1","127","127","6","",""
"null","238904","pSARL_v2","pSARL_v2bl2xrasr","5edeb6bc0fb0721619b474d0","freq_resp","img/orange_2bandit_b.png","70","70","test","","","","6","",""
"null","239063","pSARL_v2","pSARL_v2bl2xrasr","5edeb6bc0fb0721619b474d0","fixation","img/fixation.png","null","","test","","","","","",""
"258.39999997615814","239328","pSARL_v2","pSARL_v2bl2xrasr","5edeb6bc0fb0721619b474d0","freq","img/orange_2bandit_b2.png","70","70","test","1","128","128","6","",""
"null","239886","pSARL_v2","pSARL_v2bl2xrasr","5edeb6bc0fb0721619b474d0","freq_resp","img/orange_2bandit_b.png","70","70","test","","","","6","",""
"null","240048","pSARL_v2","pSARL_v2bl2xrasr","5edeb6bc0fb0721619b474d0","fixation","img/fixation.png","null","","test","","","","","",""
"225.60000002384186","240282","pSARL_v2","pSARL_v2bl2xrasr","5edeb6bc0fb0721619b474d0","freq","img/orange_2bandit_b2.png","70","70","test","1","129","129","6","",""
"null","240869","pSARL_v2","pSARL_v2bl2xrasr","5edeb6bc0fb0721619b474d0","freq_resp","img/orange_2bandit_b.png","70","70","test","","","","6","",""
"null","241031","pSARL_v2","pSARL_v2bl2xrasr","5edeb6bc0fb0721619b474d0","fixation","img/fixation.png","null","","test","","","","","",""
"226.60000002384186","241263","pSARL_v2","pSARL_v2bl2xrasr","5edeb6bc0fb0721619b474d0","freq","img/orange_2bandit_b2.png","70","70","test","1","130","130","6","",""
"null","241854","pSARL_v2","pSARL_v2bl2xrasr","5edeb6bc0fb0721619b474d0","freq_resp","img/orange_2bandit_b.png","70","70","test","","","","6","",""
"null","242015","pSARL_v2","pSARL_v2bl2xrasr","5edeb6bc0fb0721619b474d0","fixation","img/fixation.png","null","","test","","","","","",""
"226","242249","pSARL_v2","pSARL_v2bl2xrasr","5edeb6bc0fb0721619b474d0","infreq","img/green_2bandit_b2.png","70","68","test","0","131","131","6","",""
"null","242838","pSARL_v2","pSARL_v2bl2xrasr","5edeb6bc0fb0721619b474d0","infreq_resp","img/green_2bandit_b.png","70","68","test","","","","6","",""
"null","242999","pSARL_v2","pSARL_v2bl2xrasr","5edeb6bc0fb0721619b474d0","fixation","img/fixation.png","null","","test","","","","","",""
"258","243263","pSARL_v2","pSARL_v2bl2xrasr","5edeb6bc0fb0721619b474d0","freq","img/orange_2bandit_b2.png","70","70","test","1","132","132","6","",""
"null","243826","pSARL_v2","pSARL_v2bl2xrasr","5edeb6bc0fb0721619b474d0","freq_resp","img/orange_2bandit_b.png","70","70","test","","","","6","",""
"null","243984","pSARL_v2","pSARL_v2bl2xrasr","5edeb6bc0fb0721619b474d0","fixation","img/fixation.png","null","","test","","","","","",""
"193.10000002384186","244185","pSARL_v2","pSARL_v2bl2xrasr","5edeb6bc0fb0721619b474d0","freq","img/orange_2bandit_b2.png","70","70","test","1","133","133","6","",""
"null","244805","pSARL_v2","pSARL_v2bl2xrasr","5edeb6bc0fb0721619b474d0","freq_resp","img/orange_2bandit_b.png","70","70","test","","","","6","",""
"null","244968","pSARL_v2","pSARL_v2bl2xrasr","5edeb6bc0fb0721619b474d0","fixation","img/fixation.png","null","","test","","","","","",""
"200","245175","pSARL_v2","pSARL_v2bl2xrasr","5edeb6bc0fb0721619b474d0","freq","img/orange_2bandit_b2.png","70","70","test","1","134","134","6","",""
"null","245788","pSARL_v2","pSARL_v2bl2xrasr","5edeb6bc0fb0721619b474d0","freq_resp","img/orange_2bandit_b.png","70","70","test","","","","6","",""
"null","245952","pSARL_v2","pSARL_v2bl2xrasr","5edeb6bc0fb0721619b474d0","fixation","img/fixation.png","null","","test","","","","","",""
"97.70000004768372","246056","pSARL_v2","pSARL_v2bl2xrasr","5edeb6bc0fb0721619b474d0","freq","img/orange_2bandit_b2.png","70","70","test","1","135","135","6","",""
"null","246771","pSARL_v2","pSARL_v2bl2xrasr","5edeb6bc0fb0721619b474d0","freq_resp","img/orange_2bandit_b.png","70","70","test","","","","6","",""
"null","246937","pSARL_v2","pSARL_v2bl2xrasr","5edeb6bc0fb0721619b474d0","fixation","img/fixation.png","null","","test","","","","","",""
"240.60000002384186","247184","pSARL_v2","pSARL_v2bl2xrasr","5edeb6bc0fb0721619b474d0","freq","img/orange_2bandit_b2.png","70","70","test","1","136","136","6","",""
"null","247761","pSARL_v2","pSARL_v2bl2xrasr","5edeb6bc0fb0721619b474d0","freq_resp","img/orange_2bandit_b.png","70","70","test","","","","6","",""
"null","247921","pSARL_v2","pSARL_v2bl2xrasr","5edeb6bc0fb0721619b474d0","fixation","img/fixation.png","null","","test","","","","","",""
"465.5999999642372","248393","pSARL_v2","pSARL_v2bl2xrasr","5edeb6bc0fb0721619b474d0","reward","img/slot.png","74","","test","","","","","",""
"null","249167","pSARL_v2","pSARL_v2bl2xrasr","5edeb6bc0fb0721619b474d0","points","<div class=""verylowPoints""> -7 </div>","null","na","test","","","","6","-7","5"
"402.4000000357628","249577","pSARL_v2","pSARL_v2bl2xrasr","5edeb6bc0fb0721619b474d0","freq","img/orange_2bandit_b2.png","70","70","test","1","137","137","7","",""
"null","249990","pSARL_v2","pSARL_v2bl2xrasr","5edeb6bc0fb0721619b474d0","freq_resp","img/orange_2bandit_b.png","70","70","test","","","","7","",""
"null","250154","pSARL_v2","pSARL_v2bl2xrasr","5edeb6bc0fb0721619b474d0","fixation","img/fixation.png","null","","test","","","","","",""
"304.30000001192093","250466","pSARL_v2","pSARL_v2bl2xrasr","5edeb6bc0fb0721619b474d0","freq","img/orange_2bandit_b2.png","70","70","test","1","138","138","7","",""
"null","250968","pSARL_v2","pSARL_v2bl2xrasr","5edeb6bc0fb0721619b474d0","freq_resp","img/orange_2bandit_b.png","70","70","test","","","","7","",""
"null","251138","pSARL_v2","pSARL_v2bl2xrasr","5edeb6bc0fb0721619b474d0","fixation","img/fixation.png","null","","test","","","","","",""
"287.89999997615814","251434","pSARL_v2","pSARL_v2bl2xrasr","5edeb6bc0fb0721619b474d0","freq","img/orange_2bandit_b2.png","70","70","test","1","139","139","7","",""
"null","251966","pSARL_v2","pSARL_v2bl2xrasr","5edeb6bc0fb0721619b474d0","freq_resp","img/orange_2bandit_b.png","70","70","test","","","","7","",""
"null","252126","pSARL_v2","pSARL_v2bl2xrasr","5edeb6bc0fb0721619b474d0","fixation","img/fixation.png","null","","test","","","","","",""
"259.19999998807907","252392","pSARL_v2","pSARL_v2bl2xrasr","5edeb6bc0fb0721619b474d0","freq","img/orange_2bandit_b2.png","70","70","test","1","140","140","7","",""
"null","252951","pSARL_v2","pSARL_v2bl2xrasr","5edeb6bc0fb0721619b474d0","freq_resp","img/orange_2bandit_b.png","70","70","test","","","","7","",""
"null","253110","pSARL_v2","pSARL_v2bl2xrasr","5edeb6bc0fb0721619b474d0","fixation","img/fixation.png","null","","test","","","","","",""
"243.80000001192093","253361","pSARL_v2","pSARL_v2bl2xrasr","5edeb6bc0fb0721619b474d0","freq","img/orange_2bandit_b2.png","70","70","test","1","141","141","7","",""
"null","253934","pSARL_v2","pSARL_v2bl2xrasr","5edeb6bc0fb0721619b474d0","freq_resp","img/orange_2bandit_b.png","70","70","test","","","","7","",""
"null","254094","pSARL_v2","pSARL_v2bl2xrasr","5edeb6bc0fb0721619b474d0","fixation","img/fixation.png","null","","test","","","","","",""
"219.19999998807907","254320","pSARL_v2","pSARL_v2bl2xrasr","5edeb6bc0fb0721619b474d0","freq","img/orange_2bandit_b2.png","70","70","test","1","142","142","7","",""
"null","254917","pSARL_v2","pSARL_v2bl2xrasr","5edeb6bc0fb0721619b474d0","freq_resp","img/orange_2bandit_b.png","70","70","test","","","","7","",""
"null","255078","pSARL_v2","pSARL_v2bl2xrasr","5edeb6bc0fb0721619b474d0","fixation","img/fixation.png","null","","test","","","","","",""
"249.19999998807907","255334","pSARL_v2","pSARL_v2bl2xrasr","5edeb6bc0fb0721619b474d0","freq","img/orange_2bandit_b2.png","70","70","test","1","143","143","7","",""
"null","255902","pSARL_v2","pSARL_v2bl2xrasr","5edeb6bc0fb0721619b474d0","freq_resp","img/orange_2bandit_b.png","70","70","test","","","","7","",""
"null","256063","pSARL_v2","pSARL_v2bl2xrasr","5edeb6bc0fb0721619b474d0","fixation","img/fixation.png","null","","test","","","","","",""
"354.69999998807907","256423","pSARL_v2","pSARL_v2bl2xrasr","5edeb6bc0fb0721619b474d0","infreq","img/green_2bandit_b2.png","68","68","test","1","144","144","7","",""
"null","256878","pSARL_v2","pSARL_v2bl2xrasr","5edeb6bc0fb0721619b474d0","infreq_resp","img/green_2bandit_b.png","68","68","test","","","","7","",""
"null","257045","pSARL_v2","pSARL_v2bl2xrasr","5edeb6bc0fb0721619b474d0","fixation","img/fixation.png","null","","test","","","","","",""
"413","257466","pSARL_v2","pSARL_v2bl2xrasr","5edeb6bc0fb0721619b474d0","infreq","img/green_2bandit_b2.png","68","68","test","1","145","145","7","",""
"null","257867","pSARL_v2","pSARL_v2bl2xrasr","5edeb6bc0fb0721619b474d0","infreq_resp","img/green_2bandit_b.png","68","68","test","","","","7","",""
"null","258030","pSARL_v2","pSARL_v2bl2xrasr","5edeb6bc0fb0721619b474d0","fixation","img/fixation.png","null","","test","","","","","",""
"332.30000001192093","258369","pSARL_v2","pSARL_v2bl2xrasr","5edeb6bc0fb0721619b474d0","freq","img/orange_2bandit_b2.png","70","70","test","1","146","146","7","",""
"null","258847","pSARL_v2","pSARL_v2bl2xrasr","5edeb6bc0fb0721619b474d0","freq_resp","img/orange_2bandit_b.png","70","70","test","","","","7","",""
"null","259016","pSARL_v2","pSARL_v2bl2xrasr","5edeb6bc0fb0721619b474d0","fixation","img/fixation.png","null","","test","","","","","",""
"209.19999998807907","259233","pSARL_v2","pSARL_v2bl2xrasr","5edeb6bc0fb0721619b474d0","freq","img/orange_2bandit_b2.png","70","70","test","1","147","147","7","",""
"null","259838","pSARL_v2","pSARL_v2bl2xrasr","5edeb6bc0fb0721619b474d0","freq_resp","img/orange_2bandit_b.png","70","70","test","","","","7","",""
"null","259999","pSARL_v2","pSARL_v2bl2xrasr","5edeb6bc0fb0721619b474d0","fixation","img/fixation.png","null","","test","","","","","",""
"266.10000002384186","260271","pSARL_v2","pSARL_v2bl2xrasr","5edeb6bc0fb0721619b474d0","freq","img/orange_2bandit_b2.png","70","70","test","1","148","148","7","",""
"null","260824","pSARL_v2","pSARL_v2bl2xrasr","5edeb6bc0fb0721619b474d0","freq_resp","img/orange_2bandit_b.png","70","70","test","","","","7","",""
"null","260984","pSARL_v2","pSARL_v2bl2xrasr","5edeb6bc0fb0721619b474d0","fixation","img/fixation.png","null","","test","","","","","",""
"273.69999998807907","261265","pSARL_v2","pSARL_v2bl2xrasr","5edeb6bc0fb0721619b474d0","freq","img/orange_2bandit_b2.png","70","70","test","1","149","149","7","",""
"null","261810","pSARL_v2","pSARL_v2bl2xrasr","5edeb6bc0fb0721619b474d0","freq_resp","img/orange_2bandit_b.png","70","70","test","","","","7","",""
"null","261969","pSARL_v2","pSARL_v2bl2xrasr","5edeb6bc0fb0721619b474d0","fixation","img/fixation.png","null","","test","","","","","",""
"309.5","262285","pSARL_v2","pSARL_v2bl2xrasr","5edeb6bc0fb0721619b474d0","freq","img/orange_2bandit_b2.png","70","70","test","1","150","150","7","",""
"null","262797","pSARL_v2","pSARL_v2bl2xrasr","5edeb6bc0fb0721619b474d0","freq_resp","img/orange_2bandit_b.png","70","70","test","","","","7","",""
"null","262969","pSARL_v2","pSARL_v2bl2xrasr","5edeb6bc0fb0721619b474d0","fixation","img/fixation.png","null","","test","","","","","",""
"264.0999999642372","263241","pSARL_v2","pSARL_v2bl2xrasr","5edeb6bc0fb0721619b474d0","freq","img/orange_2bandit_b2.png","70","70","test","1","151","151","7","",""
"null","263795","pSARL_v2","pSARL_v2bl2xrasr","5edeb6bc0fb0721619b474d0","freq_resp","img/orange_2bandit_b.png","70","70","test","","","","7","",""
"null","263955","pSARL_v2","pSARL_v2bl2xrasr","5edeb6bc0fb0721619b474d0","fixation","img/fixation.png","null","","test","","","","","",""
"246.30000001192093","264209","pSARL_v2","pSARL_v2bl2xrasr","5edeb6bc0fb0721619b474d0","freq","img/orange_2bandit_b2.png","70","70","test","1","152","152","7","",""
"null","264778","pSARL_v2","pSARL_v2bl2xrasr","5edeb6bc0fb0721619b474d0","freq_resp","img/orange_2bandit_b.png","70","70","test","","","","7","",""
"null","264938","pSARL_v2","pSARL_v2bl2xrasr","5edeb6bc0fb0721619b474d0","fixation","img/fixation.png","null","","test","","","","","",""
"247.89999997615814","265192","pSARL_v2","pSARL_v2bl2xrasr","5edeb6bc0fb0721619b474d0","freq","img/orange_2bandit_b2.png","70","70","test","1","153","153","7","",""
"null","265764","pSARL_v2","pSARL_v2bl2xrasr","5edeb6bc0fb0721619b474d0","freq_resp","img/orange_2bandit_b.png","70","70","test","","","","7","",""
"null","265921","pSARL_v2","pSARL_v2bl2xrasr","5edeb6bc0fb0721619b474d0","fixation","img/fixation.png","null","","test","","","","","",""
"301.7999999523163","266229","pSARL_v2","pSARL_v2bl2xrasr","5edeb6bc0fb0721619b474d0","freq","img/orange_2bandit_b2.png","70","70","test","1","154","154","7","",""
"null","266735","pSARL_v2","pSARL_v2bl2xrasr","5edeb6bc0fb0721619b474d0","freq_resp","img/orange_2bandit_b.png","70","70","test","","","","7","",""
"null","266904","pSARL_v2","pSARL_v2bl2xrasr","5edeb6bc0fb0721619b474d0","fixation","img/fixation.png","null","","test","","","","","",""
"320.60000002384186","267231","pSARL_v2","pSARL_v2bl2xrasr","5edeb6bc0fb0721619b474d0","freq","img/orange_2bandit_b2.png","70","70","test","1","155","155","7","",""
"null","267719","pSARL_v2","pSARL_v2bl2xrasr","5edeb6bc0fb0721619b474d0","freq_resp","img/orange_2bandit_b.png","70","70","test","","","","7","",""
"null","267890","pSARL_v2","pSARL_v2bl2xrasr","5edeb6bc0fb0721619b474d0","fixation","img/fixation.png","null","","test","","","","","",""
"294.80000001192093","268192","pSARL_v2","pSARL_v2bl2xrasr","5edeb6bc0fb0721619b474d0","freq","img/orange_2bandit_b2.png","70","70","test","1","156","156","7","",""
"null","268717","pSARL_v2","pSARL_v2bl2xrasr","5edeb6bc0fb0721619b474d0","freq_resp","img/orange_2bandit_b.png","70","70","test","","","","7","",""
"null","268889","pSARL_v2","pSARL_v2bl2xrasr","5edeb6bc0fb0721619b474d0","fixation","img/fixation.png","null","","test","","","","","",""
"280.10000002384186","269175","pSARL_v2","pSARL_v2bl2xrasr","5edeb6bc0fb0721619b474d0","freq","img/orange_2bandit_b2.png","70","70","test","1","157","157","7","",""
"null","269702","pSARL_v2","pSARL_v2bl2xrasr","5edeb6bc0fb0721619b474d0","freq_resp","img/orange_2bandit_b.png","70","70","test","","","","7","",""
"null","269860","pSARL_v2","pSARL_v2bl2xrasr","5edeb6bc0fb0721619b474d0","fixation","img/fixation.png","null","","test","","","","","",""
"357.89999997615814","270223","pSARL_v2","pSARL_v2bl2xrasr","5edeb6bc0fb0721619b474d0","freq","img/orange_2bandit_b2.png","70","70","test","1","158","158","7","",""
"null","270676","pSARL_v2","pSARL_v2bl2xrasr","5edeb6bc0fb0721619b474d0","freq_resp","img/orange_2bandit_b.png","70","70","test","","","","7","",""
"null","270841","pSARL_v2","pSARL_v2bl2xrasr","5edeb6bc0fb0721619b474d0","fixation","img/fixation.png","null","","test","","","","","",""
"296.5","271145","pSARL_v2","pSARL_v2bl2xrasr","5edeb6bc0fb0721619b474d0","freq","img/orange_2bandit_b2.png","70","70","test","1","159","159","7","",""
"null","271671","pSARL_v2","pSARL_v2bl2xrasr","5edeb6bc0fb0721619b474d0","freq_resp","img/orange_2bandit_b.png","70","70","test","","","","7","",""
"null","271844","pSARL_v2","pSARL_v2bl2xrasr","5edeb6bc0fb0721619b474d0","fixation","img/fixation.png","null","","test","","","","","",""
"285.39999997615814","272135","pSARL_v2","pSARL_v2bl2xrasr","5edeb6bc0fb0721619b474d0","freq","img/orange_2bandit_b2.png","70","70","test","1","160","160","7","",""
"null","272656","pSARL_v2","pSARL_v2bl2xrasr","5edeb6bc0fb0721619b474d0","freq_resp","img/orange_2bandit_b.png","70","70","test","","","","7","",""
"null","272826","pSARL_v2","pSARL_v2bl2xrasr","5edeb6bc0fb0721619b474d0","fixation","img/fixation.png","null","","test","","","","","",""
"544","273376","pSARL_v2","pSARL_v2bl2xrasr","5edeb6bc0fb0721619b474d0","reward","img/slot.png","74","","test","","","","","",""
"null","274142","pSARL_v2","pSARL_v2bl2xrasr","5edeb6bc0fb0721619b474d0","points","<div class=""verylowPoints""> -6 </div>","null","na","test","","","","7","-6","6"
"667.8999999761581","274818","pSARL_v2","pSARL_v2bl2xrasr","5edeb6bc0fb0721619b474d0","freq","img/orange_2bandit_b2.png","70","70","test","1","161","161","8","",""
"null","274966","pSARL_v2","pSARL_v2bl2xrasr","5edeb6bc0fb0721619b474d0","freq_resp","img/orange_2bandit_b.png","70","70","test","","","","8","",""
"null","275129","pSARL_v2","pSARL_v2bl2xrasr","5edeb6bc0fb0721619b474d0","fixation","img/fixation.png","null","","test","","","","","",""
"632.3000000119209","275769","pSARL_v2","pSARL_v2bl2xrasr","5edeb6bc0fb0721619b474d0","freq","img/orange_2bandit_b2.png","70","70","test","1","162","162","8","",""
"null","275945","pSARL_v2","pSARL_v2bl2xrasr","5edeb6bc0fb0721619b474d0","freq_resp","img/orange_2bandit_b.png","70","70","test","","","","8","",""
"null","276114","pSARL_v2","pSARL_v2bl2xrasr","5edeb6bc0fb0721619b474d0","fixation","img/fixation.png","null","","test","","","","","",""
"602.8999999761581","276723","pSARL_v2","pSARL_v2bl2xrasr","5edeb6bc0fb0721619b474d0","freq","img/orange_2bandit_b2.png","70","70","test","1","163","163","8","",""
"null","276929","pSARL_v2","pSARL_v2bl2xrasr","5edeb6bc0fb0721619b474d0","freq_resp","img/orange_2bandit_b.png","70","70","test","","","","8","",""
"null","277098","pSARL_v2","pSARL_v2bl2xrasr","5edeb6bc0fb0721619b474d0","fixation","img/fixation.png","null","","test","","","","","",""
"478.7000000476837","277583","pSARL_v2","pSARL_v2bl2xrasr","5edeb6bc0fb0721619b474d0","freq","img/orange_2bandit_b2.png","70","70","test","1","164","164","8","",""
"null","277910","pSARL_v2","pSARL_v2bl2xrasr","5edeb6bc0fb0721619b474d0","freq_resp","img/orange_2bandit_b.png","70","70","test","","","","8","",""
"null","278082","pSARL_v2","pSARL_v2bl2xrasr","5edeb6bc0fb0721619b474d0","fixation","img/fixation.png","null","","test","","","","","",""
"334.80000001192093","278424","pSARL_v2","pSARL_v2bl2xrasr","5edeb6bc0fb0721619b474d0","freq","img/orange_2bandit_b2.png","70","70","test","1","165","165","8","",""
"null","278899","pSARL_v2","pSARL_v2bl2xrasr","5edeb6bc0fb0721619b474d0","freq_resp","img/orange_2bandit_b.png","70","70","test","","","","8","",""
"null","279069","pSARL_v2","pSARL_v2bl2xrasr","5edeb6bc0fb0721619b474d0","fixation","img/fixation.png","null","","test","","","","","",""
"388.5","279463","pSARL_v2","pSARL_v2bl2xrasr","5edeb6bc0fb0721619b474d0","infreq","img/green_2bandit_b2.png","68","68","test","1","166","166","8","",""
"null","279886","pSARL_v2","pSARL_v2bl2xrasr","5edeb6bc0fb0721619b474d0","infreq_resp","img/green_2bandit_b.png","68","68","test","","","","8","",""
"null","280053","pSARL_v2","pSARL_v2bl2xrasr","5edeb6bc0fb0721619b474d0","fixation","img/fixation.png","null","","test","","","","","",""
"292.2000000476837","280352","pSARL_v2","pSARL_v2bl2xrasr","5edeb6bc0fb0721619b474d0","freq","img/orange_2bandit_b2.png","70","70","test","1","167","167","8","",""
"null","280879","pSARL_v2","pSARL_v2bl2xrasr","5edeb6bc0fb0721619b474d0","freq_resp","img/orange_2bandit_b.png","70","70","test","","","","8","",""
"null","281039","pSARL_v2","pSARL_v2bl2xrasr","5edeb6bc0fb0721619b474d0","fixation","img/fixation.png","null","","test","","","","","",""
"226.80000001192093","281272","pSARL_v2","pSARL_v2bl2xrasr","5edeb6bc0fb0721619b474d0","freq","img/orange_2bandit_b2.png","70","70","test","1","168","168","8","",""
"null","281860","pSARL_v2","pSARL_v2bl2xrasr","5edeb6bc0fb0721619b474d0","freq_resp","img/orange_2bandit_b.png","70","70","test","","","","8","",""
"null","282023","pSARL_v2","pSARL_v2bl2xrasr","5edeb6bc0fb0721619b474d0","fixation","img/fixation.png","null","","test","","","","","",""
"235.10000002384186","282263","pSARL_v2","pSARL_v2bl2xrasr","5edeb6bc0fb0721619b474d0","freq","img/orange_2bandit_b2.png","70","70","test","1","169","169","8","",""
"null","282848","pSARL_v2","pSARL_v2bl2xrasr","5edeb6bc0fb0721619b474d0","freq_resp","img/orange_2bandit_b.png","70","70","test","","","","8","",""
"null","283006","pSARL_v2","pSARL_v2bl2xrasr","5edeb6bc0fb0721619b474d0","fixation","img/fixation.png","null","","test","","","","","",""
"203.20000004768372","283217","pSARL_v2","pSARL_v2bl2xrasr","5edeb6bc0fb0721619b474d0","freq","img/orange_2bandit_b2.png","70","70","test","1","170","170","8","",""
"null","283831","pSARL_v2","pSARL_v2bl2xrasr","5edeb6bc0fb0721619b474d0","freq_resp","img/orange_2bandit_b.png","70","70","test","","","","8","",""
"null","283988","pSARL_v2","pSARL_v2bl2xrasr","5edeb6bc0fb0721619b474d0","fixation","img/fixation.png","null","","test","","","","","",""
"228.9000000357628","284225","pSARL_v2","pSARL_v2bl2xrasr","5edeb6bc0fb0721619b474d0","freq","img/orange_2bandit_b2.png","70","70","test","1","171","171","8","",""
"null","284814","pSARL_v2","pSARL_v2bl2xrasr","5edeb6bc0fb0721619b474d0","freq_resp","img/orange_2bandit_b.png","70","70","test","","","","8","",""
"null","284974","pSARL_v2","pSARL_v2bl2xrasr","5edeb6bc0fb0721619b474d0","fixation","img/fixation.png","null","","test","","","","","",""
"275.60000002384186","285256","pSARL_v2","pSARL_v2bl2xrasr","5edeb6bc0fb0721619b474d0","infreq","img/green_2bandit_b2.png","70","68","test","0","172","172","8","",""
"null","285798","pSARL_v2","pSARL_v2bl2xrasr","5edeb6bc0fb0721619b474d0","infreq_resp","img/green_2bandit_b.png","70","68","test","","","","8","",""
"null","285958","pSARL_v2","pSARL_v2bl2xrasr","5edeb6bc0fb0721619b474d0","fixation","img/fixation.png","null","","test","","","","","",""
"307.4000000357628","286272","pSARL_v2","pSARL_v2bl2xrasr","5edeb6bc0fb0721619b474d0","freq","img/orange_2bandit_b2.png","70","70","test","1","173","173","8","",""
"null","286784","pSARL_v2","pSARL_v2bl2xrasr","5edeb6bc0fb0721619b474d0","freq_resp","img/orange_2bandit_b.png","70","70","test","","","","8","",""
"null","286944","pSARL_v2","pSARL_v2bl2xrasr","5edeb6bc0fb0721619b474d0","fixation","img/fixation.png","null","","test","","","","","",""
"335.9000000357628","287288","pSARL_v2","pSARL_v2bl2xrasr","5edeb6bc0fb0721619b474d0","freq","img/orange_2bandit_b2.png","70","70","test","1","174","174","8","",""
"null","287772","pSARL_v2","pSARL_v2bl2xrasr","5edeb6bc0fb0721619b474d0","freq_resp","img/orange_2bandit_b.png","70","70","test","","","","8","",""
"null","287942","pSARL_v2","pSARL_v2bl2xrasr","5edeb6bc0fb0721619b474d0","fixation","img/fixation.png","null","","test","","","","","",""
"243","288192","pSARL_v2","pSARL_v2bl2xrasr","5edeb6bc0fb0721619b474d0","freq","img/orange_2bandit_b2.png","70","70","test","1","175","175","8","",""
"null","288771","pSARL_v2","pSARL_v2bl2xrasr","5edeb6bc0fb0721619b474d0","freq_resp","img/orange_2bandit_b.png","70","70","test","","","","8","",""
"null","288927","pSARL_v2","pSARL_v2bl2xrasr","5edeb6bc0fb0721619b474d0","fixation","img/fixation.png","null","","test","","","","","",""
"273.89999997615814","289208","pSARL_v2","pSARL_v2bl2xrasr","5edeb6bc0fb0721619b474d0","freq","img/orange_2bandit_b2.png","70","70","test","1","176","176","8","",""
"null","289756","pSARL_v2","pSARL_v2bl2xrasr","5edeb6bc0fb0721619b474d0","freq_resp","img/orange_2bandit_b.png","70","70","test","","","","8","",""
"null","289928","pSARL_v2","pSARL_v2bl2xrasr","5edeb6bc0fb0721619b474d0","fixation","img/fixation.png","null","","test","","","","","",""
"241.69999998807907","290176","pSARL_v2","pSARL_v2bl2xrasr","5edeb6bc0fb0721619b474d0","freq","img/orange_2bandit_b2.png","70","70","test","1","177","177","8","",""
"null","290753","pSARL_v2","pSARL_v2bl2xrasr","5edeb6bc0fb0721619b474d0","freq_resp","img/orange_2bandit_b.png","70","70","test","","","","8","",""
"null","290913","pSARL_v2","pSARL_v2bl2xrasr","5edeb6bc0fb0721619b474d0","fixation","img/fixation.png","null","","test","","","","","",""
"255.5999999642372","291176","pSARL_v2","pSARL_v2bl2xrasr","5edeb6bc0fb0721619b474d0","freq","img/orange_2bandit_b2.png","70","70","test","1","178","178","8","",""
"null","291737","pSARL_v2","pSARL_v2bl2xrasr","5edeb6bc0fb0721619b474d0","freq_resp","img/orange_2bandit_b.png","70","70","test","","","","8","",""
"null","291899","pSARL_v2","pSARL_v2bl2xrasr","5edeb6bc0fb0721619b474d0","fixation","img/fixation.png","null","","test","","","","","",""
"278.2000000476837","292185","pSARL_v2","pSARL_v2bl2xrasr","5edeb6bc0fb0721619b474d0","freq","img/orange_2bandit_b2.png","70","70","test","1","179","179","8","",""
"null","292722","pSARL_v2","pSARL_v2bl2xrasr","5edeb6bc0fb0721619b474d0","freq_resp","img/orange_2bandit_b.png","70","70","test","","","","8","",""
"null","292883","pSARL_v2","pSARL_v2bl2xrasr","5edeb6bc0fb0721619b474d0","fixation","img/fixation.png","null","","test","","","","","",""
"270.89999997615814","293160","pSARL_v2","pSARL_v2bl2xrasr","5edeb6bc0fb0721619b474d0","freq","img/orange_2bandit_b2.png","70","70","test","1","180","180","8","",""
"null","293700","pSARL_v2","pSARL_v2bl2xrasr","5edeb6bc0fb0721619b474d0","freq_resp","img/orange_2bandit_b.png","70","70","test","","","","8","",""
"null","293864","pSARL_v2","pSARL_v2bl2xrasr","5edeb6bc0fb0721619b474d0","fixation","img/fixation.png","null","","test","","","","","",""
"266.30000001192093","294138","pSARL_v2","pSARL_v2bl2xrasr","5edeb6bc0fb0721619b474d0","freq","img/orange_2bandit_b2.png","70","70","test","1","181","181","8","",""
"null","294693","pSARL_v2","pSARL_v2bl2xrasr","5edeb6bc0fb0721619b474d0","freq_resp","img/orange_2bandit_b.png","70","70","test","","","","8","",""
"null","294865","pSARL_v2","pSARL_v2bl2xrasr","5edeb6bc0fb0721619b474d0","fixation","img/fixation.png","null","","test","","","","","",""
"280.5","295153","pSARL_v2","pSARL_v2bl2xrasr","5edeb6bc0fb0721619b474d0","freq","img/orange_2bandit_b2.png","70","70","test","1","182","182","8","",""
"null","295695","pSARL_v2","pSARL_v2bl2xrasr","5edeb6bc0fb0721619b474d0","freq_resp","img/orange_2bandit_b.png","70","70","test","","","","8","",""
"null","295869","pSARL_v2","pSARL_v2bl2xrasr","5edeb6bc0fb0721619b474d0","fixation","img/fixation.png","null","","test","","","","","",""
"252.30000001192093","296127","pSARL_v2","pSARL_v2bl2xrasr","5edeb6bc0fb0721619b474d0","freq","img/orange_2bandit_b2.png","70","70","test","1","183","183","8","",""
"null","296693","pSARL_v2","pSARL_v2bl2xrasr","5edeb6bc0fb0721619b474d0","freq_resp","img/orange_2bandit_b.png","70","70","test","","","","8","",""
"null","296854","pSARL_v2","pSARL_v2bl2xrasr","5edeb6bc0fb0721619b474d0","fixation","img/fixation.png","null","","test","","","","","",""
"486.39999997615814","297347","pSARL_v2","pSARL_v2bl2xrasr","5edeb6bc0fb0721619b474d0","reward","img/slot.png","74","","test","","","","","",""
"null","298117","pSARL_v2","pSARL_v2bl2xrasr","5edeb6bc0fb0721619b474d0","points","<div class=""verylowPoints""> -4 </div>","null","na","test","","","","8","-4","7"
"452.19999998807907","298577","pSARL_v2","pSARL_v2bl2xrasr","5edeb6bc0fb0721619b474d0","freq","img/orange_2bandit_b2.png","70","70","test","1","184","184","9","",""
"null","298941","pSARL_v2","pSARL_v2bl2xrasr","5edeb6bc0fb0721619b474d0","freq_resp","img/orange_2bandit_b.png","70","70","test","","","","9","",""
"null","299105","pSARL_v2","pSARL_v2bl2xrasr","5edeb6bc0fb0721619b474d0","fixation","img/fixation.png","null","","test","","","","","",""
"304.80000001192093","299417","pSARL_v2","pSARL_v2bl2xrasr","5edeb6bc0fb0721619b474d0","freq","img/orange_2bandit_b2.png","70","70","test","1","185","185","9","",""
"null","299932","pSARL_v2","pSARL_v2bl2xrasr","5edeb6bc0fb0721619b474d0","freq_resp","img/orange_2bandit_b.png","70","70","test","","","","9","",""
"null","300089","pSARL_v2","pSARL_v2bl2xrasr","5edeb6bc0fb0721619b474d0","fixation","img/fixation.png","null","","test","","","","","",""
"512.6999999880791","300609","pSARL_v2","pSARL_v2bl2xrasr","5edeb6bc0fb0721619b474d0","freq","img/orange_2bandit_b2.png","70","70","test","1","186","186","9","",""
"null","300915","pSARL_v2","pSARL_v2bl2xrasr","5edeb6bc0fb0721619b474d0","freq_resp","img/orange_2bandit_b.png","70","70","test","","","","9","",""
"null","301074","pSARL_v2","pSARL_v2bl2xrasr","5edeb6bc0fb0721619b474d0","fixation","img/fixation.png","null","","test","","","","","",""
"232.0999999642372","301313","pSARL_v2","pSARL_v2bl2xrasr","5edeb6bc0fb0721619b474d0","freq","img/orange_2bandit_b2.png","70","70","test","1","187","187","9","",""
"null","301897","pSARL_v2","pSARL_v2bl2xrasr","5edeb6bc0fb0721619b474d0","freq_resp","img/orange_2bandit_b.png","70","70","test","","","","9","",""
"null","302061","pSARL_v2","pSARL_v2bl2xrasr","5edeb6bc0fb0721619b474d0","fixation","img/fixation.png","null","","test","","","","","",""
"260.30000001192093","302328","pSARL_v2","pSARL_v2bl2xrasr","5edeb6bc0fb0721619b474d0","freq","img/orange_2bandit_b2.png","70","70","test","1","188","188","9","",""
"null","302883","pSARL_v2","pSARL_v2bl2xrasr","5edeb6bc0fb0721619b474d0","freq_resp","img/orange_2bandit_b.png","70","70","test","","","","9","",""
"null","303042","pSARL_v2","pSARL_v2bl2xrasr","5edeb6bc0fb0721619b474d0","fixation","img/fixation.png","null","","test","","","","","",""
"295.10000002384186","303345","pSARL_v2","pSARL_v2bl2xrasr","5edeb6bc0fb0721619b474d0","freq","img/orange_2bandit_b2.png","70","70","test","1","189","189","9","",""
"null","303870","pSARL_v2","pSARL_v2bl2xrasr","5edeb6bc0fb0721619b474d0","freq_resp","img/orange_2bandit_b.png","70","70","test","","","","9","",""
"null","304027","pSARL_v2","pSARL_v2bl2xrasr","5edeb6bc0fb0721619b474d0","fixation","img/fixation.png","null","","test","","","","","",""
"286.4000000357628","304319","pSARL_v2","pSARL_v2bl2xrasr","5edeb6bc0fb0721619b474d0","freq","img/orange_2bandit_b2.png","70","70","test","1","190","190","9","",""
"null","304852","pSARL_v2","pSARL_v2bl2xrasr","5edeb6bc0fb0721619b474d0","freq_resp","img/orange_2bandit_b.png","70","70","test","","","","9","",""
"null","305012","pSARL_v2","pSARL_v2bl2xrasr","5edeb6bc0fb0721619b474d0","fixation","img/fixation.png","null","","test","","","","","",""
"373.39999997615814","305392","pSARL_v2","pSARL_v2bl2xrasr","5edeb6bc0fb0721619b474d0","infreq","img/green_2bandit_b2.png","68","68","test","1","191","191","9","",""
"null","305825","pSARL_v2","pSARL_v2bl2xrasr","5edeb6bc0fb0721619b474d0","infreq_resp","img/green_2bandit_b.png","68","68","test","","","","9","",""
"null","305992","pSARL_v2","pSARL_v2bl2xrasr","5edeb6bc0fb0721619b474d0","fixation","img/fixation.png","null","","test","","","","","",""
"297.5","306297","pSARL_v2","pSARL_v2bl2xrasr","5edeb6bc0fb0721619b474d0","freq","img/orange_2bandit_b2.png","70","70","test","1","192","192","9","",""
"null","306821","pSARL_v2","pSARL_v2bl2xrasr","5edeb6bc0fb0721619b474d0","freq_resp","img/orange_2bandit_b.png","70","70","test","","","","9","",""
"null","306983","pSARL_v2","pSARL_v2bl2xrasr","5edeb6bc0fb0721619b474d0","fixation","img/fixation.png","null","","test","","","","","",""
"267.0999999642372","307257","pSARL_v2","pSARL_v2bl2xrasr","5edeb6bc0fb0721619b474d0","freq","img/orange_2bandit_b2.png","70","70","test","1","193","193","9","",""
"null","307806","pSARL_v2","pSARL_v2bl2xrasr","5edeb6bc0fb0721619b474d0","freq_resp","img/orange_2bandit_b.png","70","70","test","","","","9","",""
"null","307965","pSARL_v2","pSARL_v2bl2xrasr","5edeb6bc0fb0721619b474d0","fixation","img/fixation.png","null","","test","","","","","",""
"370.39999997615814","308342","pSARL_v2","pSARL_v2bl2xrasr","5edeb6bc0fb0721619b474d0","infreq","img/green_2bandit_b2.png","68","68","test","1","194","194","9","",""
"null","308781","pSARL_v2","pSARL_v2bl2xrasr","5edeb6bc0fb0721619b474d0","infreq_resp","img/green_2bandit_b.png","68","68","test","","","","9","",""
"null","308947","pSARL_v2","pSARL_v2bl2xrasr","5edeb6bc0fb0721619b474d0","fixation","img/fixation.png","null","","test","","","","","",""
"446.30000001192093","309401","pSARL_v2","pSARL_v2bl2xrasr","5edeb6bc0fb0721619b474d0","infreq","img/green_2bandit_b2.png","68","68","test","1","195","195","9","",""
"null","309770","pSARL_v2","pSARL_v2bl2xrasr","5edeb6bc0fb0721619b474d0","infreq_resp","img/green_2bandit_b.png","68","68","test","","","","9","",""
"null","309933","pSARL_v2","pSARL_v2bl2xrasr","5edeb6bc0fb0721619b474d0","fixation","img/fixation.png","null","","test","","","","","",""
"333.69999998807907","310273","pSARL_v2","pSARL_v2bl2xrasr","5edeb6bc0fb0721619b474d0","freq","img/orange_2bandit_b2.png","70","70","test","1","196","196","9","",""
"null","310746","pSARL_v2","pSARL_v2bl2xrasr","5edeb6bc0fb0721619b474d0","freq_resp","img/orange_2bandit_b.png","70","70","test","","","","9","",""
"null","310915","pSARL_v2","pSARL_v2bl2xrasr","5edeb6bc0fb0721619b474d0","fixation","img/fixation.png","null","","test","","","","","",""
"311.2000000476837","311232","pSARL_v2","pSARL_v2bl2xrasr","5edeb6bc0fb0721619b474d0","freq","img/orange_2bandit_b2.png","70","70","test","1","197","197","9","",""
"null","311728","pSARL_v2","pSARL_v2bl2xrasr","5edeb6bc0fb0721619b474d0","freq_resp","img/orange_2bandit_b.png","70","70","test","","","","9","",""
"null","311900","pSARL_v2","pSARL_v2bl2xrasr","5edeb6bc0fb0721619b474d0","fixation","img/fixation.png","null","","test","","","","","",""
"316.89999997615814","312223","pSARL_v2","pSARL_v2bl2xrasr","5edeb6bc0fb0721619b474d0","freq","img/orange_2bandit_b2.png","70","70","test","1","198","198","9","",""
"null","312716","pSARL_v2","pSARL_v2bl2xrasr","5edeb6bc0fb0721619b474d0","freq_resp","img/orange_2bandit_b.png","70","70","test","","","","9","",""
"null","312884","pSARL_v2","pSARL_v2bl2xrasr","5edeb6bc0fb0721619b474d0","fixation","img/fixation.png","null","","test","","","","","",""
"325.80000001192093","313215","pSARL_v2","pSARL_v2bl2xrasr","5edeb6bc0fb0721619b474d0","freq","img/orange_2bandit_b2.png","70","70","test","1","199","199","9","",""
"null","313698","pSARL_v2","pSARL_v2bl2xrasr","5edeb6bc0fb0721619b474d0","freq_resp","img/orange_2bandit_b.png","70","70","test","","","","9","",""
"null","313867","pSARL_v2","pSARL_v2bl2xrasr","5edeb6bc0fb0721619b474d0","fixation","img/fixation.png","null","","test","","","","","",""
"262.39999997615814","314137","pSARL_v2","pSARL_v2bl2xrasr","5edeb6bc0fb0721619b474d0","freq","img/orange_2bandit_b2.png","70","70","test","1","200","200","9","",""
"null","314695","pSARL_v2","pSARL_v2bl2xrasr","5edeb6bc0fb0721619b474d0","freq_resp","img/orange_2bandit_b.png","70","70","test","","","","9","",""
"null","314855","pSARL_v2","pSARL_v2bl2xrasr","5edeb6bc0fb0721619b474d0","fixation","img/fixation.png","null","","test","","","","","",""
"330.69999998807907","315192","pSARL_v2","pSARL_v2bl2xrasr","5edeb6bc0fb0721619b474d0","freq","img/orange_2bandit_b2.png","70","70","test","1","201","201","9","",""
"null","315669","pSARL_v2","pSARL_v2bl2xrasr","5edeb6bc0fb0721619b474d0","freq_resp","img/orange_2bandit_b.png","70","70","test","","","","9","",""
"null","315838","pSARL_v2","pSARL_v2bl2xrasr","5edeb6bc0fb0721619b474d0","fixation","img/fixation.png","null","","test","","","","","",""
"242.89999997615814","316088","pSARL_v2","pSARL_v2bl2xrasr","5edeb6bc0fb0721619b474d0","freq","img/orange_2bandit_b2.png","70","70","test","1","202","202","9","",""
"null","316662","pSARL_v2","pSARL_v2bl2xrasr","5edeb6bc0fb0721619b474d0","freq_resp","img/orange_2bandit_b.png","70","70","test","","","","9","",""
"null","316823","pSARL_v2","pSARL_v2bl2xrasr","5edeb6bc0fb0721619b474d0","fixation","img/fixation.png","null","","test","","","","","",""
"210.60000002384186","317040","pSARL_v2","pSARL_v2bl2xrasr","5edeb6bc0fb0721619b474d0","freq","img/orange_2bandit_b2.png","70","70","test","1","203","203","9","",""
"null","317645","pSARL_v2","pSARL_v2bl2xrasr","5edeb6bc0fb0721619b474d0","freq_resp","img/orange_2bandit_b.png","70","70","test","","","","9","",""
"null","317805","pSARL_v2","pSARL_v2bl2xrasr","5edeb6bc0fb0721619b474d0","fixation","img/fixation.png","null","","test","","","","","",""
"245.0999999642372","318057","pSARL_v2","pSARL_v2bl2xrasr","5edeb6bc0fb0721619b474d0","freq","img/orange_2bandit_b2.png","70","70","test","1","204","204","9","",""
"null","318622","pSARL_v2","pSARL_v2bl2xrasr","5edeb6bc0fb0721619b474d0","freq_resp","img/orange_2bandit_b.png","70","70","test","","","","9","",""
"null","318788","pSARL_v2","pSARL_v2bl2xrasr","5edeb6bc0fb0721619b474d0","fixation","img/fixation.png","null","","test","","","","","",""
"251.19999998807907","319046","pSARL_v2","pSARL_v2bl2xrasr","5edeb6bc0fb0721619b474d0","freq","img/orange_2bandit_b2.png","70","70","test","1","205","205","9","",""
"null","319616","pSARL_v2","pSARL_v2bl2xrasr","5edeb6bc0fb0721619b474d0","freq_resp","img/orange_2bandit_b.png","70","70","test","","","","9","",""
"null","319779","pSARL_v2","pSARL_v2bl2xrasr","5edeb6bc0fb0721619b474d0","fixation","img/fixation.png","null","","test","","","","","",""
"254.5","320039","pSARL_v2","pSARL_v2bl2xrasr","5edeb6bc0fb0721619b474d0","freq","img/orange_2bandit_b2.png","70","70","test","1","206","206","9","",""
