"rt","time_elapsed","expId","subject","prolificID","trialType","stimulus","key_press","corrresp","phase","corr","trialNum","attentionRunNum","blockNum","points","rlNum"
"1034","1038","pSARL_v2","pSARL_v2hebeo90z","5b0b77a9d282ff00015b7531","","","","","","","","","","",""
"","2527","pSARL_v2","pSARL_v2hebeo90z","5b0b77a9d282ff00015b7531","fullscreen","","","","","","","","","",""
"4130","6662","pSARL_v2","pSARL_v2hebeo90z","5b0b77a9d282ff00015b7531","","","","","","","","","","",""
"616","7283","pSARL_v2","pSARL_v2hebeo90z","5b0b77a9d282ff00015b7531","freqPrac","img/orange_2bandit_b2.png","68","70","prac","0","","","","",""
"616","7479","pSARL_v2","pSARL_v2hebeo90z","5b0b77a9d282ff00015b7531","freqPrac_resp","img/orange_2bandit_b.png","68","70","prac","","","","","",""
"null","8485","pSARL_v2","pSARL_v2hebeo90z","5b0b77a9d282ff00015b7531","feedback","img/wrongKey.png","null","na","prac","","","","","",""
"null","8641","pSARL_v2","pSARL_v2hebeo90z","5b0b77a9d282ff00015b7531","fixation","img/fixation.png","null","","prac","","","","","",""
"653","9297","pSARL_v2","pSARL_v2hebeo90z","5b0b77a9d282ff00015b7531","infreqPrac","img/green_2bandit_b2.png","70","68","prac","0","","","","",""
"653","9456","pSARL_v2","pSARL_v2hebeo90z","5b0b77a9d282ff00015b7531","infreqPrac_resp","img/green_2bandit_b.png","70","68","prac","","","","","",""
"null","10469","pSARL_v2","pSARL_v2hebeo90z","5b0b77a9d282ff00015b7531","feedback","img/wrongKey.png","null","na","prac","","","","","",""
"null","10625","pSARL_v2","pSARL_v2hebeo90z","5b0b77a9d282ff00015b7531","fixation","img/fixation.png","null","","prac","","","","","",""
"388","11017","pSARL_v2","pSARL_v2hebeo90z","5b0b77a9d282ff00015b7531","freqPrac","img/orange_2bandit_b2.png","68","70","prac","0","","","","",""
"388","11434","pSARL_v2","pSARL_v2hebeo90z","5b0b77a9d282ff00015b7531","freqPrac_resp","img/orange_2bandit_b.png","68","70","prac","","","","","",""
"null","12439","pSARL_v2","pSARL_v2hebeo90z","5b0b77a9d282ff00015b7531","feedback","img/wrongKey.png","null","na","prac","","","","","",""
"null","12596","pSARL_v2","pSARL_v2hebeo90z","5b0b77a9d282ff00015b7531","fixation","img/fixation.png","null","","prac","","","","","",""
"582","13182","pSARL_v2","pSARL_v2hebeo90z","5b0b77a9d282ff00015b7531","infreqPrac","img/green_2bandit_b2.png","70","68","prac","0","","","","",""
"582","13408","pSARL_v2","pSARL_v2hebeo90z","5b0b77a9d282ff00015b7531","infreqPrac_resp","img/green_2bandit_b.png","70","68","prac","","","","","",""
"null","14422","pSARL_v2","pSARL_v2hebeo90z","5b0b77a9d282ff00015b7531","feedback","img/wrongKey.png","null","na","prac","","","","","",""
"null","14580","pSARL_v2","pSARL_v2hebeo90z","5b0b77a9d282ff00015b7531","fixation","img/fixation.png","null","","prac","","","","","",""
"255","14839","pSARL_v2","pSARL_v2hebeo90z","5b0b77a9d282ff00015b7531","infreqPrac","img/green_2bandit_b2.png","70","68","prac","0","","","","",""
"255","15400","pSARL_v2","pSARL_v2hebeo90z","5b0b77a9d282ff00015b7531","infreqPrac_resp","img/green_2bandit_b.png","70","68","prac","","","","","",""
"null","16403","pSARL_v2","pSARL_v2hebeo90z","5b0b77a9d282ff00015b7531","feedback","img/wrongKey.png","null","na","prac","","","","","",""
"null","16559","pSARL_v2","pSARL_v2hebeo90z","5b0b77a9d282ff00015b7531","fixation","img/fixation.png","null","","prac","","","","","",""
"443","17004","pSARL_v2","pSARL_v2hebeo90z","5b0b77a9d282ff00015b7531","infreqPrac","img/green_2bandit_b2.png","68","68","prac","1","","","","",""
"443","17369","pSARL_v2","pSARL_v2hebeo90z","5b0b77a9d282ff00015b7531","infreqPrac_resp","img/green_2bandit_b.png","68","68","prac","","","","","",""
"null","17525","pSARL_v2","pSARL_v2hebeo90z","5b0b77a9d282ff00015b7531","fixation","img/fixation.png","null","","prac","","","","","",""
"510","18038","pSARL_v2","pSARL_v2hebeo90z","5b0b77a9d282ff00015b7531","freqPrac","img/orange_2bandit_b2.png","68","70","prac","0","","","","",""
"510","18334","pSARL_v2","pSARL_v2hebeo90z","5b0b77a9d282ff00015b7531","freqPrac_resp","img/orange_2bandit_b.png","68","70","prac","","","","","",""
"null","19341","pSARL_v2","pSARL_v2hebeo90z","5b0b77a9d282ff00015b7531","feedback","img/wrongKey.png","null","na","prac","","","","","",""
"null","19497","pSARL_v2","pSARL_v2hebeo90z","5b0b77a9d282ff00015b7531","fixation","img/fixation.png","null","","prac","","","","","",""
"464","19964","pSARL_v2","pSARL_v2hebeo90z","5b0b77a9d282ff00015b7531","infreqPrac","img/green_2bandit_b2.png","70","68","prac","0","","","","",""
"464","20316","pSARL_v2","pSARL_v2hebeo90z","5b0b77a9d282ff00015b7531","infreqPrac_resp","img/green_2bandit_b.png","70","68","prac","","","","","",""
"null","21334","pSARL_v2","pSARL_v2hebeo90z","5b0b77a9d282ff00015b7531","feedback","img/wrongKey.png","null","na","prac","","","","","",""
"null","21492","pSARL_v2","pSARL_v2hebeo90z","5b0b77a9d282ff00015b7531","fixation","img/fixation.png","null","","prac","","","","","",""
"333","21827","pSARL_v2","pSARL_v2hebeo90z","5b0b77a9d282ff00015b7531","freqPrac","img/orange_2bandit_b2.png","68","70","prac","0","","","","",""
"333","22312","pSARL_v2","pSARL_v2hebeo90z","5b0b77a9d282ff00015b7531","freqPrac_resp","img/orange_2bandit_b.png","68","70","prac","","","","","",""
"null","23321","pSARL_v2","pSARL_v2hebeo90z","5b0b77a9d282ff00015b7531","feedback","img/wrongKey.png","null","na","prac","","","","","",""
"null","23480","pSARL_v2","pSARL_v2hebeo90z","5b0b77a9d282ff00015b7531","fixation","img/fixation.png","null","","prac","","","","","",""
"558","24041","pSARL_v2","pSARL_v2hebeo90z","5b0b77a9d282ff00015b7531","freqPrac","img/orange_2bandit_b2.png","68","70","prac","0","","","","",""
"558","24295","pSARL_v2","pSARL_v2hebeo90z","5b0b77a9d282ff00015b7531","freqPrac_resp","img/orange_2bandit_b.png","68","70","prac","","","","","",""
"null","25308","pSARL_v2","pSARL_v2hebeo90z","5b0b77a9d282ff00015b7531","feedback","img/wrongKey.png","null","na","prac","","","","","",""
"null","25463","pSARL_v2","pSARL_v2hebeo90z","5b0b77a9d282ff00015b7531","fixation","img/fixation.png","null","","prac","","","","","",""
"8421","33887","pSARL_v2","pSARL_v2hebeo90z","5b0b77a9d282ff00015b7531","","","","","prac","","","","","",""
"938","34828","pSARL_v2","pSARL_v2hebeo90z","5b0b77a9d282ff00015b7531","rewardPractice","img/slot.png","74","","prac","","","","","",""
"null","35593","pSARL_v2","pSARL_v2hebeo90z","5b0b77a9d282ff00015b7531","feedback","<div class=""veryhighPoints""> +15 </div>","null","na","prac","","","","","",""
"null","35750","pSARL_v2","pSARL_v2hebeo90z","5b0b77a9d282ff00015b7531","fixation","img/fixation.png","null","","prac","","","","","",""
"5198","40951","pSARL_v2","pSARL_v2hebeo90z","5b0b77a9d282ff00015b7531","","","","","prac","","","","","",""
"null","41758","pSARL_v2","pSARL_v2hebeo90z","5b0b77a9d282ff00015b7531","freq","img/orange_2bandit_b2.png","null","70","test","0","1","1","1","",""
"null","41915","pSARL_v2","pSARL_v2hebeo90z","5b0b77a9d282ff00015b7531","fixation","img/fixation.png","null","","test","","","","","",""
"375","42293","pSARL_v2","pSARL_v2hebeo90z","5b0b77a9d282ff00015b7531","freq","img/orange_2bandit_b2.png","70","70","test","1","2","2","1","",""
"null","42722","pSARL_v2","pSARL_v2hebeo90z","5b0b77a9d282ff00015b7531","freq_resp","img/orange_2bandit_b.png","70","70","test","","","","1","",""
"null","42878","pSARL_v2","pSARL_v2hebeo90z","5b0b77a9d282ff00015b7531","fixation","img/fixation.png","null","","test","","","","","",""
"267","43150","pSARL_v2","pSARL_v2hebeo90z","5b0b77a9d282ff00015b7531","freq","img/orange_2bandit_b2.png","70","70","test","1","3","3","1","",""
"null","43687","pSARL_v2","pSARL_v2hebeo90z","5b0b77a9d282ff00015b7531","freq_resp","img/orange_2bandit_b.png","70","70","test","","","","1","",""
"null","43842","pSARL_v2","pSARL_v2hebeo90z","5b0b77a9d282ff00015b7531","fixation","img/fixation.png","null","","test","","","","","",""
"310","44156","pSARL_v2","pSARL_v2hebeo90z","5b0b77a9d282ff00015b7531","freq","img/orange_2bandit_b2.png","70","70","test","1","4","4","1","",""
"null","44664","pSARL_v2","pSARL_v2hebeo90z","5b0b77a9d282ff00015b7531","freq_resp","img/orange_2bandit_b.png","70","70","test","","","","1","",""
"null","44821","pSARL_v2","pSARL_v2hebeo90z","5b0b77a9d282ff00015b7531","fixation","img/fixation.png","null","","test","","","","","",""
"232","45057","pSARL_v2","pSARL_v2hebeo90z","5b0b77a9d282ff00015b7531","freq","img/orange_2bandit_b2.png","70","70","test","1","5","5","1","",""
"null","45631","pSARL_v2","pSARL_v2hebeo90z","5b0b77a9d282ff00015b7531","freq_resp","img/orange_2bandit_b.png","70","70","test","","","","1","",""
"null","45787","pSARL_v2","pSARL_v2hebeo90z","5b0b77a9d282ff00015b7531","fixation","img/fixation.png","null","","test","","","","","",""
"282","46073","pSARL_v2","pSARL_v2hebeo90z","5b0b77a9d282ff00015b7531","freq","img/orange_2bandit_b2.png","70","70","test","1","6","6","1","",""
"null","46596","pSARL_v2","pSARL_v2hebeo90z","5b0b77a9d282ff00015b7531","freq_resp","img/orange_2bandit_b.png","70","70","test","","","","1","",""
"null","46752","pSARL_v2","pSARL_v2hebeo90z","5b0b77a9d282ff00015b7531","fixation","img/fixation.png","null","","test","","","","","",""
"383","47139","pSARL_v2","pSARL_v2hebeo90z","5b0b77a9d282ff00015b7531","freq","img/orange_2bandit_b2.png","70","70","test","1","7","7","1","",""
"null","47563","pSARL_v2","pSARL_v2hebeo90z","5b0b77a9d282ff00015b7531","freq_resp","img/orange_2bandit_b.png","70","70","test","","","","1","",""
"null","47720","pSARL_v2","pSARL_v2hebeo90z","5b0b77a9d282ff00015b7531","fixation","img/fixation.png","null","","test","","","","","",""
"449","48172","pSARL_v2","pSARL_v2hebeo90z","5b0b77a9d282ff00015b7531","infreq","img/green_2bandit_b2.png","68","68","test","1","8","8","1","",""
"null","48531","pSARL_v2","pSARL_v2hebeo90z","5b0b77a9d282ff00015b7531","infreq_resp","img/green_2bandit_b.png","68","68","test","","","","1","",""
"null","48687","pSARL_v2","pSARL_v2hebeo90z","5b0b77a9d282ff00015b7531","fixation","img/fixation.png","null","","test","","","","","",""
"375","49065","pSARL_v2","pSARL_v2hebeo90z","5b0b77a9d282ff00015b7531","freq","img/orange_2bandit_b2.png","70","70","test","1","9","9","1","",""
"null","49494","pSARL_v2","pSARL_v2hebeo90z","5b0b77a9d282ff00015b7531","freq_resp","img/orange_2bandit_b.png","70","70","test","","","","1","",""
"null","49649","pSARL_v2","pSARL_v2hebeo90z","5b0b77a9d282ff00015b7531","fixation","img/fixation.png","null","","test","","","","","",""
"306","49960","pSARL_v2","pSARL_v2hebeo90z","5b0b77a9d282ff00015b7531","freq","img/orange_2bandit_b2.png","70","70","test","1","10","10","1","",""
"null","50463","pSARL_v2","pSARL_v2hebeo90z","5b0b77a9d282ff00015b7531","freq_resp","img/orange_2bandit_b.png","70","70","test","","","","1","",""
"null","50619","pSARL_v2","pSARL_v2hebeo90z","5b0b77a9d282ff00015b7531","fixation","img/fixation.png","null","","test","","","","","",""
"307","50928","pSARL_v2","pSARL_v2hebeo90z","5b0b77a9d282ff00015b7531","freq","img/orange_2bandit_b2.png","70","70","test","1","11","11","1","",""
"null","51430","pSARL_v2","pSARL_v2hebeo90z","5b0b77a9d282ff00015b7531","freq_resp","img/orange_2bandit_b.png","70","70","test","","","","1","",""
"null","51586","pSARL_v2","pSARL_v2hebeo90z","5b0b77a9d282ff00015b7531","fixation","img/fixation.png","null","","test","","","","","",""
"337","51926","pSARL_v2","pSARL_v2hebeo90z","5b0b77a9d282ff00015b7531","freq","img/orange_2bandit_b2.png","70","70","test","1","12","12","1","",""
"null","52397","pSARL_v2","pSARL_v2hebeo90z","5b0b77a9d282ff00015b7531","freq_resp","img/orange_2bandit_b.png","70","70","test","","","","1","",""
"null","52553","pSARL_v2","pSARL_v2hebeo90z","5b0b77a9d282ff00015b7531","fixation","img/fixation.png","null","","test","","","","","",""
"391","52948","pSARL_v2","pSARL_v2hebeo90z","5b0b77a9d282ff00015b7531","freq","img/orange_2bandit_b2.png","70","70","test","1","13","13","1","",""
"null","53365","pSARL_v2","pSARL_v2hebeo90z","5b0b77a9d282ff00015b7531","freq_resp","img/orange_2bandit_b.png","70","70","test","","","","1","",""
"null","53522","pSARL_v2","pSARL_v2hebeo90z","5b0b77a9d282ff00015b7531","fixation","img/fixation.png","null","","test","","","","","",""
"375","53900","pSARL_v2","pSARL_v2hebeo90z","5b0b77a9d282ff00015b7531","freq","img/orange_2bandit_b2.png","70","70","test","1","14","14","1","",""
"null","54332","pSARL_v2","pSARL_v2hebeo90z","5b0b77a9d282ff00015b7531","freq_resp","img/orange_2bandit_b.png","70","70","test","","","","1","",""
"null","54486","pSARL_v2","pSARL_v2hebeo90z","5b0b77a9d282ff00015b7531","fixation","img/fixation.png","null","","test","","","","","",""
"495","54987","pSARL_v2","pSARL_v2hebeo90z","5b0b77a9d282ff00015b7531","freq","img/orange_2bandit_b2.png","70","70","test","1","15","15","1","",""
"null","55298","pSARL_v2","pSARL_v2hebeo90z","5b0b77a9d282ff00015b7531","freq_resp","img/orange_2bandit_b.png","70","70","test","","","","1","",""
"null","55453","pSARL_v2","pSARL_v2hebeo90z","5b0b77a9d282ff00015b7531","fixation","img/fixation.png","null","","test","","","","","",""
"543","56000","pSARL_v2","pSARL_v2hebeo90z","5b0b77a9d282ff00015b7531","freq","img/orange_2bandit_b2.png","70","70","test","1","16","16","1","",""
"null","56265","pSARL_v2","pSARL_v2hebeo90z","5b0b77a9d282ff00015b7531","freq_resp","img/orange_2bandit_b.png","70","70","test","","","","1","",""
"null","56421","pSARL_v2","pSARL_v2hebeo90z","5b0b77a9d282ff00015b7531","fixation","img/fixation.png","null","","test","","","","","",""
"380","56804","pSARL_v2","pSARL_v2hebeo90z","5b0b77a9d282ff00015b7531","freq","img/orange_2bandit_b2.png","70","70","test","1","17","17","1","",""
"null","57234","pSARL_v2","pSARL_v2hebeo90z","5b0b77a9d282ff00015b7531","freq_resp","img/orange_2bandit_b.png","70","70","test","","","","1","",""
"null","57389","pSARL_v2","pSARL_v2hebeo90z","5b0b77a9d282ff00015b7531","fixation","img/fixation.png","null","","test","","","","","",""
"362","57755","pSARL_v2","pSARL_v2hebeo90z","5b0b77a9d282ff00015b7531","freq","img/orange_2bandit_b2.png","70","70","test","1","18","18","1","",""
"null","58199","pSARL_v2","pSARL_v2hebeo90z","5b0b77a9d282ff00015b7531","freq_resp","img/orange_2bandit_b.png","70","70","test","","","","1","",""
"null","58354","pSARL_v2","pSARL_v2hebeo90z","5b0b77a9d282ff00015b7531","fixation","img/fixation.png","null","","test","","","","","",""
"302","58659","pSARL_v2","pSARL_v2hebeo90z","5b0b77a9d282ff00015b7531","freq","img/orange_2bandit_b2.png","70","70","test","1","19","19","1","",""
"null","59164","pSARL_v2","pSARL_v2hebeo90z","5b0b77a9d282ff00015b7531","freq_resp","img/orange_2bandit_b.png","70","70","test","","","","1","",""
"null","59321","pSARL_v2","pSARL_v2hebeo90z","5b0b77a9d282ff00015b7531","fixation","img/fixation.png","null","","test","","","","","",""
"278","59601","pSARL_v2","pSARL_v2hebeo90z","5b0b77a9d282ff00015b7531","infreq","img/green_2bandit_b2.png","70","68","test","0","20","20","1","",""
"null","60133","pSARL_v2","pSARL_v2hebeo90z","5b0b77a9d282ff00015b7531","infreq_resp","img/green_2bandit_b.png","70","68","test","","","","1","",""
"null","60287","pSARL_v2","pSARL_v2hebeo90z","5b0b77a9d282ff00015b7531","fixation","img/fixation.png","null","","test","","","","","",""
"456","60746","pSARL_v2","pSARL_v2hebeo90z","5b0b77a9d282ff00015b7531","freq","img/orange_2bandit_b2.png","70","70","test","1","21","21","1","",""
"null","61099","pSARL_v2","pSARL_v2hebeo90z","5b0b77a9d282ff00015b7531","freq_resp","img/orange_2bandit_b.png","70","70","test","","","","1","",""
"null","61255","pSARL_v2","pSARL_v2hebeo90z","5b0b77a9d282ff00015b7531","fixation","img/fixation.png","null","","test","","","","","",""
"637","61895","pSARL_v2","pSARL_v2hebeo90z","5b0b77a9d282ff00015b7531","reward","img/slot.png","74","","test","","","","","",""
"null","62661","pSARL_v2","pSARL_v2hebeo90z","5b0b77a9d282ff00015b7531","points","<div class=""verylowPoints""> -6 </div>","null","na","test","","","","1","-6","0"
"null","63471","pSARL_v2","pSARL_v2hebeo90z","5b0b77a9d282ff00015b7531","freq","img/orange_2bandit_b2.png","null","70","test","0","22","22","2","",""
"null","63628","pSARL_v2","pSARL_v2hebeo90z","5b0b77a9d282ff00015b7531","fixation","img/fixation.png","null","","test","","","","","",""
"null","64439","pSARL_v2","pSARL_v2hebeo90z","5b0b77a9d282ff00015b7531","freq","img/orange_2bandit_b2.png","null","70","test","0","23","23","2","",""
"null","64596","pSARL_v2","pSARL_v2hebeo90z","5b0b77a9d282ff00015b7531","fixation","img/fixation.png","null","","test","","","","","",""
"243","64843","pSARL_v2","pSARL_v2hebeo90z","5b0b77a9d282ff00015b7531","infreq","img/green_2bandit_b2.png","70","68","test","0","24","24","2","",""
"null","65408","pSARL_v2","pSARL_v2hebeo90z","5b0b77a9d282ff00015b7531","infreq_resp","img/green_2bandit_b.png","70","68","test","","","","2","",""
"null","65564","pSARL_v2","pSARL_v2hebeo90z","5b0b77a9d282ff00015b7531","fixation","img/fixation.png","null","","test","","","","","",""
"532","66100","pSARL_v2","pSARL_v2hebeo90z","5b0b77a9d282ff00015b7531","freq","img/orange_2bandit_b2.png","70","70","test","1","25","25","2","",""
"null","66374","pSARL_v2","pSARL_v2hebeo90z","5b0b77a9d282ff00015b7531","freq_resp","img/orange_2bandit_b.png","70","70","test","","","","2","",""
"null","66529","pSARL_v2","pSARL_v2hebeo90z","5b0b77a9d282ff00015b7531","fixation","img/fixation.png","null","","test","","","","","",""
"609","67141","pSARL_v2","pSARL_v2hebeo90z","5b0b77a9d282ff00015b7531","infreq","img/green_2bandit_b2.png","68","68","test","1","26","26","2","",""
"null","67340","pSARL_v2","pSARL_v2hebeo90z","5b0b77a9d282ff00015b7531","infreq_resp","img/green_2bandit_b.png","68","68","test","","","","2","",""
"null","67497","pSARL_v2","pSARL_v2hebeo90z","5b0b77a9d282ff00015b7531","fixation","img/fixation.png","null","","test","","","","","",""
"438","67938","pSARL_v2","pSARL_v2hebeo90z","5b0b77a9d282ff00015b7531","freq","img/orange_2bandit_b2.png","70","70","test","1","27","27","2","",""
"null","68308","pSARL_v2","pSARL_v2hebeo90z","5b0b77a9d282ff00015b7531","freq_resp","img/orange_2bandit_b.png","70","70","test","","","","2","",""
"null","68464","pSARL_v2","pSARL_v2hebeo90z","5b0b77a9d282ff00015b7531","fixation","img/fixation.png","null","","test","","","","","",""
"416","68884","pSARL_v2","pSARL_v2hebeo90z","5b0b77a9d282ff00015b7531","freq","img/orange_2bandit_b2.png","68","70","test","0","28","28","2","",""
"null","69273","pSARL_v2","pSARL_v2hebeo90z","5b0b77a9d282ff00015b7531","freq_resp","img/orange_2bandit_b.png","68","70","test","","","","2","",""
"null","69429","pSARL_v2","pSARL_v2hebeo90z","5b0b77a9d282ff00015b7531","fixation","img/fixation.png","null","","test","","","","","",""
"372","69805","pSARL_v2","pSARL_v2hebeo90z","5b0b77a9d282ff00015b7531","freq","img/orange_2bandit_b2.png","68","70","test","0","29","29","2","",""
"null","70240","pSARL_v2","pSARL_v2hebeo90z","5b0b77a9d282ff00015b7531","freq_resp","img/orange_2bandit_b.png","68","70","test","","","","2","",""
"null","70397","pSARL_v2","pSARL_v2hebeo90z","5b0b77a9d282ff00015b7531","fixation","img/fixation.png","null","","test","","","","","",""
"184","70583","pSARL_v2","pSARL_v2hebeo90z","5b0b77a9d282ff00015b7531","freq","img/orange_2bandit_b2.png","70","70","test","1","30","30","2","",""
"null","71207","pSARL_v2","pSARL_v2hebeo90z","5b0b77a9d282ff00015b7531","freq_resp","img/orange_2bandit_b.png","70","70","test","","","","2","",""
"null","71364","pSARL_v2","pSARL_v2hebeo90z","5b0b77a9d282ff00015b7531","fixation","img/fixation.png","null","","test","","","","","",""
"309","71677","pSARL_v2","pSARL_v2hebeo90z","5b0b77a9d282ff00015b7531","freq","img/orange_2bandit_b2.png","70","70","test","1","31","31","2","",""
"null","72174","pSARL_v2","pSARL_v2hebeo90z","5b0b77a9d282ff00015b7531","freq_resp","img/orange_2bandit_b.png","70","70","test","","","","2","",""
"null","72331","pSARL_v2","pSARL_v2hebeo90z","5b0b77a9d282ff00015b7531","fixation","img/fixation.png","null","","test","","","","","",""
"288","72622","pSARL_v2","pSARL_v2hebeo90z","5b0b77a9d282ff00015b7531","freq","img/orange_2bandit_b2.png","70","70","test","1","32","32","2","",""
"null","73142","pSARL_v2","pSARL_v2hebeo90z","5b0b77a9d282ff00015b7531","freq_resp","img/orange_2bandit_b.png","70","70","test","","","","2","",""
"null","73296","pSARL_v2","pSARL_v2hebeo90z","5b0b77a9d282ff00015b7531","fixation","img/fixation.png","null","","test","","","","","",""
"301","73599","pSARL_v2","pSARL_v2hebeo90z","5b0b77a9d282ff00015b7531","freq","img/orange_2bandit_b2.png","70","70","test","1","33","33","2","",""
"null","74110","pSARL_v2","pSARL_v2hebeo90z","5b0b77a9d282ff00015b7531","freq_resp","img/orange_2bandit_b.png","70","70","test","","","","2","",""
"null","74266","pSARL_v2","pSARL_v2hebeo90z","5b0b77a9d282ff00015b7531","fixation","img/fixation.png","null","","test","","","","","",""
"283","74552","pSARL_v2","pSARL_v2hebeo90z","5b0b77a9d282ff00015b7531","freq","img/orange_2bandit_b2.png","70","70","test","1","34","34","2","",""
"null","75074","pSARL_v2","pSARL_v2hebeo90z","5b0b77a9d282ff00015b7531","freq_resp","img/orange_2bandit_b.png","70","70","test","","","","2","",""
"null","75234","pSARL_v2","pSARL_v2hebeo90z","5b0b77a9d282ff00015b7531","fixation","img/fixation.png","null","","test","","","","","",""
"427","75665","pSARL_v2","pSARL_v2hebeo90z","5b0b77a9d282ff00015b7531","freq","img/orange_2bandit_b2.png","70","70","test","1","35","35","2","",""
"null","76056","pSARL_v2","pSARL_v2hebeo90z","5b0b77a9d282ff00015b7531","freq_resp","img/orange_2bandit_b.png","70","70","test","","","","2","",""
"null","76212","pSARL_v2","pSARL_v2hebeo90z","5b0b77a9d282ff00015b7531","fixation","img/fixation.png","null","","test","","","","","",""
"671","76887","pSARL_v2","pSARL_v2hebeo90z","5b0b77a9d282ff00015b7531","freq","img/orange_2bandit_b2.png","70","70","test","1","36","36","2","",""
"null","77021","pSARL_v2","pSARL_v2hebeo90z","5b0b77a9d282ff00015b7531","freq_resp","img/orange_2bandit_b.png","70","70","test","","","","2","",""
"null","77177","pSARL_v2","pSARL_v2hebeo90z","5b0b77a9d282ff00015b7531","fixation","img/fixation.png","null","","test","","","","","",""
"473","77653","pSARL_v2","pSARL_v2hebeo90z","5b0b77a9d282ff00015b7531","freq","img/orange_2bandit_b2.png","70","70","test","1","37","37","2","",""
"null","77986","pSARL_v2","pSARL_v2hebeo90z","5b0b77a9d282ff00015b7531","freq_resp","img/orange_2bandit_b.png","70","70","test","","","","2","",""
"null","78141","pSARL_v2","pSARL_v2hebeo90z","5b0b77a9d282ff00015b7531","fixation","img/fixation.png","null","","test","","","","","",""
"574","78717","pSARL_v2","pSARL_v2hebeo90z","5b0b77a9d282ff00015b7531","freq","img/orange_2bandit_b2.png","70","70","test","1","38","38","2","",""
"null","78947","pSARL_v2","pSARL_v2hebeo90z","5b0b77a9d282ff00015b7531","freq_resp","img/orange_2bandit_b.png","70","70","test","","","","2","",""
"null","79102","pSARL_v2","pSARL_v2hebeo90z","5b0b77a9d282ff00015b7531","fixation","img/fixation.png","null","","test","","","","","",""
"466","79571","pSARL_v2","pSARL_v2hebeo90z","5b0b77a9d282ff00015b7531","freq","img/orange_2bandit_b2.png","70","70","test","1","39","39","2","",""
"null","79908","pSARL_v2","pSARL_v2hebeo90z","5b0b77a9d282ff00015b7531","freq_resp","img/orange_2bandit_b.png","70","70","test","","","","2","",""
"null","80065","pSARL_v2","pSARL_v2hebeo90z","5b0b77a9d282ff00015b7531","fixation","img/fixation.png","null","","test","","","","","",""
"361","80429","pSARL_v2","pSARL_v2hebeo90z","5b0b77a9d282ff00015b7531","freq","img/orange_2bandit_b2.png","70","70","test","1","40","40","2","",""
"null","80876","pSARL_v2","pSARL_v2hebeo90z","5b0b77a9d282ff00015b7531","freq_resp","img/orange_2bandit_b.png","70","70","test","","","","2","",""
"null","81032","pSARL_v2","pSARL_v2hebeo90z","5b0b77a9d282ff00015b7531","fixation","img/fixation.png","null","","test","","","","","",""
"2988","84023","pSARL_v2","pSARL_v2hebeo90z","5b0b77a9d282ff00015b7531","reward","img/slot.png","74","","test","","","","","",""
"null","84786","pSARL_v2","pSARL_v2hebeo90z","5b0b77a9d282ff00015b7531","points","<div class=""verylowPoints""> -11 </div>","null","na","test","","","","2","-11","1"
"null","85593","pSARL_v2","pSARL_v2hebeo90z","5b0b77a9d282ff00015b7531","freq","img/orange_2bandit_b2.png","null","70","test","0","41","41","3","",""
"null","85748","pSARL_v2","pSARL_v2hebeo90z","5b0b77a9d282ff00015b7531","fixation","img/fixation.png","null","","test","","","","","",""
"554","86305","pSARL_v2","pSARL_v2hebeo90z","5b0b77a9d282ff00015b7531","freq","img/orange_2bandit_b2.png","68","70","test","0","42","42","3","",""
"null","86560","pSARL_v2","pSARL_v2hebeo90z","5b0b77a9d282ff00015b7531","freq_resp","img/orange_2bandit_b.png","68","70","test","","","","3","",""
"null","86719","pSARL_v2","pSARL_v2hebeo90z","5b0b77a9d282ff00015b7531","fixation","img/fixation.png","null","","test","","","","","",""
"98","86819","pSARL_v2","pSARL_v2hebeo90z","5b0b77a9d282ff00015b7531","freq","img/orange_2bandit_b2.png","70","70","test","1","43","43","3","",""
"null","87530","pSARL_v2","pSARL_v2hebeo90z","5b0b77a9d282ff00015b7531","freq_resp","img/orange_2bandit_b.png","70","70","test","","","","3","",""
"null","87685","pSARL_v2","pSARL_v2hebeo90z","5b0b77a9d282ff00015b7531","fixation","img/fixation.png","null","","test","","","","","",""
"110","87798","pSARL_v2","pSARL_v2hebeo90z","5b0b77a9d282ff00015b7531","freq","img/orange_2bandit_b2.png","70","70","test","1","44","44","3","",""
"null","88497","pSARL_v2","pSARL_v2hebeo90z","5b0b77a9d282ff00015b7531","freq_resp","img/orange_2bandit_b.png","70","70","test","","","","3","",""
"null","88653","pSARL_v2","pSARL_v2hebeo90z","5b0b77a9d282ff00015b7531","fixation","img/fixation.png","null","","test","","","","","",""
"90","88746","pSARL_v2","pSARL_v2hebeo90z","5b0b77a9d282ff00015b7531","freq","img/orange_2bandit_b2.png","70","70","test","1","45","45","3","",""
"null","89461","pSARL_v2","pSARL_v2hebeo90z","5b0b77a9d282ff00015b7531","freq_resp","img/orange_2bandit_b.png","70","70","test","","","","3","",""
"null","89617","pSARL_v2","pSARL_v2hebeo90z","5b0b77a9d282ff00015b7531","fixation","img/fixation.png","null","","test","","","","","",""
"69","89688","pSARL_v2","pSARL_v2hebeo90z","5b0b77a9d282ff00015b7531","freq","img/orange_2bandit_b2.png","70","70","test","1","46","46","3","",""
"null","90430","pSARL_v2","pSARL_v2hebeo90z","5b0b77a9d282ff00015b7531","freq_resp","img/orange_2bandit_b.png","70","70","test","","","","3","",""
"null","90586","pSARL_v2","pSARL_v2hebeo90z","5b0b77a9d282ff00015b7531","fixation","img/fixation.png","null","","test","","","","","",""
"40","90629","pSARL_v2","pSARL_v2hebeo90z","5b0b77a9d282ff00015b7531","freq","img/orange_2bandit_b2.png","70","70","test","1","47","47","3","",""
"null","91398","pSARL_v2","pSARL_v2hebeo90z","5b0b77a9d282ff00015b7531","freq_resp","img/orange_2bandit_b.png","70","70","test","","","","3","",""
"null","91553","pSARL_v2","pSARL_v2hebeo90z","5b0b77a9d282ff00015b7531","fixation","img/fixation.png","null","","test","","","","","",""
"23","91578","pSARL_v2","pSARL_v2hebeo90z","5b0b77a9d282ff00015b7531","freq","img/orange_2bandit_b2.png","70","70","test","1","48","48","3","",""
"null","92362","pSARL_v2","pSARL_v2hebeo90z","5b0b77a9d282ff00015b7531","freq_resp","img/orange_2bandit_b.png","70","70","test","","","","3","",""
"null","92516","pSARL_v2","pSARL_v2hebeo90z","5b0b77a9d282ff00015b7531","fixation","img/fixation.png","null","","test","","","","","",""
"null","93328","pSARL_v2","pSARL_v2hebeo90z","5b0b77a9d282ff00015b7531","freq","img/orange_2bandit_b2.png","null","70","test","0","49","49","3","",""
"null","93486","pSARL_v2","pSARL_v2hebeo90z","5b0b77a9d282ff00015b7531","fixation","img/fixation.png","null","","test","","","","","",""
"650","94139","pSARL_v2","pSARL_v2hebeo90z","5b0b77a9d282ff00015b7531","freq","img/orange_2bandit_b2.png","70","70","test","1","50","50","3","",""
"null","94298","pSARL_v2","pSARL_v2hebeo90z","5b0b77a9d282ff00015b7531","freq_resp","img/orange_2bandit_b.png","70","70","test","","","","3","",""
"null","94466","pSARL_v2","pSARL_v2hebeo90z","5b0b77a9d282ff00015b7531","fixation","img/fixation.png","null","","test","","","","","",""
"580","95049","pSARL_v2","pSARL_v2hebeo90z","5b0b77a9d282ff00015b7531","freq","img/orange_2bandit_b2.png","70","70","test","1","51","51","3","",""
"null","95279","pSARL_v2","pSARL_v2hebeo90z","5b0b77a9d282ff00015b7531","freq_resp","img/orange_2bandit_b.png","70","70","test","","","","3","",""
"null","95435","pSARL_v2","pSARL_v2hebeo90z","5b0b77a9d282ff00015b7531","fixation","img/fixation.png","null","","test","","","","","",""
"457","95895","pSARL_v2","pSARL_v2hebeo90z","5b0b77a9d282ff00015b7531","freq","img/orange_2bandit_b2.png","70","70","test","1","52","52","3","",""
"null","96243","pSARL_v2","pSARL_v2hebeo90z","5b0b77a9d282ff00015b7531","freq_resp","img/orange_2bandit_b.png","70","70","test","","","","3","",""
"null","96400","pSARL_v2","pSARL_v2hebeo90z","5b0b77a9d282ff00015b7531","fixation","img/fixation.png","null","","test","","","","","",""
"342","96744","pSARL_v2","pSARL_v2hebeo90z","5b0b77a9d282ff00015b7531","freq","img/orange_2bandit_b2.png","70","70","test","1","53","53","3","",""
"null","97210","pSARL_v2","pSARL_v2hebeo90z","5b0b77a9d282ff00015b7531","freq_resp","img/orange_2bandit_b.png","70","70","test","","","","3","",""
"null","97365","pSARL_v2","pSARL_v2hebeo90z","5b0b77a9d282ff00015b7531","fixation","img/fixation.png","null","","test","","","","","",""
"261","97630","pSARL_v2","pSARL_v2hebeo90z","5b0b77a9d282ff00015b7531","freq","img/orange_2bandit_b2.png","70","70","test","1","54","54","3","",""
"null","98187","pSARL_v2","pSARL_v2hebeo90z","5b0b77a9d282ff00015b7531","freq_resp","img/orange_2bandit_b.png","70","70","test","","","","3","",""
"null","98343","pSARL_v2","pSARL_v2hebeo90z","5b0b77a9d282ff00015b7531","fixation","img/fixation.png","null","","test","","","","","",""
"249","98596","pSARL_v2","pSARL_v2hebeo90z","5b0b77a9d282ff00015b7531","freq","img/orange_2bandit_b2.png","70","70","test","1","55","55","3","",""
"null","99156","pSARL_v2","pSARL_v2hebeo90z","5b0b77a9d282ff00015b7531","freq_resp","img/orange_2bandit_b.png","70","70","test","","","","3","",""
"null","99310","pSARL_v2","pSARL_v2hebeo90z","5b0b77a9d282ff00015b7531","fixation","img/fixation.png","null","","test","","","","","",""
"180","99493","pSARL_v2","pSARL_v2hebeo90z","5b0b77a9d282ff00015b7531","infreq","img/green_2bandit_b2.png","70","68","test","0","56","56","3","",""
"null","100119","pSARL_v2","pSARL_v2hebeo90z","5b0b77a9d282ff00015b7531","infreq_resp","img/green_2bandit_b.png","70","68","test","","","","3","",""
"null","100276","pSARL_v2","pSARL_v2hebeo90z","5b0b77a9d282ff00015b7531","fixation","img/fixation.png","null","","test","","","","","",""
"395","100674","pSARL_v2","pSARL_v2hebeo90z","5b0b77a9d282ff00015b7531","freq","img/orange_2bandit_b2.png","70","70","test","1","57","57","3","",""
"null","101085","pSARL_v2","pSARL_v2hebeo90z","5b0b77a9d282ff00015b7531","freq_resp","img/orange_2bandit_b.png","70","70","test","","","","3","",""
"null","101242","pSARL_v2","pSARL_v2hebeo90z","5b0b77a9d282ff00015b7531","fixation","img/fixation.png","null","","test","","","","","",""
"301","101547","pSARL_v2","pSARL_v2hebeo90z","5b0b77a9d282ff00015b7531","freq","img/orange_2bandit_b2.png","70","70","test","1","58","58","3","",""
"null","102053","pSARL_v2","pSARL_v2hebeo90z","5b0b77a9d282ff00015b7531","freq_resp","img/orange_2bandit_b.png","70","70","test","","","","3","",""
"null","102209","pSARL_v2","pSARL_v2hebeo90z","5b0b77a9d282ff00015b7531","fixation","img/fixation.png","null","","test","","","","","",""
"344","102557","pSARL_v2","pSARL_v2hebeo90z","5b0b77a9d282ff00015b7531","freq","img/orange_2bandit_b2.png","70","70","test","1","59","59","3","",""
"null","103021","pSARL_v2","pSARL_v2hebeo90z","5b0b77a9d282ff00015b7531","freq_resp","img/orange_2bandit_b.png","70","70","test","","","","3","",""
"null","103178","pSARL_v2","pSARL_v2hebeo90z","5b0b77a9d282ff00015b7531","fixation","img/fixation.png","null","","test","","","","","",""
"325","103506","pSARL_v2","pSARL_v2hebeo90z","5b0b77a9d282ff00015b7531","infreq","img/green_2bandit_b2.png","70","68","test","0","60","60","3","",""
"null","103989","pSARL_v2","pSARL_v2hebeo90z","5b0b77a9d282ff00015b7531","infreq_resp","img/green_2bandit_b.png","70","68","test","","","","3","",""
"null","104145","pSARL_v2","pSARL_v2hebeo90z","5b0b77a9d282ff00015b7531","fixation","img/fixation.png","null","","test","","","","","",""
"359","104507","pSARL_v2","pSARL_v2hebeo90z","5b0b77a9d282ff00015b7531","freq","img/orange_2bandit_b2.png","70","70","test","1","61","61","3","",""
"null","104953","pSARL_v2","pSARL_v2hebeo90z","5b0b77a9d282ff00015b7531","freq_resp","img/orange_2bandit_b.png","70","70","test","","","","3","",""
"null","105109","pSARL_v2","pSARL_v2hebeo90z","5b0b77a9d282ff00015b7531","fixation","img/fixation.png","null","","test","","","","","",""
"334","105445","pSARL_v2","pSARL_v2hebeo90z","5b0b77a9d282ff00015b7531","freq","img/orange_2bandit_b2.png","68","70","test","0","62","62","3","",""
"null","105920","pSARL_v2","pSARL_v2hebeo90z","5b0b77a9d282ff00015b7531","freq_resp","img/orange_2bandit_b.png","68","70","test","","","","3","",""
"null","106076","pSARL_v2","pSARL_v2hebeo90z","5b0b77a9d282ff00015b7531","fixation","img/fixation.png","null","","test","","","","","",""
"2750","108829","pSARL_v2","pSARL_v2hebeo90z","5b0b77a9d282ff00015b7531","reward","img/slot.png","74","","test","","","","","",""
"null","109589","pSARL_v2","pSARL_v2hebeo90z","5b0b77a9d282ff00015b7531","points","<div class=""verylowPoints""> -7 </div>","null","na","test","","","","3","-7","2"
"null","110399","pSARL_v2","pSARL_v2hebeo90z","5b0b77a9d282ff00015b7531","freq","img/orange_2bandit_b2.png","null","70","test","0","63","63","4","",""
"null","110557","pSARL_v2","pSARL_v2hebeo90z","5b0b77a9d282ff00015b7531","fixation","img/fixation.png","null","","test","","","","","",""
"597","111158","pSARL_v2","pSARL_v2hebeo90z","5b0b77a9d282ff00015b7531","infreq","img/green_2bandit_b2.png","68","68","test","1","64","64","4","",""
"null","111379","pSARL_v2","pSARL_v2hebeo90z","5b0b77a9d282ff00015b7531","infreq_resp","img/green_2bandit_b.png","68","68","test","","","","4","",""
"null","111533","pSARL_v2","pSARL_v2hebeo90z","5b0b77a9d282ff00015b7531","fixation","img/fixation.png","null","","test","","","","","",""
"371","111907","pSARL_v2","pSARL_v2hebeo90z","5b0b77a9d282ff00015b7531","freq","img/orange_2bandit_b2.png","70","70","test","1","65","65","4","",""
"null","112354","pSARL_v2","pSARL_v2hebeo90z","5b0b77a9d282ff00015b7531","freq_resp","img/orange_2bandit_b.png","70","70","test","","","","4","",""
"null","112510","pSARL_v2","pSARL_v2hebeo90z","5b0b77a9d282ff00015b7531","fixation","img/fixation.png","null","","test","","","","","",""
"453","112965","pSARL_v2","pSARL_v2hebeo90z","5b0b77a9d282ff00015b7531","freq","img/orange_2bandit_b2.png","70","70","test","1","66","66","4","",""
"null","113320","pSARL_v2","pSARL_v2hebeo90z","5b0b77a9d282ff00015b7531","freq_resp","img/orange_2bandit_b.png","70","70","test","","","","4","",""
"null","113476","pSARL_v2","pSARL_v2hebeo90z","5b0b77a9d282ff00015b7531","fixation","img/fixation.png","null","","test","","","","","",""
"359","113838","pSARL_v2","pSARL_v2hebeo90z","5b0b77a9d282ff00015b7531","freq","img/orange_2bandit_b2.png","70","70","test","1","67","67","4","",""
"null","114287","pSARL_v2","pSARL_v2hebeo90z","5b0b77a9d282ff00015b7531","freq_resp","img/orange_2bandit_b.png","70","70","test","","","","4","",""
"null","114442","pSARL_v2","pSARL_v2hebeo90z","5b0b77a9d282ff00015b7531","fixation","img/fixation.png","null","","test","","","","","",""
"371","114817","pSARL_v2","pSARL_v2hebeo90z","5b0b77a9d282ff00015b7531","infreq","img/green_2bandit_b2.png","68","68","test","1","68","68","4","",""
"null","115251","pSARL_v2","pSARL_v2hebeo90z","5b0b77a9d282ff00015b7531","infreq_resp","img/green_2bandit_b.png","68","68","test","","","","4","",""
"null","115407","pSARL_v2","pSARL_v2hebeo90z","5b0b77a9d282ff00015b7531","fixation","img/fixation.png","null","","test","","","","","",""
"384","115793","pSARL_v2","pSARL_v2hebeo90z","5b0b77a9d282ff00015b7531","freq","img/orange_2bandit_b2.png","70","70","test","1","69","69","4","",""
"null","116213","pSARL_v2","pSARL_v2hebeo90z","5b0b77a9d282ff00015b7531","freq_resp","img/orange_2bandit_b.png","70","70","test","","","","4","",""
"null","116369","pSARL_v2","pSARL_v2hebeo90z","5b0b77a9d282ff00015b7531","fixation","img/fixation.png","null","","test","","","","","",""
"320","116691","pSARL_v2","pSARL_v2hebeo90z","5b0b77a9d282ff00015b7531","freq","img/orange_2bandit_b2.png","70","70","test","1","70","70","4","",""
"null","117179","pSARL_v2","pSARL_v2hebeo90z","5b0b77a9d282ff00015b7531","freq_resp","img/orange_2bandit_b.png","70","70","test","","","","4","",""
"null","117334","pSARL_v2","pSARL_v2hebeo90z","5b0b77a9d282ff00015b7531","fixation","img/fixation.png","null","","test","","","","","",""
"331","117669","pSARL_v2","pSARL_v2hebeo90z","5b0b77a9d282ff00015b7531","freq","img/orange_2bandit_b2.png","70","70","test","1","71","71","4","",""
"null","118144","pSARL_v2","pSARL_v2hebeo90z","5b0b77a9d282ff00015b7531","freq_resp","img/orange_2bandit_b.png","70","70","test","","","","4","",""
"null","118301","pSARL_v2","pSARL_v2hebeo90z","5b0b77a9d282ff00015b7531","fixation","img/fixation.png","null","","test","","","","","",""
"721","119025","pSARL_v2","pSARL_v2hebeo90z","5b0b77a9d282ff00015b7531","freq","img/orange_2bandit_b2.png","70","70","test","1","72","72","4","",""
"null","119113","pSARL_v2","pSARL_v2hebeo90z","5b0b77a9d282ff00015b7531","freq_resp","img/orange_2bandit_b.png","70","70","test","","","","4","",""
"null","119269","pSARL_v2","pSARL_v2hebeo90z","5b0b77a9d282ff00015b7531","fixation","img/fixation.png","null","","test","","","","","",""
"null","120080","pSARL_v2","pSARL_v2hebeo90z","5b0b77a9d282ff00015b7531","freq","img/orange_2bandit_b2.png","null","70","test","0","73","73","4","",""
"null","120236","pSARL_v2","pSARL_v2hebeo90z","5b0b77a9d282ff00015b7531","fixation","img/fixation.png","null","","test","","","","","",""
"50","120289","pSARL_v2","pSARL_v2hebeo90z","5b0b77a9d282ff00015b7531","freq","img/orange_2bandit_b2.png","70","70","test","1","74","74","4","",""
"null","121048","pSARL_v2","pSARL_v2hebeo90z","5b0b77a9d282ff00015b7531","freq_resp","img/orange_2bandit_b.png","70","70","test","","","","4","",""
"null","121204","pSARL_v2","pSARL_v2hebeo90z","5b0b77a9d282ff00015b7531","fixation","img/fixation.png","null","","test","","","","","",""
"95","121302","pSARL_v2","pSARL_v2hebeo90z","5b0b77a9d282ff00015b7531","freq","img/orange_2bandit_b2.png","70","70","test","1","75","75","4","",""
"null","122011","pSARL_v2","pSARL_v2hebeo90z","5b0b77a9d282ff00015b7531","freq_resp","img/orange_2bandit_b.png","70","70","test","","","","4","",""
"null","122165","pSARL_v2","pSARL_v2hebeo90z","5b0b77a9d282ff00015b7531","fixation","img/fixation.png","null","","test","","","","","",""
"310","122480","pSARL_v2","pSARL_v2hebeo90z","5b0b77a9d282ff00015b7531","freq","img/orange_2bandit_b2.png","70","70","test","1","76","76","4","",""
"null","122977","pSARL_v2","pSARL_v2hebeo90z","5b0b77a9d282ff00015b7531","freq_resp","img/orange_2bandit_b.png","70","70","test","","","","4","",""
"null","123133","pSARL_v2","pSARL_v2hebeo90z","5b0b77a9d282ff00015b7531","fixation","img/fixation.png","null","","test","","","","","",""
"312","123448","pSARL_v2","pSARL_v2hebeo90z","5b0b77a9d282ff00015b7531","freq","img/orange_2bandit_b2.png","70","70","test","1","77","77","4","",""
"null","123940","pSARL_v2","pSARL_v2hebeo90z","5b0b77a9d282ff00015b7531","freq_resp","img/orange_2bandit_b.png","70","70","test","","","","4","",""
"null","124095","pSARL_v2","pSARL_v2hebeo90z","5b0b77a9d282ff00015b7531","fixation","img/fixation.png","null","","test","","","","","",""
"315","124414","pSARL_v2","pSARL_v2hebeo90z","5b0b77a9d282ff00015b7531","freq","img/orange_2bandit_b2.png","70","70","test","1","78","78","4","",""
"null","124902","pSARL_v2","pSARL_v2hebeo90z","5b0b77a9d282ff00015b7531","freq_resp","img/orange_2bandit_b.png","70","70","test","","","","4","",""
"null","125056","pSARL_v2","pSARL_v2hebeo90z","5b0b77a9d282ff00015b7531","fixation","img/fixation.png","null","","test","","","","","",""
"271","125331","pSARL_v2","pSARL_v2hebeo90z","5b0b77a9d282ff00015b7531","freq","img/orange_2bandit_b2.png","70","70","test","1","79","79","4","",""
"null","125868","pSARL_v2","pSARL_v2hebeo90z","5b0b77a9d282ff00015b7531","freq_resp","img/orange_2bandit_b.png","70","70","test","","","","4","",""
"null","126023","pSARL_v2","pSARL_v2hebeo90z","5b0b77a9d282ff00015b7531","fixation","img/fixation.png","null","","test","","","","","",""
"350","126377","pSARL_v2","pSARL_v2hebeo90z","5b0b77a9d282ff00015b7531","freq","img/orange_2bandit_b2.png","70","70","test","1","80","80","4","",""
"null","126831","pSARL_v2","pSARL_v2hebeo90z","5b0b77a9d282ff00015b7531","freq_resp","img/orange_2bandit_b.png","70","70","test","","","","4","",""
"null","126987","pSARL_v2","pSARL_v2hebeo90z","5b0b77a9d282ff00015b7531","fixation","img/fixation.png","null","","test","","","","","",""
"275","127266","pSARL_v2","pSARL_v2hebeo90z","5b0b77a9d282ff00015b7531","freq","img/orange_2bandit_b2.png","70","70","test","1","81","81","4","",""
"null","127799","pSARL_v2","pSARL_v2hebeo90z","5b0b77a9d282ff00015b7531","freq_resp","img/orange_2bandit_b.png","70","70","test","","","","4","",""
"null","127955","pSARL_v2","pSARL_v2hebeo90z","5b0b77a9d282ff00015b7531","fixation","img/fixation.png","null","","test","","","","","",""
"276","128235","pSARL_v2","pSARL_v2hebeo90z","5b0b77a9d282ff00015b7531","freq","img/orange_2bandit_b2.png","70","70","test","1","82","82","4","",""
"null","128766","pSARL_v2","pSARL_v2hebeo90z","5b0b77a9d282ff00015b7531","freq_resp","img/orange_2bandit_b.png","70","70","test","","","","4","",""
"null","128921","pSARL_v2","pSARL_v2hebeo90z","5b0b77a9d282ff00015b7531","fixation","img/fixation.png","null","","test","","","","","",""
"238","129162","pSARL_v2","pSARL_v2hebeo90z","5b0b77a9d282ff00015b7531","freq","img/orange_2bandit_b2.png","70","70","test","1","83","83","4","",""
"null","129732","pSARL_v2","pSARL_v2hebeo90z","5b0b77a9d282ff00015b7531","freq_resp","img/orange_2bandit_b.png","70","70","test","","","","4","",""
"null","129888","pSARL_v2","pSARL_v2hebeo90z","5b0b77a9d282ff00015b7531","fixation","img/fixation.png","null","","test","","","","","",""
"969","130859","pSARL_v2","pSARL_v2hebeo90z","5b0b77a9d282ff00015b7531","reward","img/slot.png","74","","test","","","","","",""
"null","131619","pSARL_v2","pSARL_v2hebeo90z","5b0b77a9d282ff00015b7531","points","<div class=""verylowPoints""> -3 </div>","null","na","test","","","","4","-3","3"
"579","132201","pSARL_v2","pSARL_v2hebeo90z","5b0b77a9d282ff00015b7531","freq","img/orange_2bandit_b2.png","70","70","test","1","84","84","5","",""
"null","132428","pSARL_v2","pSARL_v2hebeo90z","5b0b77a9d282ff00015b7531","freq_resp","img/orange_2bandit_b.png","70","70","test","","","","5","",""
"null","132583","pSARL_v2","pSARL_v2hebeo90z","5b0b77a9d282ff00015b7531","fixation","img/fixation.png","null","","test","","","","","",""
"544","133131","pSARL_v2","pSARL_v2hebeo90z","5b0b77a9d282ff00015b7531","freq","img/orange_2bandit_b2.png","70","70","test","1","85","85","5","",""
"null","133394","pSARL_v2","pSARL_v2hebeo90z","5b0b77a9d282ff00015b7531","freq_resp","img/orange_2bandit_b.png","70","70","test","","","","5","",""
"null","133550","pSARL_v2","pSARL_v2hebeo90z","5b0b77a9d282ff00015b7531","fixation","img/fixation.png","null","","test","","","","","",""
"487","134040","pSARL_v2","pSARL_v2hebeo90z","5b0b77a9d282ff00015b7531","freq","img/orange_2bandit_b2.png","70","70","test","1","86","86","5","",""
"null","134361","pSARL_v2","pSARL_v2hebeo90z","5b0b77a9d282ff00015b7531","freq_resp","img/orange_2bandit_b.png","70","70","test","","","","5","",""
"null","134516","pSARL_v2","pSARL_v2hebeo90z","5b0b77a9d282ff00015b7531","fixation","img/fixation.png","null","","test","","","","","",""
"366","134885","pSARL_v2","pSARL_v2hebeo90z","5b0b77a9d282ff00015b7531","freq","img/orange_2bandit_b2.png","70","70","test","1","87","87","5","",""
"null","135326","pSARL_v2","pSARL_v2hebeo90z","5b0b77a9d282ff00015b7531","freq_resp","img/orange_2bandit_b.png","70","70","test","","","","5","",""
"null","135480","pSARL_v2","pSARL_v2hebeo90z","5b0b77a9d282ff00015b7531","fixation","img/fixation.png","null","","test","","","","","",""
"448","135931","pSARL_v2","pSARL_v2hebeo90z","5b0b77a9d282ff00015b7531","freq","img/orange_2bandit_b2.png","70","70","test","1","88","88","5","",""
"null","136292","pSARL_v2","pSARL_v2hebeo90z","5b0b77a9d282ff00015b7531","freq_resp","img/orange_2bandit_b.png","70","70","test","","","","5","",""
"null","136449","pSARL_v2","pSARL_v2hebeo90z","5b0b77a9d282ff00015b7531","fixation","img/fixation.png","null","","test","","","","","",""
"500","136952","pSARL_v2","pSARL_v2hebeo90z","5b0b77a9d282ff00015b7531","freq","img/orange_2bandit_b2.png","70","70","test","1","89","89","5","",""
"null","137257","pSARL_v2","pSARL_v2hebeo90z","5b0b77a9d282ff00015b7531","freq_resp","img/orange_2bandit_b.png","70","70","test","","","","5","",""
"null","137412","pSARL_v2","pSARL_v2hebeo90z","5b0b77a9d282ff00015b7531","fixation","img/fixation.png","null","","test","","","","","",""
"449","137865","pSARL_v2","pSARL_v2hebeo90z","5b0b77a9d282ff00015b7531","freq","img/orange_2bandit_b2.png","70","70","test","1","90","90","5","",""
"null","138223","pSARL_v2","pSARL_v2hebeo90z","5b0b77a9d282ff00015b7531","freq_resp","img/orange_2bandit_b.png","70","70","test","","","","5","",""
"null","138379","pSARL_v2","pSARL_v2hebeo90z","5b0b77a9d282ff00015b7531","fixation","img/fixation.png","null","","test","","","","","",""
"269","138651","pSARL_v2","pSARL_v2hebeo90z","5b0b77a9d282ff00015b7531","freq","img/orange_2bandit_b2.png","70","70","test","1","91","91","5","",""
"null","139189","pSARL_v2","pSARL_v2hebeo90z","5b0b77a9d282ff00015b7531","freq_resp","img/orange_2bandit_b.png","70","70","test","","","","5","",""
"null","139343","pSARL_v2","pSARL_v2hebeo90z","5b0b77a9d282ff00015b7531","fixation","img/fixation.png","null","","test","","","","","",""
"288","139634","pSARL_v2","pSARL_v2hebeo90z","5b0b77a9d282ff00015b7531","freq","img/orange_2bandit_b2.png","70","70","test","1","92","92","5","",""
"null","140155","pSARL_v2","pSARL_v2hebeo90z","5b0b77a9d282ff00015b7531","freq_resp","img/orange_2bandit_b.png","70","70","test","","","","5","",""
"null","140310","pSARL_v2","pSARL_v2hebeo90z","5b0b77a9d282ff00015b7531","fixation","img/fixation.png","null","","test","","","","","",""
"312","140626","pSARL_v2","pSARL_v2hebeo90z","5b0b77a9d282ff00015b7531","freq","img/orange_2bandit_b2.png","70","70","test","1","93","93","5","",""
"null","141120","pSARL_v2","pSARL_v2hebeo90z","5b0b77a9d282ff00015b7531","freq_resp","img/orange_2bandit_b.png","70","70","test","","","","5","",""
"null","141275","pSARL_v2","pSARL_v2hebeo90z","5b0b77a9d282ff00015b7531","fixation","img/fixation.png","null","","test","","","","","",""
"393","141671","pSARL_v2","pSARL_v2hebeo90z","5b0b77a9d282ff00015b7531","freq","img/orange_2bandit_b2.png","70","70","test","1","94","94","5","",""
"null","142088","pSARL_v2","pSARL_v2hebeo90z","5b0b77a9d282ff00015b7531","freq_resp","img/orange_2bandit_b.png","70","70","test","","","","5","",""
"null","142243","pSARL_v2","pSARL_v2hebeo90z","5b0b77a9d282ff00015b7531","fixation","img/fixation.png","null","","test","","","","","",""
"442","142689","pSARL_v2","pSARL_v2hebeo90z","5b0b77a9d282ff00015b7531","freq","img/orange_2bandit_b2.png","70","70","test","1","95","95","5","",""
"null","143055","pSARL_v2","pSARL_v2hebeo90z","5b0b77a9d282ff00015b7531","freq_resp","img/orange_2bandit_b.png","70","70","test","","","","5","",""
"null","143210","pSARL_v2","pSARL_v2hebeo90z","5b0b77a9d282ff00015b7531","fixation","img/fixation.png","null","","test","","","","","",""
"453","143666","pSARL_v2","pSARL_v2hebeo90z","5b0b77a9d282ff00015b7531","freq","img/orange_2bandit_b2.png","70","70","test","1","96","96","5","",""
"null","144021","pSARL_v2","pSARL_v2hebeo90z","5b0b77a9d282ff00015b7531","freq_resp","img/orange_2bandit_b.png","70","70","test","","","","5","",""
"null","144177","pSARL_v2","pSARL_v2hebeo90z","5b0b77a9d282ff00015b7531","fixation","img/fixation.png","null","","test","","","","","",""
"479","144659","pSARL_v2","pSARL_v2hebeo90z","5b0b77a9d282ff00015b7531","freq","img/orange_2bandit_b2.png","70","70","test","1","97","97","5","",""
"null","144989","pSARL_v2","pSARL_v2hebeo90z","5b0b77a9d282ff00015b7531","freq_resp","img/orange_2bandit_b.png","70","70","test","","","","5","",""
"null","145143","pSARL_v2","pSARL_v2hebeo90z","5b0b77a9d282ff00015b7531","fixation","img/fixation.png","null","","test","","","","","",""
"505","145652","pSARL_v2","pSARL_v2hebeo90z","5b0b77a9d282ff00015b7531","freq","img/orange_2bandit_b2.png","70","70","test","1","98","98","5","",""
"null","145954","pSARL_v2","pSARL_v2hebeo90z","5b0b77a9d282ff00015b7531","freq_resp","img/orange_2bandit_b.png","70","70","test","","","","5","",""
"null","146110","pSARL_v2","pSARL_v2hebeo90z","5b0b77a9d282ff00015b7531","fixation","img/fixation.png","null","","test","","","","","",""
"333","146446","pSARL_v2","pSARL_v2hebeo90z","5b0b77a9d282ff00015b7531","freq","img/orange_2bandit_b2.png","70","70","test","1","99","99","5","",""
"null","146919","pSARL_v2","pSARL_v2hebeo90z","5b0b77a9d282ff00015b7531","freq_resp","img/orange_2bandit_b.png","70","70","test","","","","5","",""
"null","147074","pSARL_v2","pSARL_v2hebeo90z","5b0b77a9d282ff00015b7531","fixation","img/fixation.png","null","","test","","","","","",""
"214","147292","pSARL_v2","pSARL_v2hebeo90z","5b0b77a9d282ff00015b7531","infreq","img/green_2bandit_b2.png","70","68","test","0","100","100","5","",""
"null","147882","pSARL_v2","pSARL_v2hebeo90z","5b0b77a9d282ff00015b7531","infreq_resp","img/green_2bandit_b.png","70","68","test","","","","5","",""
"null","148037","pSARL_v2","pSARL_v2hebeo90z","5b0b77a9d282ff00015b7531","fixation","img/fixation.png","null","","test","","","","","",""
"380","148421","pSARL_v2","pSARL_v2hebeo90z","5b0b77a9d282ff00015b7531","infreq","img/green_2bandit_b2.png","68","68","test","1","101","101","5","",""
"null","148848","pSARL_v2","pSARL_v2hebeo90z","5b0b77a9d282ff00015b7531","infreq_resp","img/green_2bandit_b.png","68","68","test","","","","5","",""
"null","149004","pSARL_v2","pSARL_v2hebeo90z","5b0b77a9d282ff00015b7531","fixation","img/fixation.png","null","","test","","","","","",""
"411","149418","pSARL_v2","pSARL_v2hebeo90z","5b0b77a9d282ff00015b7531","freq","img/orange_2bandit_b2.png","70","70","test","1","102","102","5","",""
"null","149815","pSARL_v2","pSARL_v2hebeo90z","5b0b77a9d282ff00015b7531","freq_resp","img/orange_2bandit_b.png","70","70","test","","","","5","",""
"null","149972","pSARL_v2","pSARL_v2hebeo90z","5b0b77a9d282ff00015b7531","fixation","img/fixation.png","null","","test","","","","","",""
"382","150357","pSARL_v2","pSARL_v2hebeo90z","5b0b77a9d282ff00015b7531","infreq","img/green_2bandit_b2.png","68","68","test","1","103","103","5","",""
"null","150782","pSARL_v2","pSARL_v2hebeo90z","5b0b77a9d282ff00015b7531","infreq_resp","img/green_2bandit_b.png","68","68","test","","","","5","",""
"null","150938","pSARL_v2","pSARL_v2hebeo90z","5b0b77a9d282ff00015b7531","fixation","img/fixation.png","null","","test","","","","","",""
"408","151349","pSARL_v2","pSARL_v2hebeo90z","5b0b77a9d282ff00015b7531","freq","img/orange_2bandit_b2.png","68","70","test","0","104","104","5","",""
"null","151746","pSARL_v2","pSARL_v2hebeo90z","5b0b77a9d282ff00015b7531","freq_resp","img/orange_2bandit_b.png","68","70","test","","","","5","",""
"null","151901","pSARL_v2","pSARL_v2hebeo90z","5b0b77a9d282ff00015b7531","fixation","img/fixation.png","null","","test","","","","","",""
"370","152274","pSARL_v2","pSARL_v2hebeo90z","5b0b77a9d282ff00015b7531","freq","img/orange_2bandit_b2.png","70","70","test","1","105","105","5","",""
"null","152712","pSARL_v2","pSARL_v2hebeo90z","5b0b77a9d282ff00015b7531","freq_resp","img/orange_2bandit_b.png","70","70","test","","","","5","",""
"null","152869","pSARL_v2","pSARL_v2hebeo90z","5b0b77a9d282ff00015b7531","fixation","img/fixation.png","null","","test","","","","","",""
"357","153228","pSARL_v2","pSARL_v2hebeo90z","5b0b77a9d282ff00015b7531","freq","img/orange_2bandit_b2.png","70","70","test","1","106","106","5","",""
"null","153680","pSARL_v2","pSARL_v2hebeo90z","5b0b77a9d282ff00015b7531","freq_resp","img/orange_2bandit_b.png","70","70","test","","","","5","",""
"null","153834","pSARL_v2","pSARL_v2hebeo90z","5b0b77a9d282ff00015b7531","fixation","img/fixation.png","null","","test","","","","","",""
"806","154644","pSARL_v2","pSARL_v2hebeo90z","5b0b77a9d282ff00015b7531","reward","img/slot.png","74","","test","","","","","",""
"null","155405","pSARL_v2","pSARL_v2hebeo90z","5b0b77a9d282ff00015b7531","points","<div class=""veryhighPoints""> +1 </div>","null","na","test","","","","5","1","4"
"null","156220","pSARL_v2","pSARL_v2hebeo90z","5b0b77a9d282ff00015b7531","freq","img/orange_2bandit_b2.png","null","70","test","0","107","107","6","",""
"null","156374","pSARL_v2","pSARL_v2hebeo90z","5b0b77a9d282ff00015b7531","fixation","img/fixation.png","null","","test","","","","","",""
"6","156382","pSARL_v2","pSARL_v2hebeo90z","5b0b77a9d282ff00015b7531","freq","img/orange_2bandit_b2.png","70","70","test","1","108","108","6","",""
"null","157185","pSARL_v2","pSARL_v2hebeo90z","5b0b77a9d282ff00015b7531","freq_resp","img/orange_2bandit_b.png","70","70","test","","","","6","",""
"null","157342","pSARL_v2","pSARL_v2hebeo90z","5b0b77a9d282ff00015b7531","fixation","img/fixation.png","null","","test","","","","","",""
"45","157389","pSARL_v2","pSARL_v2hebeo90z","5b0b77a9d282ff00015b7531","freq","img/orange_2bandit_b2.png","70","70","test","1","109","109","6","",""
"null","158154","pSARL_v2","pSARL_v2hebeo90z","5b0b77a9d282ff00015b7531","freq_resp","img/orange_2bandit_b.png","70","70","test","","","","6","",""
"null","158307","pSARL_v2","pSARL_v2hebeo90z","5b0b77a9d282ff00015b7531","fixation","img/fixation.png","null","","test","","","","","",""
"16","158326","pSARL_v2","pSARL_v2hebeo90z","5b0b77a9d282ff00015b7531","freq","img/orange_2bandit_b2.png","70","70","test","1","110","110","6","",""
"null","159121","pSARL_v2","pSARL_v2hebeo90z","5b0b77a9d282ff00015b7531","freq_resp","img/orange_2bandit_b.png","70","70","test","","","","6","",""
"null","159275","pSARL_v2","pSARL_v2hebeo90z","5b0b77a9d282ff00015b7531","fixation","img/fixation.png","null","","test","","","","","",""
"80","159358","pSARL_v2","pSARL_v2hebeo90z","5b0b77a9d282ff00015b7531","freq","img/orange_2bandit_b2.png","70","70","test","1","111","111","6","",""
"null","160088","pSARL_v2","pSARL_v2hebeo90z","5b0b77a9d282ff00015b7531","freq_resp","img/orange_2bandit_b.png","70","70","test","","","","6","",""
"null","160242","pSARL_v2","pSARL_v2hebeo90z","5b0b77a9d282ff00015b7531","fixation","img/fixation.png","null","","test","","","","","",""
"283","160529","pSARL_v2","pSARL_v2hebeo90z","5b0b77a9d282ff00015b7531","freq","img/orange_2bandit_b2.png","70","70","test","1","112","112","6","",""
"null","161054","pSARL_v2","pSARL_v2hebeo90z","5b0b77a9d282ff00015b7531","freq_resp","img/orange_2bandit_b.png","70","70","test","","","","6","",""
"null","161210","pSARL_v2","pSARL_v2hebeo90z","5b0b77a9d282ff00015b7531","fixation","img/fixation.png","null","","test","","","","","",""
"404","161616","pSARL_v2","pSARL_v2hebeo90z","5b0b77a9d282ff00015b7531","freq","img/orange_2bandit_b2.png","70","70","test","1","113","113","6","",""
"null","162024","pSARL_v2","pSARL_v2hebeo90z","5b0b77a9d282ff00015b7531","freq_resp","img/orange_2bandit_b.png","70","70","test","","","","6","",""
"null","162182","pSARL_v2","pSARL_v2hebeo90z","5b0b77a9d282ff00015b7531","fixation","img/fixation.png","null","","test","","","","","",""
"406","162591","pSARL_v2","pSARL_v2hebeo90z","5b0b77a9d282ff00015b7531","freq","img/orange_2bandit_b2.png","70","70","test","1","114","114","6","",""
"null","162990","pSARL_v2","pSARL_v2hebeo90z","5b0b77a9d282ff00015b7531","freq_resp","img/orange_2bandit_b.png","70","70","test","","","","6","",""
"null","163146","pSARL_v2","pSARL_v2hebeo90z","5b0b77a9d282ff00015b7531","fixation","img/fixation.png","null","","test","","","","","",""
"439","163589","pSARL_v2","pSARL_v2hebeo90z","5b0b77a9d282ff00015b7531","freq","img/orange_2bandit_b2.png","70","70","test","1","115","115","6","",""
"null","163968","pSARL_v2","pSARL_v2hebeo90z","5b0b77a9d282ff00015b7531","freq_resp","img/orange_2bandit_b.png","70","70","test","","","","6","",""
"null","164123","pSARL_v2","pSARL_v2hebeo90z","5b0b77a9d282ff00015b7531","fixation","img/fixation.png","null","","test","","","","","",""
"439","164565","pSARL_v2","pSARL_v2hebeo90z","5b0b77a9d282ff00015b7531","infreq","img/green_2bandit_b2.png","68","68","test","1","116","116","6","",""
"null","164936","pSARL_v2","pSARL_v2hebeo90z","5b0b77a9d282ff00015b7531","infreq_resp","img/green_2bandit_b.png","68","68","test","","","","6","",""
"null","165093","pSARL_v2","pSARL_v2hebeo90z","5b0b77a9d282ff00015b7531","fixation","img/fixation.png","null","","test","","","","","",""
"367","165462","pSARL_v2","pSARL_v2hebeo90z","5b0b77a9d282ff00015b7531","freq","img/orange_2bandit_b2.png","70","70","test","1","117","117","6","",""
"null","165902","pSARL_v2","pSARL_v2hebeo90z","5b0b77a9d282ff00015b7531","freq_resp","img/orange_2bandit_b.png","70","70","test","","","","6","",""
"null","166056","pSARL_v2","pSARL_v2hebeo90z","5b0b77a9d282ff00015b7531","fixation","img/fixation.png","null","","test","","","","","",""
"373","166432","pSARL_v2","pSARL_v2hebeo90z","5b0b77a9d282ff00015b7531","infreq","img/green_2bandit_b2.png","68","68","test","1","118","118","6","",""
"null","166865","pSARL_v2","pSARL_v2hebeo90z","5b0b77a9d282ff00015b7531","infreq_resp","img/green_2bandit_b.png","68","68","test","","","","6","",""
"null","167021","pSARL_v2","pSARL_v2hebeo90z","5b0b77a9d282ff00015b7531","fixation","img/fixation.png","null","","test","","","","","",""
"410","167434","pSARL_v2","pSARL_v2hebeo90z","5b0b77a9d282ff00015b7531","freq","img/orange_2bandit_b2.png","70","70","test","1","119","119","6","",""
"null","167830","pSARL_v2","pSARL_v2hebeo90z","5b0b77a9d282ff00015b7531","freq_resp","img/orange_2bandit_b.png","70","70","test","","","","6","",""
"null","167986","pSARL_v2","pSARL_v2hebeo90z","5b0b77a9d282ff00015b7531","fixation","img/fixation.png","null","","test","","","","","",""
"373","168363","pSARL_v2","pSARL_v2hebeo90z","5b0b77a9d282ff00015b7531","freq","img/orange_2bandit_b2.png","70","70","test","1","120","120","6","",""
"null","168796","pSARL_v2","pSARL_v2hebeo90z","5b0b77a9d282ff00015b7531","freq_resp","img/orange_2bandit_b.png","70","70","test","","","","6","",""
"null","168952","pSARL_v2","pSARL_v2hebeo90z","5b0b77a9d282ff00015b7531","fixation","img/fixation.png","null","","test","","","","","",""
"353","169308","pSARL_v2","pSARL_v2hebeo90z","5b0b77a9d282ff00015b7531","freq","img/orange_2bandit_b2.png","70","70","test","1","121","121","6","",""
"null","169764","pSARL_v2","pSARL_v2hebeo90z","5b0b77a9d282ff00015b7531","freq_resp","img/orange_2bandit_b.png","70","70","test","","","","6","",""
"null","169919","pSARL_v2","pSARL_v2hebeo90z","5b0b77a9d282ff00015b7531","fixation","img/fixation.png","null","","test","","","","","",""
"332","170254","pSARL_v2","pSARL_v2hebeo90z","5b0b77a9d282ff00015b7531","freq","img/orange_2bandit_b2.png","70","70","test","1","122","122","6","",""
"null","170730","pSARL_v2","pSARL_v2hebeo90z","5b0b77a9d282ff00015b7531","freq_resp","img/orange_2bandit_b.png","70","70","test","","","","6","",""
"null","170887","pSARL_v2","pSARL_v2hebeo90z","5b0b77a9d282ff00015b7531","fixation","img/fixation.png","null","","test","","","","","",""
"326","171216","pSARL_v2","pSARL_v2hebeo90z","5b0b77a9d282ff00015b7531","freq","img/orange_2bandit_b2.png","70","70","test","1","123","123","6","",""
"null","171699","pSARL_v2","pSARL_v2hebeo90z","5b0b77a9d282ff00015b7531","freq_resp","img/orange_2bandit_b.png","70","70","test","","","","6","",""
"null","171853","pSARL_v2","pSARL_v2hebeo90z","5b0b77a9d282ff00015b7531","fixation","img/fixation.png","null","","test","","","","","",""
"320","172177","pSARL_v2","pSARL_v2hebeo90z","5b0b77a9d282ff00015b7531","freq","img/orange_2bandit_b2.png","70","70","test","1","124","124","6","",""
"null","172663","pSARL_v2","pSARL_v2hebeo90z","5b0b77a9d282ff00015b7531","freq_resp","img/orange_2bandit_b.png","70","70","test","","","","6","",""
"null","172819","pSARL_v2","pSARL_v2hebeo90z","5b0b77a9d282ff00015b7531","fixation","img/fixation.png","null","","test","","","","","",""
"517","173339","pSARL_v2","pSARL_v2hebeo90z","5b0b77a9d282ff00015b7531","freq","img/orange_2bandit_b2.png","70","70","test","1","125","125","6","",""
"null","173640","pSARL_v2","pSARL_v2hebeo90z","5b0b77a9d282ff00015b7531","freq_resp","img/orange_2bandit_b.png","70","70","test","","","","6","",""
"null","173793","pSARL_v2","pSARL_v2hebeo90z","5b0b77a9d282ff00015b7531","fixation","img/fixation.png","null","","test","","","","","",""
"598","174395","pSARL_v2","pSARL_v2hebeo90z","5b0b77a9d282ff00015b7531","freq","img/orange_2bandit_b2.png","70","70","test","1","126","126","6","",""
"null","174605","pSARL_v2","pSARL_v2hebeo90z","5b0b77a9d282ff00015b7531","freq_resp","img/orange_2bandit_b.png","70","70","test","","","","6","",""
"null","174762","pSARL_v2","pSARL_v2hebeo90z","5b0b77a9d282ff00015b7531","fixation","img/fixation.png","null","","test","","","","","",""
"328","175093","pSARL_v2","pSARL_v2hebeo90z","5b0b77a9d282ff00015b7531","freq","img/orange_2bandit_b2.png","70","70","test","1","127","127","6","",""
"null","175572","pSARL_v2","pSARL_v2hebeo90z","5b0b77a9d282ff00015b7531","freq_resp","img/orange_2bandit_b.png","70","70","test","","","","6","",""
"null","175728","pSARL_v2","pSARL_v2hebeo90z","5b0b77a9d282ff00015b7531","fixation","img/fixation.png","null","","test","","","","","",""
"279","176010","pSARL_v2","pSARL_v2hebeo90z","5b0b77a9d282ff00015b7531","freq","img/orange_2bandit_b2.png","70","70","test","1","128","128","6","",""
"null","176547","pSARL_v2","pSARL_v2hebeo90z","5b0b77a9d282ff00015b7531","freq_resp","img/orange_2bandit_b.png","70","70","test","","","","6","",""
"null","176702","pSARL_v2","pSARL_v2hebeo90z","5b0b77a9d282ff00015b7531","fixation","img/fixation.png","null","","test","","","","","",""
"324","177028","pSARL_v2","pSARL_v2hebeo90z","5b0b77a9d282ff00015b7531","freq","img/orange_2bandit_b2.png","70","70","test","1","129","129","6","",""
"null","177514","pSARL_v2","pSARL_v2hebeo90z","5b0b77a9d282ff00015b7531","freq_resp","img/orange_2bandit_b.png","70","70","test","","","","6","",""
"null","177669","pSARL_v2","pSARL_v2hebeo90z","5b0b77a9d282ff00015b7531","fixation","img/fixation.png","null","","test","","","","","",""
"495","178165","pSARL_v2","pSARL_v2hebeo90z","5b0b77a9d282ff00015b7531","reward","img/slot.png","74","","test","","","","","",""
"null","178932","pSARL_v2","pSARL_v2hebeo90z","5b0b77a9d282ff00015b7531","points","<div class=""verylowPoints""> -7 </div>","null","na","test","","","","6","-7","5"
"706","179641","pSARL_v2","pSARL_v2hebeo90z","5b0b77a9d282ff00015b7531","freq","img/orange_2bandit_b2.png","70","70","test","1","130","130","7","",""
"null","179738","pSARL_v2","pSARL_v2hebeo90z","5b0b77a9d282ff00015b7531","freq_resp","img/orange_2bandit_b.png","70","70","test","","","","7","",""
"null","179894","pSARL_v2","pSARL_v2hebeo90z","5b0b77a9d282ff00015b7531","fixation","img/fixation.png","null","","test","","","","","",""
"532","180430","pSARL_v2","pSARL_v2hebeo90z","5b0b77a9d282ff00015b7531","freq","img/orange_2bandit_b2.png","70","70","test","1","131","131","7","",""
"null","180716","pSARL_v2","pSARL_v2hebeo90z","5b0b77a9d282ff00015b7531","freq_resp","img/orange_2bandit_b.png","70","70","test","","","","7","",""
"null","180870","pSARL_v2","pSARL_v2hebeo90z","5b0b77a9d282ff00015b7531","fixation","img/fixation.png","null","","test","","","","","",""
"338","181212","pSARL_v2","pSARL_v2hebeo90z","5b0b77a9d282ff00015b7531","freq","img/orange_2bandit_b2.png","70","70","test","1","132","132","7","",""
"null","181682","pSARL_v2","pSARL_v2hebeo90z","5b0b77a9d282ff00015b7531","freq_resp","img/orange_2bandit_b.png","70","70","test","","","","7","",""
"null","181839","pSARL_v2","pSARL_v2hebeo90z","5b0b77a9d282ff00015b7531","fixation","img/fixation.png","null","","test","","","","","",""
"244","182087","pSARL_v2","pSARL_v2hebeo90z","5b0b77a9d282ff00015b7531","freq","img/orange_2bandit_b2.png","70","70","test","1","133","133","7","",""
"null","182648","pSARL_v2","pSARL_v2hebeo90z","5b0b77a9d282ff00015b7531","freq_resp","img/orange_2bandit_b.png","70","70","test","","","","7","",""
"null","182802","pSARL_v2","pSARL_v2hebeo90z","5b0b77a9d282ff00015b7531","fixation","img/fixation.png","null","","test","","","","","",""
"151","182956","pSARL_v2","pSARL_v2hebeo90z","5b0b77a9d282ff00015b7531","freq","img/orange_2bandit_b2.png","70","70","test","1","134","134","7","",""
"null","183612","pSARL_v2","pSARL_v2hebeo90z","5b0b77a9d282ff00015b7531","freq_resp","img/orange_2bandit_b.png","70","70","test","","","","7","",""
"null","183766","pSARL_v2","pSARL_v2hebeo90z","5b0b77a9d282ff00015b7531","fixation","img/fixation.png","null","","test","","","","","",""
"362","184132","pSARL_v2","pSARL_v2hebeo90z","5b0b77a9d282ff00015b7531","freq","img/orange_2bandit_b2.png","70","70","test","1","135","135","7","",""
"null","184580","pSARL_v2","pSARL_v2hebeo90z","5b0b77a9d282ff00015b7531","freq_resp","img/orange_2bandit_b.png","70","70","test","","","","7","",""
"null","184736","pSARL_v2","pSARL_v2hebeo90z","5b0b77a9d282ff00015b7531","fixation","img/fixation.png","null","","test","","","","","",""
"427","185166","pSARL_v2","pSARL_v2hebeo90z","5b0b77a9d282ff00015b7531","freq","img/orange_2bandit_b2.png","70","70","test","1","136","136","7","",""
"null","185547","pSARL_v2","pSARL_v2hebeo90z","5b0b77a9d282ff00015b7531","freq_resp","img/orange_2bandit_b.png","70","70","test","","","","7","",""
"null","185703","pSARL_v2","pSARL_v2hebeo90z","5b0b77a9d282ff00015b7531","fixation","img/fixation.png","null","","test","","","","","",""
"679","186386","pSARL_v2","pSARL_v2hebeo90z","5b0b77a9d282ff00015b7531","freq","img/orange_2bandit_b2.png","70","70","test","1","137","137","7","",""
"null","186514","pSARL_v2","pSARL_v2hebeo90z","5b0b77a9d282ff00015b7531","freq_resp","img/orange_2bandit_b.png","70","70","test","","","","7","",""
"null","186670","pSARL_v2","pSARL_v2hebeo90z","5b0b77a9d282ff00015b7531","fixation","img/fixation.png","null","","test","","","","","",""
"686","187360","pSARL_v2","pSARL_v2hebeo90z","5b0b77a9d282ff00015b7531","infreq","img/green_2bandit_b2.png","70","68","test","0","138","138","7","",""
"null","187480","pSARL_v2","pSARL_v2hebeo90z","5b0b77a9d282ff00015b7531","infreq_resp","img/green_2bandit_b.png","70","68","test","","","","7","",""
"null","187635","pSARL_v2","pSARL_v2hebeo90z","5b0b77a9d282ff00015b7531","fixation","img/fixation.png","null","","test","","","","","",""
"44","187683","pSARL_v2","pSARL_v2hebeo90z","5b0b77a9d282ff00015b7531","freq","img/orange_2bandit_b2.png","68","70","test","0","139","139","7","",""
"null","188448","pSARL_v2","pSARL_v2hebeo90z","5b0b77a9d282ff00015b7531","freq_resp","img/orange_2bandit_b.png","68","70","test","","","","7","",""
"null","188601","pSARL_v2","pSARL_v2hebeo90z","5b0b77a9d282ff00015b7531","fixation","img/fixation.png","null","","test","","","","","",""
"362","188967","pSARL_v2","pSARL_v2hebeo90z","5b0b77a9d282ff00015b7531","freq","img/orange_2bandit_b2.png","70","70","test","1","140","140","7","",""
"null","189415","pSARL_v2","pSARL_v2hebeo90z","5b0b77a9d282ff00015b7531","freq_resp","img/orange_2bandit_b.png","70","70","test","","","","7","",""
"null","189571","pSARL_v2","pSARL_v2hebeo90z","5b0b77a9d282ff00015b7531","fixation","img/fixation.png","null","","test","","","","","",""
"331","189905","pSARL_v2","pSARL_v2hebeo90z","5b0b77a9d282ff00015b7531","freq","img/orange_2bandit_b2.png","70","70","test","1","141","141","7","",""
"null","190382","pSARL_v2","pSARL_v2hebeo90z","5b0b77a9d282ff00015b7531","freq_resp","img/orange_2bandit_b.png","70","70","test","","","","7","",""
"null","190537","pSARL_v2","pSARL_v2hebeo90z","5b0b77a9d282ff00015b7531","fixation","img/fixation.png","null","","test","","","","","",""
"385","190926","pSARL_v2","pSARL_v2hebeo90z","5b0b77a9d282ff00015b7531","freq","img/orange_2bandit_b2.png","70","70","test","1","142","142","7","",""
"null","191346","pSARL_v2","pSARL_v2hebeo90z","5b0b77a9d282ff00015b7531","freq_resp","img/orange_2bandit_b.png","70","70","test","","","","7","",""
"null","191502","pSARL_v2","pSARL_v2hebeo90z","5b0b77a9d282ff00015b7531","fixation","img/fixation.png","null","","test","","","","","",""
"283","191788","pSARL_v2","pSARL_v2hebeo90z","5b0b77a9d282ff00015b7531","freq","img/orange_2bandit_b2.png","70","70","test","1","143","143","7","",""
"null","192314","pSARL_v2","pSARL_v2hebeo90z","5b0b77a9d282ff00015b7531","freq_resp","img/orange_2bandit_b.png","70","70","test","","","","7","",""
"null","192468","pSARL_v2","pSARL_v2hebeo90z","5b0b77a9d282ff00015b7531","fixation","img/fixation.png","null","","test","","","","","",""
"446","192918","pSARL_v2","pSARL_v2hebeo90z","5b0b77a9d282ff00015b7531","freq","img/orange_2bandit_b2.png","70","70","test","1","144","144","7","",""
"null","193281","pSARL_v2","pSARL_v2hebeo90z","5b0b77a9d282ff00015b7531","freq_resp","img/orange_2bandit_b.png","70","70","test","","","","7","",""
"null","193436","pSARL_v2","pSARL_v2hebeo90z","5b0b77a9d282ff00015b7531","fixation","img/fixation.png","null","","test","","","","","",""
"334","193774","pSARL_v2","pSARL_v2hebeo90z","5b0b77a9d282ff00015b7531","freq","img/orange_2bandit_b2.png","70","70","test","1","145","145","7","",""
"null","194248","pSARL_v2","pSARL_v2hebeo90z","5b0b77a9d282ff00015b7531","freq_resp","img/orange_2bandit_b.png","70","70","test","","","","7","",""
"null","194402","pSARL_v2","pSARL_v2hebeo90z","5b0b77a9d282ff00015b7531","fixation","img/fixation.png","null","","test","","","","","",""
"266","194672","pSARL_v2","pSARL_v2hebeo90z","5b0b77a9d282ff00015b7531","freq","img/orange_2bandit_b2.png","70","70","test","1","146","146","7","",""
"null","195213","pSARL_v2","pSARL_v2hebeo90z","5b0b77a9d282ff00015b7531","freq_resp","img/orange_2bandit_b.png","70","70","test","","","","7","",""
"null","195368","pSARL_v2","pSARL_v2hebeo90z","5b0b77a9d282ff00015b7531","fixation","img/fixation.png","null","","test","","","","","",""
"151","195522","pSARL_v2","pSARL_v2hebeo90z","5b0b77a9d282ff00015b7531","freq","img/orange_2bandit_b2.png","70","70","test","1","147","147","7","",""
"null","196181","pSARL_v2","pSARL_v2hebeo90z","5b0b77a9d282ff00015b7531","freq_resp","img/orange_2bandit_b.png","70","70","test","","","","7","",""
"null","196337","pSARL_v2","pSARL_v2hebeo90z","5b0b77a9d282ff00015b7531","fixation","img/fixation.png","null","","test","","","","","",""
"299","196638","pSARL_v2","pSARL_v2hebeo90z","5b0b77a9d282ff00015b7531","freq","img/orange_2bandit_b2.png","70","70","test","1","148","148","7","",""
"null","197145","pSARL_v2","pSARL_v2hebeo90z","5b0b77a9d282ff00015b7531","freq_resp","img/orange_2bandit_b.png","70","70","test","","","","7","",""
"null","197301","pSARL_v2","pSARL_v2hebeo90z","5b0b77a9d282ff00015b7531","fixation","img/fixation.png","null","","test","","","","","",""
"329","197632","pSARL_v2","pSARL_v2hebeo90z","5b0b77a9d282ff00015b7531","freq","img/orange_2bandit_b2.png","70","70","test","1","149","149","7","",""
"null","198108","pSARL_v2","pSARL_v2hebeo90z","5b0b77a9d282ff00015b7531","freq_resp","img/orange_2bandit_b.png","70","70","test","","","","7","",""
"null","198264","pSARL_v2","pSARL_v2hebeo90z","5b0b77a9d282ff00015b7531","fixation","img/fixation.png","null","","test","","","","","",""
"394","198661","pSARL_v2","pSARL_v2hebeo90z","5b0b77a9d282ff00015b7531","freq","img/orange_2bandit_b2.png","70","70","test","1","150","150","7","",""
"null","199074","pSARL_v2","pSARL_v2hebeo90z","5b0b77a9d282ff00015b7531","freq_resp","img/orange_2bandit_b.png","70","70","test","","","","7","",""
"null","199230","pSARL_v2","pSARL_v2hebeo90z","5b0b77a9d282ff00015b7531","fixation","img/fixation.png","null","","test","","","","","",""
"444","199678","pSARL_v2","pSARL_v2hebeo90z","5b0b77a9d282ff00015b7531","freq","img/orange_2bandit_b2.png","70","70","test","1","151","151","7","",""
"null","200042","pSARL_v2","pSARL_v2hebeo90z","5b0b77a9d282ff00015b7531","freq_resp","img/orange_2bandit_b.png","70","70","test","","","","7","",""
"null","200198","pSARL_v2","pSARL_v2hebeo90z","5b0b77a9d282ff00015b7531","fixation","img/fixation.png","null","","test","","","","","",""
"403","200604","pSARL_v2","pSARL_v2hebeo90z","5b0b77a9d282ff00015b7531","infreq","img/green_2bandit_b2.png","68","68","test","1","152","152","7","",""
"null","201011","pSARL_v2","pSARL_v2hebeo90z","5b0b77a9d282ff00015b7531","infreq_resp","img/green_2bandit_b.png","68","68","test","","","","7","",""
"null","201168","pSARL_v2","pSARL_v2hebeo90z","5b0b77a9d282ff00015b7531","fixation","img/fixation.png","null","","test","","","","","",""
"390","201561","pSARL_v2","pSARL_v2hebeo90z","5b0b77a9d282ff00015b7531","freq","img/orange_2bandit_b2.png","70","70","test","1","153","153","7","",""
"null","201978","pSARL_v2","pSARL_v2hebeo90z","5b0b77a9d282ff00015b7531","freq_resp","img/orange_2bandit_b.png","70","70","test","","","","7","",""
"null","202134","pSARL_v2","pSARL_v2hebeo90z","5b0b77a9d282ff00015b7531","fixation","img/fixation.png","null","","test","","","","","",""
"415","202551","pSARL_v2","pSARL_v2hebeo90z","5b0b77a9d282ff00015b7531","freq","img/orange_2bandit_b2.png","70","70","test","1","154","154","7","",""
"null","202946","pSARL_v2","pSARL_v2hebeo90z","5b0b77a9d282ff00015b7531","freq_resp","img/orange_2bandit_b.png","70","70","test","","","","7","",""
"null","203101","pSARL_v2","pSARL_v2hebeo90z","5b0b77a9d282ff00015b7531","fixation","img/fixation.png","null","","test","","","","","",""
"436","203541","pSARL_v2","pSARL_v2hebeo90z","5b0b77a9d282ff00015b7531","freq","img/orange_2bandit_b2.png","70","70","test","1","155","155","7","",""
"null","203914","pSARL_v2","pSARL_v2hebeo90z","5b0b77a9d282ff00015b7531","freq_resp","img/orange_2bandit_b.png","70","70","test","","","","7","",""
"null","204069","pSARL_v2","pSARL_v2hebeo90z","5b0b77a9d282ff00015b7531","fixation","img/fixation.png","null","","test","","","","","",""
"642","204713","pSARL_v2","pSARL_v2hebeo90z","5b0b77a9d282ff00015b7531","reward","img/slot.png","74","","test","","","","","",""
"null","205470","pSARL_v2","pSARL_v2hebeo90z","5b0b77a9d282ff00015b7531","points","<div class=""verylowPoints""> -6 </div>","null","na","test","","","","7","-6","6"
"null","206280","pSARL_v2","pSARL_v2hebeo90z","5b0b77a9d282ff00015b7531","freq","img/orange_2bandit_b2.png","null","70","test","0","156","156","8","",""
"null","206435","pSARL_v2","pSARL_v2hebeo90z","5b0b77a9d282ff00015b7531","fixation","img/fixation.png","null","","test","","","","","",""
"597","207035","pSARL_v2","pSARL_v2hebeo90z","5b0b77a9d282ff00015b7531","freq","img/orange_2bandit_b2.png","70","70","test","1","157","157","8","",""
"null","207246","pSARL_v2","pSARL_v2hebeo90z","5b0b77a9d282ff00015b7531","freq_resp","img/orange_2bandit_b.png","70","70","test","","","","8","",""
"null","207401","pSARL_v2","pSARL_v2hebeo90z","5b0b77a9d282ff00015b7531","fixation","img/fixation.png","null","","test","","","","","",""
"412","207816","pSARL_v2","pSARL_v2hebeo90z","5b0b77a9d282ff00015b7531","freq","img/orange_2bandit_b2.png","70","70","test","1","158","158","8","",""
"null","208213","pSARL_v2","pSARL_v2hebeo90z","5b0b77a9d282ff00015b7531","freq_resp","img/orange_2bandit_b.png","70","70","test","","","","8","",""
"null","208370","pSARL_v2","pSARL_v2hebeo90z","5b0b77a9d282ff00015b7531","fixation","img/fixation.png","null","","test","","","","","",""
"193","208566","pSARL_v2","pSARL_v2hebeo90z","5b0b77a9d282ff00015b7531","freq","img/orange_2bandit_b2.png","70","70","test","1","159","159","8","",""
"null","209179","pSARL_v2","pSARL_v2hebeo90z","5b0b77a9d282ff00015b7531","freq_resp","img/orange_2bandit_b.png","70","70","test","","","","8","",""
"null","209335","pSARL_v2","pSARL_v2hebeo90z","5b0b77a9d282ff00015b7531","fixation","img/fixation.png","null","","test","","","","","",""
"113","209452","pSARL_v2","pSARL_v2hebeo90z","5b0b77a9d282ff00015b7531","freq","img/orange_2bandit_b2.png","70","70","test","1","160","160","8","",""
"null","210148","pSARL_v2","pSARL_v2hebeo90z","5b0b77a9d282ff00015b7531","freq_resp","img/orange_2bandit_b.png","70","70","test","","","","8","",""
"null","210302","pSARL_v2","pSARL_v2hebeo90z","5b0b77a9d282ff00015b7531","fixation","img/fixation.png","null","","test","","","","","",""
"204","210509","pSARL_v2","pSARL_v2hebeo90z","5b0b77a9d282ff00015b7531","freq","img/orange_2bandit_b2.png","70","70","test","1","161","161","8","",""
"null","211114","pSARL_v2","pSARL_v2hebeo90z","5b0b77a9d282ff00015b7531","freq_resp","img/orange_2bandit_b.png","70","70","test","","","","8","",""
"null","211267","pSARL_v2","pSARL_v2hebeo90z","5b0b77a9d282ff00015b7531","fixation","img/fixation.png","null","","test","","","","","",""
"173","211443","pSARL_v2","pSARL_v2hebeo90z","5b0b77a9d282ff00015b7531","freq","img/orange_2bandit_b2.png","70","70","test","1","162","162","8","",""
"null","212082","pSARL_v2","pSARL_v2hebeo90z","5b0b77a9d282ff00015b7531","freq_resp","img/orange_2bandit_b.png","70","70","test","","","","8","",""
"null","212235","pSARL_v2","pSARL_v2hebeo90z","5b0b77a9d282ff00015b7531","fixation","img/fixation.png","null","","test","","","","","",""
"293","212532","pSARL_v2","pSARL_v2hebeo90z","5b0b77a9d282ff00015b7531","freq","img/orange_2bandit_b2.png","70","70","test","1","163","163","8","",""
"null","213047","pSARL_v2","pSARL_v2hebeo90z","5b0b77a9d282ff00015b7531","freq_resp","img/orange_2bandit_b.png","70","70","test","","","","8","",""
"null","213202","pSARL_v2","pSARL_v2hebeo90z","5b0b77a9d282ff00015b7531","fixation","img/fixation.png","null","","test","","","","","",""
"228","213433","pSARL_v2","pSARL_v2hebeo90z","5b0b77a9d282ff00015b7531","freq","img/orange_2bandit_b2.png","70","70","test","1","164","164","8","",""
"null","214014","pSARL_v2","pSARL_v2hebeo90z","5b0b77a9d282ff00015b7531","freq_resp","img/orange_2bandit_b.png","70","70","test","","","","8","",""
"null","214168","pSARL_v2","pSARL_v2hebeo90z","5b0b77a9d282ff00015b7531","fixation","img/fixation.png","null","","test","","","","","",""
"220","214392","pSARL_v2","pSARL_v2hebeo90z","5b0b77a9d282ff00015b7531","infreq","img/green_2bandit_b2.png","70","68","test","0","165","165","8","",""
"null","214990","pSARL_v2","pSARL_v2hebeo90z","5b0b77a9d282ff00015b7531","infreq_resp","img/green_2bandit_b.png","70","68","test","","","","8","",""
"null","215150","pSARL_v2","pSARL_v2hebeo90z","5b0b77a9d282ff00015b7531","fixation","img/fixation.png","null","","test","","","","","",""
"351","215504","pSARL_v2","pSARL_v2hebeo90z","5b0b77a9d282ff00015b7531","freq","img/orange_2bandit_b2.png","70","70","test","1","166","166","8","",""
"null","215971","pSARL_v2","pSARL_v2hebeo90z","5b0b77a9d282ff00015b7531","freq_resp","img/orange_2bandit_b.png","70","70","test","","","","8","",""
"null","216128","pSARL_v2","pSARL_v2hebeo90z","5b0b77a9d282ff00015b7531","fixation","img/fixation.png","null","","test","","","","","",""
"334","216465","pSARL_v2","pSARL_v2hebeo90z","5b0b77a9d282ff00015b7531","infreq","img/green_2bandit_b2.png","68","68","test","1","167","167","8","",""
"null","216950","pSARL_v2","pSARL_v2hebeo90z","5b0b77a9d282ff00015b7531","infreq_resp","img/green_2bandit_b.png","68","68","test","","","","8","",""
"null","217104","pSARL_v2","pSARL_v2hebeo90z","5b0b77a9d282ff00015b7531","fixation","img/fixation.png","null","","test","","","","","",""
"346","217454","pSARL_v2","pSARL_v2hebeo90z","5b0b77a9d282ff00015b7531","freq","img/orange_2bandit_b2.png","70","70","test","1","168","168","8","",""
"null","217918","pSARL_v2","pSARL_v2hebeo90z","5b0b77a9d282ff00015b7531","freq_resp","img/orange_2bandit_b.png","70","70","test","","","","8","",""
"null","218074","pSARL_v2","pSARL_v2hebeo90z","5b0b77a9d282ff00015b7531","fixation","img/fixation.png","null","","test","","","","","",""
"351","218428","pSARL_v2","pSARL_v2hebeo90z","5b0b77a9d282ff00015b7531","freq","img/orange_2bandit_b2.png","70","70","test","1","169","169","8","",""
"null","218883","pSARL_v2","pSARL_v2hebeo90z","5b0b77a9d282ff00015b7531","freq_resp","img/orange_2bandit_b.png","70","70","test","","","","8","",""
"null","219038","pSARL_v2","pSARL_v2hebeo90z","5b0b77a9d282ff00015b7531","fixation","img/fixation.png","null","","test","","","","","",""
"423","219465","pSARL_v2","pSARL_v2hebeo90z","5b0b77a9d282ff00015b7531","freq","img/orange_2bandit_b2.png","70","70","test","1","170","170","8","",""
"null","219848","pSARL_v2","pSARL_v2hebeo90z","5b0b77a9d282ff00015b7531","freq_resp","img/orange_2bandit_b.png","70","70","test","","","","8","",""
"null","220006","pSARL_v2","pSARL_v2hebeo90z","5b0b77a9d282ff00015b7531","fixation","img/fixation.png","null","","test","","","","","",""
"422","220430","pSARL_v2","pSARL_v2hebeo90z","5b0b77a9d282ff00015b7531","freq","img/orange_2bandit_b2.png","70","70","test","1","171","171","8","",""
"null","220816","pSARL_v2","pSARL_v2hebeo90z","5b0b77a9d282ff00015b7531","freq_resp","img/orange_2bandit_b.png","70","70","test","","","","8","",""
"null","220971","pSARL_v2","pSARL_v2hebeo90z","5b0b77a9d282ff00015b7531","fixation","img/fixation.png","null","","test","","","","","",""
"429","221404","pSARL_v2","pSARL_v2hebeo90z","5b0b77a9d282ff00015b7531","freq","img/orange_2bandit_b2.png","70","70","test","1","172","172","8","",""
"null","221780","pSARL_v2","pSARL_v2hebeo90z","5b0b77a9d282ff00015b7531","freq_resp","img/orange_2bandit_b.png","70","70","test","","","","8","",""
"null","221936","pSARL_v2","pSARL_v2hebeo90z","5b0b77a9d282ff00015b7531","fixation","img/fixation.png","null","","test","","","","","",""
"538","222477","pSARL_v2","pSARL_v2hebeo90z","5b0b77a9d282ff00015b7531","freq","img/orange_2bandit_b2.png","70","70","test","1","173","173","8","",""
"null","222745","pSARL_v2","pSARL_v2hebeo90z","5b0b77a9d282ff00015b7531","freq_resp","img/orange_2bandit_b.png","70","70","test","","","","8","",""
"null","222900","pSARL_v2","pSARL_v2hebeo90z","5b0b77a9d282ff00015b7531","fixation","img/fixation.png","null","","test","","","","","",""
"579","223482","pSARL_v2","pSARL_v2hebeo90z","5b0b77a9d282ff00015b7531","freq","img/orange_2bandit_b2.png","70","70","test","1","174","174","8","",""
"null","223711","pSARL_v2","pSARL_v2hebeo90z","5b0b77a9d282ff00015b7531","freq_resp","img/orange_2bandit_b.png","70","70","test","","","","8","",""
"null","223866","pSARL_v2","pSARL_v2hebeo90z","5b0b77a9d282ff00015b7531","fixation","img/fixation.png","null","","test","","","","","",""
"547","224417","pSARL_v2","pSARL_v2hebeo90z","5b0b77a9d282ff00015b7531","freq","img/orange_2bandit_b2.png","70","70","test","1","175","175","8","",""
"null","224677","pSARL_v2","pSARL_v2hebeo90z","5b0b77a9d282ff00015b7531","freq_resp","img/orange_2bandit_b.png","70","70","test","","","","8","",""
"null","224831","pSARL_v2","pSARL_v2hebeo90z","5b0b77a9d282ff00015b7531","fixation","img/fixation.png","null","","test","","","","","",""
"1030","225864","pSARL_v2","pSARL_v2hebeo90z","5b0b77a9d282ff00015b7531","reward","img/slot.png","74","","test","","","","","",""
"null","226617","pSARL_v2","pSARL_v2hebeo90z","5b0b77a9d282ff00015b7531","points","<div class=""verylowPoints""> -4 </div>","null","na","test","","","","8","-4","7"
"643","227264","pSARL_v2","pSARL_v2hebeo90z","5b0b77a9d282ff00015b7531","freq","img/orange_2bandit_b2.png","70","70","test","1","176","176","9","",""
"null","227426","pSARL_v2","pSARL_v2hebeo90z","5b0b77a9d282ff00015b7531","freq_resp","img/orange_2bandit_b.png","70","70","test","","","","9","",""
"null","227581","pSARL_v2","pSARL_v2hebeo90z","5b0b77a9d282ff00015b7531","fixation","img/fixation.png","null","","test","","","","","",""
"414","227998","pSARL_v2","pSARL_v2hebeo90z","5b0b77a9d282ff00015b7531","freq","img/orange_2bandit_b2.png","70","70","test","1","177","177","9","",""
"null","228390","pSARL_v2","pSARL_v2hebeo90z","5b0b77a9d282ff00015b7531","freq_resp","img/orange_2bandit_b.png","70","70","test","","","","9","",""
"null","228545","pSARL_v2","pSARL_v2hebeo90z","5b0b77a9d282ff00015b7531","fixation","img/fixation.png","null","","test","","","","","",""
"327","228876","pSARL_v2","pSARL_v2hebeo90z","5b0b77a9d282ff00015b7531","freq","img/orange_2bandit_b2.png","70","70","test","1","178","178","9","",""
"null","229357","pSARL_v2","pSARL_v2hebeo90z","5b0b77a9d282ff00015b7531","freq_resp","img/orange_2bandit_b.png","70","70","test","","","","9","",""
"null","229515","pSARL_v2","pSARL_v2hebeo90z","5b0b77a9d282ff00015b7531","fixation","img/fixation.png","null","","test","","","","","",""
"255","229773","pSARL_v2","pSARL_v2hebeo90z","5b0b77a9d282ff00015b7531","infreq","img/green_2bandit_b2.png","70","68","test","0","179","179","9","",""
"null","230336","pSARL_v2","pSARL_v2hebeo90z","5b0b77a9d282ff00015b7531","infreq_resp","img/green_2bandit_b.png","70","68","test","","","","9","",""
"null","230492","pSARL_v2","pSARL_v2hebeo90z","5b0b77a9d282ff00015b7531","fixation","img/fixation.png","null","","test","","","","","",""
"139","230635","pSARL_v2","pSARL_v2hebeo90z","5b0b77a9d282ff00015b7531","freq","img/orange_2bandit_b2.png","70","70","test","1","180","180","9","",""
"null","231304","pSARL_v2","pSARL_v2hebeo90z","5b0b77a9d282ff00015b7531","freq_resp","img/orange_2bandit_b.png","70","70","test","","","","9","",""
"null","231460","pSARL_v2","pSARL_v2hebeo90z","5b0b77a9d282ff00015b7531","fixation","img/fixation.png","null","","test","","","","","",""
"269","231732","pSARL_v2","pSARL_v2hebeo90z","5b0b77a9d282ff00015b7531","freq","img/orange_2bandit_b2.png","70","70","test","1","181","181","9","",""
"null","232269","pSARL_v2","pSARL_v2hebeo90z","5b0b77a9d282ff00015b7531","freq_resp","img/orange_2bandit_b.png","70","70","test","","","","9","",""
"null","232425","pSARL_v2","pSARL_v2hebeo90z","5b0b77a9d282ff00015b7531","fixation","img/fixation.png","null","","test","","","","","",""
"595","233024","pSARL_v2","pSARL_v2hebeo90z","5b0b77a9d282ff00015b7531","freq","img/orange_2bandit_b2.png","70","70","test","1","182","182","9","",""
"null","233238","pSARL_v2","pSARL_v2hebeo90z","5b0b77a9d282ff00015b7531","freq_resp","img/orange_2bandit_b.png","70","70","test","","","","9","",""
"null","233392","pSARL_v2","pSARL_v2hebeo90z","5b0b77a9d282ff00015b7531","fixation","img/fixation.png","null","","test","","","","","",""
"423","233817","pSARL_v2","pSARL_v2hebeo90z","5b0b77a9d282ff00015b7531","freq","img/orange_2bandit_b2.png","70","70","test","1","183","183","9","",""
"null","234200","pSARL_v2","pSARL_v2hebeo90z","5b0b77a9d282ff00015b7531","freq_resp","img/orange_2bandit_b.png","70","70","test","","","","9","",""
"null","234356","pSARL_v2","pSARL_v2hebeo90z","5b0b77a9d282ff00015b7531","fixation","img/fixation.png","null","","test","","","","","",""
"488","234848","pSARL_v2","pSARL_v2hebeo90z","5b0b77a9d282ff00015b7531","freq","img/orange_2bandit_b2.png","70","70","test","1","184","184","9","",""
"null","235167","pSARL_v2","pSARL_v2hebeo90z","5b0b77a9d282ff00015b7531","freq_resp","img/orange_2bandit_b.png","70","70","test","","","","9","",""
"null","235321","pSARL_v2","pSARL_v2hebeo90z","5b0b77a9d282ff00015b7531","fixation","img/fixation.png","null","","test","","","","","",""
"784","236108","pSARL_v2","pSARL_v2hebeo90z","5b0b77a9d282ff00015b7531","freq","img/orange_2bandit_b2.png","70","70","test","1","185","185","9","",""
"null","236128","pSARL_v2","pSARL_v2hebeo90z","5b0b77a9d282ff00015b7531","freq_resp","img/orange_2bandit_b.png","70","70","test","","","","9","",""
"null","236287","pSARL_v2","pSARL_v2hebeo90z","5b0b77a9d282ff00015b7531","fixation","img/fixation.png","null","","test","","","","","",""
"507","236798","pSARL_v2","pSARL_v2hebeo90z","5b0b77a9d282ff00015b7531","freq","img/orange_2bandit_b2.png","70","70","test","1","186","186","9","",""
"null","237099","pSARL_v2","pSARL_v2hebeo90z","5b0b77a9d282ff00015b7531","freq_resp","img/orange_2bandit_b.png","70","70","test","","","","9","",""
"null","237252","pSARL_v2","pSARL_v2hebeo90z","5b0b77a9d282ff00015b7531","fixation","img/fixation.png","null","","test","","","","","",""
"236","237492","pSARL_v2","pSARL_v2hebeo90z","5b0b77a9d282ff00015b7531","freq","img/orange_2bandit_b2.png","70","70","test","1","187","187","9","",""
"null","238063","pSARL_v2","pSARL_v2hebeo90z","5b0b77a9d282ff00015b7531","freq_resp","img/orange_2bandit_b.png","70","70","test","","","","9","",""
"null","238220","pSARL_v2","pSARL_v2hebeo90z","5b0b77a9d282ff00015b7531","fixation","img/fixation.png","null","","test","","","","","",""
"167","238390","pSARL_v2","pSARL_v2hebeo90z","5b0b77a9d282ff00015b7531","freq","img/orange_2bandit_b2.png","70","70","test","1","188","188","9","",""
"null","239028","pSARL_v2","pSARL_v2hebeo90z","5b0b77a9d282ff00015b7531","freq_resp","img/orange_2bandit_b.png","70","70","test","","","","9","",""
"null","239182","pSARL_v2","pSARL_v2hebeo90z","5b0b77a9d282ff00015b7531","fixation","img/fixation.png","null","","test","","","","","",""
"310","239495","pSARL_v2","pSARL_v2hebeo90z","5b0b77a9d282ff00015b7531","freq","img/orange_2bandit_b2.png","70","70","test","1","189","189","9","",""
"null","239996","pSARL_v2","pSARL_v2hebeo90z","5b0b77a9d282ff00015b7531","freq_resp","img/orange_2bandit_b.png","70","70","test","","","","9","",""
"null","240150","pSARL_v2","pSARL_v2hebeo90z","5b0b77a9d282ff00015b7531","fixation","img/fixation.png","null","","test","","","","","",""
"346","240500","pSARL_v2","pSARL_v2hebeo90z","5b0b77a9d282ff00015b7531","infreq","img/green_2bandit_b2.png","68","68","test","1","190","190","9","",""
"null","240963","pSARL_v2","pSARL_v2hebeo90z","5b0b77a9d282ff00015b7531","infreq_resp","img/green_2bandit_b.png","68","68","test","","","","9","",""
"null","241120","pSARL_v2","pSARL_v2hebeo90z","5b0b77a9d282ff00015b7531","fixation","img/fixation.png","null","","test","","","","","",""
"370","241493","pSARL_v2","pSARL_v2hebeo90z","5b0b77a9d282ff00015b7531","freq","img/orange_2bandit_b2.png","70","70","test","1","191","191","9","",""
"null","241927","pSARL_v2","pSARL_v2hebeo90z","5b0b77a9d282ff00015b7531","freq_resp","img/orange_2bandit_b.png","70","70","test","","","","9","",""
"null","242084","pSARL_v2","pSARL_v2hebeo90z","5b0b77a9d282ff00015b7531","fixation","img/fixation.png","null","","test","","","","","",""
"448","242535","pSARL_v2","pSARL_v2hebeo90z","5b0b77a9d282ff00015b7531","freq","img/orange_2bandit_b2.png","70","70","test","1","192","192","9","",""
"null","242894","pSARL_v2","pSARL_v2hebeo90z","5b0b77a9d282ff00015b7531","freq_resp","img/orange_2bandit_b.png","70","70","test","","","","9","",""
"null","243049","pSARL_v2","pSARL_v2hebeo90z","5b0b77a9d282ff00015b7531","fixation","img/fixation.png","null","","test","","","","","",""
"380","243431","pSARL_v2","pSARL_v2hebeo90z","5b0b77a9d282ff00015b7531","infreq","img/green_2bandit_b2.png","68","68","test","1","193","193","9","",""
"null","243862","pSARL_v2","pSARL_v2hebeo90z","5b0b77a9d282ff00015b7531","infreq_resp","img/green_2bandit_b.png","68","68","test","","","","9","",""
"null","244019","pSARL_v2","pSARL_v2hebeo90z","5b0b77a9d282ff00015b7531","fixation","img/fixation.png","null","","test","","","","","",""
"305","244326","pSARL_v2","pSARL_v2hebeo90z","5b0b77a9d282ff00015b7531","freq","img/orange_2bandit_b2.png","70","70","test","1","194","194","9","",""
"null","244828","pSARL_v2","pSARL_v2hebeo90z","5b0b77a9d282ff00015b7531","freq_resp","img/orange_2bandit_b.png","70","70","test","","","","9","",""
"null","244982","pSARL_v2","pSARL_v2hebeo90z","5b0b77a9d282ff00015b7531","fixation","img/fixation.png","null","","test","","","","","",""
"338","245323","pSARL_v2","pSARL_v2hebeo90z","5b0b77a9d282ff00015b7531","freq","img/orange_2bandit_b2.png","70","70","test","1","195","195","9","",""
"null","245799","pSARL_v2","pSARL_v2hebeo90z","5b0b77a9d282ff00015b7531","freq_resp","img/orange_2bandit_b.png","70","70","test","","","","9","",""
"null","245954","pSARL_v2","pSARL_v2hebeo90z","5b0b77a9d282ff00015b7531","fixation","img/fixation.png","null","","test","","","","","",""
"327","246284","pSARL_v2","pSARL_v2hebeo90z","5b0b77a9d282ff00015b7531","freq","img/orange_2bandit_b2.png","70","70","test","1","196","196","9","",""
"null","246770","pSARL_v2","pSARL_v2hebeo90z","5b0b77a9d282ff00015b7531","freq_resp","img/orange_2bandit_b.png","70","70","test","","","","9","",""
"null","246924","pSARL_v2","pSARL_v2hebeo90z","5b0b77a9d282ff00015b7531","fixation","img/fixation.png","null","","test","","","","","",""
"326","247254","pSARL_v2","pSARL_v2hebeo90z","5b0b77a9d282ff00015b7531","freq","img/orange_2bandit_b2.png","70","70","test","1","197","197","9","",""
"null","247736","pSARL_v2","pSARL_v2hebeo90z","5b0b77a9d282ff00015b7531","freq_resp","img/orange_2bandit_b.png","70","70","test","","","","9","",""
"null","247891","pSARL_v2","pSARL_v2hebeo90z","5b0b77a9d282ff00015b7531","fixation","img/fixation.png","null","","test","","","","","",""
"509","248402","pSARL_v2","pSARL_v2hebeo90z","5b0b77a9d282ff00015b7531","reward","img/slot.png","74","","test","","","","","",""
"null","249165","pSARL_v2","pSARL_v2hebeo90z","5b0b77a9d282ff00015b7531","points","<div class=""verylowPoints""> -3 </div>","null","na","test","","","","9","-3","8"
"null","249980","pSARL_v2","pSARL_v2hebeo90z","5b0b77a9d282ff00015b7531","freq","img/orange_2bandit_b2.png","null","70","test","0","198","198","10","",""
"null","250134","pSARL_v2","pSARL_v2hebeo90z","5b0b77a9d282ff00015b7531","fixation","img/fixation.png","null","","test","","","","","",""
"307","250445","pSARL_v2","pSARL_v2hebeo90z","5b0b77a9d282ff00015b7531","freq","img/orange_2bandit_b2.png","70","70","test","1","199","199","10","",""
"null","250943","pSARL_v2","pSARL_v2hebeo90z","5b0b77a9d282ff00015b7531","freq_resp","img/orange_2bandit_b.png","70","70","test","","","","10","",""
"null","251097","pSARL_v2","pSARL_v2hebeo90z","5b0b77a9d282ff00015b7531","fixation","img/fixation.png","null","","test","","","","","",""
"282","251383","pSARL_v2","pSARL_v2hebeo90z","5b0b77a9d282ff00015b7531","freq","img/orange_2bandit_b2.png","70","70","test","1","200","200","10","",""
"null","251916","pSARL_v2","pSARL_v2hebeo90z","5b0b77a9d282ff00015b7531","freq_resp","img/orange_2bandit_b.png","70","70","test","","","","10","",""
"null","252070","pSARL_v2","pSARL_v2hebeo90z","5b0b77a9d282ff00015b7531","fixation","img/fixation.png","null","","test","","","","","",""
"246","252320","pSARL_v2","pSARL_v2hebeo90z","5b0b77a9d282ff00015b7531","freq","img/orange_2bandit_b2.png","70","70","test","1","201","201","10","",""
"null","252881","pSARL_v2","pSARL_v2hebeo90z","5b0b77a9d282ff00015b7531","freq_resp","img/orange_2bandit_b.png","70","70","test","","","","10","",""
"null","253034","pSARL_v2","pSARL_v2hebeo90z","5b0b77a9d282ff00015b7531","fixation","img/fixation.png","null","","test","","","","","",""
"152","253190","pSARL_v2","pSARL_v2hebeo90z","5b0b77a9d282ff00015b7531","freq","img/orange_2bandit_b2.png","70","70","test","1","202","202","10","",""
"null","253845","pSARL_v2","pSARL_v2hebeo90z","5b0b77a9d282ff00015b7531","freq_resp","img/orange_2bandit_b.png","70","70","test","","","","10","",""
"null","254000","pSARL_v2","pSARL_v2hebeo90z","5b0b77a9d282ff00015b7531","fixation","img/fixation.png","null","","test","","","","","",""
"168","254171","pSARL_v2","pSARL_v2hebeo90z","5b0b77a9d282ff00015b7531","freq","img/orange_2bandit_b2.png","70","70","test","1","203","203","10","",""
"null","254814","pSARL_v2","pSARL_v2hebeo90z","5b0b77a9d282ff00015b7531","freq_resp","img/orange_2bandit_b.png","70","70","test","","","","10","",""
"null","254967","pSARL_v2","pSARL_v2hebeo90z","5b0b77a9d282ff00015b7531","fixation","img/fixation.png","null","","test","","","","","",""
"193","255164","pSARL_v2","pSARL_v2hebeo90z","5b0b77a9d282ff00015b7531","freq","img/orange_2bandit_b2.png","70","70","test","1","204","204","10","",""
"null","255779","pSARL_v2","pSARL_v2hebeo90z","5b0b77a9d282ff00015b7531","freq_resp","img/orange_2bandit_b.png","70","70","test","","","","10","",""
"null","255935","pSARL_v2","pSARL_v2hebeo90z","5b0b77a9d282ff00015b7531","fixation","img/fixation.png","null","","test","","","","","",""
"256","256194","pSARL_v2","pSARL_v2hebeo90z","5b0b77a9d282ff00015b7531","freq","img/orange_2bandit_b2.png","70","70","test","1","205","205","10","",""
"null","256744","pSARL_v2","pSARL_v2hebeo90z","5b0b77a9d282ff00015b7531","freq_resp","img/orange_2bandit_b.png","70","70","test","","","","10","",""
"null","256898","pSARL_v2","pSARL_v2hebeo90z","5b0b77a9d282ff00015b7531","fixation","img/fixation.png","null","","test","","","","","",""
"361","257263","pSARL_v2","pSARL_v2hebeo90z","5b0b77a9d282ff00015b7531","freq","img/orange_2bandit_b2.png","70","70","test","1","206","206","10","",""
"null","257711","pSARL_v2","pSARL_v2hebeo90z","5b0b77a9d282ff00015b7531","freq_resp","img/orange_2bandit_b.png","70","70","test","","","","10","",""
"null","257868","pSARL_v2","pSARL_v2hebeo90z","5b0b77a9d282ff00015b7531","fixation","img/fixation.png","null","","test","","","","","",""
"428","258300","pSARL_v2","pSARL_v2hebeo90z","5b0b77a9d282ff00015b7531","infreq","img/green_2bandit_b2.png","68","68","test","1","207","207","10","",""
"null","258676","pSARL_v2","pSARL_v2hebeo90z","5b0b77a9d282ff00015b7531","infreq_resp","img/green_2bandit_b.png","68","68","test","","","","10","",""
"null","258830","pSARL_v2","pSARL_v2hebeo90z","5b0b77a9d282ff00015b7531","fixation","img/fixation.png","null","","test","","","","","",""
"324","259157","pSARL_v2","pSARL_v2hebeo90z","5b0b77a9d282ff00015b7531","freq","img/orange_2bandit_b2.png","70","70","test","1","208","208","10","",""
"null","259640","pSARL_v2","pSARL_v2hebeo90z","5b0b77a9d282ff00015b7531","freq_resp","img/orange_2bandit_b.png","70","70","test","","","","10","",""
"null","259793","pSARL_v2","pSARL_v2hebeo90z","5b0b77a9d282ff00015b7531","fixation","img/fixation.png","null","","test","","","","","",""
"410","260207","pSARL_v2","pSARL_v2hebeo90z","5b0b77a9d282ff00015b7531","freq","img/orange_2bandit_b2.png","70","70","test","1","209","209","10","",""
"null","260604","pSARL_v2","pSARL_v2hebeo90z","5b0b77a9d282ff00015b7531","freq_resp","img/orange_2bandit_b.png","70","70","test","","","","10","",""
"null","260760","pSARL_v2","pSARL_v2hebeo90z","5b0b77a9d282ff00015b7531","fixation","img/fixation.png","null","","test","","","","","",""
"380","261143","pSARL_v2","pSARL_v2hebeo90z","5b0b77a9d282ff00015b7531","freq","img/orange_2bandit_b2.png","70","70","test","1","210","210","10","",""
"null","261570","pSARL_v2","pSARL_v2hebeo90z","5b0b77a9d282ff00015b7531","freq_resp","img/orange_2bandit_b.png","70","70","test","","","","10","",""
"null","261727","pSARL_v2","pSARL_v2hebeo90z","5b0b77a9d282ff00015b7531","fixation","img/fixation.png","null","","test","","","","","",""
"559","262289","pSARL_v2","pSARL_v2hebeo90z","5b0b77a9d282ff00015b7531","infreq","img/green_2bandit_b2.png","68","68","test","1","211","211","10","",""
"null","262538","pSARL_v2","pSARL_v2hebeo90z","5b0b77a9d282ff00015b7531","infreq_resp","img/green_2bandit_b.png","68","68","test","","","","10","",""
"null","262692","pSARL_v2","pSARL_v2hebeo90z","5b0b77a9d282ff00015b7531","fixation","img/fixation.png","null","","test","","","","","",""
"347","263043","pSARL_v2","pSARL_v2hebeo90z","5b0b77a9d282ff00015b7531","freq","img/orange_2bandit_b2.png","70","70","test","1","212","212","10","",""
"null","263507","pSARL_v2","pSARL_v2hebeo90z","5b0b77a9d282ff00015b7531","freq_resp","img/orange_2bandit_b.png","70","70","test","","","","10","",""
