"rt","time_elapsed","expId","subject","prolificID","trialType","stimulus","key_press","corrresp","phase","corr","trialNum","attentionRunNum","blockNum","points","rlNum"
"517945","517957","pSARL_v2","pSARL_v2021vgs9l","62e19208352cd518d7b2f085","","","","","","","","","","",""
"","520175","pSARL_v2","pSARL_v2021vgs9l","62e19208352cd518d7b2f085","fullscreen","","","","","","","","","",""
"51447.300000190735","571629","pSARL_v2","pSARL_v2021vgs9l","62e19208352cd518d7b2f085","","","","","","","","","","",""
"636.2999999523163","572272","pSARL_v2","pSARL_v2021vgs9l","62e19208352cd518d7b2f085","freqPrac","img/orange_2bandit_a2.png","70","70","prac","1","","","","",""
"636.2999999523163","572440","pSARL_v2","pSARL_v2021vgs9l","62e19208352cd518d7b2f085","freqPrac_resp","img/orange_2bandit_a.png","70","70","prac","","","","","",""
"null","572600","pSARL_v2","pSARL_v2021vgs9l","62e19208352cd518d7b2f085","fixation","img/fixation.png","null","","prac","","","","","",""
"null","573408","pSARL_v2","pSARL_v2021vgs9l","62e19208352cd518d7b2f085","infreqPrac","img/green_2bandit_a2.png","null","68","prac","0","","","","",""
"null","574417","pSARL_v2","pSARL_v2021vgs9l","62e19208352cd518d7b2f085","feedback","img/tooSlow.png","null","na","prac","","","","","",""
"null","574576","pSARL_v2","pSARL_v2021vgs9l","62e19208352cd518d7b2f085","fixation","img/fixation.png","null","","prac","","","","","",""
"488.59999990463257","575068","pSARL_v2","pSARL_v2021vgs9l","62e19208352cd518d7b2f085","freqPrac","img/orange_2bandit_a2.png","70","70","prac","1","","","","",""
"488.59999990463257","575384","pSARL_v2","pSARL_v2021vgs9l","62e19208352cd518d7b2f085","freqPrac_resp","img/orange_2bandit_a.png","70","70","prac","","","","","",""
"null","575545","pSARL_v2","pSARL_v2021vgs9l","62e19208352cd518d7b2f085","fixation","img/fixation.png","null","","prac","","","","","",""
"383.39999985694885","575933","pSARL_v2","pSARL_v2021vgs9l","62e19208352cd518d7b2f085","infreqPrac","img/green_2bandit_a2.png","68","68","prac","1","","","","",""
"383.39999985694885","576361","pSARL_v2","pSARL_v2021vgs9l","62e19208352cd518d7b2f085","infreqPrac_resp","img/green_2bandit_a.png","68","68","prac","","","","","",""
"null","576521","pSARL_v2","pSARL_v2021vgs9l","62e19208352cd518d7b2f085","fixation","img/fixation.png","null","","prac","","","","","",""
"320.09999990463257","576846","pSARL_v2","pSARL_v2021vgs9l","62e19208352cd518d7b2f085","infreqPrac","img/green_2bandit_a2.png","68","68","prac","1","","","","",""
"320.09999990463257","577336","pSARL_v2","pSARL_v2021vgs9l","62e19208352cd518d7b2f085","infreqPrac_resp","img/green_2bandit_a.png","68","68","prac","","","","","",""
"null","577497","pSARL_v2","pSARL_v2021vgs9l","62e19208352cd518d7b2f085","fixation","img/fixation.png","null","","prac","","","","","",""
"311.2999999523163","577813","pSARL_v2","pSARL_v2021vgs9l","62e19208352cd518d7b2f085","infreqPrac","img/green_2bandit_a2.png","68","68","prac","1","","","","",""
"311.2999999523163","578313","pSARL_v2","pSARL_v2021vgs9l","62e19208352cd518d7b2f085","infreqPrac_resp","img/green_2bandit_a.png","68","68","prac","","","","","",""
"null","578472","pSARL_v2","pSARL_v2021vgs9l","62e19208352cd518d7b2f085","fixation","img/fixation.png","null","","prac","","","","","",""
"425.7000000476837","578901","pSARL_v2","pSARL_v2021vgs9l","62e19208352cd518d7b2f085","freqPrac","img/orange_2bandit_a2.png","70","70","prac","1","","","","",""
"425.7000000476837","579280","pSARL_v2","pSARL_v2021vgs9l","62e19208352cd518d7b2f085","freqPrac_resp","img/orange_2bandit_a.png","70","70","prac","","","","","",""
"null","579439","pSARL_v2","pSARL_v2021vgs9l","62e19208352cd518d7b2f085","fixation","img/fixation.png","null","","prac","","","","","",""
"529.2000000476837","579973","pSARL_v2","pSARL_v2021vgs9l","62e19208352cd518d7b2f085","infreqPrac","img/green_2bandit_a2.png","68","68","prac","1","","","","",""
"529.2000000476837","580247","pSARL_v2","pSARL_v2021vgs9l","62e19208352cd518d7b2f085","infreqPrac_resp","img/green_2bandit_a.png","68","68","prac","","","","","",""
"null","580409","pSARL_v2","pSARL_v2021vgs9l","62e19208352cd518d7b2f085","fixation","img/fixation.png","null","","prac","","","","","",""
"431.7999999523163","580845","pSARL_v2","pSARL_v2021vgs9l","62e19208352cd518d7b2f085","freqPrac","img/orange_2bandit_a2.png","70","70","prac","1","","","","",""
"431.7999999523163","581224","pSARL_v2","pSARL_v2021vgs9l","62e19208352cd518d7b2f085","freqPrac_resp","img/orange_2bandit_a.png","70","70","prac","","","","","",""
"null","581383","pSARL_v2","pSARL_v2021vgs9l","62e19208352cd518d7b2f085","fixation","img/fixation.png","null","","prac","","","","","",""
"321.2999999523163","581709","pSARL_v2","pSARL_v2021vgs9l","62e19208352cd518d7b2f085","freqPrac","img/orange_2bandit_a2.png","70","70","prac","1","","","","",""
"321.2999999523163","582191","pSARL_v2","pSARL_v2021vgs9l","62e19208352cd518d7b2f085","freqPrac_resp","img/orange_2bandit_a.png","70","70","prac","","","","","",""
"null","582351","pSARL_v2","pSARL_v2021vgs9l","62e19208352cd518d7b2f085","fixation","img/fixation.png","null","","prac","","","","","",""
"24703.299999952316","607059","pSARL_v2","pSARL_v2021vgs9l","62e19208352cd518d7b2f085","","","","","prac","","","","","",""
"932.7999999523163","607997","pSARL_v2","pSARL_v2021vgs9l","62e19208352cd518d7b2f085","rewardPractice","img/slot.png","74","","prac","","","","","",""
"null","608751","pSARL_v2","pSARL_v2021vgs9l","62e19208352cd518d7b2f085","feedback","<div class=""veryhighPoints""> +15 </div>","null","na","prac","","","","","",""
"null","608914","pSARL_v2","pSARL_v2021vgs9l","62e19208352cd518d7b2f085","fixation","img/fixation.png","null","","prac","","","","","",""
"6375.299999952316","615293","pSARL_v2","pSARL_v2021vgs9l","62e19208352cd518d7b2f085","","","","","prac","","","","","",""
"747.3999998569489","616046","pSARL_v2","pSARL_v2021vgs9l","62e19208352cd518d7b2f085","freq","img/orange_2bandit_a2.png","70","70","test","1","1","1","1","",""
"null","616105","pSARL_v2","pSARL_v2021vgs9l","62e19208352cd518d7b2f085","freq_resp","img/orange_2bandit_a.png","70","70","test","","","","1","",""
"null","616265","pSARL_v2","pSARL_v2021vgs9l","62e19208352cd518d7b2f085","fixation","img/fixation.png","null","","test","","","","","",""
"344.2999999523163","616615","pSARL_v2","pSARL_v2021vgs9l","62e19208352cd518d7b2f085","freq","img/orange_2bandit_a2.png","70","70","test","1","2","2","1","",""
"null","617081","pSARL_v2","pSARL_v2021vgs9l","62e19208352cd518d7b2f085","freq_resp","img/orange_2bandit_a.png","70","70","test","","","","1","",""
"null","617241","pSARL_v2","pSARL_v2021vgs9l","62e19208352cd518d7b2f085","fixation","img/fixation.png","null","","test","","","","","",""
"303.90000009536743","617550","pSARL_v2","pSARL_v2021vgs9l","62e19208352cd518d7b2f085","freq","img/orange_2bandit_a2.png","70","70","test","1","3","3","1","",""
"null","618060","pSARL_v2","pSARL_v2021vgs9l","62e19208352cd518d7b2f085","freq_resp","img/orange_2bandit_a.png","70","70","test","","","","1","",""
"null","618217","pSARL_v2","pSARL_v2021vgs9l","62e19208352cd518d7b2f085","fixation","img/fixation.png","null","","test","","","","","",""
"343.7999999523163","618565","pSARL_v2","pSARL_v2021vgs9l","62e19208352cd518d7b2f085","freq","img/orange_2bandit_a2.png","70","70","test","1","4","4","1","",""
"null","619026","pSARL_v2","pSARL_v2021vgs9l","62e19208352cd518d7b2f085","freq_resp","img/orange_2bandit_a.png","70","70","test","","","","1","",""
"null","619185","pSARL_v2","pSARL_v2021vgs9l","62e19208352cd518d7b2f085","fixation","img/fixation.png","null","","test","","","","","",""
"272.2000000476837","619462","pSARL_v2","pSARL_v2021vgs9l","62e19208352cd518d7b2f085","freq","img/orange_2bandit_a2.png","70","70","test","1","5","5","1","",""
"null","620001","pSARL_v2","pSARL_v2021vgs9l","62e19208352cd518d7b2f085","freq_resp","img/orange_2bandit_a.png","70","70","test","","","","1","",""
"null","620162","pSARL_v2","pSARL_v2021vgs9l","62e19208352cd518d7b2f085","fixation","img/fixation.png","null","","test","","","","","",""
"262.09999990463257","620428","pSARL_v2","pSARL_v2021vgs9l","62e19208352cd518d7b2f085","freq","img/orange_2bandit_a2.png","70","70","test","1","6","6","1","",""
"null","620979","pSARL_v2","pSARL_v2021vgs9l","62e19208352cd518d7b2f085","freq_resp","img/orange_2bandit_a.png","70","70","test","","","","1","",""
"null","621137","pSARL_v2","pSARL_v2021vgs9l","62e19208352cd518d7b2f085","fixation","img/fixation.png","null","","test","","","","","",""
"263.59999990463257","621405","pSARL_v2","pSARL_v2021vgs9l","62e19208352cd518d7b2f085","freq","img/orange_2bandit_a2.png","70","70","test","1","7","7","1","",""
"null","621946","pSARL_v2","pSARL_v2021vgs9l","62e19208352cd518d7b2f085","freq_resp","img/orange_2bandit_a.png","70","70","test","","","","1","",""
"null","622119","pSARL_v2","pSARL_v2021vgs9l","62e19208352cd518d7b2f085","fixation","img/fixation.png","null","","test","","","","","",""
"153.70000004768372","622276","pSARL_v2","pSARL_v2021vgs9l","62e19208352cd518d7b2f085","freq","img/orange_2bandit_a2.png","70","70","test","1","8","8","1","",""
"null","622929","pSARL_v2","pSARL_v2021vgs9l","62e19208352cd518d7b2f085","freq_resp","img/orange_2bandit_a.png","70","70","test","","","","1","",""
"null","623089","pSARL_v2","pSARL_v2021vgs9l","62e19208352cd518d7b2f085","fixation","img/fixation.png","null","","test","","","","","",""
"135.60000014305115","623229","pSARL_v2","pSARL_v2021vgs9l","62e19208352cd518d7b2f085","infreq","img/green_2bandit_a2.png","70","68","test","0","9","9","1","",""
"null","623907","pSARL_v2","pSARL_v2021vgs9l","62e19208352cd518d7b2f085","infreq_resp","img/green_2bandit_a.png","70","68","test","","","","1","",""
"null","624065","pSARL_v2","pSARL_v2021vgs9l","62e19208352cd518d7b2f085","fixation","img/fixation.png","null","","test","","","","","",""
"447.40000009536743","624518","pSARL_v2","pSARL_v2021vgs9l","62e19208352cd518d7b2f085","freq","img/orange_2bandit_a2.png","70","70","test","1","10","10","1","",""
"null","624881","pSARL_v2","pSARL_v2021vgs9l","62e19208352cd518d7b2f085","freq_resp","img/orange_2bandit_a.png","70","70","test","","","","1","",""
"null","625041","pSARL_v2","pSARL_v2021vgs9l","62e19208352cd518d7b2f085","fixation","img/fixation.png","null","","test","","","","","",""
"759.7000000476837","625804","pSARL_v2","pSARL_v2021vgs9l","62e19208352cd518d7b2f085","freq","img/orange_2bandit_a2.png","70","70","test","1","11","11","1","",""
"null","625849","pSARL_v2","pSARL_v2021vgs9l","62e19208352cd518d7b2f085","freq_resp","img/orange_2bandit_a.png","70","70","test","","","","1","",""
"null","626009","pSARL_v2","pSARL_v2021vgs9l","62e19208352cd518d7b2f085","fixation","img/fixation.png","null","","test","","","","","",""
"null","626817","pSARL_v2","pSARL_v2021vgs9l","62e19208352cd518d7b2f085","freq","img/orange_2bandit_a2.png","null","70","test","0","12","12","1","",""
"null","626977","pSARL_v2","pSARL_v2021vgs9l","62e19208352cd518d7b2f085","fixation","img/fixation.png","null","","test","","","","","",""
"638.5","627622","pSARL_v2","pSARL_v2021vgs9l","62e19208352cd518d7b2f085","freq","img/orange_2bandit_a2.png","70","70","test","1","13","13","1","",""
"null","627793","pSARL_v2","pSARL_v2021vgs9l","62e19208352cd518d7b2f085","freq_resp","img/orange_2bandit_a.png","70","70","test","","","","1","",""
"null","627952","pSARL_v2","pSARL_v2021vgs9l","62e19208352cd518d7b2f085","fixation","img/fixation.png","null","","test","","","","","",""
"376","628333","pSARL_v2","pSARL_v2021vgs9l","62e19208352cd518d7b2f085","freq","img/orange_2bandit_a2.png","70","70","test","1","14","14","1","",""
"null","628768","pSARL_v2","pSARL_v2021vgs9l","62e19208352cd518d7b2f085","freq_resp","img/orange_2bandit_a.png","70","70","test","","","","1","",""
"null","628928","pSARL_v2","pSARL_v2021vgs9l","62e19208352cd518d7b2f085","fixation","img/fixation.png","null","","test","","","","","",""
"312.5","629246","pSARL_v2","pSARL_v2021vgs9l","62e19208352cd518d7b2f085","freq","img/orange_2bandit_a2.png","70","70","test","1","15","15","1","",""
"null","629744","pSARL_v2","pSARL_v2021vgs9l","62e19208352cd518d7b2f085","freq_resp","img/orange_2bandit_a.png","70","70","test","","","","1","",""
"null","629905","pSARL_v2","pSARL_v2021vgs9l","62e19208352cd518d7b2f085","fixation","img/fixation.png","null","","test","","","","","",""
"438.5","630348","pSARL_v2","pSARL_v2021vgs9l","62e19208352cd518d7b2f085","freq","img/orange_2bandit_a2.png","70","70","test","1","16","16","1","",""
"null","630721","pSARL_v2","pSARL_v2021vgs9l","62e19208352cd518d7b2f085","freq_resp","img/orange_2bandit_a.png","70","70","test","","","","1","",""
"null","630882","pSARL_v2","pSARL_v2021vgs9l","62e19208352cd518d7b2f085","fixation","img/fixation.png","null","","test","","","","","",""
"446.5","631333","pSARL_v2","pSARL_v2021vgs9l","62e19208352cd518d7b2f085","infreq","img/green_2bandit_a2.png","68","68","test","1","17","17","1","",""
"null","631697","pSARL_v2","pSARL_v2021vgs9l","62e19208352cd518d7b2f085","infreq_resp","img/green_2bandit_a.png","68","68","test","","","","1","",""
"null","631857","pSARL_v2","pSARL_v2021vgs9l","62e19208352cd518d7b2f085","fixation","img/fixation.png","null","","test","","","","","",""
"551.9000000953674","632415","pSARL_v2","pSARL_v2021vgs9l","62e19208352cd518d7b2f085","freq","img/orange_2bandit_a2.png","70","70","test","1","18","18","1","",""
"null","632672","pSARL_v2","pSARL_v2021vgs9l","62e19208352cd518d7b2f085","freq_resp","img/orange_2bandit_a.png","70","70","test","","","","1","",""
"null","632835","pSARL_v2","pSARL_v2021vgs9l","62e19208352cd518d7b2f085","fixation","img/fixation.png","null","","test","","","","","",""
"781","633621","pSARL_v2","pSARL_v2021vgs9l","62e19208352cd518d7b2f085","freq","img/orange_2bandit_a2.png","70","70","test","1","19","19","1","",""
"null","633648","pSARL_v2","pSARL_v2021vgs9l","62e19208352cd518d7b2f085","freq_resp","img/orange_2bandit_a.png","70","70","test","","","","1","",""
"null","633808","pSARL_v2","pSARL_v2021vgs9l","62e19208352cd518d7b2f085","fixation","img/fixation.png","null","","test","","","","","",""
"576","634388","pSARL_v2","pSARL_v2021vgs9l","62e19208352cd518d7b2f085","reward","img/slot.png","74","","test","","","","","",""
"null","635145","pSARL_v2","pSARL_v2021vgs9l","62e19208352cd518d7b2f085","points","<div class=""verylowPoints""> -6 </div>","null","na","test","","","","1","-6","0"
"695.3000001907349","635845","pSARL_v2","pSARL_v2021vgs9l","62e19208352cd518d7b2f085","freq","img/orange_2bandit_a2.png","70","70","test","1","20","20","2","",""
"null","635962","pSARL_v2","pSARL_v2021vgs9l","62e19208352cd518d7b2f085","freq_resp","img/orange_2bandit_a.png","70","70","test","","","","2","",""
"null","636123","pSARL_v2","pSARL_v2021vgs9l","62e19208352cd518d7b2f085","fixation","img/fixation.png","null","","test","","","","","",""
"325.39999985694885","636452","pSARL_v2","pSARL_v2021vgs9l","62e19208352cd518d7b2f085","freq","img/orange_2bandit_a2.png","70","70","test","1","21","21","2","",""
"null","636937","pSARL_v2","pSARL_v2021vgs9l","62e19208352cd518d7b2f085","freq_resp","img/orange_2bandit_a.png","70","70","test","","","","2","",""
"null","637097","pSARL_v2","pSARL_v2021vgs9l","62e19208352cd518d7b2f085","fixation","img/fixation.png","null","","test","","","","","",""
"303.2999999523163","637405","pSARL_v2","pSARL_v2021vgs9l","62e19208352cd518d7b2f085","freq","img/orange_2bandit_a2.png","70","70","test","1","22","22","2","",""
"null","637913","pSARL_v2","pSARL_v2021vgs9l","62e19208352cd518d7b2f085","freq_resp","img/orange_2bandit_a.png","70","70","test","","","","2","",""
"null","638073","pSARL_v2","pSARL_v2021vgs9l","62e19208352cd518d7b2f085","fixation","img/fixation.png","null","","test","","","","","",""
"591.7999999523163","638670","pSARL_v2","pSARL_v2021vgs9l","62e19208352cd518d7b2f085","freq","img/orange_2bandit_a2.png","70","70","test","1","23","23","2","",""
"null","638889","pSARL_v2","pSARL_v2021vgs9l","62e19208352cd518d7b2f085","freq_resp","img/orange_2bandit_a.png","70","70","test","","","","2","",""
"null","639050","pSARL_v2","pSARL_v2021vgs9l","62e19208352cd518d7b2f085","fixation","img/fixation.png","null","","test","","","","","",""
"429.80000019073486","639484","pSARL_v2","pSARL_v2021vgs9l","62e19208352cd518d7b2f085","freq","img/orange_2bandit_a2.png","70","70","test","1","24","24","2","",""
"null","639866","pSARL_v2","pSARL_v2021vgs9l","62e19208352cd518d7b2f085","freq_resp","img/orange_2bandit_a.png","70","70","test","","","","2","",""
"null","640025","pSARL_v2","pSARL_v2021vgs9l","62e19208352cd518d7b2f085","fixation","img/fixation.png","null","","test","","","","","",""
"486.80000019073486","640517","pSARL_v2","pSARL_v2021vgs9l","62e19208352cd518d7b2f085","infreq","img/green_2bandit_a2.png","68","68","test","1","25","25","2","",""
"null","640841","pSARL_v2","pSARL_v2021vgs9l","62e19208352cd518d7b2f085","infreq_resp","img/green_2bandit_a.png","68","68","test","","","","2","",""
"null","641027","pSARL_v2","pSARL_v2021vgs9l","62e19208352cd518d7b2f085","fixation","img/fixation.png","null","","test","","","","","",""
"397.10000014305115","641428","pSARL_v2","pSARL_v2021vgs9l","62e19208352cd518d7b2f085","freq","img/orange_2bandit_a2.png","70","70","test","1","26","26","2","",""
"null","641842","pSARL_v2","pSARL_v2021vgs9l","62e19208352cd518d7b2f085","freq_resp","img/orange_2bandit_a.png","70","70","test","","","","2","",""
"null","642002","pSARL_v2","pSARL_v2021vgs9l","62e19208352cd518d7b2f085","fixation","img/fixation.png","null","","test","","","","","",""
"341.89999985694885","642348","pSARL_v2","pSARL_v2021vgs9l","62e19208352cd518d7b2f085","freq","img/orange_2bandit_a2.png","70","70","test","1","27","27","2","",""
"null","642820","pSARL_v2","pSARL_v2021vgs9l","62e19208352cd518d7b2f085","freq_resp","img/orange_2bandit_a.png","70","70","test","","","","2","",""
"null","642978","pSARL_v2","pSARL_v2021vgs9l","62e19208352cd518d7b2f085","fixation","img/fixation.png","null","","test","","","","","",""
"301.90000009536743","643286","pSARL_v2","pSARL_v2021vgs9l","62e19208352cd518d7b2f085","freq","img/orange_2bandit_a2.png","70","70","test","1","28","28","2","",""
"null","643794","pSARL_v2","pSARL_v2021vgs9l","62e19208352cd518d7b2f085","freq_resp","img/orange_2bandit_a.png","70","70","test","","","","2","",""
"null","643955","pSARL_v2","pSARL_v2021vgs9l","62e19208352cd518d7b2f085","fixation","img/fixation.png","null","","test","","","","","",""
"260.7000000476837","644219","pSARL_v2","pSARL_v2021vgs9l","62e19208352cd518d7b2f085","freq","img/orange_2bandit_a2.png","70","70","test","1","29","29","2","",""
"null","644769","pSARL_v2","pSARL_v2021vgs9l","62e19208352cd518d7b2f085","freq_resp","img/orange_2bandit_a.png","70","70","test","","","","2","",""
"null","644929","pSARL_v2","pSARL_v2021vgs9l","62e19208352cd518d7b2f085","fixation","img/fixation.png","null","","test","","","","","",""
"278.2999999523163","645213","pSARL_v2","pSARL_v2021vgs9l","62e19208352cd518d7b2f085","freq","img/orange_2bandit_a2.png","70","70","test","1","30","30","2","",""
"null","645747","pSARL_v2","pSARL_v2021vgs9l","62e19208352cd518d7b2f085","freq_resp","img/orange_2bandit_a.png","70","70","test","","","","2","",""
"null","645905","pSARL_v2","pSARL_v2021vgs9l","62e19208352cd518d7b2f085","fixation","img/fixation.png","null","","test","","","","","",""
"303.30000019073486","646212","pSARL_v2","pSARL_v2021vgs9l","62e19208352cd518d7b2f085","freq","img/orange_2bandit_a2.png","70","70","test","1","31","31","2","",""
"null","646717","pSARL_v2","pSARL_v2021vgs9l","62e19208352cd518d7b2f085","freq_resp","img/orange_2bandit_a.png","70","70","test","","","","2","",""
"null","646873","pSARL_v2","pSARL_v2021vgs9l","62e19208352cd518d7b2f085","fixation","img/fixation.png","null","","test","","","","","",""
"271.2000000476837","647147","pSARL_v2","pSARL_v2021vgs9l","62e19208352cd518d7b2f085","freq","img/orange_2bandit_a2.png","70","70","test","1","32","32","2","",""
"null","647681","pSARL_v2","pSARL_v2021vgs9l","62e19208352cd518d7b2f085","freq_resp","img/orange_2bandit_a.png","70","70","test","","","","2","",""
"null","647841","pSARL_v2","pSARL_v2021vgs9l","62e19208352cd518d7b2f085","fixation","img/fixation.png","null","","test","","","","","",""
"271","648115","pSARL_v2","pSARL_v2021vgs9l","62e19208352cd518d7b2f085","freq","img/orange_2bandit_a2.png","70","70","test","1","33","33","2","",""
"null","648652","pSARL_v2","pSARL_v2021vgs9l","62e19208352cd518d7b2f085","freq_resp","img/orange_2bandit_a.png","70","70","test","","","","2","",""
"null","648809","pSARL_v2","pSARL_v2021vgs9l","62e19208352cd518d7b2f085","fixation","img/fixation.png","null","","test","","","","","",""
"175","648988","pSARL_v2","pSARL_v2021vgs9l","62e19208352cd518d7b2f085","freq","img/orange_2bandit_a2.png","70","70","test","1","34","34","2","",""
"null","649617","pSARL_v2","pSARL_v2021vgs9l","62e19208352cd518d7b2f085","freq_resp","img/orange_2bandit_a.png","70","70","test","","","","2","",""
"null","649777","pSARL_v2","pSARL_v2021vgs9l","62e19208352cd518d7b2f085","fixation","img/fixation.png","null","","test","","","","","",""
"191.20000004768372","649972","pSARL_v2","pSARL_v2021vgs9l","62e19208352cd518d7b2f085","freq","img/orange_2bandit_a2.png","70","70","test","1","35","35","2","",""
"null","650586","pSARL_v2","pSARL_v2021vgs9l","62e19208352cd518d7b2f085","freq_resp","img/orange_2bandit_a.png","70","70","test","","","","2","",""
"null","650745","pSARL_v2","pSARL_v2021vgs9l","62e19208352cd518d7b2f085","fixation","img/fixation.png","null","","test","","","","","",""
"319.09999990463257","651069","pSARL_v2","pSARL_v2021vgs9l","62e19208352cd518d7b2f085","freq","img/orange_2bandit_a2.png","70","70","test","1","36","36","2","",""
"null","651556","pSARL_v2","pSARL_v2021vgs9l","62e19208352cd518d7b2f085","freq_resp","img/orange_2bandit_a.png","70","70","test","","","","2","",""
"null","651714","pSARL_v2","pSARL_v2021vgs9l","62e19208352cd518d7b2f085","fixation","img/fixation.png","null","","test","","","","","",""
"293.19999980926514","652012","pSARL_v2","pSARL_v2021vgs9l","62e19208352cd518d7b2f085","freq","img/orange_2bandit_a2.png","70","70","test","1","37","37","2","",""
"null","652528","pSARL_v2","pSARL_v2021vgs9l","62e19208352cd518d7b2f085","freq_resp","img/orange_2bandit_a.png","70","70","test","","","","2","",""
"null","652690","pSARL_v2","pSARL_v2021vgs9l","62e19208352cd518d7b2f085","fixation","img/fixation.png","null","","test","","","","","",""
"190.40000009536743","652885","pSARL_v2","pSARL_v2021vgs9l","62e19208352cd518d7b2f085","infreq","img/green_2bandit_a2.png","70","68","test","0","38","38","2","",""
"null","653504","pSARL_v2","pSARL_v2021vgs9l","62e19208352cd518d7b2f085","infreq_resp","img/green_2bandit_a.png","70","68","test","","","","2","",""
"null","653664","pSARL_v2","pSARL_v2021vgs9l","62e19208352cd518d7b2f085","fixation","img/fixation.png","null","","test","","","","","",""
"392","654060","pSARL_v2","pSARL_v2021vgs9l","62e19208352cd518d7b2f085","freq","img/orange_2bandit_a2.png","70","70","test","1","39","39","2","",""
"null","654473","pSARL_v2","pSARL_v2021vgs9l","62e19208352cd518d7b2f085","freq_resp","img/orange_2bandit_a.png","70","70","test","","","","2","",""
"null","654633","pSARL_v2","pSARL_v2021vgs9l","62e19208352cd518d7b2f085","fixation","img/fixation.png","null","","test","","","","","",""
"294.40000009536743","654932","pSARL_v2","pSARL_v2021vgs9l","62e19208352cd518d7b2f085","freq","img/orange_2bandit_a2.png","70","70","test","1","40","40","2","",""
"null","655449","pSARL_v2","pSARL_v2021vgs9l","62e19208352cd518d7b2f085","freq_resp","img/orange_2bandit_a.png","70","70","test","","","","2","",""
"null","655608","pSARL_v2","pSARL_v2021vgs9l","62e19208352cd518d7b2f085","fixation","img/fixation.png","null","","test","","","","","",""
"503.89999985694885","656117","pSARL_v2","pSARL_v2021vgs9l","62e19208352cd518d7b2f085","reward","img/slot.png","74","","test","","","","","",""
"null","656874","pSARL_v2","pSARL_v2021vgs9l","62e19208352cd518d7b2f085","points","<div class=""verylowPoints""> -11 </div>","null","na","test","","","","2","-11","1"
"574.3000001907349","657452","pSARL_v2","pSARL_v2021vgs9l","62e19208352cd518d7b2f085","freq","img/orange_2bandit_a2.png","70","70","test","1","41","41","3","",""
"null","657689","pSARL_v2","pSARL_v2021vgs9l","62e19208352cd518d7b2f085","freq_resp","img/orange_2bandit_a.png","70","70","test","","","","3","",""
"null","657848","pSARL_v2","pSARL_v2021vgs9l","62e19208352cd518d7b2f085","fixation","img/fixation.png","null","","test","","","","","",""
"351.5","658204","pSARL_v2","pSARL_v2021vgs9l","62e19208352cd518d7b2f085","freq","img/orange_2bandit_a2.png","70","70","test","1","42","42","3","",""
"null","658657","pSARL_v2","pSARL_v2021vgs9l","62e19208352cd518d7b2f085","freq_resp","img/orange_2bandit_a.png","70","70","test","","","","3","",""
"null","658817","pSARL_v2","pSARL_v2021vgs9l","62e19208352cd518d7b2f085","fixation","img/fixation.png","null","","test","","","","","",""
"286.10000014305115","659108","pSARL_v2","pSARL_v2021vgs9l","62e19208352cd518d7b2f085","freq","img/orange_2bandit_a2.png","70","70","test","1","43","43","3","",""
"null","659633","pSARL_v2","pSARL_v2021vgs9l","62e19208352cd518d7b2f085","freq_resp","img/orange_2bandit_a.png","70","70","test","","","","3","",""
"null","659793","pSARL_v2","pSARL_v2021vgs9l","62e19208352cd518d7b2f085","fixation","img/fixation.png","null","","test","","","","","",""
"261.90000009536743","660060","pSARL_v2","pSARL_v2021vgs9l","62e19208352cd518d7b2f085","freq","img/orange_2bandit_a2.png","70","70","test","1","44","44","3","",""
"null","660610","pSARL_v2","pSARL_v2021vgs9l","62e19208352cd518d7b2f085","freq_resp","img/orange_2bandit_a.png","70","70","test","","","","3","",""
"null","660770","pSARL_v2","pSARL_v2021vgs9l","62e19208352cd518d7b2f085","fixation","img/fixation.png","null","","test","","","","","",""
"517.5","661291","pSARL_v2","pSARL_v2021vgs9l","62e19208352cd518d7b2f085","infreq","img/green_2bandit_a2.png","68","68","test","1","45","45","3","",""
"null","661585","pSARL_v2","pSARL_v2021vgs9l","62e19208352cd518d7b2f085","infreq_resp","img/green_2bandit_a.png","68","68","test","","","","3","",""
"null","661746","pSARL_v2","pSARL_v2021vgs9l","62e19208352cd518d7b2f085","fixation","img/fixation.png","null","","test","","","","","",""
"501.40000009536743","662253","pSARL_v2","pSARL_v2021vgs9l","62e19208352cd518d7b2f085","freq","img/orange_2bandit_a2.png","70","70","test","1","46","46","3","",""
"null","662561","pSARL_v2","pSARL_v2021vgs9l","62e19208352cd518d7b2f085","freq_resp","img/orange_2bandit_a.png","70","70","test","","","","3","",""
"null","662721","pSARL_v2","pSARL_v2021vgs9l","62e19208352cd518d7b2f085","fixation","img/fixation.png","null","","test","","","","","",""
"350.90000009536743","663077","pSARL_v2","pSARL_v2021vgs9l","62e19208352cd518d7b2f085","freq","img/orange_2bandit_a2.png","70","70","test","1","47","47","3","",""
"null","663538","pSARL_v2","pSARL_v2021vgs9l","62e19208352cd518d7b2f085","freq_resp","img/orange_2bandit_a.png","70","70","test","","","","3","",""
"null","663697","pSARL_v2","pSARL_v2021vgs9l","62e19208352cd518d7b2f085","fixation","img/fixation.png","null","","test","","","","","",""
"270.59999990463257","663973","pSARL_v2","pSARL_v2021vgs9l","62e19208352cd518d7b2f085","freq","img/orange_2bandit_a2.png","70","70","test","1","48","48","3","",""
"null","664514","pSARL_v2","pSARL_v2021vgs9l","62e19208352cd518d7b2f085","freq_resp","img/orange_2bandit_a.png","70","70","test","","","","3","",""
"null","664674","pSARL_v2","pSARL_v2021vgs9l","62e19208352cd518d7b2f085","fixation","img/fixation.png","null","","test","","","","","",""
"181.40000009536743","664861","pSARL_v2","pSARL_v2021vgs9l","62e19208352cd518d7b2f085","freq","img/orange_2bandit_a2.png","70","70","test","1","49","49","3","",""
"null","665490","pSARL_v2","pSARL_v2021vgs9l","62e19208352cd518d7b2f085","freq_resp","img/orange_2bandit_a.png","70","70","test","","","","3","",""
"null","665651","pSARL_v2","pSARL_v2021vgs9l","62e19208352cd518d7b2f085","fixation","img/fixation.png","null","","test","","","","","",""
"293","665947","pSARL_v2","pSARL_v2021vgs9l","62e19208352cd518d7b2f085","infreq","img/green_2bandit_a2.png","70","68","test","0","50","50","3","",""
"null","666464","pSARL_v2","pSARL_v2021vgs9l","62e19208352cd518d7b2f085","infreq_resp","img/green_2bandit_a.png","70","68","test","","","","3","",""
"null","666626","pSARL_v2","pSARL_v2021vgs9l","62e19208352cd518d7b2f085","fixation","img/fixation.png","null","","test","","","","","",""
"357","666987","pSARL_v2","pSARL_v2021vgs9l","62e19208352cd518d7b2f085","freq","img/orange_2bandit_a2.png","70","70","test","1","51","51","3","",""
"null","667442","pSARL_v2","pSARL_v2021vgs9l","62e19208352cd518d7b2f085","freq_resp","img/orange_2bandit_a.png","70","70","test","","","","3","",""
"null","667601","pSARL_v2","pSARL_v2021vgs9l","62e19208352cd518d7b2f085","fixation","img/fixation.png","null","","test","","","","","",""
"326.89999985694885","667932","pSARL_v2","pSARL_v2021vgs9l","62e19208352cd518d7b2f085","freq","img/orange_2bandit_a2.png","70","70","test","1","52","52","3","",""
"null","668410","pSARL_v2","pSARL_v2021vgs9l","62e19208352cd518d7b2f085","freq_resp","img/orange_2bandit_a.png","70","70","test","","","","3","",""
"null","668569","pSARL_v2","pSARL_v2021vgs9l","62e19208352cd518d7b2f085","fixation","img/fixation.png","null","","test","","","","","",""
"350.89999985694885","668925","pSARL_v2","pSARL_v2021vgs9l","62e19208352cd518d7b2f085","freq","img/orange_2bandit_a2.png","70","70","test","1","53","53","3","",""
"null","669385","pSARL_v2","pSARL_v2021vgs9l","62e19208352cd518d7b2f085","freq_resp","img/orange_2bandit_a.png","70","70","test","","","","3","",""
"null","669545","pSARL_v2","pSARL_v2021vgs9l","62e19208352cd518d7b2f085","fixation","img/fixation.png","null","","test","","","","","",""
"303","669851","pSARL_v2","pSARL_v2021vgs9l","62e19208352cd518d7b2f085","freq","img/orange_2bandit_a2.png","70","70","test","1","54","54","3","",""
"null","670355","pSARL_v2","pSARL_v2021vgs9l","62e19208352cd518d7b2f085","freq_resp","img/orange_2bandit_a.png","70","70","test","","","","3","",""
"null","670513","pSARL_v2","pSARL_v2021vgs9l","62e19208352cd518d7b2f085","fixation","img/fixation.png","null","","test","","","","","",""
"303.2000000476837","670821","pSARL_v2","pSARL_v2021vgs9l","62e19208352cd518d7b2f085","freq","img/orange_2bandit_a2.png","70","70","test","1","55","55","3","",""
"null","671330","pSARL_v2","pSARL_v2021vgs9l","62e19208352cd518d7b2f085","freq_resp","img/orange_2bandit_a.png","70","70","test","","","","3","",""
"null","671490","pSARL_v2","pSARL_v2021vgs9l","62e19208352cd518d7b2f085","fixation","img/fixation.png","null","","test","","","","","",""
"317","671811","pSARL_v2","pSARL_v2021vgs9l","62e19208352cd518d7b2f085","freq","img/orange_2bandit_a2.png","70","70","test","1","56","56","3","",""
"null","672305","pSARL_v2","pSARL_v2021vgs9l","62e19208352cd518d7b2f085","freq_resp","img/orange_2bandit_a.png","70","70","test","","","","3","",""
"null","672465","pSARL_v2","pSARL_v2021vgs9l","62e19208352cd518d7b2f085","fixation","img/fixation.png","null","","test","","","","","",""
"310.19999980926514","672781","pSARL_v2","pSARL_v2021vgs9l","62e19208352cd518d7b2f085","freq","img/orange_2bandit_a2.png","70","70","test","1","57","57","3","",""
"null","673283","pSARL_v2","pSARL_v2021vgs9l","62e19208352cd518d7b2f085","freq_resp","img/orange_2bandit_a.png","70","70","test","","","","3","",""
"null","673441","pSARL_v2","pSARL_v2021vgs9l","62e19208352cd518d7b2f085","fixation","img/fixation.png","null","","test","","","","","",""
"477.89999985694885","673923","pSARL_v2","pSARL_v2021vgs9l","62e19208352cd518d7b2f085","infreq","img/green_2bandit_a2.png","68","68","test","1","58","58","3","",""
"null","674259","pSARL_v2","pSARL_v2021vgs9l","62e19208352cd518d7b2f085","infreq_resp","img/green_2bandit_a.png","68","68","test","","","","3","",""
"null","674418","pSARL_v2","pSARL_v2021vgs9l","62e19208352cd518d7b2f085","fixation","img/fixation.png","null","","test","","","","","",""
"508.60000014305115","674931","pSARL_v2","pSARL_v2021vgs9l","62e19208352cd518d7b2f085","freq","img/orange_2bandit_a2.png","70","70","test","1","59","59","3","",""
"null","675234","pSARL_v2","pSARL_v2021vgs9l","62e19208352cd518d7b2f085","freq_resp","img/orange_2bandit_a.png","70","70","test","","","","3","",""
"null","675393","pSARL_v2","pSARL_v2021vgs9l","62e19208352cd518d7b2f085","fixation","img/fixation.png","null","","test","","","","","",""
"318","675715","pSARL_v2","pSARL_v2021vgs9l","62e19208352cd518d7b2f085","freq","img/orange_2bandit_a2.png","70","70","test","1","60","60","3","",""
"null","676203","pSARL_v2","pSARL_v2021vgs9l","62e19208352cd518d7b2f085","freq_resp","img/orange_2bandit_a.png","70","70","test","","","","3","",""
"null","676362","pSARL_v2","pSARL_v2021vgs9l","62e19208352cd518d7b2f085","fixation","img/fixation.png","null","","test","","","","","",""
"310.09999990463257","676676","pSARL_v2","pSARL_v2021vgs9l","62e19208352cd518d7b2f085","freq","img/orange_2bandit_a2.png","70","70","test","1","61","61","3","",""
"null","677170","pSARL_v2","pSARL_v2021vgs9l","62e19208352cd518d7b2f085","freq_resp","img/orange_2bandit_a.png","70","70","test","","","","3","",""
"null","677330","pSARL_v2","pSARL_v2021vgs9l","62e19208352cd518d7b2f085","fixation","img/fixation.png","null","","test","","","","","",""
"334.7999999523163","677668","pSARL_v2","pSARL_v2021vgs9l","62e19208352cd518d7b2f085","freq","img/orange_2bandit_a2.png","70","70","test","1","62","62","3","",""
"null","678138","pSARL_v2","pSARL_v2021vgs9l","62e19208352cd518d7b2f085","freq_resp","img/orange_2bandit_a.png","70","70","test","","","","3","",""
"null","678297","pSARL_v2","pSARL_v2021vgs9l","62e19208352cd518d7b2f085","fixation","img/fixation.png","null","","test","","","","","",""
"303.89999985694885","678607","pSARL_v2","pSARL_v2021vgs9l","62e19208352cd518d7b2f085","freq","img/orange_2bandit_a2.png","70","70","test","1","63","63","3","",""
"null","679114","pSARL_v2","pSARL_v2021vgs9l","62e19208352cd518d7b2f085","freq_resp","img/orange_2bandit_a.png","70","70","test","","","","3","",""
"null","679274","pSARL_v2","pSARL_v2021vgs9l","62e19208352cd518d7b2f085","fixation","img/fixation.png","null","","test","","","","","",""
"287","679565","pSARL_v2","pSARL_v2021vgs9l","62e19208352cd518d7b2f085","freq","img/orange_2bandit_a2.png","70","70","test","1","64","64","3","",""
"null","680090","pSARL_v2","pSARL_v2021vgs9l","62e19208352cd518d7b2f085","freq_resp","img/orange_2bandit_a.png","70","70","test","","","","3","",""
"null","680252","pSARL_v2","pSARL_v2021vgs9l","62e19208352cd518d7b2f085","fixation","img/fixation.png","null","","test","","","","","",""
"308.2000000476837","680565","pSARL_v2","pSARL_v2021vgs9l","62e19208352cd518d7b2f085","freq","img/orange_2bandit_a2.png","70","70","test","1","65","65","3","",""
"null","681066","pSARL_v2","pSARL_v2021vgs9l","62e19208352cd518d7b2f085","freq_resp","img/orange_2bandit_a.png","70","70","test","","","","3","",""
"null","681226","pSARL_v2","pSARL_v2021vgs9l","62e19208352cd518d7b2f085","fixation","img/fixation.png","null","","test","","","","","",""
"310.2999999523163","681540","pSARL_v2","pSARL_v2021vgs9l","62e19208352cd518d7b2f085","freq","img/orange_2bandit_a2.png","70","70","test","1","66","66","3","",""
"null","682034","pSARL_v2","pSARL_v2021vgs9l","62e19208352cd518d7b2f085","freq_resp","img/orange_2bandit_a.png","70","70","test","","","","3","",""
"null","682193","pSARL_v2","pSARL_v2021vgs9l","62e19208352cd518d7b2f085","fixation","img/fixation.png","null","","test","","","","","",""
"623.2000000476837","682820","pSARL_v2","pSARL_v2021vgs9l","62e19208352cd518d7b2f085","reward","img/slot.png","74","","test","","","","","",""
"null","683580","pSARL_v2","pSARL_v2021vgs9l","62e19208352cd518d7b2f085","points","<div class=""verylowPoints""> -7 </div>","null","na","test","","","","3","-7","2"
"476","684060","pSARL_v2","pSARL_v2021vgs9l","62e19208352cd518d7b2f085","freq","img/orange_2bandit_a2.png","70","70","test","1","67","67","4","",""
"null","684395","pSARL_v2","pSARL_v2021vgs9l","62e19208352cd518d7b2f085","freq_resp","img/orange_2bandit_a.png","70","70","test","","","","4","",""
"null","684554","pSARL_v2","pSARL_v2021vgs9l","62e19208352cd518d7b2f085","fixation","img/fixation.png","null","","test","","","","","",""
"325.7000000476837","684884","pSARL_v2","pSARL_v2021vgs9l","62e19208352cd518d7b2f085","freq","img/orange_2bandit_a2.png","70","70","test","1","68","68","4","",""
"null","685371","pSARL_v2","pSARL_v2021vgs9l","62e19208352cd518d7b2f085","freq_resp","img/orange_2bandit_a.png","70","70","test","","","","4","",""
"null","685530","pSARL_v2","pSARL_v2021vgs9l","62e19208352cd518d7b2f085","fixation","img/fixation.png","null","","test","","","","","",""
"302.59999990463257","685836","pSARL_v2","pSARL_v2021vgs9l","62e19208352cd518d7b2f085","freq","img/orange_2bandit_a2.png","70","70","test","1","69","69","4","",""
"null","686338","pSARL_v2","pSARL_v2021vgs9l","62e19208352cd518d7b2f085","freq_resp","img/orange_2bandit_a.png","70","70","test","","","","4","",""
"null","686500","pSARL_v2","pSARL_v2021vgs9l","62e19208352cd518d7b2f085","fixation","img/fixation.png","null","","test","","","","","",""
"332.2000000476837","686836","pSARL_v2","pSARL_v2021vgs9l","62e19208352cd518d7b2f085","freq","img/orange_2bandit_a2.png","70","70","test","1","70","70","4","",""
"null","687315","pSARL_v2","pSARL_v2021vgs9l","62e19208352cd518d7b2f085","freq_resp","img/orange_2bandit_a.png","70","70","test","","","","4","",""
"null","687475","pSARL_v2","pSARL_v2021vgs9l","62e19208352cd518d7b2f085","fixation","img/fixation.png","null","","test","","","","","",""
"293.09999990463257","687772","pSARL_v2","pSARL_v2021vgs9l","62e19208352cd518d7b2f085","freq","img/orange_2bandit_a2.png","70","70","test","1","71","71","4","",""
"null","688283","pSARL_v2","pSARL_v2021vgs9l","62e19208352cd518d7b2f085","freq_resp","img/orange_2bandit_a.png","70","70","test","","","","4","",""
"null","688443","pSARL_v2","pSARL_v2021vgs9l","62e19208352cd518d7b2f085","fixation","img/fixation.png","null","","test","","","","","",""
"285.5","688734","pSARL_v2","pSARL_v2021vgs9l","62e19208352cd518d7b2f085","freq","img/orange_2bandit_a2.png","70","70","test","1","72","72","4","",""
"null","689259","pSARL_v2","pSARL_v2021vgs9l","62e19208352cd518d7b2f085","freq_resp","img/orange_2bandit_a.png","70","70","test","","","","4","",""
"null","689422","pSARL_v2","pSARL_v2021vgs9l","62e19208352cd518d7b2f085","fixation","img/fixation.png","null","","test","","","","","",""
"274.5","689701","pSARL_v2","pSARL_v2021vgs9l","62e19208352cd518d7b2f085","freq","img/orange_2bandit_a2.png","70","70","test","1","73","73","4","",""
"null","690234","pSARL_v2","pSARL_v2021vgs9l","62e19208352cd518d7b2f085","freq_resp","img/orange_2bandit_a.png","70","70","test","","","","4","",""
"null","690395","pSARL_v2","pSARL_v2021vgs9l","62e19208352cd518d7b2f085","fixation","img/fixation.png","null","","test","","","","","",""
"308.7999999523163","690708","pSARL_v2","pSARL_v2021vgs9l","62e19208352cd518d7b2f085","freq","img/orange_2bandit_a2.png","70","70","test","1","74","74","4","",""
"null","691210","pSARL_v2","pSARL_v2021vgs9l","62e19208352cd518d7b2f085","freq_resp","img/orange_2bandit_a.png","70","70","test","","","","4","",""
"null","691370","pSARL_v2","pSARL_v2021vgs9l","62e19208352cd518d7b2f085","fixation","img/fixation.png","null","","test","","","","","",""
"174.39999985694885","691548","pSARL_v2","pSARL_v2021vgs9l","62e19208352cd518d7b2f085","freq","img/orange_2bandit_a2.png","70","70","test","1","75","75","4","",""
"null","692178","pSARL_v2","pSARL_v2021vgs9l","62e19208352cd518d7b2f085","freq_resp","img/orange_2bandit_a.png","70","70","test","","","","4","",""
"null","692338","pSARL_v2","pSARL_v2021vgs9l","62e19208352cd518d7b2f085","fixation","img/fixation.png","null","","test","","","","","",""
"166.29999995231628","692509","pSARL_v2","pSARL_v2021vgs9l","62e19208352cd518d7b2f085","infreq","img/green_2bandit_a2.png","70","68","test","0","76","76","4","",""
"null","693156","pSARL_v2","pSARL_v2021vgs9l","62e19208352cd518d7b2f085","infreq_resp","img/green_2bandit_a.png","70","68","test","","","","4","",""
"null","693316","pSARL_v2","pSARL_v2021vgs9l","62e19208352cd518d7b2f085","fixation","img/fixation.png","null","","test","","","","","",""
"396.59999990463257","693716","pSARL_v2","pSARL_v2021vgs9l","62e19208352cd518d7b2f085","freq","img/orange_2bandit_a2.png","70","70","test","1","77","77","4","",""
"null","694130","pSARL_v2","pSARL_v2021vgs9l","62e19208352cd518d7b2f085","freq_resp","img/orange_2bandit_a.png","70","70","test","","","","4","",""
"null","694290","pSARL_v2","pSARL_v2021vgs9l","62e19208352cd518d7b2f085","fixation","img/fixation.png","null","","test","","","","","",""
"310","694605","pSARL_v2","pSARL_v2021vgs9l","62e19208352cd518d7b2f085","freq","img/orange_2bandit_a2.png","70","70","test","1","78","78","4","",""
"null","695106","pSARL_v2","pSARL_v2021vgs9l","62e19208352cd518d7b2f085","freq_resp","img/orange_2bandit_a.png","70","70","test","","","","4","",""
"null","695266","pSARL_v2","pSARL_v2021vgs9l","62e19208352cd518d7b2f085","fixation","img/fixation.png","null","","test","","","","","",""
"278.2999999523163","695548","pSARL_v2","pSARL_v2021vgs9l","62e19208352cd518d7b2f085","freq","img/orange_2bandit_a2.png","70","70","test","1","79","79","4","",""
"null","696075","pSARL_v2","pSARL_v2021vgs9l","62e19208352cd518d7b2f085","freq_resp","img/orange_2bandit_a.png","70","70","test","","","","4","",""
"null","696234","pSARL_v2","pSARL_v2021vgs9l","62e19208352cd518d7b2f085","fixation","img/fixation.png","null","","test","","","","","",""
"301.89999985694885","696541","pSARL_v2","pSARL_v2021vgs9l","62e19208352cd518d7b2f085","freq","img/orange_2bandit_a2.png","70","70","test","1","80","80","4","",""
"null","697050","pSARL_v2","pSARL_v2021vgs9l","62e19208352cd518d7b2f085","freq_resp","img/orange_2bandit_a.png","70","70","test","","","","4","",""
"null","697210","pSARL_v2","pSARL_v2021vgs9l","62e19208352cd518d7b2f085","fixation","img/fixation.png","null","","test","","","","","",""
"349.80000019073486","697564","pSARL_v2","pSARL_v2021vgs9l","62e19208352cd518d7b2f085","freq","img/orange_2bandit_a2.png","70","70","test","1","81","81","4","",""
"null","698019","pSARL_v2","pSARL_v2021vgs9l","62e19208352cd518d7b2f085","freq_resp","img/orange_2bandit_a.png","70","70","test","","","","4","",""
"null","698179","pSARL_v2","pSARL_v2021vgs9l","62e19208352cd518d7b2f085","fixation","img/fixation.png","null","","test","","","","","",""
"285.40000009536743","698468","pSARL_v2","pSARL_v2021vgs9l","62e19208352cd518d7b2f085","freq","img/orange_2bandit_a2.png","70","70","test","1","82","82","4","",""
"null","698987","pSARL_v2","pSARL_v2021vgs9l","62e19208352cd518d7b2f085","freq_resp","img/orange_2bandit_a.png","70","70","test","","","","4","",""
"null","699147","pSARL_v2","pSARL_v2021vgs9l","62e19208352cd518d7b2f085","fixation","img/fixation.png","null","","test","","","","","",""
"158","699309","pSARL_v2","pSARL_v2021vgs9l","62e19208352cd518d7b2f085","freq","img/orange_2bandit_a2.png","70","70","test","1","83","83","4","",""
"null","699957","pSARL_v2","pSARL_v2021vgs9l","62e19208352cd518d7b2f085","freq_resp","img/orange_2bandit_a.png","70","70","test","","","","4","",""
"null","700114","pSARL_v2","pSARL_v2021vgs9l","62e19208352cd518d7b2f085","fixation","img/fixation.png","null","","test","","","","","",""
"294","700413","pSARL_v2","pSARL_v2021vgs9l","62e19208352cd518d7b2f085","freq","img/orange_2bandit_a2.png","70","70","test","1","84","84","4","",""
"null","700931","pSARL_v2","pSARL_v2021vgs9l","62e19208352cd518d7b2f085","freq_resp","img/orange_2bandit_a.png","70","70","test","","","","4","",""
"null","701090","pSARL_v2","pSARL_v2021vgs9l","62e19208352cd518d7b2f085","fixation","img/fixation.png","null","","test","","","","","",""
"297.89999985694885","701393","pSARL_v2","pSARL_v2021vgs9l","62e19208352cd518d7b2f085","freq","img/orange_2bandit_a2.png","70","70","test","1","85","85","4","",""
"null","701906","pSARL_v2","pSARL_v2021vgs9l","62e19208352cd518d7b2f085","freq_resp","img/orange_2bandit_a.png","70","70","test","","","","4","",""
"null","702065","pSARL_v2","pSARL_v2021vgs9l","62e19208352cd518d7b2f085","fixation","img/fixation.png","null","","test","","","","","",""
"494.7999999523163","702565","pSARL_v2","pSARL_v2021vgs9l","62e19208352cd518d7b2f085","infreq","img/green_2bandit_a2.png","68","68","test","1","86","86","4","",""
"null","702882","pSARL_v2","pSARL_v2021vgs9l","62e19208352cd518d7b2f085","infreq_resp","img/green_2bandit_a.png","68","68","test","","","","4","",""
"null","703043","pSARL_v2","pSARL_v2021vgs9l","62e19208352cd518d7b2f085","fixation","img/fixation.png","null","","test","","","","","",""
"412.5","703461","pSARL_v2","pSARL_v2021vgs9l","62e19208352cd518d7b2f085","freq","img/orange_2bandit_a2.png","70","70","test","1","87","87","4","",""
"null","703858","pSARL_v2","pSARL_v2021vgs9l","62e19208352cd518d7b2f085","freq_resp","img/orange_2bandit_a.png","70","70","test","","","","4","",""
"null","704026","pSARL_v2","pSARL_v2021vgs9l","62e19208352cd518d7b2f085","fixation","img/fixation.png","null","","test","","","","","",""
"301.40000009536743","704332","pSARL_v2","pSARL_v2021vgs9l","62e19208352cd518d7b2f085","freq","img/orange_2bandit_a2.png","70","70","test","1","88","88","4","",""
"null","704834","pSARL_v2","pSARL_v2021vgs9l","62e19208352cd518d7b2f085","freq_resp","img/orange_2bandit_a.png","70","70","test","","","","4","",""
"null","704994","pSARL_v2","pSARL_v2021vgs9l","62e19208352cd518d7b2f085","fixation","img/fixation.png","null","","test","","","","","",""
"518.0999999046326","705515","pSARL_v2","pSARL_v2021vgs9l","62e19208352cd518d7b2f085","reward","img/slot.png","74","","test","","","","","",""
"null","706274","pSARL_v2","pSARL_v2021vgs9l","62e19208352cd518d7b2f085","points","<div class=""verylowPoints""> -3 </div>","null","na","test","","","","4","-3","3"
"461.60000014305115","706740","pSARL_v2","pSARL_v2021vgs9l","62e19208352cd518d7b2f085","freq","img/orange_2bandit_a2.png","70","70","test","1","89","89","5","",""
"null","707087","pSARL_v2","pSARL_v2021vgs9l","62e19208352cd518d7b2f085","freq_resp","img/orange_2bandit_a.png","70","70","test","","","","5","",""
"null","707242","pSARL_v2","pSARL_v2021vgs9l","62e19208352cd518d7b2f085","fixation","img/fixation.png","null","","test","","","","","",""
"309.7999999523163","707556","pSARL_v2","pSARL_v2021vgs9l","62e19208352cd518d7b2f085","freq","img/orange_2bandit_a2.png","70","70","test","1","90","90","5","",""
"null","708050","pSARL_v2","pSARL_v2021vgs9l","62e19208352cd518d7b2f085","freq_resp","img/orange_2bandit_a.png","70","70","test","","","","5","",""
"null","708212","pSARL_v2","pSARL_v2021vgs9l","62e19208352cd518d7b2f085","fixation","img/fixation.png","null","","test","","","","","",""
"300.2000000476837","708516","pSARL_v2","pSARL_v2021vgs9l","62e19208352cd518d7b2f085","freq","img/orange_2bandit_a2.png","70","70","test","1","91","91","5","",""
"null","709026","pSARL_v2","pSARL_v2021vgs9l","62e19208352cd518d7b2f085","freq_resp","img/orange_2bandit_a.png","70","70","test","","","","5","",""
"null","709185","pSARL_v2","pSARL_v2021vgs9l","62e19208352cd518d7b2f085","fixation","img/fixation.png","null","","test","","","","","",""
"294.89999985694885","709484","pSARL_v2","pSARL_v2021vgs9l","62e19208352cd518d7b2f085","freq","img/orange_2bandit_a2.png","70","70","test","1","92","92","5","",""
"null","709995","pSARL_v2","pSARL_v2021vgs9l","62e19208352cd518d7b2f085","freq_resp","img/orange_2bandit_a.png","70","70","test","","","","5","",""
"null","710154","pSARL_v2","pSARL_v2021vgs9l","62e19208352cd518d7b2f085","fixation","img/fixation.png","null","","test","","","","","",""
"270.2999999523163","710428","pSARL_v2","pSARL_v2021vgs9l","62e19208352cd518d7b2f085","freq","img/orange_2bandit_a2.png","70","70","test","1","93","93","5","",""
"null","710962","pSARL_v2","pSARL_v2021vgs9l","62e19208352cd518d7b2f085","freq_resp","img/orange_2bandit_a.png","70","70","test","","","","5","",""
"null","711122","pSARL_v2","pSARL_v2021vgs9l","62e19208352cd518d7b2f085","fixation","img/fixation.png","null","","test","","","","","",""
"310.2000000476837","711436","pSARL_v2","pSARL_v2021vgs9l","62e19208352cd518d7b2f085","freq","img/orange_2bandit_a2.png","70","70","test","1","94","94","5","",""
"null","711931","pSARL_v2","pSARL_v2021vgs9l","62e19208352cd518d7b2f085","freq_resp","img/orange_2bandit_a.png","70","70","test","","","","5","",""
"null","712091","pSARL_v2","pSARL_v2021vgs9l","62e19208352cd518d7b2f085","fixation","img/fixation.png","null","","test","","","","","",""
"292.5","712387","pSARL_v2","pSARL_v2021vgs9l","62e19208352cd518d7b2f085","freq","img/orange_2bandit_a2.png","70","70","test","1","95","95","5","",""
"null","712907","pSARL_v2","pSARL_v2021vgs9l","62e19208352cd518d7b2f085","freq_resp","img/orange_2bandit_a.png","70","70","test","","","","5","",""
"null","713066","pSARL_v2","pSARL_v2021vgs9l","62e19208352cd518d7b2f085","fixation","img/fixation.png","null","","test","","","","","",""
"301.89999985694885","713372","pSARL_v2","pSARL_v2021vgs9l","62e19208352cd518d7b2f085","freq","img/orange_2bandit_a2.png","70","70","test","1","96","96","5","",""
"null","713875","pSARL_v2","pSARL_v2021vgs9l","62e19208352cd518d7b2f085","freq_resp","img/orange_2bandit_a.png","70","70","test","","","","5","",""
"null","714034","pSARL_v2","pSARL_v2021vgs9l","62e19208352cd518d7b2f085","fixation","img/fixation.png","null","","test","","","","","",""
"157.69999980926514","714195","pSARL_v2","pSARL_v2021vgs9l","62e19208352cd518d7b2f085","freq","img/orange_2bandit_a2.png","70","70","test","1","97","97","5","",""
"null","714842","pSARL_v2","pSARL_v2021vgs9l","62e19208352cd518d7b2f085","freq_resp","img/orange_2bandit_a.png","70","70","test","","","","5","",""
"null","715005","pSARL_v2","pSARL_v2021vgs9l","62e19208352cd518d7b2f085","fixation","img/fixation.png","null","","test","","","","","",""
"266.7999999523163","715275","pSARL_v2","pSARL_v2021vgs9l","62e19208352cd518d7b2f085","freq","img/orange_2bandit_a2.png","70","70","test","1","98","98","5","",""
"null","715818","pSARL_v2","pSARL_v2021vgs9l","62e19208352cd518d7b2f085","freq_resp","img/orange_2bandit_a.png","70","70","test","","","","5","",""
"null","715982","pSARL_v2","pSARL_v2021vgs9l","62e19208352cd518d7b2f085","fixation","img/fixation.png","null","","test","","","","","",""
"281.59999990463257","716268","pSARL_v2","pSARL_v2021vgs9l","62e19208352cd518d7b2f085","freq","img/orange_2bandit_a2.png","70","70","test","1","99","99","5","",""
"null","716794","pSARL_v2","pSARL_v2021vgs9l","62e19208352cd518d7b2f085","freq_resp","img/orange_2bandit_a.png","70","70","test","","","","5","",""
"null","716954","pSARL_v2","pSARL_v2021vgs9l","62e19208352cd518d7b2f085","fixation","img/fixation.png","null","","test","","","","","",""
"269.5","717227","pSARL_v2","pSARL_v2021vgs9l","62e19208352cd518d7b2f085","freq","img/orange_2bandit_a2.png","70","70","test","1","100","100","5","",""
"null","717762","pSARL_v2","pSARL_v2021vgs9l","62e19208352cd518d7b2f085","freq_resp","img/orange_2bandit_a.png","70","70","test","","","","5","",""
"null","717922","pSARL_v2","pSARL_v2021vgs9l","62e19208352cd518d7b2f085","fixation","img/fixation.png","null","","test","","","","","",""
"309.5","718236","pSARL_v2","pSARL_v2021vgs9l","62e19208352cd518d7b2f085","freq","img/orange_2bandit_a2.png","70","70","test","1","101","101","5","",""
"null","718732","pSARL_v2","pSARL_v2021vgs9l","62e19208352cd518d7b2f085","freq_resp","img/orange_2bandit_a.png","70","70","test","","","","5","",""
"null","718890","pSARL_v2","pSARL_v2021vgs9l","62e19208352cd518d7b2f085","fixation","img/fixation.png","null","","test","","","","","",""
"293.2999999523163","719188","pSARL_v2","pSARL_v2021vgs9l","62e19208352cd518d7b2f085","freq","img/orange_2bandit_a2.png","70","70","test","1","102","102","5","",""
"null","719699","pSARL_v2","pSARL_v2021vgs9l","62e19208352cd518d7b2f085","freq_resp","img/orange_2bandit_a.png","70","70","test","","","","5","",""
"null","719859","pSARL_v2","pSARL_v2021vgs9l","62e19208352cd518d7b2f085","fixation","img/fixation.png","null","","test","","","","","",""
"285.10000014305115","720148","pSARL_v2","pSARL_v2021vgs9l","62e19208352cd518d7b2f085","freq","img/orange_2bandit_a2.png","70","70","test","1","103","103","5","",""
"null","720666","pSARL_v2","pSARL_v2021vgs9l","62e19208352cd518d7b2f085","freq_resp","img/orange_2bandit_a.png","70","70","test","","","","5","",""
"null","720827","pSARL_v2","pSARL_v2021vgs9l","62e19208352cd518d7b2f085","fixation","img/fixation.png","null","","test","","","","","",""
"469.09999990463257","721300","pSARL_v2","pSARL_v2021vgs9l","62e19208352cd518d7b2f085","infreq","img/green_2bandit_a2.png","68","68","test","1","104","104","5","",""
"null","721636","pSARL_v2","pSARL_v2021vgs9l","62e19208352cd518d7b2f085","infreq_resp","img/green_2bandit_a.png","68","68","test","","","","5","",""
"null","721795","pSARL_v2","pSARL_v2021vgs9l","62e19208352cd518d7b2f085","fixation","img/fixation.png","null","","test","","","","","",""
"333.2000000476837","722133","pSARL_v2","pSARL_v2021vgs9l","62e19208352cd518d7b2f085","infreq","img/green_2bandit_a2.png","68","68","test","1","105","105","5","",""
"null","722611","pSARL_v2","pSARL_v2021vgs9l","62e19208352cd518d7b2f085","infreq_resp","img/green_2bandit_a.png","68","68","test","","","","5","",""
"null","722771","pSARL_v2","pSARL_v2021vgs9l","62e19208352cd518d7b2f085","fixation","img/fixation.png","null","","test","","","","","",""
"428.7999999523163","723203","pSARL_v2","pSARL_v2021vgs9l","62e19208352cd518d7b2f085","freq","img/orange_2bandit_a2.png","70","70","test","1","106","106","5","",""
"null","723579","pSARL_v2","pSARL_v2021vgs9l","62e19208352cd518d7b2f085","freq_resp","img/orange_2bandit_a.png","70","70","test","","","","5","",""
"null","723738","pSARL_v2","pSARL_v2021vgs9l","62e19208352cd518d7b2f085","fixation","img/fixation.png","null","","test","","","","","",""
"300.90000009536743","724043","pSARL_v2","pSARL_v2021vgs9l","62e19208352cd518d7b2f085","freq","img/orange_2bandit_a2.png","70","70","test","1","107","107","5","",""
"null","724547","pSARL_v2","pSARL_v2021vgs9l","62e19208352cd518d7b2f085","freq_resp","img/orange_2bandit_a.png","70","70","test","","","","5","",""
"null","724711","pSARL_v2","pSARL_v2021vgs9l","62e19208352cd518d7b2f085","fixation","img/fixation.png","null","","test","","","","","",""
"473.10000014305115","725191","pSARL_v2","pSARL_v2021vgs9l","62e19208352cd518d7b2f085","reward","img/slot.png","74","","test","","","","","",""
"null","725946","pSARL_v2","pSARL_v2021vgs9l","62e19208352cd518d7b2f085","points","<div class=""veryhighPoints""> +1 </div>","null","na","test","","","","5","1","4"
"397.2000000476837","726347","pSARL_v2","pSARL_v2021vgs9l","62e19208352cd518d7b2f085","freq","img/orange_2bandit_a2.png","70","70","test","1","108","108","6","",""
"null","726753","pSARL_v2","pSARL_v2021vgs9l","62e19208352cd518d7b2f085","freq_resp","img/orange_2bandit_a.png","70","70","test","","","","6","",""
"null","726914","pSARL_v2","pSARL_v2021vgs9l","62e19208352cd518d7b2f085","fixation","img/fixation.png","null","","test","","","","","",""
"325.7000000476837","727243","pSARL_v2","pSARL_v2021vgs9l","62e19208352cd518d7b2f085","infreq","img/green_2bandit_a2.png","70","68","test","0","109","109","6","",""
"null","727722","pSARL_v2","pSARL_v2021vgs9l","62e19208352cd518d7b2f085","infreq_resp","img/green_2bandit_a.png","70","68","test","","","","6","",""
"null","727885","pSARL_v2","pSARL_v2021vgs9l","62e19208352cd518d7b2f085","fixation","img/fixation.png","null","","test","","","","","",""
"386.2999999523163","728277","pSARL_v2","pSARL_v2021vgs9l","62e19208352cd518d7b2f085","freq","img/orange_2bandit_a2.png","70","70","test","1","110","110","6","",""
"null","728699","pSARL_v2","pSARL_v2021vgs9l","62e19208352cd518d7b2f085","freq_resp","img/orange_2bandit_a.png","70","70","test","","","","6","",""
"null","728859","pSARL_v2","pSARL_v2021vgs9l","62e19208352cd518d7b2f085","fixation","img/fixation.png","null","","test","","","","","",""
"300.2000000476837","729163","pSARL_v2","pSARL_v2021vgs9l","62e19208352cd518d7b2f085","freq","img/orange_2bandit_a2.png","70","70","test","1","111","111","6","",""
"null","729666","pSARL_v2","pSARL_v2021vgs9l","62e19208352cd518d7b2f085","freq_resp","img/orange_2bandit_a.png","70","70","test","","","","6","",""
"null","729826","pSARL_v2","pSARL_v2021vgs9l","62e19208352cd518d7b2f085","fixation","img/fixation.png","null","","test","","","","","",""
"301.7999999523163","730131","pSARL_v2","pSARL_v2021vgs9l","62e19208352cd518d7b2f085","freq","img/orange_2bandit_a2.png","70","70","test","1","112","112","6","",""
"null","730634","pSARL_v2","pSARL_v2021vgs9l","62e19208352cd518d7b2f085","freq_resp","img/orange_2bandit_a.png","70","70","test","","","","6","",""
"null","730795","pSARL_v2","pSARL_v2021vgs9l","62e19208352cd518d7b2f085","fixation","img/fixation.png","null","","test","","","","","",""
"292.5","731092","pSARL_v2","pSARL_v2021vgs9l","62e19208352cd518d7b2f085","freq","img/orange_2bandit_a2.png","70","70","test","1","113","113","6","",""
"null","731611","pSARL_v2","pSARL_v2021vgs9l","62e19208352cd518d7b2f085","freq_resp","img/orange_2bandit_a.png","70","70","test","","","","6","",""
"null","731770","pSARL_v2","pSARL_v2021vgs9l","62e19208352cd518d7b2f085","fixation","img/fixation.png","null","","test","","","","","",""
"309.60000014305115","732083","pSARL_v2","pSARL_v2021vgs9l","62e19208352cd518d7b2f085","freq","img/orange_2bandit_a2.png","70","70","test","1","114","114","6","",""
"null","732579","pSARL_v2","pSARL_v2021vgs9l","62e19208352cd518d7b2f085","freq_resp","img/orange_2bandit_a.png","70","70","test","","","","6","",""
"null","732738","pSARL_v2","pSARL_v2021vgs9l","62e19208352cd518d7b2f085","fixation","img/fixation.png","null","","test","","","","","",""
"301.09999990463257","733043","pSARL_v2","pSARL_v2021vgs9l","62e19208352cd518d7b2f085","freq","img/orange_2bandit_a2.png","70","70","test","1","115","115","6","",""
"null","733546","pSARL_v2","pSARL_v2021vgs9l","62e19208352cd518d7b2f085","freq_resp","img/orange_2bandit_a.png","70","70","test","","","","6","",""
"null","733707","pSARL_v2","pSARL_v2021vgs9l","62e19208352cd518d7b2f085","fixation","img/fixation.png","null","","test","","","","","",""
"308.2999999523163","734020","pSARL_v2","pSARL_v2021vgs9l","62e19208352cd518d7b2f085","freq","img/orange_2bandit_a2.png","70","70","test","1","116","116","6","",""
"null","734522","pSARL_v2","pSARL_v2021vgs9l","62e19208352cd518d7b2f085","freq_resp","img/orange_2bandit_a.png","70","70","test","","","","6","",""
"null","734682","pSARL_v2","pSARL_v2021vgs9l","62e19208352cd518d7b2f085","fixation","img/fixation.png","null","","test","","","","","",""
"301.69999980926514","734987","pSARL_v2","pSARL_v2021vgs9l","62e19208352cd518d7b2f085","freq","img/orange_2bandit_a2.png","70","70","test","1","117","117","6","",""
"null","735490","pSARL_v2","pSARL_v2021vgs9l","62e19208352cd518d7b2f085","freq_resp","img/orange_2bandit_a.png","70","70","test","","","","6","",""
"null","735650","pSARL_v2","pSARL_v2021vgs9l","62e19208352cd518d7b2f085","fixation","img/fixation.png","null","","test","","","","","",""
"317.2999999523163","735971","pSARL_v2","pSARL_v2021vgs9l","62e19208352cd518d7b2f085","freq","img/orange_2bandit_a2.png","70","70","test","1","118","118","6","",""
"null","736459","pSARL_v2","pSARL_v2021vgs9l","62e19208352cd518d7b2f085","freq_resp","img/orange_2bandit_a.png","70","70","test","","","","6","",""
"null","736619","pSARL_v2","pSARL_v2021vgs9l","62e19208352cd518d7b2f085","fixation","img/fixation.png","null","","test","","","","","",""
"309","736932","pSARL_v2","pSARL_v2021vgs9l","62e19208352cd518d7b2f085","freq","img/orange_2bandit_a2.png","70","70","test","1","119","119","6","",""
"null","737435","pSARL_v2","pSARL_v2021vgs9l","62e19208352cd518d7b2f085","freq_resp","img/orange_2bandit_a.png","70","70","test","","","","6","",""
"null","737596","pSARL_v2","pSARL_v2021vgs9l","62e19208352cd518d7b2f085","fixation","img/fixation.png","null","","test","","","","","",""
"299.7999999523163","737900","pSARL_v2","pSARL_v2021vgs9l","62e19208352cd518d7b2f085","freq","img/orange_2bandit_a2.png","70","70","test","1","120","120","6","",""
"null","738411","pSARL_v2","pSARL_v2021vgs9l","62e19208352cd518d7b2f085","freq_resp","img/orange_2bandit_a.png","70","70","test","","","","6","",""
"null","738573","pSARL_v2","pSARL_v2021vgs9l","62e19208352cd518d7b2f085","fixation","img/fixation.png","null","","test","","","","","",""
"466.80000019073486","739043","pSARL_v2","pSARL_v2021vgs9l","62e19208352cd518d7b2f085","infreq","img/green_2bandit_a2.png","68","68","test","1","121","121","6","",""
"null","739387","pSARL_v2","pSARL_v2021vgs9l","62e19208352cd518d7b2f085","infreq_resp","img/green_2bandit_a.png","68","68","test","","","","6","",""
"null","739547","pSARL_v2","pSARL_v2021vgs9l","62e19208352cd518d7b2f085","fixation","img/fixation.png","null","","test","","","","","",""
"325","739877","pSARL_v2","pSARL_v2021vgs9l","62e19208352cd518d7b2f085","infreq","img/green_2bandit_a2.png","68","68","test","1","122","122","6","",""
"null","740365","pSARL_v2","pSARL_v2021vgs9l","62e19208352cd518d7b2f085","infreq_resp","img/green_2bandit_a.png","68","68","test","","","","6","",""
"null","740523","pSARL_v2","pSARL_v2021vgs9l","62e19208352cd518d7b2f085","fixation","img/fixation.png","null","","test","","","","","",""
"373.2999999523163","740900","pSARL_v2","pSARL_v2021vgs9l","62e19208352cd518d7b2f085","freq","img/orange_2bandit_a2.png","70","70","test","1","123","123","6","",""
"null","741332","pSARL_v2","pSARL_v2021vgs9l","62e19208352cd518d7b2f085","freq_resp","img/orange_2bandit_a.png","70","70","test","","","","6","",""
"null","741492","pSARL_v2","pSARL_v2021vgs9l","62e19208352cd518d7b2f085","fixation","img/fixation.png","null","","test","","","","","",""
"268.2000000476837","741765","pSARL_v2","pSARL_v2021vgs9l","62e19208352cd518d7b2f085","freq","img/orange_2bandit_a2.png","70","70","test","1","124","124","6","",""
"null","742308","pSARL_v2","pSARL_v2021vgs9l","62e19208352cd518d7b2f085","freq_resp","img/orange_2bandit_a.png","70","70","test","","","","6","",""
"null","742467","pSARL_v2","pSARL_v2021vgs9l","62e19208352cd518d7b2f085","fixation","img/fixation.png","null","","test","","","","","",""
"293","742763","pSARL_v2","pSARL_v2021vgs9l","62e19208352cd518d7b2f085","freq","img/orange_2bandit_a2.png","70","70","test","1","125","125","6","",""
"null","743276","pSARL_v2","pSARL_v2021vgs9l","62e19208352cd518d7b2f085","freq_resp","img/orange_2bandit_a.png","70","70","test","","","","6","",""
"null","743436","pSARL_v2","pSARL_v2021vgs9l","62e19208352cd518d7b2f085","fixation","img/fixation.png","null","","test","","","","","",""
"307.2999999523163","743749","pSARL_v2","pSARL_v2021vgs9l","62e19208352cd518d7b2f085","freq","img/orange_2bandit_a2.png","70","70","test","1","126","126","6","",""
"null","744252","pSARL_v2","pSARL_v2021vgs9l","62e19208352cd518d7b2f085","freq_resp","img/orange_2bandit_a.png","70","70","test","","","","6","",""
"null","744411","pSARL_v2","pSARL_v2021vgs9l","62e19208352cd518d7b2f085","fixation","img/fixation.png","null","","test","","","","","",""
"269.09999990463257","744685","pSARL_v2","pSARL_v2021vgs9l","62e19208352cd518d7b2f085","freq","img/orange_2bandit_a2.png","70","70","test","1","127","127","6","",""
"null","745220","pSARL_v2","pSARL_v2021vgs9l","62e19208352cd518d7b2f085","freq_resp","img/orange_2bandit_a.png","70","70","test","","","","6","",""
"null","745380","pSARL_v2","pSARL_v2021vgs9l","62e19208352cd518d7b2f085","fixation","img/fixation.png","null","","test","","","","","",""
"691.0999999046326","746075","pSARL_v2","pSARL_v2021vgs9l","62e19208352cd518d7b2f085","reward","img/slot.png","74","","test","","","","","",""
"null","746835","pSARL_v2","pSARL_v2021vgs9l","62e19208352cd518d7b2f085","points","<div class=""verylowPoints""> -7 </div>","null","na","test","","","","6","-7","5"
"436.39999985694885","747276","pSARL_v2","pSARL_v2021vgs9l","62e19208352cd518d7b2f085","freq","img/orange_2bandit_a2.png","70","70","test","1","128","128","7","",""
"null","747645","pSARL_v2","pSARL_v2021vgs9l","62e19208352cd518d7b2f085","freq_resp","img/orange_2bandit_a.png","70","70","test","","","","7","",""
"null","747803","pSARL_v2","pSARL_v2021vgs9l","62e19208352cd518d7b2f085","fixation","img/fixation.png","null","","test","","","","","",""
"324.7000000476837","748131","pSARL_v2","pSARL_v2021vgs9l","62e19208352cd518d7b2f085","freq","img/orange_2bandit_a2.png","70","70","test","1","129","129","7","",""
"null","748612","pSARL_v2","pSARL_v2021vgs9l","62e19208352cd518d7b2f085","freq_resp","img/orange_2bandit_a.png","70","70","test","","","","7","",""
"null","748771","pSARL_v2","pSARL_v2021vgs9l","62e19208352cd518d7b2f085","fixation","img/fixation.png","null","","test","","","","","",""
"204.40000009536743","748980","pSARL_v2","pSARL_v2021vgs9l","62e19208352cd518d7b2f085","freq","img/orange_2bandit_a2.png","70","70","test","1","130","130","7","",""
"null","749579","pSARL_v2","pSARL_v2021vgs9l","62e19208352cd518d7b2f085","freq_resp","img/orange_2bandit_a.png","70","70","test","","","","7","",""
"null","749742","pSARL_v2","pSARL_v2021vgs9l","62e19208352cd518d7b2f085","fixation","img/fixation.png","null","","test","","","","","",""
"297.2000000476837","750045","pSARL_v2","pSARL_v2021vgs9l","62e19208352cd518d7b2f085","freq","img/orange_2bandit_a2.png","70","70","test","1","131","131","7","",""
"null","750555","pSARL_v2","pSARL_v2021vgs9l","62e19208352cd518d7b2f085","freq_resp","img/orange_2bandit_a.png","70","70","test","","","","7","",""
"null","750715","pSARL_v2","pSARL_v2021vgs9l","62e19208352cd518d7b2f085","fixation","img/fixation.png","null","","test","","","","","",""
"260.10000014305115","750982","pSARL_v2","pSARL_v2021vgs9l","62e19208352cd518d7b2f085","infreq","img/green_2bandit_a2.png","70","68","test","0","132","132","7","",""
"null","751533","pSARL_v2","pSARL_v2021vgs9l","62e19208352cd518d7b2f085","infreq_resp","img/green_2bandit_a.png","70","68","test","","","","7","",""
"null","751692","pSARL_v2","pSARL_v2021vgs9l","62e19208352cd518d7b2f085","fixation","img/fixation.png","null","","test","","","","","",""
"291.89999985694885","751989","pSARL_v2","pSARL_v2021vgs9l","62e19208352cd518d7b2f085","freq","img/orange_2bandit_a2.png","70","70","test","1","133","133","7","",""
"null","752506","pSARL_v2","pSARL_v2021vgs9l","62e19208352cd518d7b2f085","freq_resp","img/orange_2bandit_a.png","70","70","test","","","","7","",""
"null","752666","pSARL_v2","pSARL_v2021vgs9l","62e19208352cd518d7b2f085","fixation","img/fixation.png","null","","test","","","","","",""
"301.7000000476837","752972","pSARL_v2","pSARL_v2021vgs9l","62e19208352cd518d7b2f085","freq","img/orange_2bandit_a2.png","70","70","test","1","134","134","7","",""
"null","753475","pSARL_v2","pSARL_v2021vgs9l","62e19208352cd518d7b2f085","freq_resp","img/orange_2bandit_a.png","70","70","test","","","","7","",""
"null","753636","pSARL_v2","pSARL_v2021vgs9l","62e19208352cd518d7b2f085","fixation","img/fixation.png","null","","test","","","","","",""
"307.7000000476837","753949","pSARL_v2","pSARL_v2021vgs9l","62e19208352cd518d7b2f085","freq","img/orange_2bandit_a2.png","70","70","test","1","135","135","7","",""
"null","754453","pSARL_v2","pSARL_v2021vgs9l","62e19208352cd518d7b2f085","freq_resp","img/orange_2bandit_a.png","70","70","test","","","","7","",""
"null","754611","pSARL_v2","pSARL_v2021vgs9l","62e19208352cd518d7b2f085","fixation","img/fixation.png","null","","test","","","","","",""
"477.10000014305115","755093","pSARL_v2","pSARL_v2021vgs9l","62e19208352cd518d7b2f085","infreq","img/green_2bandit_a2.png","68","68","test","1","136","136","7","",""
"null","755427","pSARL_v2","pSARL_v2021vgs9l","62e19208352cd518d7b2f085","infreq_resp","img/green_2bandit_a.png","68","68","test","","","","7","",""
"null","755587","pSARL_v2","pSARL_v2021vgs9l","62e19208352cd518d7b2f085","fixation","img/fixation.png","null","","test","","","","","",""
"548.4000000953674","756139","pSARL_v2","pSARL_v2021vgs9l","62e19208352cd518d7b2f085","freq","img/orange_2bandit_a2.png","70","70","test","1","137","137","7","",""
"null","756395","pSARL_v2","pSARL_v2021vgs9l","62e19208352cd518d7b2f085","freq_resp","img/orange_2bandit_a.png","70","70","test","","","","7","",""
"null","756556","pSARL_v2","pSARL_v2021vgs9l","62e19208352cd518d7b2f085","fixation","img/fixation.png","null","","test","","","","","",""
"307.40000009536743","756868","pSARL_v2","pSARL_v2021vgs9l","62e19208352cd518d7b2f085","freq","img/orange_2bandit_a2.png","70","70","test","1","138","138","7","",""
"null","757371","pSARL_v2","pSARL_v2021vgs9l","62e19208352cd518d7b2f085","freq_resp","img/orange_2bandit_a.png","70","70","test","","","","7","",""
"null","757531","pSARL_v2","pSARL_v2021vgs9l","62e19208352cd518d7b2f085","fixation","img/fixation.png","null","","test","","","","","",""
"300.7000000476837","757837","pSARL_v2","pSARL_v2021vgs9l","62e19208352cd518d7b2f085","freq","img/orange_2bandit_a2.png","70","70","test","1","139","139","7","",""
"null","758347","pSARL_v2","pSARL_v2021vgs9l","62e19208352cd518d7b2f085","freq_resp","img/orange_2bandit_a.png","70","70","test","","","","7","",""
"null","758507","pSARL_v2","pSARL_v2021vgs9l","62e19208352cd518d7b2f085","fixation","img/fixation.png","null","","test","","","","","",""
"300","758811","pSARL_v2","pSARL_v2021vgs9l","62e19208352cd518d7b2f085","freq","img/orange_2bandit_a2.png","70","70","test","1","140","140","7","",""
"null","759323","pSARL_v2","pSARL_v2021vgs9l","62e19208352cd518d7b2f085","freq_resp","img/orange_2bandit_a.png","70","70","test","","","","7","",""
"null","759483","pSARL_v2","pSARL_v2021vgs9l","62e19208352cd518d7b2f085","fixation","img/fixation.png","null","","test","","","","","",""
"300.7000000476837","759787","pSARL_v2","pSARL_v2021vgs9l","62e19208352cd518d7b2f085","freq","img/orange_2bandit_a2.png","70","70","test","1","141","141","7","",""
"null","760291","pSARL_v2","pSARL_v2021vgs9l","62e19208352cd518d7b2f085","freq_resp","img/orange_2bandit_a.png","70","70","test","","","","7","",""
"null","760451","pSARL_v2","pSARL_v2021vgs9l","62e19208352cd518d7b2f085","fixation","img/fixation.png","null","","test","","","","","",""
"276.5","760732","pSARL_v2","pSARL_v2021vgs9l","62e19208352cd518d7b2f085","freq","img/orange_2bandit_a2.png","70","70","test","1","142","142","7","",""
"null","761259","pSARL_v2","pSARL_v2021vgs9l","62e19208352cd518d7b2f085","freq_resp","img/orange_2bandit_a.png","70","70","test","","","","7","",""
"null","761419","pSARL_v2","pSARL_v2021vgs9l","62e19208352cd518d7b2f085","fixation","img/fixation.png","null","","test","","","","","",""
"188.69999980926514","761612","pSARL_v2","pSARL_v2021vgs9l","62e19208352cd518d7b2f085","freq","img/orange_2bandit_a2.png","70","70","test","1","143","143","7","",""
"null","762227","pSARL_v2","pSARL_v2021vgs9l","62e19208352cd518d7b2f085","freq_resp","img/orange_2bandit_a.png","70","70","test","","","","7","",""
"null","762388","pSARL_v2","pSARL_v2021vgs9l","62e19208352cd518d7b2f085","fixation","img/fixation.png","null","","test","","","","","",""
"299.7000000476837","762692","pSARL_v2","pSARL_v2021vgs9l","62e19208352cd518d7b2f085","freq","img/orange_2bandit_a2.png","70","70","test","1","144","144","7","",""
"null","763203","pSARL_v2","pSARL_v2021vgs9l","62e19208352cd518d7b2f085","freq_resp","img/orange_2bandit_a.png","70","70","test","","","","7","",""
"null","763364","pSARL_v2","pSARL_v2021vgs9l","62e19208352cd518d7b2f085","fixation","img/fixation.png","null","","test","","","","","",""
"187.59999990463257","763556","pSARL_v2","pSARL_v2021vgs9l","62e19208352cd518d7b2f085","freq","img/orange_2bandit_a2.png","70","70","test","1","145","145","7","",""
"null","764180","pSARL_v2","pSARL_v2021vgs9l","62e19208352cd518d7b2f085","freq_resp","img/orange_2bandit_a.png","70","70","test","","","","7","",""
"null","764339","pSARL_v2","pSARL_v2021vgs9l","62e19208352cd518d7b2f085","fixation","img/fixation.png","null","","test","","","","","",""
"116.79999995231628","764461","pSARL_v2","pSARL_v2021vgs9l","62e19208352cd518d7b2f085","freq","img/orange_2bandit_a2.png","70","70","test","1","146","146","7","",""
"null","765155","pSARL_v2","pSARL_v2021vgs9l","62e19208352cd518d7b2f085","freq_resp","img/orange_2bandit_a.png","70","70","test","","","","7","",""
"null","765315","pSARL_v2","pSARL_v2021vgs9l","62e19208352cd518d7b2f085","fixation","img/fixation.png","null","","test","","","","","",""
"292.2000000476837","765612","pSARL_v2","pSARL_v2021vgs9l","62e19208352cd518d7b2f085","freq","img/orange_2bandit_a2.png","70","70","test","1","147","147","7","",""
"null","766123","pSARL_v2","pSARL_v2021vgs9l","62e19208352cd518d7b2f085","freq_resp","img/orange_2bandit_a.png","70","70","test","","","","7","",""
"null","766285","pSARL_v2","pSARL_v2021vgs9l","62e19208352cd518d7b2f085","fixation","img/fixation.png","null","","test","","","","","",""
"306.5","766596","pSARL_v2","pSARL_v2021vgs9l","62e19208352cd518d7b2f085","freq","img/orange_2bandit_a2.png","70","70","test","1","148","148","7","",""
"null","767100","pSARL_v2","pSARL_v2021vgs9l","62e19208352cd518d7b2f085","freq_resp","img/orange_2bandit_a.png","70","70","test","","","","7","",""
"null","767259","pSARL_v2","pSARL_v2021vgs9l","62e19208352cd518d7b2f085","fixation","img/fixation.png","null","","test","","","","","",""
"508.30000019073486","767772","pSARL_v2","pSARL_v2021vgs9l","62e19208352cd518d7b2f085","reward","img/slot.png","74","","test","","","","","",""
"null","768532","pSARL_v2","pSARL_v2021vgs9l","62e19208352cd518d7b2f085","points","<div class=""verylowPoints""> -6 </div>","null","na","test","","","","7","-6","6"
"306.5","768844","pSARL_v2","pSARL_v2021vgs9l","62e19208352cd518d7b2f085","freq","img/orange_2bandit_a2.png","70","70","test","1","149","149","8","",""
"null","769347","pSARL_v2","pSARL_v2021vgs9l","62e19208352cd518d7b2f085","freq_resp","img/orange_2bandit_a.png","70","70","test","","","","8","",""
"null","769508","pSARL_v2","pSARL_v2021vgs9l","62e19208352cd518d7b2f085","fixation","img/fixation.png","null","","test","","","","","",""
"299.39999985694885","769812","pSARL_v2","pSARL_v2021vgs9l","62e19208352cd518d7b2f085","freq","img/orange_2bandit_a2.png","70","70","test","1","150","150","8","",""
"null","770324","pSARL_v2","pSARL_v2021vgs9l","62e19208352cd518d7b2f085","freq_resp","img/orange_2bandit_a.png","70","70","test","","","","8","",""
"null","770484","pSARL_v2","pSARL_v2021vgs9l","62e19208352cd518d7b2f085","fixation","img/fixation.png","null","","test","","","","","",""
"307.39999985694885","770795","pSARL_v2","pSARL_v2021vgs9l","62e19208352cd518d7b2f085","freq","img/orange_2bandit_a2.png","70","70","test","1","151","151","8","",""
"null","771291","pSARL_v2","pSARL_v2021vgs9l","62e19208352cd518d7b2f085","freq_resp","img/orange_2bandit_a.png","70","70","test","","","","8","",""
"null","771451","pSARL_v2","pSARL_v2021vgs9l","62e19208352cd518d7b2f085","fixation","img/fixation.png","null","","test","","","","","",""
"308.09999990463257","771763","pSARL_v2","pSARL_v2021vgs9l","62e19208352cd518d7b2f085","freq","img/orange_2bandit_a2.png","70","70","test","1","152","152","8","",""
"null","772259","pSARL_v2","pSARL_v2021vgs9l","62e19208352cd518d7b2f085","freq_resp","img/orange_2bandit_a.png","70","70","test","","","","8","",""
"null","772420","pSARL_v2","pSARL_v2021vgs9l","62e19208352cd518d7b2f085","fixation","img/fixation.png","null","","test","","","","","",""
"315.2999999523163","772740","pSARL_v2","pSARL_v2021vgs9l","62e19208352cd518d7b2f085","freq","img/orange_2bandit_a2.png","70","70","test","1","153","153","8","",""
"null","773238","pSARL_v2","pSARL_v2021vgs9l","62e19208352cd518d7b2f085","freq_resp","img/orange_2bandit_a.png","70","70","test","","","","8","",""
"null","773395","pSARL_v2","pSARL_v2021vgs9l","62e19208352cd518d7b2f085","fixation","img/fixation.png","null","","test","","","","","",""
"307.7999999523163","773708","pSARL_v2","pSARL_v2021vgs9l","62e19208352cd518d7b2f085","freq","img/orange_2bandit_a2.png","70","70","test","1","154","154","8","",""
"null","774212","pSARL_v2","pSARL_v2021vgs9l","62e19208352cd518d7b2f085","freq_resp","img/orange_2bandit_a.png","70","70","test","","","","8","",""
"null","774371","pSARL_v2","pSARL_v2021vgs9l","62e19208352cd518d7b2f085","fixation","img/fixation.png","null","","test","","","","","",""
"300.5","774676","pSARL_v2","pSARL_v2021vgs9l","62e19208352cd518d7b2f085","freq","img/orange_2bandit_a2.png","70","70","test","1","155","155","8","",""
"null","775188","pSARL_v2","pSARL_v2021vgs9l","62e19208352cd518d7b2f085","freq_resp","img/orange_2bandit_a.png","70","70","test","","","","8","",""
"null","775347","pSARL_v2","pSARL_v2021vgs9l","62e19208352cd518d7b2f085","fixation","img/fixation.png","null","","test","","","","","",""
"276.2999999523163","775628","pSARL_v2","pSARL_v2021vgs9l","62e19208352cd518d7b2f085","freq","img/orange_2bandit_a2.png","70","70","test","1","156","156","8","",""
"null","776164","pSARL_v2","pSARL_v2021vgs9l","62e19208352cd518d7b2f085","freq_resp","img/orange_2bandit_a.png","70","70","test","","","","8","",""
"null","776323","pSARL_v2","pSARL_v2021vgs9l","62e19208352cd518d7b2f085","fixation","img/fixation.png","null","","test","","","","","",""
"307.7000000476837","776635","pSARL_v2","pSARL_v2021vgs9l","62e19208352cd518d7b2f085","freq","img/orange_2bandit_a2.png","70","70","test","1","157","157","8","",""
"null","777140","pSARL_v2","pSARL_v2021vgs9l","62e19208352cd518d7b2f085","freq_resp","img/orange_2bandit_a.png","70","70","test","","","","8","",""
"null","777299","pSARL_v2","pSARL_v2021vgs9l","62e19208352cd518d7b2f085","fixation","img/fixation.png","null","","test","","","","","",""
"476.7000000476837","777779","pSARL_v2","pSARL_v2021vgs9l","62e19208352cd518d7b2f085","infreq","img/green_2bandit_a2.png","68","68","test","1","158","158","8","",""
"null","778106","pSARL_v2","pSARL_v2021vgs9l","62e19208352cd518d7b2f085","infreq_resp","img/green_2bandit_a.png","68","68","test","","","","8","",""
"null","778266","pSARL_v2","pSARL_v2021vgs9l","62e19208352cd518d7b2f085","fixation","img/fixation.png","null","","test","","","","","",""
"532.6999998092651","778803","pSARL_v2","pSARL_v2021vgs9l","62e19208352cd518d7b2f085","freq","img/orange_2bandit_a2.png","70","70","test","1","159","159","8","",""
"null","779075","pSARL_v2","pSARL_v2021vgs9l","62e19208352cd518d7b2f085","freq_resp","img/orange_2bandit_a.png","70","70","test","","","","8","",""
"null","779235","pSARL_v2","pSARL_v2021vgs9l","62e19208352cd518d7b2f085","fixation","img/fixation.png","null","","test","","","","","",""
"331.5","779571","pSARL_v2","pSARL_v2021vgs9l","62e19208352cd518d7b2f085","freq","img/orange_2bandit_a2.png","70","70","test","1","160","160","8","",""
"null","780051","pSARL_v2","pSARL_v2021vgs9l","62e19208352cd518d7b2f085","freq_resp","img/orange_2bandit_a.png","70","70","test","","","","8","",""
"null","780211","pSARL_v2","pSARL_v2021vgs9l","62e19208352cd518d7b2f085","fixation","img/fixation.png","null","","test","","","","","",""
"300.2999999523163","780516","pSARL_v2","pSARL_v2021vgs9l","62e19208352cd518d7b2f085","freq","img/orange_2bandit_a2.png","70","70","test","1","161","161","8","",""
"null","781027","pSARL_v2","pSARL_v2021vgs9l","62e19208352cd518d7b2f085","freq_resp","img/orange_2bandit_a.png","70","70","test","","","","8","",""
"null","781187","pSARL_v2","pSARL_v2021vgs9l","62e19208352cd518d7b2f085","fixation","img/fixation.png","null","","test","","","","","",""
"308.5","781500","pSARL_v2","pSARL_v2021vgs9l","62e19208352cd518d7b2f085","freq","img/orange_2bandit_a2.png","70","70","test","1","162","162","8","",""
"null","782003","pSARL_v2","pSARL_v2021vgs9l","62e19208352cd518d7b2f085","freq_resp","img/orange_2bandit_a.png","70","70","test","","","","8","",""
"null","782164","pSARL_v2","pSARL_v2021vgs9l","62e19208352cd518d7b2f085","fixation","img/fixation.png","null","","test","","","","","",""
"186.29999995231628","782355","pSARL_v2","pSARL_v2021vgs9l","62e19208352cd518d7b2f085","freq","img/orange_2bandit_a2.png","70","70","test","1","163","163","8","",""
"null","782980","pSARL_v2","pSARL_v2021vgs9l","62e19208352cd518d7b2f085","freq_resp","img/orange_2bandit_a.png","70","70","test","","","","8","",""
"null","783138","pSARL_v2","pSARL_v2021vgs9l","62e19208352cd518d7b2f085","fixation","img/fixation.png","null","","test","","","","","",""
"156.60000014305115","783299","pSARL_v2","pSARL_v2021vgs9l","62e19208352cd518d7b2f085","freq","img/orange_2bandit_a2.png","70","70","test","1","164","164","8","",""
"null","783946","pSARL_v2","pSARL_v2021vgs9l","62e19208352cd518d7b2f085","freq_resp","img/orange_2bandit_a.png","70","70","test","","","","8","",""
"null","784107","pSARL_v2","pSARL_v2021vgs9l","62e19208352cd518d7b2f085","fixation","img/fixation.png","null","","test","","","","","",""
"308.5","784420","pSARL_v2","pSARL_v2021vgs9l","62e19208352cd518d7b2f085","freq","img/orange_2bandit_a2.png","70","70","test","1","165","165","8","",""
"null","784915","pSARL_v2","pSARL_v2021vgs9l","62e19208352cd518d7b2f085","freq_resp","img/orange_2bandit_a.png","70","70","test","","","","8","",""
"null","785076","pSARL_v2","pSARL_v2021vgs9l","62e19208352cd518d7b2f085","fixation","img/fixation.png","null","","test","","","","","",""
"298.09999990463257","785379","pSARL_v2","pSARL_v2021vgs9l","62e19208352cd518d7b2f085","freq","img/orange_2bandit_a2.png","70","70","test","1","166","166","8","",""
"null","785893","pSARL_v2","pSARL_v2021vgs9l","62e19208352cd518d7b2f085","freq_resp","img/orange_2bandit_a.png","70","70","test","","","","8","",""
"null","786051","pSARL_v2","pSARL_v2021vgs9l","62e19208352cd518d7b2f085","fixation","img/fixation.png","null","","test","","","","","",""
"308","786362","pSARL_v2","pSARL_v2021vgs9l","62e19208352cd518d7b2f085","freq","img/orange_2bandit_a2.png","70","70","test","1","167","167","8","",""
"null","786859","pSARL_v2","pSARL_v2021vgs9l","62e19208352cd518d7b2f085","freq_resp","img/orange_2bandit_a.png","70","70","test","","","","8","",""
"null","787019","pSARL_v2","pSARL_v2021vgs9l","62e19208352cd518d7b2f085","fixation","img/fixation.png","null","","test","","","","","",""
"315.7999999523163","787341","pSARL_v2","pSARL_v2021vgs9l","62e19208352cd518d7b2f085","freq","img/orange_2bandit_a2.png","70","70","test","1","168","168","8","",""
"null","787835","pSARL_v2","pSARL_v2021vgs9l","62e19208352cd518d7b2f085","freq_resp","img/orange_2bandit_a.png","70","70","test","","","","8","",""
"null","787996","pSARL_v2","pSARL_v2021vgs9l","62e19208352cd518d7b2f085","fixation","img/fixation.png","null","","test","","","","","",""
"181.5","788182","pSARL_v2","pSARL_v2021vgs9l","62e19208352cd518d7b2f085","freq","img/orange_2bandit_a2.png","70","70","test","1","169","169","8","",""
"null","788812","pSARL_v2","pSARL_v2021vgs9l","62e19208352cd518d7b2f085","freq_resp","img/orange_2bandit_a.png","70","70","test","","","","8","",""
"null","788971","pSARL_v2","pSARL_v2021vgs9l","62e19208352cd518d7b2f085","fixation","img/fixation.png","null","","test","","","","","",""
"491.7000000476837","789469","pSARL_v2","pSARL_v2021vgs9l","62e19208352cd518d7b2f085","infreq","img/green_2bandit_a2.png","68","68","test","1","170","170","8","",""
"null","789787","pSARL_v2","pSARL_v2021vgs9l","62e19208352cd518d7b2f085","infreq_resp","img/green_2bandit_a.png","68","68","test","","","","8","",""
"null","789947","pSARL_v2","pSARL_v2021vgs9l","62e19208352cd518d7b2f085","fixation","img/fixation.png","null","","test","","","","","",""
"485.7000000476837","790437","pSARL_v2","pSARL_v2021vgs9l","62e19208352cd518d7b2f085","freq","img/orange_2bandit_a2.png","70","70","test","1","171","171","8","",""
"null","790763","pSARL_v2","pSARL_v2021vgs9l","62e19208352cd518d7b2f085","freq_resp","img/orange_2bandit_a.png","70","70","test","","","","8","",""
"null","790926","pSARL_v2","pSARL_v2021vgs9l","62e19208352cd518d7b2f085","fixation","img/fixation.png","null","","test","","","","","",""
"296","791228","pSARL_v2","pSARL_v2021vgs9l","62e19208352cd518d7b2f085","freq","img/orange_2bandit_a2.png","70","70","test","1","172","172","8","",""
"null","791740","pSARL_v2","pSARL_v2021vgs9l","62e19208352cd518d7b2f085","freq_resp","img/orange_2bandit_a.png","70","70","test","","","","8","",""
"null","791899","pSARL_v2","pSARL_v2021vgs9l","62e19208352cd518d7b2f085","fixation","img/fixation.png","null","","test","","","","","",""
"323.2999999523163","792227","pSARL_v2","pSARL_v2021vgs9l","62e19208352cd518d7b2f085","freq","img/orange_2bandit_a2.png","70","70","test","1","173","173","8","",""
"null","792710","pSARL_v2","pSARL_v2021vgs9l","62e19208352cd518d7b2f085","freq_resp","img/orange_2bandit_a.png","70","70","test","","","","8","",""
"null","792868","pSARL_v2","pSARL_v2021vgs9l","62e19208352cd518d7b2f085","fixation","img/fixation.png","null","","test","","","","","",""
"515.3999998569489","793387","pSARL_v2","pSARL_v2021vgs9l","62e19208352cd518d7b2f085","reward","img/slot.png","74","","test","","","","","",""
"null","794165","pSARL_v2","pSARL_v2021vgs9l","62e19208352cd518d7b2f085","points","<div class=""verylowPoints""> -4 </div>","null","na","test","","","","8","-4","7"
"441.7000000476837","794612","pSARL_v2","pSARL_v2021vgs9l","62e19208352cd518d7b2f085","freq","img/orange_2bandit_a2.png","70","70","test","1","174","174","9","",""
"null","794979","pSARL_v2","pSARL_v2021vgs9l","62e19208352cd518d7b2f085","freq_resp","img/orange_2bandit_a.png","70","70","test","","","","9","",""
"null","795139","pSARL_v2","pSARL_v2021vgs9l","62e19208352cd518d7b2f085","fixation","img/fixation.png","null","","test","","","","","",""
"307.2000000476837","795450","pSARL_v2","pSARL_v2021vgs9l","62e19208352cd518d7b2f085","freq","img/orange_2bandit_a2.png","70","70","test","1","175","175","9","",""
"null","795948","pSARL_v2","pSARL_v2021vgs9l","62e19208352cd518d7b2f085","freq_resp","img/orange_2bandit_a.png","70","70","test","","","","9","",""
"null","796108","pSARL_v2","pSARL_v2021vgs9l","62e19208352cd518d7b2f085","fixation","img/fixation.png","null","","test","","","","","",""
"506.40000009536743","796619","pSARL_v2","pSARL_v2021vgs9l","62e19208352cd518d7b2f085","infreq","img/green_2bandit_a2.png","68","68","test","1","176","176","9","",""
"null","796917","pSARL_v2","pSARL_v2021vgs9l","62e19208352cd518d7b2f085","infreq_resp","img/green_2bandit_a.png","68","68","test","","","","9","",""
"null","797076","pSARL_v2","pSARL_v2021vgs9l","62e19208352cd518d7b2f085","fixation","img/fixation.png","null","","test","","","","","",""
"419.2999999523163","797501","pSARL_v2","pSARL_v2021vgs9l","62e19208352cd518d7b2f085","freq","img/orange_2bandit_a2.png","70","70","test","1","177","177","9","",""
"null","797893","pSARL_v2","pSARL_v2021vgs9l","62e19208352cd518d7b2f085","freq_resp","img/orange_2bandit_a.png","70","70","test","","","","9","",""
"null","798052","pSARL_v2","pSARL_v2021vgs9l","62e19208352cd518d7b2f085","fixation","img/fixation.png","null","","test","","","","","",""
"307.2999999523163","798364","pSARL_v2","pSARL_v2021vgs9l","62e19208352cd518d7b2f085","freq","img/orange_2bandit_a2.png","70","70","test","1","178","178","9","",""
"null","798868","pSARL_v2","pSARL_v2021vgs9l","62e19208352cd518d7b2f085","freq_resp","img/orange_2bandit_a.png","70","70","test","","","","9","",""
"null","799028","pSARL_v2","pSARL_v2021vgs9l","62e19208352cd518d7b2f085","fixation","img/fixation.png","null","","test","","","","","",""
"291.59999990463257","799325","pSARL_v2","pSARL_v2021vgs9l","62e19208352cd518d7b2f085","freq","img/orange_2bandit_a2.png","70","70","test","1","179","179","9","",""
"null","799845","pSARL_v2","pSARL_v2021vgs9l","62e19208352cd518d7b2f085","freq_resp","img/orange_2bandit_a.png","70","70","test","","","","9","",""
"null","800004","pSARL_v2","pSARL_v2021vgs9l","62e19208352cd518d7b2f085","fixation","img/fixation.png","null","","test","","","","","",""
"475.80000019073486","800486","pSARL_v2","pSARL_v2021vgs9l","62e19208352cd518d7b2f085","infreq","img/green_2bandit_a2.png","68","68","test","1","180","180","9","",""
"null","800820","pSARL_v2","pSARL_v2021vgs9l","62e19208352cd518d7b2f085","infreq_resp","img/green_2bandit_a.png","68","68","test","","","","9","",""
"null","800980","pSARL_v2","pSARL_v2021vgs9l","62e19208352cd518d7b2f085","fixation","img/fixation.png","null","","test","","","","","",""
"348.2000000476837","801332","pSARL_v2","pSARL_v2021vgs9l","62e19208352cd518d7b2f085","freq","img/orange_2bandit_a2.png","70","70","test","1","181","181","9","",""
"null","801787","pSARL_v2","pSARL_v2021vgs9l","62e19208352cd518d7b2f085","freq_resp","img/orange_2bandit_a.png","70","70","test","","","","9","",""
"null","801949","pSARL_v2","pSARL_v2021vgs9l","62e19208352cd518d7b2f085","fixation","img/fixation.png","null","","test","","","","","",""
"330.69999980926514","802283","pSARL_v2","pSARL_v2021vgs9l","62e19208352cd518d7b2f085","freq","img/orange_2bandit_a2.png","70","70","test","1","182","182","9","",""
"null","802765","pSARL_v2","pSARL_v2021vgs9l","62e19208352cd518d7b2f085","freq_resp","img/orange_2bandit_a.png","70","70","test","","","","9","",""
"null","802923","pSARL_v2","pSARL_v2021vgs9l","62e19208352cd518d7b2f085","fixation","img/fixation.png","null","","test","","","","","",""
"451.7999999523163","803380","pSARL_v2","pSARL_v2021vgs9l","62e19208352cd518d7b2f085","infreq","img/green_2bandit_a2.png","68","68","test","1","183","183","9","",""
"null","803740","pSARL_v2","pSARL_v2021vgs9l","62e19208352cd518d7b2f085","infreq_resp","img/green_2bandit_a.png","68","68","test","","","","9","",""
"null","803900","pSARL_v2","pSARL_v2021vgs9l","62e19208352cd518d7b2f085","fixation","img/fixation.png","null","","test","","","","","",""
"388.40000009536743","804293","pSARL_v2","pSARL_v2021vgs9l","62e19208352cd518d7b2f085","freq","img/orange_2bandit_a2.png","70","70","test","1","184","184","9","",""
"null","804715","pSARL_v2","pSARL_v2021vgs9l","62e19208352cd518d7b2f085","freq_resp","img/orange_2bandit_a.png","70","70","test","","","","9","",""
"null","804877","pSARL_v2","pSARL_v2021vgs9l","62e19208352cd518d7b2f085","fixation","img/fixation.png","null","","test","","","","","",""
"330","805212","pSARL_v2","pSARL_v2021vgs9l","62e19208352cd518d7b2f085","freq","img/orange_2bandit_a2.png","70","70","test","1","185","185","9","",""
"null","805693","pSARL_v2","pSARL_v2021vgs9l","62e19208352cd518d7b2f085","freq_resp","img/orange_2bandit_a.png","70","70","test","","","","9","",""
"null","805851","pSARL_v2","pSARL_v2021vgs9l","62e19208352cd518d7b2f085","fixation","img/fixation.png","null","","test","","","","","",""
"316.10000014305115","806171","pSARL_v2","pSARL_v2021vgs9l","62e19208352cd518d7b2f085","freq","img/orange_2bandit_a2.png","70","70","test","1","186","186","9","",""
"null","806660","pSARL_v2","pSARL_v2021vgs9l","62e19208352cd518d7b2f085","freq_resp","img/orange_2bandit_a.png","70","70","test","","","","9","",""
"null","806820","pSARL_v2","pSARL_v2021vgs9l","62e19208352cd518d7b2f085","fixation","img/fixation.png","null","","test","","","","","",""
"323.2999999523163","807149","pSARL_v2","pSARL_v2021vgs9l","62e19208352cd518d7b2f085","freq","img/orange_2bandit_a2.png","70","70","test","1","187","187","9","",""
"null","807636","pSARL_v2","pSARL_v2021vgs9l","62e19208352cd518d7b2f085","freq_resp","img/orange_2bandit_a.png","70","70","test","","","","9","",""
"null","807795","pSARL_v2","pSARL_v2021vgs9l","62e19208352cd518d7b2f085","fixation","img/fixation.png","null","","test","","","","","",""
"292.2999999523163","808093","pSARL_v2","pSARL_v2021vgs9l","62e19208352cd518d7b2f085","freq","img/orange_2bandit_a2.png","70","70","test","1","188","188","9","",""
"null","808605","pSARL_v2","pSARL_v2021vgs9l","62e19208352cd518d7b2f085","freq_resp","img/orange_2bandit_a.png","70","70","test","","","","9","",""
"null","808764","pSARL_v2","pSARL_v2021vgs9l","62e19208352cd518d7b2f085","fixation","img/fixation.png","null","","test","","","","","",""
"307.7000000476837","809075","pSARL_v2","pSARL_v2021vgs9l","62e19208352cd518d7b2f085","freq","img/orange_2bandit_a2.png","70","70","test","1","189","189","9","",""
"null","809572","pSARL_v2","pSARL_v2021vgs9l","62e19208352cd518d7b2f085","freq_resp","img/orange_2bandit_a.png","70","70","test","","","","9","",""
"null","809732","pSARL_v2","pSARL_v2021vgs9l","62e19208352cd518d7b2f085","fixation","img/fixation.png","null","","test","","","","","",""
"563.2000000476837","810299","pSARL_v2","pSARL_v2021vgs9l","62e19208352cd518d7b2f085","freq","img/orange_2bandit_a2.png","70","70","test","1","190","190","9","",""
"null","810541","pSARL_v2","pSARL_v2021vgs9l","62e19208352cd518d7b2f085","freq_resp","img/orange_2bandit_a.png","70","70","test","","","","9","",""
"null","810701","pSARL_v2","pSARL_v2021vgs9l","62e19208352cd518d7b2f085","fixation","img/fixation.png","null","","test","","","","","",""
"298.90000009536743","811003","pSARL_v2","pSARL_v2021vgs9l","62e19208352cd518d7b2f085","freq","img/orange_2bandit_a2.png","70","70","test","1","191","191","9","",""
"null","811508","pSARL_v2","pSARL_v2021vgs9l","62e19208352cd518d7b2f085","freq_resp","img/orange_2bandit_a.png","70","70","test","","","","9","",""
"null","811668","pSARL_v2","pSARL_v2021vgs9l","62e19208352cd518d7b2f085","fixation","img/fixation.png","null","","test","","","","","",""
"147.09999990463257","811820","pSARL_v2","pSARL_v2021vgs9l","62e19208352cd518d7b2f085","freq","img/orange_2bandit_a2.png","70","70","test","1","192","192","9","",""
"null","812477","pSARL_v2","pSARL_v2021vgs9l","62e19208352cd518d7b2f085","freq_resp","img/orange_2bandit_a.png","70","70","test","","","","9","",""
"null","812636","pSARL_v2","pSARL_v2021vgs9l","62e19208352cd518d7b2f085","fixation","img/fixation.png","null","","test","","","","","",""
"307.60000014305115","812948","pSARL_v2","pSARL_v2021vgs9l","62e19208352cd518d7b2f085","freq","img/orange_2bandit_a2.png","70","70","test","1","193","193","9","",""
"null","813445","pSARL_v2","pSARL_v2021vgs9l","62e19208352cd518d7b2f085","freq_resp","img/orange_2bandit_a.png","70","70","test","","","","9","",""
"null","813605","pSARL_v2","pSARL_v2021vgs9l","62e19208352cd518d7b2f085","fixation","img/fixation.png","null","","test","","","","","",""
"298.2999999523163","813907","pSARL_v2","pSARL_v2021vgs9l","62e19208352cd518d7b2f085","freq","img/orange_2bandit_a2.png","70","70","test","1","194","194","9","",""
"null","814422","pSARL_v2","pSARL_v2021vgs9l","62e19208352cd518d7b2f085","freq_resp","img/orange_2bandit_a.png","70","70","test","","","","9","",""
"null","814581","pSARL_v2","pSARL_v2021vgs9l","62e19208352cd518d7b2f085","fixation","img/fixation.png","null","","test","","","","","",""
"274.59999990463257","814860","pSARL_v2","pSARL_v2021vgs9l","62e19208352cd518d7b2f085","freq","img/orange_2bandit_a2.png","70","70","test","1","195","195","9","",""
"null","815397","pSARL_v2","pSARL_v2021vgs9l","62e19208352cd518d7b2f085","freq_resp","img/orange_2bandit_a.png","70","70","test","","","","9","",""
"null","815556","pSARL_v2","pSARL_v2021vgs9l","62e19208352cd518d7b2f085","fixation","img/fixation.png","null","","test","","","","","",""
"291.09999990463257","815852","pSARL_v2","pSARL_v2021vgs9l","62e19208352cd518d7b2f085","freq","img/orange_2bandit_a2.png","70","70","test","1","196","196","9","",""
"null","816364","pSARL_v2","pSARL_v2021vgs9l","62e19208352cd518d7b2f085","freq_resp","img/orange_2bandit_a.png","70","70","test","","","","9","",""
"null","816524","pSARL_v2","pSARL_v2021vgs9l","62e19208352cd518d7b2f085","fixation","img/fixation.png","null","","test","","","","","",""
"491.7999999523163","817021","pSARL_v2","pSARL_v2021vgs9l","62e19208352cd518d7b2f085","reward","img/slot.png","74","","test","","","","","",""
"null","817780","pSARL_v2","pSARL_v2021vgs9l","62e19208352cd518d7b2f085","points","<div class=""verylowPoints""> -3 </div>","null","na","test","","","","9","-3","8"
"387.59999990463257","818174","pSARL_v2","pSARL_v2021vgs9l","62e19208352cd518d7b2f085","freq","img/orange_2bandit_a2.png","70","70","test","1","197","197","10","",""
"null","818597","pSARL_v2","pSARL_v2021vgs9l","62e19208352cd518d7b2f085","freq_resp","img/orange_2bandit_a.png","70","70","test","","","","10","",""
"null","818756","pSARL_v2","pSARL_v2021vgs9l","62e19208352cd518d7b2f085","fixation","img/fixation.png","null","","test","","","","","",""
"346.69999980926514","819107","pSARL_v2","pSARL_v2021vgs9l","62e19208352cd518d7b2f085","freq","img/orange_2bandit_a2.png","70","70","test","1","198","198","10","",""
"null","819565","pSARL_v2","pSARL_v2021vgs9l","62e19208352cd518d7b2f085","freq_resp","img/orange_2bandit_a.png","70","70","test","","","","10","",""
"null","819724","pSARL_v2","pSARL_v2021vgs9l","62e19208352cd518d7b2f085","fixation","img/fixation.png","null","","test","","","","","",""
"314.7000000476837","820044","pSARL_v2","pSARL_v2021vgs9l","62e19208352cd518d7b2f085","freq","img/orange_2bandit_a2.png","70","70","test","1","199","199","10","",""
"null","820540","pSARL_v2","pSARL_v2021vgs9l","62e19208352cd518d7b2f085","freq_resp","img/orange_2bandit_a.png","70","70","test","","","","10","",""
"null","820700","pSARL_v2","pSARL_v2021vgs9l","62e19208352cd518d7b2f085","fixation","img/fixation.png","null","","test","","","","","",""
"291","820995","pSARL_v2","pSARL_v2021vgs9l","62e19208352cd518d7b2f085","freq","img/orange_2bandit_a2.png","70","70","test","1","200","200","10","",""
"null","821508","pSARL_v2","pSARL_v2021vgs9l","62e19208352cd518d7b2f085","freq_resp","img/orange_2bandit_a.png","70","70","test","","","","10","",""
"null","821669","pSARL_v2","pSARL_v2021vgs9l","62e19208352cd518d7b2f085","fixation","img/fixation.png","null","","test","","","","","",""
"346.5","822019","pSARL_v2","pSARL_v2021vgs9l","62e19208352cd518d7b2f085","freq","img/orange_2bandit_a2.png","70","70","test","1","201","201","10","",""
"null","822484","pSARL_v2","pSARL_v2021vgs9l","62e19208352cd518d7b2f085","freq_resp","img/orange_2bandit_a.png","70","70","test","","","","10","",""
"null","822644","pSARL_v2","pSARL_v2021vgs9l","62e19208352cd518d7b2f085","fixation","img/fixation.png","null","","test","","","","","",""
"299.5","822949","pSARL_v2","pSARL_v2021vgs9l","62e19208352cd518d7b2f085","freq","img/orange_2bandit_a2.png","70","70","test","1","202","202","10","",""
"null","823460","pSARL_v2","pSARL_v2021vgs9l","62e19208352cd518d7b2f085","freq_resp","img/orange_2bandit_a.png","70","70","test","","","","10","",""
"null","823620","pSARL_v2","pSARL_v2021vgs9l","62e19208352cd518d7b2f085","fixation","img/fixation.png","null","","test","","","","","",""
"307.2000000476837","823932","pSARL_v2","pSARL_v2021vgs9l","62e19208352cd518d7b2f085","freq","img/orange_2bandit_a2.png","70","70","test","1","203","203","10","",""
"null","824435","pSARL_v2","pSARL_v2021vgs9l","62e19208352cd518d7b2f085","freq_resp","img/orange_2bandit_a.png","70","70","test","","","","10","",""
"null","824596","pSARL_v2","pSARL_v2021vgs9l","62e19208352cd518d7b2f085","fixation","img/fixation.png","null","","test","","","","","",""
"355.40000009536743","824955","pSARL_v2","pSARL_v2021vgs9l","62e19208352cd518d7b2f085","freq","img/orange_2bandit_a2.png","70","70","test","1","204","204","10","",""
"null","825404","pSARL_v2","pSARL_v2021vgs9l","62e19208352cd518d7b2f085","freq_resp","img/orange_2bandit_a.png","70","70","test","","","","10","",""
"null","825563","pSARL_v2","pSARL_v2021vgs9l","62e19208352cd518d7b2f085","fixation","img/fixation.png","null","","test","","","","","",""
"315.5","825883","pSARL_v2","pSARL_v2021vgs9l","62e19208352cd518d7b2f085","freq","img/orange_2bandit_a2.png","70","70","test","1","205","205","10","",""
"null","826371","pSARL_v2","pSARL_v2021vgs9l","62e19208352cd518d7b2f085","freq_resp","img/orange_2bandit_a.png","70","70","test","","","","10","",""
"null","826531","pSARL_v2","pSARL_v2021vgs9l","62e19208352cd518d7b2f085","fixation","img/fixation.png","null","","test","","","","","",""
