"rt","time_elapsed","expId","subject","prolificID","trialType","stimulus","key_press","corrresp","phase","corr","trialNum","attentionRunNum","blockNum","points","rlNum"
"148579","148587","pSARL_v2","pSARL_v20phma5u6","6107acfe97c63575a2344e36","","","","","","","","","","",""
"","170471","pSARL_v2","pSARL_v20phma5u6","6107acfe97c63575a2344e36","fullscreen","","","","","","","","","",""
"28249","198723","pSARL_v2","pSARL_v20phma5u6","6107acfe97c63575a2344e36","","","","","","","","","","",""
"null","199529","pSARL_v2","pSARL_v20phma5u6","6107acfe97c63575a2344e36","freqPrac","img/orange_2bandit_b2.png","null","70","prac","0","","","","",""
"null","200536","pSARL_v2","pSARL_v20phma5u6","6107acfe97c63575a2344e36","feedback","img/tooSlow.png","null","na","prac","","","","","",""
"null","200692","pSARL_v2","pSARL_v20phma5u6","6107acfe97c63575a2344e36","fixation","img/fixation.png","null","","prac","","","","","",""
"784","201481","pSARL_v2","pSARL_v20phma5u6","6107acfe97c63575a2344e36","infreqPrac","img/green_2bandit_b2.png","70","68","prac","0","","","","",""
"784","201510","pSARL_v2","pSARL_v20phma5u6","6107acfe97c63575a2344e36","infreqPrac_resp","img/green_2bandit_b.png","70","68","prac","","","","","",""
"null","202516","pSARL_v2","pSARL_v20phma5u6","6107acfe97c63575a2344e36","feedback","img/wrongKey.png","null","na","prac","","","","","",""
"null","202672","pSARL_v2","pSARL_v20phma5u6","6107acfe97c63575a2344e36","fixation","img/fixation.png","null","","prac","","","","","",""
"652","203329","pSARL_v2","pSARL_v20phma5u6","6107acfe97c63575a2344e36","freqPrac","img/orange_2bandit_b2.png","70","70","prac","1","","","","",""
"652","203482","pSARL_v2","pSARL_v20phma5u6","6107acfe97c63575a2344e36","freqPrac_resp","img/orange_2bandit_b.png","70","70","prac","","","","","",""
"null","203638","pSARL_v2","pSARL_v20phma5u6","6107acfe97c63575a2344e36","fixation","img/fixation.png","null","","prac","","","","","",""
"488.9999999999709","204131","pSARL_v2","pSARL_v20phma5u6","6107acfe97c63575a2344e36","infreqPrac","img/green_2bandit_b2.png","68","68","prac","1","","","","",""
"488.9999999999709","204448","pSARL_v2","pSARL_v20phma5u6","6107acfe97c63575a2344e36","infreqPrac_resp","img/green_2bandit_b.png","68","68","prac","","","","","",""
"null","204604","pSARL_v2","pSARL_v20phma5u6","6107acfe97c63575a2344e36","fixation","img/fixation.png","null","","prac","","","","","",""
"530","205137","pSARL_v2","pSARL_v20phma5u6","6107acfe97c63575a2344e36","infreqPrac","img/green_2bandit_b2.png","68","68","prac","1","","","","",""
"530","205413","pSARL_v2","pSARL_v20phma5u6","6107acfe97c63575a2344e36","infreqPrac_resp","img/green_2bandit_b.png","68","68","prac","","","","","",""
"null","205569","pSARL_v2","pSARL_v20phma5u6","6107acfe97c63575a2344e36","fixation","img/fixation.png","null","","prac","","","","","",""
"369","205942","pSARL_v2","pSARL_v20phma5u6","6107acfe97c63575a2344e36","infreqPrac","img/green_2bandit_b2.png","68","68","prac","1","","","","",""
"369","206378","pSARL_v2","pSARL_v20phma5u6","6107acfe97c63575a2344e36","infreqPrac_resp","img/green_2bandit_b.png","68","68","prac","","","","","",""
"null","206533","pSARL_v2","pSARL_v20phma5u6","6107acfe97c63575a2344e36","fixation","img/fixation.png","null","","prac","","","","","",""
"446","206984","pSARL_v2","pSARL_v20phma5u6","6107acfe97c63575a2344e36","freqPrac","img/orange_2bandit_b2.png","70","70","prac","1","","","","",""
"446","207343","pSARL_v2","pSARL_v20phma5u6","6107acfe97c63575a2344e36","freqPrac_resp","img/orange_2bandit_b.png","70","70","prac","","","","","",""
"null","207499","pSARL_v2","pSARL_v20phma5u6","6107acfe97c63575a2344e36","fixation","img/fixation.png","null","","prac","","","","","",""
"444","207947","pSARL_v2","pSARL_v20phma5u6","6107acfe97c63575a2344e36","infreqPrac","img/green_2bandit_b2.png","68","68","prac","1","","","","",""
"444","208309","pSARL_v2","pSARL_v20phma5u6","6107acfe97c63575a2344e36","infreqPrac_resp","img/green_2bandit_b.png","68","68","prac","","","","","",""
"null","208465","pSARL_v2","pSARL_v20phma5u6","6107acfe97c63575a2344e36","fixation","img/fixation.png","null","","prac","","","","","",""
"475.9999999999709","208945","pSARL_v2","pSARL_v20phma5u6","6107acfe97c63575a2344e36","freqPrac","img/orange_2bandit_b2.png","70","70","prac","1","","","","",""
"475.9999999999709","209274","pSARL_v2","pSARL_v20phma5u6","6107acfe97c63575a2344e36","freqPrac_resp","img/orange_2bandit_b.png","70","70","prac","","","","","",""
"null","209430","pSARL_v2","pSARL_v20phma5u6","6107acfe97c63575a2344e36","fixation","img/fixation.png","null","","prac","","","","","",""
"395.9999999999709","209830","pSARL_v2","pSARL_v20phma5u6","6107acfe97c63575a2344e36","freqPrac","img/orange_2bandit_b2.png","70","70","prac","1","","","","",""
"395.9999999999709","210239","pSARL_v2","pSARL_v20phma5u6","6107acfe97c63575a2344e36","freqPrac_resp","img/orange_2bandit_b.png","70","70","prac","","","","","",""
"null","210395","pSARL_v2","pSARL_v20phma5u6","6107acfe97c63575a2344e36","fixation","img/fixation.png","null","","prac","","","","","",""
"42145","252544","pSARL_v2","pSARL_v20phma5u6","6107acfe97c63575a2344e36","","","","","prac","","","","","",""
"499.0000000000291","253047","pSARL_v2","pSARL_v20phma5u6","6107acfe97c63575a2344e36","rewardPractice","img/slot.png","74","","prac","","","","","",""
"null","253803","pSARL_v2","pSARL_v20phma5u6","6107acfe97c63575a2344e36","feedback","<div class=""veryhighPoints""> +15 </div>","null","na","prac","","","","","",""
"null","253959","pSARL_v2","pSARL_v20phma5u6","6107acfe97c63575a2344e36","fixation","img/fixation.png","null","","prac","","","","","",""
"40828","294791","pSARL_v2","pSARL_v20phma5u6","6107acfe97c63575a2344e36","","","","","prac","","","","","",""
"603","295399","pSARL_v2","pSARL_v20phma5u6","6107acfe97c63575a2344e36","freq","img/orange_2bandit_b2.png","70","70","test","1","1","1","1","",""
"null","295602","pSARL_v2","pSARL_v20phma5u6","6107acfe97c63575a2344e36","freq_resp","img/orange_2bandit_b.png","70","70","test","","","","1","",""
"null","295758","pSARL_v2","pSARL_v20phma5u6","6107acfe97c63575a2344e36","fixation","img/fixation.png","null","","test","","","","","",""
"411","296173","pSARL_v2","pSARL_v20phma5u6","6107acfe97c63575a2344e36","freq","img/orange_2bandit_b2.png","70","70","test","1","2","2","1","",""
"null","296568","pSARL_v2","pSARL_v20phma5u6","6107acfe97c63575a2344e36","freq_resp","img/orange_2bandit_b.png","70","70","test","","","","1","",""
"null","296724","pSARL_v2","pSARL_v20phma5u6","6107acfe97c63575a2344e36","fixation","img/fixation.png","null","","test","","","","","",""
"407","297136","pSARL_v2","pSARL_v20phma5u6","6107acfe97c63575a2344e36","freq","img/orange_2bandit_b2.png","70","70","test","1","3","3","1","",""
"null","297535","pSARL_v2","pSARL_v20phma5u6","6107acfe97c63575a2344e36","freq_resp","img/orange_2bandit_b.png","70","70","test","","","","1","",""
"null","297691","pSARL_v2","pSARL_v20phma5u6","6107acfe97c63575a2344e36","fixation","img/fixation.png","null","","test","","","","","",""
"370","298064","pSARL_v2","pSARL_v20phma5u6","6107acfe97c63575a2344e36","freq","img/orange_2bandit_b2.png","70","70","test","1","4","4","1","",""
"null","298499","pSARL_v2","pSARL_v20phma5u6","6107acfe97c63575a2344e36","freq_resp","img/orange_2bandit_b.png","70","70","test","","","","1","",""
"null","298654","pSARL_v2","pSARL_v20phma5u6","6107acfe97c63575a2344e36","fixation","img/fixation.png","null","","test","","","","","",""
"379","299038","pSARL_v2","pSARL_v20phma5u6","6107acfe97c63575a2344e36","freq","img/orange_2bandit_b2.png","70","70","test","1","5","5","1","",""
"null","299464","pSARL_v2","pSARL_v20phma5u6","6107acfe97c63575a2344e36","freq_resp","img/orange_2bandit_b.png","70","70","test","","","","1","",""
"null","299620","pSARL_v2","pSARL_v20phma5u6","6107acfe97c63575a2344e36","fixation","img/fixation.png","null","","test","","","","","",""
"424","300049","pSARL_v2","pSARL_v20phma5u6","6107acfe97c63575a2344e36","freq","img/orange_2bandit_b2.png","70","70","test","1","6","6","1","",""
"null","300431","pSARL_v2","pSARL_v20phma5u6","6107acfe97c63575a2344e36","freq_resp","img/orange_2bandit_b.png","70","70","test","","","","1","",""
"null","300586","pSARL_v2","pSARL_v20phma5u6","6107acfe97c63575a2344e36","fixation","img/fixation.png","null","","test","","","","","",""
"361","300951","pSARL_v2","pSARL_v20phma5u6","6107acfe97c63575a2344e36","freq","img/orange_2bandit_b2.png","70","70","test","1","7","7","1","",""
"null","301396","pSARL_v2","pSARL_v20phma5u6","6107acfe97c63575a2344e36","freq_resp","img/orange_2bandit_b.png","70","70","test","","","","1","",""
"null","301552","pSARL_v2","pSARL_v20phma5u6","6107acfe97c63575a2344e36","fixation","img/fixation.png","null","","test","","","","","",""
"447.9999999999418","302004","pSARL_v2","pSARL_v20phma5u6","6107acfe97c63575a2344e36","infreq","img/green_2bandit_b2.png","68","68","test","1","8","8","1","",""
"null","302362","pSARL_v2","pSARL_v20phma5u6","6107acfe97c63575a2344e36","infreq_resp","img/green_2bandit_b.png","68","68","test","","","","1","",""
"null","302517","pSARL_v2","pSARL_v20phma5u6","6107acfe97c63575a2344e36","fixation","img/fixation.png","null","","test","","","","","",""
"442","302964","pSARL_v2","pSARL_v20phma5u6","6107acfe97c63575a2344e36","freq","img/orange_2bandit_b2.png","70","70","test","1","9","9","1","",""
"null","303328","pSARL_v2","pSARL_v20phma5u6","6107acfe97c63575a2344e36","freq_resp","img/orange_2bandit_b.png","70","70","test","","","","1","",""
"null","303483","pSARL_v2","pSARL_v20phma5u6","6107acfe97c63575a2344e36","fixation","img/fixation.png","null","","test","","","","","",""
"466","303954","pSARL_v2","pSARL_v20phma5u6","6107acfe97c63575a2344e36","freq","img/orange_2bandit_b2.png","70","70","test","1","10","10","1","",""
"null","304293","pSARL_v2","pSARL_v20phma5u6","6107acfe97c63575a2344e36","freq_resp","img/orange_2bandit_b.png","70","70","test","","","","1","",""
"null","304449","pSARL_v2","pSARL_v20phma5u6","6107acfe97c63575a2344e36","fixation","img/fixation.png","null","","test","","","","","",""
"359","304812","pSARL_v2","pSARL_v20phma5u6","6107acfe97c63575a2344e36","freq","img/orange_2bandit_b2.png","70","70","test","1","11","11","1","",""
"null","305258","pSARL_v2","pSARL_v20phma5u6","6107acfe97c63575a2344e36","freq_resp","img/orange_2bandit_b.png","70","70","test","","","","1","",""
"null","305414","pSARL_v2","pSARL_v20phma5u6","6107acfe97c63575a2344e36","fixation","img/fixation.png","null","","test","","","","","",""
"333","305751","pSARL_v2","pSARL_v20phma5u6","6107acfe97c63575a2344e36","freq","img/orange_2bandit_b2.png","70","70","test","1","12","12","1","",""
"null","306222","pSARL_v2","pSARL_v20phma5u6","6107acfe97c63575a2344e36","freq_resp","img/orange_2bandit_b.png","70","70","test","","","","1","",""
"null","306378","pSARL_v2","pSARL_v20phma5u6","6107acfe97c63575a2344e36","fixation","img/fixation.png","null","","test","","","","","",""
"316","306698","pSARL_v2","pSARL_v20phma5u6","6107acfe97c63575a2344e36","freq","img/orange_2bandit_b2.png","70","70","test","1","13","13","1","",""
"null","307187","pSARL_v2","pSARL_v20phma5u6","6107acfe97c63575a2344e36","freq_resp","img/orange_2bandit_b.png","70","70","test","","","","1","",""
"null","307343","pSARL_v2","pSARL_v20phma5u6","6107acfe97c63575a2344e36","fixation","img/fixation.png","null","","test","","","","","",""
"307","307654","pSARL_v2","pSARL_v20phma5u6","6107acfe97c63575a2344e36","freq","img/orange_2bandit_b2.png","70","70","test","1","14","14","1","",""
"null","308152","pSARL_v2","pSARL_v20phma5u6","6107acfe97c63575a2344e36","freq_resp","img/orange_2bandit_b.png","70","70","test","","","","1","",""
"null","308307","pSARL_v2","pSARL_v20phma5u6","6107acfe97c63575a2344e36","fixation","img/fixation.png","null","","test","","","","","",""
"327","308639","pSARL_v2","pSARL_v20phma5u6","6107acfe97c63575a2344e36","freq","img/orange_2bandit_b2.png","70","70","test","1","15","15","1","",""
"null","309117","pSARL_v2","pSARL_v20phma5u6","6107acfe97c63575a2344e36","freq_resp","img/orange_2bandit_b.png","70","70","test","","","","1","",""
"null","309272","pSARL_v2","pSARL_v20phma5u6","6107acfe97c63575a2344e36","fixation","img/fixation.png","null","","test","","","","","",""
"331","309607","pSARL_v2","pSARL_v20phma5u6","6107acfe97c63575a2344e36","freq","img/orange_2bandit_b2.png","70","70","test","1","16","16","1","",""
"null","310082","pSARL_v2","pSARL_v20phma5u6","6107acfe97c63575a2344e36","freq_resp","img/orange_2bandit_b.png","70","70","test","","","","1","",""
"null","310238","pSARL_v2","pSARL_v20phma5u6","6107acfe97c63575a2344e36","fixation","img/fixation.png","null","","test","","","","","",""
"387","310628","pSARL_v2","pSARL_v20phma5u6","6107acfe97c63575a2344e36","freq","img/orange_2bandit_b2.png","70","70","test","1","17","17","1","",""
"null","311047","pSARL_v2","pSARL_v20phma5u6","6107acfe97c63575a2344e36","freq_resp","img/orange_2bandit_b.png","70","70","test","","","","1","",""
"null","311202","pSARL_v2","pSARL_v20phma5u6","6107acfe97c63575a2344e36","fixation","img/fixation.png","null","","test","","","","","",""
"333","311540","pSARL_v2","pSARL_v20phma5u6","6107acfe97c63575a2344e36","freq","img/orange_2bandit_b2.png","70","70","test","1","18","18","1","",""
"null","312013","pSARL_v2","pSARL_v20phma5u6","6107acfe97c63575a2344e36","freq_resp","img/orange_2bandit_b.png","70","70","test","","","","1","",""
"null","312169","pSARL_v2","pSARL_v20phma5u6","6107acfe97c63575a2344e36","fixation","img/fixation.png","null","","test","","","","","",""
"310","312482","pSARL_v2","pSARL_v20phma5u6","6107acfe97c63575a2344e36","freq","img/orange_2bandit_b2.png","70","70","test","1","19","19","1","",""
"null","312977","pSARL_v2","pSARL_v20phma5u6","6107acfe97c63575a2344e36","freq_resp","img/orange_2bandit_b.png","70","70","test","","","","1","",""
"null","313133","pSARL_v2","pSARL_v20phma5u6","6107acfe97c63575a2344e36","fixation","img/fixation.png","null","","test","","","","","",""
"327","313464","pSARL_v2","pSARL_v20phma5u6","6107acfe97c63575a2344e36","freq","img/orange_2bandit_b2.png","70","70","test","1","20","20","1","",""
"null","313943","pSARL_v2","pSARL_v20phma5u6","6107acfe97c63575a2344e36","freq_resp","img/orange_2bandit_b.png","70","70","test","","","","1","",""
"null","314099","pSARL_v2","pSARL_v20phma5u6","6107acfe97c63575a2344e36","fixation","img/fixation.png","null","","test","","","","","",""
"327","314430","pSARL_v2","pSARL_v20phma5u6","6107acfe97c63575a2344e36","freq","img/orange_2bandit_b2.png","70","70","test","1","21","21","1","",""
"null","314909","pSARL_v2","pSARL_v20phma5u6","6107acfe97c63575a2344e36","freq_resp","img/orange_2bandit_b.png","70","70","test","","","","1","",""
"null","315064","pSARL_v2","pSARL_v20phma5u6","6107acfe97c63575a2344e36","fixation","img/fixation.png","null","","test","","","","","",""
"319.9999999999418","315388","pSARL_v2","pSARL_v20phma5u6","6107acfe97c63575a2344e36","freq","img/orange_2bandit_b2.png","70","70","test","1","22","22","1","",""
"null","315873","pSARL_v2","pSARL_v20phma5u6","6107acfe97c63575a2344e36","freq_resp","img/orange_2bandit_b.png","70","70","test","","","","1","",""
"null","316029","pSARL_v2","pSARL_v20phma5u6","6107acfe97c63575a2344e36","fixation","img/fixation.png","null","","test","","","","","",""
"539","316572","pSARL_v2","pSARL_v20phma5u6","6107acfe97c63575a2344e36","infreq","img/green_2bandit_b2.png","68","68","test","1","23","23","1","",""
"null","316838","pSARL_v2","pSARL_v20phma5u6","6107acfe97c63575a2344e36","infreq_resp","img/green_2bandit_b.png","68","68","test","","","","1","",""
"null","316993","pSARL_v2","pSARL_v20phma5u6","6107acfe97c63575a2344e36","fixation","img/fixation.png","null","","test","","","","","",""
"451","317448","pSARL_v2","pSARL_v20phma5u6","6107acfe97c63575a2344e36","freq","img/orange_2bandit_b2.png","70","70","test","1","24","24","1","",""
"null","317802","pSARL_v2","pSARL_v20phma5u6","6107acfe97c63575a2344e36","freq_resp","img/orange_2bandit_b.png","70","70","test","","","","1","",""
"null","317958","pSARL_v2","pSARL_v20phma5u6","6107acfe97c63575a2344e36","fixation","img/fixation.png","null","","test","","","","","",""
"442","318404","pSARL_v2","pSARL_v20phma5u6","6107acfe97c63575a2344e36","freq","img/orange_2bandit_b2.png","70","70","test","1","25","25","1","",""
"null","318767","pSARL_v2","pSARL_v20phma5u6","6107acfe97c63575a2344e36","freq_resp","img/orange_2bandit_b.png","70","70","test","","","","1","",""
"null","318922","pSARL_v2","pSARL_v20phma5u6","6107acfe97c63575a2344e36","fixation","img/fixation.png","null","","test","","","","","",""
"337","319263","pSARL_v2","pSARL_v20phma5u6","6107acfe97c63575a2344e36","freq","img/orange_2bandit_b2.png","70","70","test","1","26","26","1","",""
"null","319732","pSARL_v2","pSARL_v20phma5u6","6107acfe97c63575a2344e36","freq_resp","img/orange_2bandit_b.png","70","70","test","","","","1","",""
"null","319887","pSARL_v2","pSARL_v20phma5u6","6107acfe97c63575a2344e36","fixation","img/fixation.png","null","","test","","","","","",""
"605.0000000000582","320496","pSARL_v2","pSARL_v20phma5u6","6107acfe97c63575a2344e36","reward","img/slot.png","74","","test","","","","","",""
"null","321252","pSARL_v2","pSARL_v20phma5u6","6107acfe97c63575a2344e36","points","<div class=""verylowPoints""> -6 </div>","null","na","test","","","","1","-6","0"
"507","321763","pSARL_v2","pSARL_v20phma5u6","6107acfe97c63575a2344e36","freq","img/orange_2bandit_b2.png","70","70","test","1","27","27","2","",""
"null","322062","pSARL_v2","pSARL_v20phma5u6","6107acfe97c63575a2344e36","freq_resp","img/orange_2bandit_b.png","70","70","test","","","","2","",""
"null","322217","pSARL_v2","pSARL_v20phma5u6","6107acfe97c63575a2344e36","fixation","img/fixation.png","null","","test","","","","","",""
"379","322601","pSARL_v2","pSARL_v20phma5u6","6107acfe97c63575a2344e36","freq","img/orange_2bandit_b2.png","70","70","test","1","28","28","2","",""
"null","323027","pSARL_v2","pSARL_v20phma5u6","6107acfe97c63575a2344e36","freq_resp","img/orange_2bandit_b.png","70","70","test","","","","2","",""
"null","323183","pSARL_v2","pSARL_v20phma5u6","6107acfe97c63575a2344e36","fixation","img/fixation.png","null","","test","","","","","",""
"331","323518","pSARL_v2","pSARL_v20phma5u6","6107acfe97c63575a2344e36","freq","img/orange_2bandit_b2.png","70","70","test","1","29","29","2","",""
"null","323992","pSARL_v2","pSARL_v20phma5u6","6107acfe97c63575a2344e36","freq_resp","img/orange_2bandit_b.png","70","70","test","","","","2","",""
"null","324148","pSARL_v2","pSARL_v20phma5u6","6107acfe97c63575a2344e36","fixation","img/fixation.png","null","","test","","","","","",""
"553.0000000000582","324705","pSARL_v2","pSARL_v20phma5u6","6107acfe97c63575a2344e36","infreq","img/green_2bandit_b2.png","68","68","test","1","30","30","2","",""
"null","324955","pSARL_v2","pSARL_v20phma5u6","6107acfe97c63575a2344e36","infreq_resp","img/green_2bandit_b.png","68","68","test","","","","2","",""
"null","325111","pSARL_v2","pSARL_v20phma5u6","6107acfe97c63575a2344e36","fixation","img/fixation.png","null","","test","","","","","",""
"428","325544","pSARL_v2","pSARL_v20phma5u6","6107acfe97c63575a2344e36","freq","img/orange_2bandit_b2.png","70","70","test","1","31","31","2","",""
"null","325922","pSARL_v2","pSARL_v20phma5u6","6107acfe97c63575a2344e36","freq_resp","img/orange_2bandit_b.png","70","70","test","","","","2","",""
"null","326077","pSARL_v2","pSARL_v20phma5u6","6107acfe97c63575a2344e36","fixation","img/fixation.png","null","","test","","","","","",""
"556","326637","pSARL_v2","pSARL_v20phma5u6","6107acfe97c63575a2344e36","freq","img/orange_2bandit_b2.png","70","70","test","1","32","32","2","",""
"null","326886","pSARL_v2","pSARL_v20phma5u6","6107acfe97c63575a2344e36","freq_resp","img/orange_2bandit_b.png","70","70","test","","","","2","",""
"null","327042","pSARL_v2","pSARL_v20phma5u6","6107acfe97c63575a2344e36","fixation","img/fixation.png","null","","test","","","","","",""
"292","327339","pSARL_v2","pSARL_v20phma5u6","6107acfe97c63575a2344e36","freq","img/orange_2bandit_b2.png","70","70","test","1","33","33","2","",""
"null","327852","pSARL_v2","pSARL_v20phma5u6","6107acfe97c63575a2344e36","freq_resp","img/orange_2bandit_b.png","70","70","test","","","","2","",""
"null","328008","pSARL_v2","pSARL_v20phma5u6","6107acfe97c63575a2344e36","fixation","img/fixation.png","null","","test","","","","","",""
"615","328627","pSARL_v2","pSARL_v20phma5u6","6107acfe97c63575a2344e36","infreq","img/green_2bandit_b2.png","68","68","test","1","34","34","2","",""
"null","328818","pSARL_v2","pSARL_v20phma5u6","6107acfe97c63575a2344e36","infreq_resp","img/green_2bandit_b.png","68","68","test","","","","2","",""
"null","328973","pSARL_v2","pSARL_v20phma5u6","6107acfe97c63575a2344e36","fixation","img/fixation.png","null","","test","","","","","",""
"498","329476","pSARL_v2","pSARL_v20phma5u6","6107acfe97c63575a2344e36","freq","img/orange_2bandit_b2.png","70","70","test","1","35","35","2","",""
"null","329784","pSARL_v2","pSARL_v20phma5u6","6107acfe97c63575a2344e36","freq_resp","img/orange_2bandit_b.png","70","70","test","","","","2","",""
"null","329939","pSARL_v2","pSARL_v20phma5u6","6107acfe97c63575a2344e36","fixation","img/fixation.png","null","","test","","","","","",""
"327","330271","pSARL_v2","pSARL_v20phma5u6","6107acfe97c63575a2344e36","freq","img/orange_2bandit_b2.png","70","70","test","1","36","36","2","",""
"null","330748","pSARL_v2","pSARL_v20phma5u6","6107acfe97c63575a2344e36","freq_resp","img/orange_2bandit_b.png","70","70","test","","","","2","",""
"null","330904","pSARL_v2","pSARL_v20phma5u6","6107acfe97c63575a2344e36","fixation","img/fixation.png","null","","test","","","","","",""
"321","331231","pSARL_v2","pSARL_v20phma5u6","6107acfe97c63575a2344e36","freq","img/orange_2bandit_b2.png","70","70","test","1","37","37","2","",""
"null","331714","pSARL_v2","pSARL_v20phma5u6","6107acfe97c63575a2344e36","freq_resp","img/orange_2bandit_b.png","70","70","test","","","","2","",""
"null","331870","pSARL_v2","pSARL_v20phma5u6","6107acfe97c63575a2344e36","fixation","img/fixation.png","null","","test","","","","","",""
"314","332188","pSARL_v2","pSARL_v20phma5u6","6107acfe97c63575a2344e36","freq","img/orange_2bandit_b2.png","70","70","test","1","38","38","2","",""
"null","332680","pSARL_v2","pSARL_v20phma5u6","6107acfe97c63575a2344e36","freq_resp","img/orange_2bandit_b.png","70","70","test","","","","2","",""
"null","332836","pSARL_v2","pSARL_v20phma5u6","6107acfe97c63575a2344e36","fixation","img/fixation.png","null","","test","","","","","",""
"333","333173","pSARL_v2","pSARL_v20phma5u6","6107acfe97c63575a2344e36","freq","img/orange_2bandit_b2.png","70","70","test","1","39","39","2","",""
"null","333646","pSARL_v2","pSARL_v20phma5u6","6107acfe97c63575a2344e36","freq_resp","img/orange_2bandit_b.png","70","70","test","","","","2","",""
"null","333801","pSARL_v2","pSARL_v20phma5u6","6107acfe97c63575a2344e36","fixation","img/fixation.png","null","","test","","","","","",""
"345","334150","pSARL_v2","pSARL_v20phma5u6","6107acfe97c63575a2344e36","freq","img/orange_2bandit_b2.png","70","70","test","1","40","40","2","",""
"null","334611","pSARL_v2","pSARL_v20phma5u6","6107acfe97c63575a2344e36","freq_resp","img/orange_2bandit_b.png","70","70","test","","","","2","",""
"null","334766","pSARL_v2","pSARL_v20phma5u6","6107acfe97c63575a2344e36","fixation","img/fixation.png","null","","test","","","","","",""
"305","335077","pSARL_v2","pSARL_v20phma5u6","6107acfe97c63575a2344e36","freq","img/orange_2bandit_b2.png","70","70","test","1","41","41","2","",""
"null","335577","pSARL_v2","pSARL_v20phma5u6","6107acfe97c63575a2344e36","freq_resp","img/orange_2bandit_b.png","70","70","test","","","","2","",""
"null","335732","pSARL_v2","pSARL_v20phma5u6","6107acfe97c63575a2344e36","fixation","img/fixation.png","null","","test","","","","","",""
"357","336093","pSARL_v2","pSARL_v20phma5u6","6107acfe97c63575a2344e36","freq","img/orange_2bandit_b2.png","70","70","test","1","42","42","2","",""
"null","336543","pSARL_v2","pSARL_v20phma5u6","6107acfe97c63575a2344e36","freq_resp","img/orange_2bandit_b.png","70","70","test","","","","2","",""
"null","336698","pSARL_v2","pSARL_v20phma5u6","6107acfe97c63575a2344e36","fixation","img/fixation.png","null","","test","","","","","",""
"310","337013","pSARL_v2","pSARL_v20phma5u6","6107acfe97c63575a2344e36","freq","img/orange_2bandit_b2.png","70","70","test","1","43","43","2","",""
"null","337510","pSARL_v2","pSARL_v20phma5u6","6107acfe97c63575a2344e36","freq_resp","img/orange_2bandit_b.png","70","70","test","","","","2","",""
"null","337665","pSARL_v2","pSARL_v20phma5u6","6107acfe97c63575a2344e36","fixation","img/fixation.png","null","","test","","","","","",""
"314.0000000000582","337984","pSARL_v2","pSARL_v20phma5u6","6107acfe97c63575a2344e36","freq","img/orange_2bandit_b2.png","70","70","test","1","44","44","2","",""
"null","338475","pSARL_v2","pSARL_v20phma5u6","6107acfe97c63575a2344e36","freq_resp","img/orange_2bandit_b.png","70","70","test","","","","2","",""
"null","338631","pSARL_v2","pSARL_v20phma5u6","6107acfe97c63575a2344e36","fixation","img/fixation.png","null","","test","","","","","",""
"285","338921","pSARL_v2","pSARL_v20phma5u6","6107acfe97c63575a2344e36","freq","img/orange_2bandit_b2.png","70","70","test","1","45","45","2","",""
"null","339441","pSARL_v2","pSARL_v20phma5u6","6107acfe97c63575a2344e36","freq_resp","img/orange_2bandit_b.png","70","70","test","","","","2","",""
"null","339597","pSARL_v2","pSARL_v20phma5u6","6107acfe97c63575a2344e36","fixation","img/fixation.png","null","","test","","","","","",""
"349","339950","pSARL_v2","pSARL_v20phma5u6","6107acfe97c63575a2344e36","freq","img/orange_2bandit_b2.png","70","70","test","1","46","46","2","",""
"null","340406","pSARL_v2","pSARL_v20phma5u6","6107acfe97c63575a2344e36","freq_resp","img/orange_2bandit_b.png","70","70","test","","","","2","",""
"null","340561","pSARL_v2","pSARL_v20phma5u6","6107acfe97c63575a2344e36","fixation","img/fixation.png","null","","test","","","","","",""
"326","340891","pSARL_v2","pSARL_v20phma5u6","6107acfe97c63575a2344e36","freq","img/orange_2bandit_b2.png","70","70","test","1","47","47","2","",""
"null","341370","pSARL_v2","pSARL_v20phma5u6","6107acfe97c63575a2344e36","freq_resp","img/orange_2bandit_b.png","70","70","test","","","","2","",""
"null","341525","pSARL_v2","pSARL_v20phma5u6","6107acfe97c63575a2344e36","fixation","img/fixation.png","null","","test","","","","","",""
"315","341844","pSARL_v2","pSARL_v20phma5u6","6107acfe97c63575a2344e36","freq","img/orange_2bandit_b2.png","70","70","test","1","48","48","2","",""
"null","342334","pSARL_v2","pSARL_v20phma5u6","6107acfe97c63575a2344e36","freq_resp","img/orange_2bandit_b.png","70","70","test","","","","2","",""
"null","342489","pSARL_v2","pSARL_v20phma5u6","6107acfe97c63575a2344e36","fixation","img/fixation.png","null","","test","","","","","",""
"704","343198","pSARL_v2","pSARL_v20phma5u6","6107acfe97c63575a2344e36","reward","img/slot.png","74","","test","","","","","",""
"null","343953","pSARL_v2","pSARL_v20phma5u6","6107acfe97c63575a2344e36","points","<div class=""verylowPoints""> -11 </div>","null","na","test","","","","2","-11","1"
"431","344388","pSARL_v2","pSARL_v20phma5u6","6107acfe97c63575a2344e36","freq","img/orange_2bandit_b2.png","70","70","test","1","49","49","3","",""
"null","344763","pSARL_v2","pSARL_v20phma5u6","6107acfe97c63575a2344e36","freq_resp","img/orange_2bandit_b.png","70","70","test","","","","3","",""
"null","344917","pSARL_v2","pSARL_v20phma5u6","6107acfe97c63575a2344e36","fixation","img/fixation.png","null","","test","","","","","",""
"298","345219","pSARL_v2","pSARL_v20phma5u6","6107acfe97c63575a2344e36","freq","img/orange_2bandit_b2.png","70","70","test","1","50","50","3","",""
"null","345727","pSARL_v2","pSARL_v20phma5u6","6107acfe97c63575a2344e36","freq_resp","img/orange_2bandit_b.png","70","70","test","","","","3","",""
"null","345882","pSARL_v2","pSARL_v20phma5u6","6107acfe97c63575a2344e36","fixation","img/fixation.png","null","","test","","","","","",""
"277","346162","pSARL_v2","pSARL_v20phma5u6","6107acfe97c63575a2344e36","freq","img/orange_2bandit_b2.png","70","70","test","1","51","51","3","",""
"null","346691","pSARL_v2","pSARL_v20phma5u6","6107acfe97c63575a2344e36","freq_resp","img/orange_2bandit_b.png","70","70","test","","","","3","",""
"null","346846","pSARL_v2","pSARL_v20phma5u6","6107acfe97c63575a2344e36","fixation","img/fixation.png","null","","test","","","","","",""
"217.0000000000582","347069","pSARL_v2","pSARL_v20phma5u6","6107acfe97c63575a2344e36","freq","img/orange_2bandit_b2.png","70","70","test","1","52","52","3","",""
"null","347656","pSARL_v2","pSARL_v20phma5u6","6107acfe97c63575a2344e36","freq_resp","img/orange_2bandit_b.png","70","70","test","","","","3","",""
"null","347811","pSARL_v2","pSARL_v20phma5u6","6107acfe97c63575a2344e36","fixation","img/fixation.png","null","","test","","","","","",""
"114","347928","pSARL_v2","pSARL_v20phma5u6","6107acfe97c63575a2344e36","freq","img/orange_2bandit_b2.png","70","70","test","1","53","53","3","",""
"null","348620","pSARL_v2","pSARL_v20phma5u6","6107acfe97c63575a2344e36","freq_resp","img/orange_2bandit_b.png","70","70","test","","","","3","",""
"null","348775","pSARL_v2","pSARL_v20phma5u6","6107acfe97c63575a2344e36","fixation","img/fixation.png","null","","test","","","","","",""
"304","349083","pSARL_v2","pSARL_v20phma5u6","6107acfe97c63575a2344e36","freq","img/orange_2bandit_b2.png","70","70","test","1","54","54","3","",""
"null","349585","pSARL_v2","pSARL_v20phma5u6","6107acfe97c63575a2344e36","freq_resp","img/orange_2bandit_b.png","70","70","test","","","","3","",""
"null","349740","pSARL_v2","pSARL_v20phma5u6","6107acfe97c63575a2344e36","fixation","img/fixation.png","null","","test","","","","","",""
"535","350279","pSARL_v2","pSARL_v20phma5u6","6107acfe97c63575a2344e36","infreq","img/green_2bandit_b2.png","68","68","test","1","55","55","3","",""
"null","350549","pSARL_v2","pSARL_v20phma5u6","6107acfe97c63575a2344e36","infreq_resp","img/green_2bandit_b.png","68","68","test","","","","3","",""
"null","350705","pSARL_v2","pSARL_v20phma5u6","6107acfe97c63575a2344e36","fixation","img/fixation.png","null","","test","","","","","",""
"312","351022","pSARL_v2","pSARL_v20phma5u6","6107acfe97c63575a2344e36","freq","img/orange_2bandit_b2.png","70","70","test","1","56","56","3","",""
"null","351515","pSARL_v2","pSARL_v20phma5u6","6107acfe97c63575a2344e36","freq_resp","img/orange_2bandit_b.png","70","70","test","","","","3","",""
"null","351670","pSARL_v2","pSARL_v20phma5u6","6107acfe97c63575a2344e36","fixation","img/fixation.png","null","","test","","","","","",""
"274","351948","pSARL_v2","pSARL_v20phma5u6","6107acfe97c63575a2344e36","freq","img/orange_2bandit_b2.png","70","70","test","1","57","57","3","",""
"null","352479","pSARL_v2","pSARL_v20phma5u6","6107acfe97c63575a2344e36","freq_resp","img/orange_2bandit_b.png","70","70","test","","","","3","",""
"null","352634","pSARL_v2","pSARL_v20phma5u6","6107acfe97c63575a2344e36","fixation","img/fixation.png","null","","test","","","","","",""
"296","352934","pSARL_v2","pSARL_v20phma5u6","6107acfe97c63575a2344e36","freq","img/orange_2bandit_b2.png","70","70","test","1","58","58","3","",""
"null","353444","pSARL_v2","pSARL_v20phma5u6","6107acfe97c63575a2344e36","freq_resp","img/orange_2bandit_b.png","70","70","test","","","","3","",""
"null","353600","pSARL_v2","pSARL_v20phma5u6","6107acfe97c63575a2344e36","fixation","img/fixation.png","null","","test","","","","","",""
"517.9999999999418","354122","pSARL_v2","pSARL_v20phma5u6","6107acfe97c63575a2344e36","infreq","img/green_2bandit_b2.png","68","68","test","1","59","59","3","",""
"null","354410","pSARL_v2","pSARL_v20phma5u6","6107acfe97c63575a2344e36","infreq_resp","img/green_2bandit_b.png","68","68","test","","","","3","",""
"null","354565","pSARL_v2","pSARL_v20phma5u6","6107acfe97c63575a2344e36","fixation","img/fixation.png","null","","test","","","","","",""
"416","354985","pSARL_v2","pSARL_v20phma5u6","6107acfe97c63575a2344e36","freq","img/orange_2bandit_b2.png","70","70","test","1","60","60","3","",""
"null","355373","pSARL_v2","pSARL_v20phma5u6","6107acfe97c63575a2344e36","freq_resp","img/orange_2bandit_b.png","70","70","test","","","","3","",""
"null","355529","pSARL_v2","pSARL_v20phma5u6","6107acfe97c63575a2344e36","fixation","img/fixation.png","null","","test","","","","","",""
"288","355820","pSARL_v2","pSARL_v20phma5u6","6107acfe97c63575a2344e36","freq","img/orange_2bandit_b2.png","70","70","test","1","61","61","3","",""
"null","356338","pSARL_v2","pSARL_v20phma5u6","6107acfe97c63575a2344e36","freq_resp","img/orange_2bandit_b.png","70","70","test","","","","3","",""
"null","356494","pSARL_v2","pSARL_v20phma5u6","6107acfe97c63575a2344e36","fixation","img/fixation.png","null","","test","","","","","",""
"141","356639","pSARL_v2","pSARL_v20phma5u6","6107acfe97c63575a2344e36","freq","img/orange_2bandit_b2.png","70","70","test","1","62","62","3","",""
"null","357303","pSARL_v2","pSARL_v20phma5u6","6107acfe97c63575a2344e36","freq_resp","img/orange_2bandit_b.png","70","70","test","","","","3","",""
"null","357458","pSARL_v2","pSARL_v20phma5u6","6107acfe97c63575a2344e36","fixation","img/fixation.png","null","","test","","","","","",""
"352","357814","pSARL_v2","pSARL_v20phma5u6","6107acfe97c63575a2344e36","freq","img/orange_2bandit_b2.png","70","70","test","1","63","63","3","",""
"null","358268","pSARL_v2","pSARL_v20phma5u6","6107acfe97c63575a2344e36","freq_resp","img/orange_2bandit_b.png","70","70","test","","","","3","",""
"null","358423","pSARL_v2","pSARL_v20phma5u6","6107acfe97c63575a2344e36","fixation","img/fixation.png","null","","test","","","","","",""
"325","358752","pSARL_v2","pSARL_v20phma5u6","6107acfe97c63575a2344e36","freq","img/orange_2bandit_b2.png","70","70","test","1","64","64","3","",""
"null","359232","pSARL_v2","pSARL_v20phma5u6","6107acfe97c63575a2344e36","freq_resp","img/orange_2bandit_b.png","70","70","test","","","","3","",""
"null","359387","pSARL_v2","pSARL_v20phma5u6","6107acfe97c63575a2344e36","fixation","img/fixation.png","null","","test","","","","","",""
"295","359688","pSARL_v2","pSARL_v20phma5u6","6107acfe97c63575a2344e36","freq","img/orange_2bandit_b2.png","70","70","test","1","65","65","3","",""
"null","360198","pSARL_v2","pSARL_v20phma5u6","6107acfe97c63575a2344e36","freq_resp","img/orange_2bandit_b.png","70","70","test","","","","3","",""
"null","360354","pSARL_v2","pSARL_v20phma5u6","6107acfe97c63575a2344e36","fixation","img/fixation.png","null","","test","","","","","",""
"368","360726","pSARL_v2","pSARL_v20phma5u6","6107acfe97c63575a2344e36","freq","img/orange_2bandit_b2.png","70","70","test","1","66","66","3","",""
"null","361162","pSARL_v2","pSARL_v20phma5u6","6107acfe97c63575a2344e36","freq_resp","img/orange_2bandit_b.png","70","70","test","","","","3","",""
"null","361318","pSARL_v2","pSARL_v20phma5u6","6107acfe97c63575a2344e36","fixation","img/fixation.png","null","","test","","","","","",""
"348","361669","pSARL_v2","pSARL_v20phma5u6","6107acfe97c63575a2344e36","freq","img/orange_2bandit_b2.png","70","70","test","1","67","67","3","",""
"null","362126","pSARL_v2","pSARL_v20phma5u6","6107acfe97c63575a2344e36","freq_resp","img/orange_2bandit_b.png","70","70","test","","","","3","",""
"null","362286","pSARL_v2","pSARL_v20phma5u6","6107acfe97c63575a2344e36","fixation","img/fixation.png","null","","test","","","","","",""
"315","362605","pSARL_v2","pSARL_v20phma5u6","6107acfe97c63575a2344e36","freq","img/orange_2bandit_b2.png","70","70","test","1","68","68","3","",""
"null","363096","pSARL_v2","pSARL_v20phma5u6","6107acfe97c63575a2344e36","freq_resp","img/orange_2bandit_b.png","70","70","test","","","","3","",""
"null","363252","pSARL_v2","pSARL_v20phma5u6","6107acfe97c63575a2344e36","fixation","img/fixation.png","null","","test","","","","","",""
"324.0000000000582","363580","pSARL_v2","pSARL_v20phma5u6","6107acfe97c63575a2344e36","freq","img/orange_2bandit_b2.png","70","70","test","1","69","69","3","",""
"null","364060","pSARL_v2","pSARL_v20phma5u6","6107acfe97c63575a2344e36","freq_resp","img/orange_2bandit_b.png","70","70","test","","","","3","",""
"null","364216","pSARL_v2","pSARL_v20phma5u6","6107acfe97c63575a2344e36","fixation","img/fixation.png","null","","test","","","","","",""
"328","364548","pSARL_v2","pSARL_v20phma5u6","6107acfe97c63575a2344e36","freq","img/orange_2bandit_b2.png","70","70","test","1","70","70","3","",""
"null","365026","pSARL_v2","pSARL_v20phma5u6","6107acfe97c63575a2344e36","freq_resp","img/orange_2bandit_b.png","70","70","test","","","","3","",""
"null","365182","pSARL_v2","pSARL_v20phma5u6","6107acfe97c63575a2344e36","fixation","img/fixation.png","null","","test","","","","","",""
"278","365463","pSARL_v2","pSARL_v20phma5u6","6107acfe97c63575a2344e36","freq","img/orange_2bandit_b2.png","70","70","test","1","71","71","3","",""
"null","365990","pSARL_v2","pSARL_v20phma5u6","6107acfe97c63575a2344e36","freq_resp","img/orange_2bandit_b.png","70","70","test","","","","3","",""
"null","366145","pSARL_v2","pSARL_v20phma5u6","6107acfe97c63575a2344e36","fixation","img/fixation.png","null","","test","","","","","",""
"567","366716","pSARL_v2","pSARL_v20phma5u6","6107acfe97c63575a2344e36","reward","img/slot.png","74","","test","","","","","",""
"null","367471","pSARL_v2","pSARL_v20phma5u6","6107acfe97c63575a2344e36","points","<div class=""verylowPoints""> -7 </div>","null","na","test","","","","3","-7","2"
"457","367932","pSARL_v2","pSARL_v20phma5u6","6107acfe97c63575a2344e36","freq","img/orange_2bandit_b2.png","70","70","test","1","72","72","4","",""
"null","368280","pSARL_v2","pSARL_v20phma5u6","6107acfe97c63575a2344e36","freq_resp","img/orange_2bandit_b.png","70","70","test","","","","4","",""
"null","368435","pSARL_v2","pSARL_v20phma5u6","6107acfe97c63575a2344e36","fixation","img/fixation.png","null","","test","","","","","",""
"275","368716","pSARL_v2","pSARL_v20phma5u6","6107acfe97c63575a2344e36","freq","img/orange_2bandit_b2.png","70","70","test","1","73","73","4","",""
"null","369246","pSARL_v2","pSARL_v20phma5u6","6107acfe97c63575a2344e36","freq_resp","img/orange_2bandit_b.png","70","70","test","","","","4","",""
"null","369402","pSARL_v2","pSARL_v20phma5u6","6107acfe97c63575a2344e36","fixation","img/fixation.png","null","","test","","","","","",""
"274","369679","pSARL_v2","pSARL_v20phma5u6","6107acfe97c63575a2344e36","freq","img/orange_2bandit_b2.png","70","70","test","1","74","74","4","",""
"null","370211","pSARL_v2","pSARL_v20phma5u6","6107acfe97c63575a2344e36","freq_resp","img/orange_2bandit_b.png","70","70","test","","","","4","",""
"null","370367","pSARL_v2","pSARL_v20phma5u6","6107acfe97c63575a2344e36","fixation","img/fixation.png","null","","test","","","","","",""
"128.9999999999418","370501","pSARL_v2","pSARL_v20phma5u6","6107acfe97c63575a2344e36","freq","img/orange_2bandit_b2.png","70","70","test","1","75","75","4","",""
"null","371177","pSARL_v2","pSARL_v20phma5u6","6107acfe97c63575a2344e36","freq_resp","img/orange_2bandit_b.png","70","70","test","","","","4","",""
"null","371333","pSARL_v2","pSARL_v20phma5u6","6107acfe97c63575a2344e36","fixation","img/fixation.png","null","","test","","","","","",""
"310","371646","pSARL_v2","pSARL_v20phma5u6","6107acfe97c63575a2344e36","freq","img/orange_2bandit_b2.png","70","70","test","1","76","76","4","",""
"null","372142","pSARL_v2","pSARL_v20phma5u6","6107acfe97c63575a2344e36","freq_resp","img/orange_2bandit_b.png","70","70","test","","","","4","",""
"null","372298","pSARL_v2","pSARL_v20phma5u6","6107acfe97c63575a2344e36","fixation","img/fixation.png","null","","test","","","","","",""
"297","372599","pSARL_v2","pSARL_v20phma5u6","6107acfe97c63575a2344e36","freq","img/orange_2bandit_b2.png","70","70","test","1","77","77","4","",""
"null","373107","pSARL_v2","pSARL_v20phma5u6","6107acfe97c63575a2344e36","freq_resp","img/orange_2bandit_b.png","70","70","test","","","","4","",""
"null","373262","pSARL_v2","pSARL_v20phma5u6","6107acfe97c63575a2344e36","fixation","img/fixation.png","null","","test","","","","","",""
"312","373578","pSARL_v2","pSARL_v20phma5u6","6107acfe97c63575a2344e36","freq","img/orange_2bandit_b2.png","70","70","test","1","78","78","4","",""
"null","374071","pSARL_v2","pSARL_v20phma5u6","6107acfe97c63575a2344e36","freq_resp","img/orange_2bandit_b.png","70","70","test","","","","4","",""
"null","374226","pSARL_v2","pSARL_v20phma5u6","6107acfe97c63575a2344e36","fixation","img/fixation.png","null","","test","","","","","",""
"272","374502","pSARL_v2","pSARL_v20phma5u6","6107acfe97c63575a2344e36","freq","img/orange_2bandit_b2.png","70","70","test","1","79","79","4","",""
"null","375035","pSARL_v2","pSARL_v20phma5u6","6107acfe97c63575a2344e36","freq_resp","img/orange_2bandit_b.png","70","70","test","","","","4","",""
"null","375191","pSARL_v2","pSARL_v20phma5u6","6107acfe97c63575a2344e36","fixation","img/fixation.png","null","","test","","","","","",""
"517","375711","pSARL_v2","pSARL_v20phma5u6","6107acfe97c63575a2344e36","infreq","img/green_2bandit_b2.png","68","68","test","1","80","80","4","",""
"null","376001","pSARL_v2","pSARL_v20phma5u6","6107acfe97c63575a2344e36","infreq_resp","img/green_2bandit_b.png","68","68","test","","","","4","",""
"null","376156","pSARL_v2","pSARL_v20phma5u6","6107acfe97c63575a2344e36","fixation","img/fixation.png","null","","test","","","","","",""
"456.0000000000582","376616","pSARL_v2","pSARL_v20phma5u6","6107acfe97c63575a2344e36","freq","img/orange_2bandit_b2.png","70","70","test","1","81","81","4","",""
"null","376965","pSARL_v2","pSARL_v20phma5u6","6107acfe97c63575a2344e36","freq_resp","img/orange_2bandit_b.png","70","70","test","","","","4","",""
"null","377120","pSARL_v2","pSARL_v20phma5u6","6107acfe97c63575a2344e36","fixation","img/fixation.png","null","","test","","","","","",""
"327","377451","pSARL_v2","pSARL_v20phma5u6","6107acfe97c63575a2344e36","freq","img/orange_2bandit_b2.png","70","70","test","1","82","82","4","",""
"null","377929","pSARL_v2","pSARL_v20phma5u6","6107acfe97c63575a2344e36","freq_resp","img/orange_2bandit_b.png","70","70","test","","","","4","",""
"null","378084","pSARL_v2","pSARL_v20phma5u6","6107acfe97c63575a2344e36","fixation","img/fixation.png","null","","test","","","","","",""
"124","378214","pSARL_v2","pSARL_v20phma5u6","6107acfe97c63575a2344e36","freq","img/orange_2bandit_b2.png","70","70","test","1","83","83","4","",""
"null","378895","pSARL_v2","pSARL_v20phma5u6","6107acfe97c63575a2344e36","freq_resp","img/orange_2bandit_b.png","70","70","test","","","","4","",""
"null","379051","pSARL_v2","pSARL_v20phma5u6","6107acfe97c63575a2344e36","fixation","img/fixation.png","null","","test","","","","","",""
"291.9999999999418","379348","pSARL_v2","pSARL_v20phma5u6","6107acfe97c63575a2344e36","freq","img/orange_2bandit_b2.png","70","70","test","1","84","84","4","",""
"null","379861","pSARL_v2","pSARL_v20phma5u6","6107acfe97c63575a2344e36","freq_resp","img/orange_2bandit_b.png","70","70","test","","","","4","",""
"null","380017","pSARL_v2","pSARL_v20phma5u6","6107acfe97c63575a2344e36","fixation","img/fixation.png","null","","test","","","","","",""
"156","380178","pSARL_v2","pSARL_v20phma5u6","6107acfe97c63575a2344e36","freq","img/orange_2bandit_b2.png","70","70","test","1","85","85","4","",""
"null","380828","pSARL_v2","pSARL_v20phma5u6","6107acfe97c63575a2344e36","freq_resp","img/orange_2bandit_b.png","70","70","test","","","","4","",""
"null","380983","pSARL_v2","pSARL_v20phma5u6","6107acfe97c63575a2344e36","fixation","img/fixation.png","null","","test","","","","","",""
"317","381304","pSARL_v2","pSARL_v20phma5u6","6107acfe97c63575a2344e36","freq","img/orange_2bandit_b2.png","70","70","test","1","86","86","4","",""
"null","381792","pSARL_v2","pSARL_v20phma5u6","6107acfe97c63575a2344e36","freq_resp","img/orange_2bandit_b.png","70","70","test","","","","4","",""
"null","381948","pSARL_v2","pSARL_v20phma5u6","6107acfe97c63575a2344e36","fixation","img/fixation.png","null","","test","","","","","",""
"258","382210","pSARL_v2","pSARL_v20phma5u6","6107acfe97c63575a2344e36","infreq","img/green_2bandit_b2.png","70","68","test","0","87","87","4","",""
"null","382758","pSARL_v2","pSARL_v20phma5u6","6107acfe97c63575a2344e36","infreq_resp","img/green_2bandit_b.png","70","68","test","","","","4","",""
"null","382913","pSARL_v2","pSARL_v20phma5u6","6107acfe97c63575a2344e36","fixation","img/fixation.png","null","","test","","","","","",""
"599","383517","pSARL_v2","pSARL_v20phma5u6","6107acfe97c63575a2344e36","freq","img/orange_2bandit_b2.png","70","70","test","1","88","88","4","",""
"null","383724","pSARL_v2","pSARL_v20phma5u6","6107acfe97c63575a2344e36","freq_resp","img/orange_2bandit_b.png","70","70","test","","","","4","",""
"null","383879","pSARL_v2","pSARL_v20phma5u6","6107acfe97c63575a2344e36","fixation","img/fixation.png","null","","test","","","","","",""
"445","384329","pSARL_v2","pSARL_v20phma5u6","6107acfe97c63575a2344e36","freq","img/orange_2bandit_b2.png","70","70","test","1","89","89","4","",""
"null","384690","pSARL_v2","pSARL_v20phma5u6","6107acfe97c63575a2344e36","freq_resp","img/orange_2bandit_b.png","70","70","test","","","","4","",""
"null","384846","pSARL_v2","pSARL_v20phma5u6","6107acfe97c63575a2344e36","fixation","img/fixation.png","null","","test","","","","","",""
"343","385194","pSARL_v2","pSARL_v20phma5u6","6107acfe97c63575a2344e36","freq","img/orange_2bandit_b2.png","70","70","test","1","90","90","4","",""
"null","385656","pSARL_v2","pSARL_v20phma5u6","6107acfe97c63575a2344e36","freq_resp","img/orange_2bandit_b.png","70","70","test","","","","4","",""
"null","385812","pSARL_v2","pSARL_v20phma5u6","6107acfe97c63575a2344e36","fixation","img/fixation.png","null","","test","","","","","",""
"485","386300","pSARL_v2","pSARL_v20phma5u6","6107acfe97c63575a2344e36","reward","img/slot.png","74","","test","","","","","",""
"null","387055","pSARL_v2","pSARL_v20phma5u6","6107acfe97c63575a2344e36","points","<div class=""verylowPoints""> -3 </div>","null","na","test","","","","4","-3","3"
"635","387693","pSARL_v2","pSARL_v20phma5u6","6107acfe97c63575a2344e36","freq","img/orange_2bandit_b2.png","70","70","test","1","91","91","5","",""
"null","387863","pSARL_v2","pSARL_v20phma5u6","6107acfe97c63575a2344e36","freq_resp","img/orange_2bandit_b.png","70","70","test","","","","5","",""
"null","388018","pSARL_v2","pSARL_v20phma5u6","6107acfe97c63575a2344e36","fixation","img/fixation.png","null","","test","","","","","",""
"323","388345","pSARL_v2","pSARL_v20phma5u6","6107acfe97c63575a2344e36","freq","img/orange_2bandit_b2.png","70","70","test","1","92","92","5","",""
"null","388827","pSARL_v2","pSARL_v20phma5u6","6107acfe97c63575a2344e36","freq_resp","img/orange_2bandit_b.png","70","70","test","","","","5","",""
"null","388983","pSARL_v2","pSARL_v20phma5u6","6107acfe97c63575a2344e36","fixation","img/fixation.png","null","","test","","","","","",""
"418","389405","pSARL_v2","pSARL_v20phma5u6","6107acfe97c63575a2344e36","freq","img/orange_2bandit_b2.png","70","70","test","1","93","93","5","",""
"null","389793","pSARL_v2","pSARL_v20phma5u6","6107acfe97c63575a2344e36","freq_resp","img/orange_2bandit_b.png","70","70","test","","","","5","",""
"null","389951","pSARL_v2","pSARL_v20phma5u6","6107acfe97c63575a2344e36","fixation","img/fixation.png","null","","test","","","","","",""
"767","390723","pSARL_v2","pSARL_v20phma5u6","6107acfe97c63575a2344e36","freq","img/orange_2bandit_b2.png","70","70","test","1","94","94","5","",""
"null","390762","pSARL_v2","pSARL_v20phma5u6","6107acfe97c63575a2344e36","freq_resp","img/orange_2bandit_b.png","70","70","test","","","","5","",""
"null","390918","pSARL_v2","pSARL_v20phma5u6","6107acfe97c63575a2344e36","fixation","img/fixation.png","null","","test","","","","","",""
"356","391278","pSARL_v2","pSARL_v20phma5u6","6107acfe97c63575a2344e36","freq","img/orange_2bandit_b2.png","70","70","test","1","95","95","5","",""
"null","391727","pSARL_v2","pSARL_v20phma5u6","6107acfe97c63575a2344e36","freq_resp","img/orange_2bandit_b.png","70","70","test","","","","5","",""
"null","391883","pSARL_v2","pSARL_v20phma5u6","6107acfe97c63575a2344e36","fixation","img/fixation.png","null","","test","","","","","",""
"283","392171","pSARL_v2","pSARL_v20phma5u6","6107acfe97c63575a2344e36","freq","img/orange_2bandit_b2.png","70","70","test","1","96","96","5","",""
"null","392693","pSARL_v2","pSARL_v20phma5u6","6107acfe97c63575a2344e36","freq_resp","img/orange_2bandit_b.png","70","70","test","","","","5","",""
"null","392850","pSARL_v2","pSARL_v20phma5u6","6107acfe97c63575a2344e36","fixation","img/fixation.png","null","","test","","","","","",""
"291.9999999999418","393147","pSARL_v2","pSARL_v20phma5u6","6107acfe97c63575a2344e36","freq","img/orange_2bandit_b2.png","70","70","test","1","97","97","5","",""
"null","393659","pSARL_v2","pSARL_v20phma5u6","6107acfe97c63575a2344e36","freq_resp","img/orange_2bandit_b.png","70","70","test","","","","5","",""
"null","393814","pSARL_v2","pSARL_v20phma5u6","6107acfe97c63575a2344e36","fixation","img/fixation.png","null","","test","","","","","",""
"271.9999999999418","394091","pSARL_v2","pSARL_v20phma5u6","6107acfe97c63575a2344e36","freq","img/orange_2bandit_b2.png","70","70","test","1","98","98","5","",""
"null","394624","pSARL_v2","pSARL_v20phma5u6","6107acfe97c63575a2344e36","freq_resp","img/orange_2bandit_b.png","70","70","test","","","","5","",""
"null","394780","pSARL_v2","pSARL_v20phma5u6","6107acfe97c63575a2344e36","fixation","img/fixation.png","null","","test","","","","","",""
"216","395000","pSARL_v2","pSARL_v20phma5u6","6107acfe97c63575a2344e36","freq","img/orange_2bandit_b2.png","70","70","test","1","99","99","5","",""
"null","395589","pSARL_v2","pSARL_v20phma5u6","6107acfe97c63575a2344e36","freq_resp","img/orange_2bandit_b.png","70","70","test","","","","5","",""
"null","395745","pSARL_v2","pSARL_v20phma5u6","6107acfe97c63575a2344e36","fixation","img/fixation.png","null","","test","","","","","",""
"255","396005","pSARL_v2","pSARL_v20phma5u6","6107acfe97c63575a2344e36","freq","img/orange_2bandit_b2.png","70","70","test","1","100","100","5","",""
"null","396555","pSARL_v2","pSARL_v20phma5u6","6107acfe97c63575a2344e36","freq_resp","img/orange_2bandit_b.png","70","70","test","","","","5","",""
"null","396709","pSARL_v2","pSARL_v20phma5u6","6107acfe97c63575a2344e36","fixation","img/fixation.png","null","","test","","","","","",""
"305","397018","pSARL_v2","pSARL_v20phma5u6","6107acfe97c63575a2344e36","freq","img/orange_2bandit_b2.png","70","70","test","1","101","101","5","",""
"null","397519","pSARL_v2","pSARL_v20phma5u6","6107acfe97c63575a2344e36","freq_resp","img/orange_2bandit_b.png","70","70","test","","","","5","",""
"null","397675","pSARL_v2","pSARL_v20phma5u6","6107acfe97c63575a2344e36","fixation","img/fixation.png","null","","test","","","","","",""
"334","398013","pSARL_v2","pSARL_v20phma5u6","6107acfe97c63575a2344e36","freq","img/orange_2bandit_b2.png","70","70","test","1","102","102","5","",""
"null","398484","pSARL_v2","pSARL_v20phma5u6","6107acfe97c63575a2344e36","freq_resp","img/orange_2bandit_b.png","70","70","test","","","","5","",""
"null","398639","pSARL_v2","pSARL_v20phma5u6","6107acfe97c63575a2344e36","fixation","img/fixation.png","null","","test","","","","","",""
"484.0000000000582","399127","pSARL_v2","pSARL_v20phma5u6","6107acfe97c63575a2344e36","infreq","img/green_2bandit_b2.png","68","68","test","1","103","103","5","",""
"null","399448","pSARL_v2","pSARL_v20phma5u6","6107acfe97c63575a2344e36","infreq_resp","img/green_2bandit_b.png","68","68","test","","","","5","",""
"null","399603","pSARL_v2","pSARL_v20phma5u6","6107acfe97c63575a2344e36","fixation","img/fixation.png","null","","test","","","","","",""
"263","399870","pSARL_v2","pSARL_v20phma5u6","6107acfe97c63575a2344e36","freq","img/orange_2bandit_b2.png","70","70","test","1","104","104","5","",""
"null","400414","pSARL_v2","pSARL_v20phma5u6","6107acfe97c63575a2344e36","freq_resp","img/orange_2bandit_b.png","70","70","test","","","","5","",""
"null","400570","pSARL_v2","pSARL_v20phma5u6","6107acfe97c63575a2344e36","fixation","img/fixation.png","null","","test","","","","","",""
"260","400834","pSARL_v2","pSARL_v20phma5u6","6107acfe97c63575a2344e36","freq","img/orange_2bandit_b2.png","70","70","test","1","105","105","5","",""
"null","401380","pSARL_v2","pSARL_v20phma5u6","6107acfe97c63575a2344e36","freq_resp","img/orange_2bandit_b.png","70","70","test","","","","5","",""
"null","401535","pSARL_v2","pSARL_v20phma5u6","6107acfe97c63575a2344e36","fixation","img/fixation.png","null","","test","","","","","",""
"156","401696","pSARL_v2","pSARL_v20phma5u6","6107acfe97c63575a2344e36","freq","img/orange_2bandit_b2.png","70","70","test","1","106","106","5","",""
"null","402347","pSARL_v2","pSARL_v20phma5u6","6107acfe97c63575a2344e36","freq_resp","img/orange_2bandit_b.png","70","70","test","","","","5","",""
"null","402502","pSARL_v2","pSARL_v20phma5u6","6107acfe97c63575a2344e36","fixation","img/fixation.png","null","","test","","","","","",""
"29","402536","pSARL_v2","pSARL_v20phma5u6","6107acfe97c63575a2344e36","freq","img/orange_2bandit_b2.png","70","70","test","1","107","107","5","",""
"null","403312","pSARL_v2","pSARL_v20phma5u6","6107acfe97c63575a2344e36","freq_resp","img/orange_2bandit_b.png","70","70","test","","","","5","",""
"null","403468","pSARL_v2","pSARL_v20phma5u6","6107acfe97c63575a2344e36","fixation","img/fixation.png","null","","test","","","","","",""
"null","404274","pSARL_v2","pSARL_v20phma5u6","6107acfe97c63575a2344e36","freq","img/orange_2bandit_b2.png","null","70","test","0","108","108","5","",""
"null","404429","pSARL_v2","pSARL_v20phma5u6","6107acfe97c63575a2344e36","fixation","img/fixation.png","null","","test","","","","","",""
"null","405233","pSARL_v2","pSARL_v20phma5u6","6107acfe97c63575a2344e36","freq","img/orange_2bandit_b2.png","null","70","test","0","109","109","5","",""
"null","405388","pSARL_v2","pSARL_v20phma5u6","6107acfe97c63575a2344e36","fixation","img/fixation.png","null","","test","","","","","",""
"436","405828","pSARL_v2","pSARL_v20phma5u6","6107acfe97c63575a2344e36","freq","img/orange_2bandit_b2.png","70","70","test","1","110","110","5","",""
"null","406198","pSARL_v2","pSARL_v20phma5u6","6107acfe97c63575a2344e36","freq_resp","img/orange_2bandit_b.png","70","70","test","","","","5","",""
"null","406354","pSARL_v2","pSARL_v20phma5u6","6107acfe97c63575a2344e36","fixation","img/fixation.png","null","","test","","","","","",""
"495","406853","pSARL_v2","pSARL_v20phma5u6","6107acfe97c63575a2344e36","infreq","img/green_2bandit_b2.png","68","68","test","1","111","111","5","",""
"null","407165","pSARL_v2","pSARL_v20phma5u6","6107acfe97c63575a2344e36","infreq_resp","img/green_2bandit_b.png","68","68","test","","","","5","",""
"null","407319","pSARL_v2","pSARL_v20phma5u6","6107acfe97c63575a2344e36","fixation","img/fixation.png","null","","test","","","","","",""
"319","407643","pSARL_v2","pSARL_v20phma5u6","6107acfe97c63575a2344e36","freq","img/orange_2bandit_b2.png","70","70","test","1","112","112","5","",""
"null","408129","pSARL_v2","pSARL_v20phma5u6","6107acfe97c63575a2344e36","freq_resp","img/orange_2bandit_b.png","70","70","test","","","","5","",""
"null","408285","pSARL_v2","pSARL_v20phma5u6","6107acfe97c63575a2344e36","fixation","img/fixation.png","null","","test","","","","","",""
"119.99999999994179","408409","pSARL_v2","pSARL_v20phma5u6","6107acfe97c63575a2344e36","freq","img/orange_2bandit_b2.png","70","70","test","1","113","113","5","",""
"null","409092","pSARL_v2","pSARL_v20phma5u6","6107acfe97c63575a2344e36","freq_resp","img/orange_2bandit_b.png","70","70","test","","","","5","",""
"null","409247","pSARL_v2","pSARL_v20phma5u6","6107acfe97c63575a2344e36","fixation","img/fixation.png","null","","test","","","","","",""
"261","409513","pSARL_v2","pSARL_v20phma5u6","6107acfe97c63575a2344e36","freq","img/orange_2bandit_b2.png","70","70","test","1","114","114","5","",""
"null","410058","pSARL_v2","pSARL_v20phma5u6","6107acfe97c63575a2344e36","freq_resp","img/orange_2bandit_b.png","70","70","test","","","","5","",""
"null","410213","pSARL_v2","pSARL_v20phma5u6","6107acfe97c63575a2344e36","fixation","img/fixation.png","null","","test","","","","","",""
"280.9999999999418","410498","pSARL_v2","pSARL_v20phma5u6","6107acfe97c63575a2344e36","freq","img/orange_2bandit_b2.png","70","70","test","1","115","115","5","",""
"null","411023","pSARL_v2","pSARL_v20phma5u6","6107acfe97c63575a2344e36","freq_resp","img/orange_2bandit_b.png","70","70","test","","","","5","",""
"null","411179","pSARL_v2","pSARL_v20phma5u6","6107acfe97c63575a2344e36","fixation","img/fixation.png","null","","test","","","","","",""
"389","411573","pSARL_v2","pSARL_v20phma5u6","6107acfe97c63575a2344e36","reward","img/slot.png","74","","test","","","","","",""
"null","412329","pSARL_v2","pSARL_v20phma5u6","6107acfe97c63575a2344e36","points","<div class=""veryhighPoints""> +1 </div>","null","na","test","","","","5","1","4"
"497.0000000000582","412830","pSARL_v2","pSARL_v20phma5u6","6107acfe97c63575a2344e36","freq","img/orange_2bandit_b2.png","70","70","test","1","116","116","6","",""
"null","413138","pSARL_v2","pSARL_v20phma5u6","6107acfe97c63575a2344e36","freq_resp","img/orange_2bandit_b.png","70","70","test","","","","6","",""
"null","413294","pSARL_v2","pSARL_v20phma5u6","6107acfe97c63575a2344e36","fixation","img/fixation.png","null","","test","","","","","",""
"289","413587","pSARL_v2","pSARL_v20phma5u6","6107acfe97c63575a2344e36","freq","img/orange_2bandit_b2.png","70","70","test","1","117","117","6","",""
"null","414104","pSARL_v2","pSARL_v20phma5u6","6107acfe97c63575a2344e36","freq_resp","img/orange_2bandit_b.png","70","70","test","","","","6","",""
"null","414259","pSARL_v2","pSARL_v20phma5u6","6107acfe97c63575a2344e36","fixation","img/fixation.png","null","","test","","","","","",""
"164","414426","pSARL_v2","pSARL_v20phma5u6","6107acfe97c63575a2344e36","freq","img/orange_2bandit_b2.png","70","70","test","1","118","118","6","",""
"null","415068","pSARL_v2","pSARL_v20phma5u6","6107acfe97c63575a2344e36","freq_resp","img/orange_2bandit_b.png","70","70","test","","","","6","",""
"null","415224","pSARL_v2","pSARL_v20phma5u6","6107acfe97c63575a2344e36","fixation","img/fixation.png","null","","test","","","","","",""
"106","415334","pSARL_v2","pSARL_v20phma5u6","6107acfe97c63575a2344e36","freq","img/orange_2bandit_b2.png","70","70","test","1","119","119","6","",""
"null","416033","pSARL_v2","pSARL_v20phma5u6","6107acfe97c63575a2344e36","freq_resp","img/orange_2bandit_b.png","70","70","test","","","","6","",""
"null","416188","pSARL_v2","pSARL_v20phma5u6","6107acfe97c63575a2344e36","fixation","img/fixation.png","null","","test","","","","","",""
"120","416311","pSARL_v2","pSARL_v20phma5u6","6107acfe97c63575a2344e36","freq","img/orange_2bandit_b2.png","70","70","test","1","120","120","6","",""
"null","416996","pSARL_v2","pSARL_v20phma5u6","6107acfe97c63575a2344e36","freq_resp","img/orange_2bandit_b.png","70","70","test","","","","6","",""
"null","417151","pSARL_v2","pSARL_v20phma5u6","6107acfe97c63575a2344e36","fixation","img/fixation.png","null","","test","","","","","",""
"143","417298","pSARL_v2","pSARL_v20phma5u6","6107acfe97c63575a2344e36","freq","img/orange_2bandit_b2.png","70","70","test","1","121","121","6","",""
"null","417961","pSARL_v2","pSARL_v20phma5u6","6107acfe97c63575a2344e36","freq_resp","img/orange_2bandit_b.png","70","70","test","","","","6","",""
"null","418118","pSARL_v2","pSARL_v20phma5u6","6107acfe97c63575a2344e36","fixation","img/fixation.png","null","","test","","","","","",""
"172.0000000000582","418294","pSARL_v2","pSARL_v20phma5u6","6107acfe97c63575a2344e36","freq","img/orange_2bandit_b2.png","70","70","test","1","122","122","6","",""
"null","418926","pSARL_v2","pSARL_v20phma5u6","6107acfe97c63575a2344e36","freq_resp","img/orange_2bandit_b.png","70","70","test","","","","6","",""
"null","419082","pSARL_v2","pSARL_v20phma5u6","6107acfe97c63575a2344e36","fixation","img/fixation.png","null","","test","","","","","",""
"474","419560","pSARL_v2","pSARL_v20phma5u6","6107acfe97c63575a2344e36","freq","img/orange_2bandit_b2.png","70","70","test","1","123","123","6","",""
"null","419891","pSARL_v2","pSARL_v20phma5u6","6107acfe97c63575a2344e36","freq_resp","img/orange_2bandit_b.png","70","70","test","","","","6","",""
"null","420047","pSARL_v2","pSARL_v20phma5u6","6107acfe97c63575a2344e36","fixation","img/fixation.png","null","","test","","","","","",""
"351","420403","pSARL_v2","pSARL_v20phma5u6","6107acfe97c63575a2344e36","freq","img/orange_2bandit_b2.png","70","70","test","1","124","124","6","",""
"null","420856","pSARL_v2","pSARL_v20phma5u6","6107acfe97c63575a2344e36","freq_resp","img/orange_2bandit_b.png","70","70","test","","","","6","",""
"null","421012","pSARL_v2","pSARL_v20phma5u6","6107acfe97c63575a2344e36","fixation","img/fixation.png","null","","test","","","","","",""
"325","421341","pSARL_v2","pSARL_v20phma5u6","6107acfe97c63575a2344e36","freq","img/orange_2bandit_b2.png","70","70","test","1","125","125","6","",""
"null","421821","pSARL_v2","pSARL_v20phma5u6","6107acfe97c63575a2344e36","freq_resp","img/orange_2bandit_b.png","70","70","test","","","","6","",""
"null","421976","pSARL_v2","pSARL_v20phma5u6","6107acfe97c63575a2344e36","fixation","img/fixation.png","null","","test","","","","","",""
"357","422338","pSARL_v2","pSARL_v20phma5u6","6107acfe97c63575a2344e36","freq","img/orange_2bandit_b2.png","70","70","test","1","126","126","6","",""
"null","422786","pSARL_v2","pSARL_v20phma5u6","6107acfe97c63575a2344e36","freq_resp","img/orange_2bandit_b.png","70","70","test","","","","6","",""
"null","422942","pSARL_v2","pSARL_v20phma5u6","6107acfe97c63575a2344e36","fixation","img/fixation.png","null","","test","","","","","",""
"280","423226","pSARL_v2","pSARL_v20phma5u6","6107acfe97c63575a2344e36","freq","img/orange_2bandit_b2.png","70","70","test","1","127","127","6","",""
"null","423752","pSARL_v2","pSARL_v20phma5u6","6107acfe97c63575a2344e36","freq_resp","img/orange_2bandit_b.png","70","70","test","","","","6","",""
"null","423907","pSARL_v2","pSARL_v20phma5u6","6107acfe97c63575a2344e36","fixation","img/fixation.png","null","","test","","","","","",""
"301","424211","pSARL_v2","pSARL_v20phma5u6","6107acfe97c63575a2344e36","freq","img/orange_2bandit_b2.png","70","70","test","1","128","128","6","",""
"null","424716","pSARL_v2","pSARL_v20phma5u6","6107acfe97c63575a2344e36","freq_resp","img/orange_2bandit_b.png","70","70","test","","","","6","",""
"null","424871","pSARL_v2","pSARL_v20phma5u6","6107acfe97c63575a2344e36","fixation","img/fixation.png","null","","test","","","","","",""
"185","425060","pSARL_v2","pSARL_v20phma5u6","6107acfe97c63575a2344e36","freq","img/orange_2bandit_b2.png","70","70","test","1","129","129","6","",""
"null","425681","pSARL_v2","pSARL_v20phma5u6","6107acfe97c63575a2344e36","freq_resp","img/orange_2bandit_b.png","70","70","test","","","","6","",""
"null","425837","pSARL_v2","pSARL_v20phma5u6","6107acfe97c63575a2344e36","fixation","img/fixation.png","null","","test","","","","","",""
"134","425978","pSARL_v2","pSARL_v20phma5u6","6107acfe97c63575a2344e36","infreq","img/green_2bandit_b2.png","70","68","test","0","130","130","6","",""
"null","426650","pSARL_v2","pSARL_v20phma5u6","6107acfe97c63575a2344e36","infreq_resp","img/green_2bandit_b.png","70","68","test","","","","6","",""
"null","426806","pSARL_v2","pSARL_v20phma5u6","6107acfe97c63575a2344e36","fixation","img/fixation.png","null","","test","","","","","",""
"57","426867","pSARL_v2","pSARL_v20phma5u6","6107acfe97c63575a2344e36","freq","img/orange_2bandit_b2.png","68","70","test","0","131","131","6","",""
"null","427615","pSARL_v2","pSARL_v20phma5u6","6107acfe97c63575a2344e36","freq_resp","img/orange_2bandit_b.png","68","70","test","","","","6","",""
"null","427771","pSARL_v2","pSARL_v20phma5u6","6107acfe97c63575a2344e36","fixation","img/fixation.png","null","","test","","","","","",""
"541","428317","pSARL_v2","pSARL_v20phma5u6","6107acfe97c63575a2344e36","freq","img/orange_2bandit_b2.png","70","70","test","1","132","132","6","",""
"null","428582","pSARL_v2","pSARL_v20phma5u6","6107acfe97c63575a2344e36","freq_resp","img/orange_2bandit_b.png","70","70","test","","","","6","",""
"null","428737","pSARL_v2","pSARL_v20phma5u6","6107acfe97c63575a2344e36","fixation","img/fixation.png","null","","test","","","","","",""
"287.9999999999418","429029","pSARL_v2","pSARL_v20phma5u6","6107acfe97c63575a2344e36","infreq","img/green_2bandit_b2.png","70","68","test","0","133","133","6","",""
"null","429546","pSARL_v2","pSARL_v20phma5u6","6107acfe97c63575a2344e36","infreq_resp","img/green_2bandit_b.png","70","68","test","","","","6","",""
"null","429702","pSARL_v2","pSARL_v20phma5u6","6107acfe97c63575a2344e36","fixation","img/fixation.png","null","","test","","","","","",""
"500","430206","pSARL_v2","pSARL_v20phma5u6","6107acfe97c63575a2344e36","freq","img/orange_2bandit_b2.png","70","70","test","1","134","134","6","",""
"null","430512","pSARL_v2","pSARL_v20phma5u6","6107acfe97c63575a2344e36","freq_resp","img/orange_2bandit_b.png","70","70","test","","","","6","",""
"null","430667","pSARL_v2","pSARL_v20phma5u6","6107acfe97c63575a2344e36","fixation","img/fixation.png","null","","test","","","","","",""
"484","431156","pSARL_v2","pSARL_v20phma5u6","6107acfe97c63575a2344e36","freq","img/orange_2bandit_b2.png","70","70","test","1","135","135","6","",""
"null","431478","pSARL_v2","pSARL_v20phma5u6","6107acfe97c63575a2344e36","freq_resp","img/orange_2bandit_b.png","70","70","test","","","","6","",""
"null","431632","pSARL_v2","pSARL_v20phma5u6","6107acfe97c63575a2344e36","fixation","img/fixation.png","null","","test","","","","","",""
"550","432185","pSARL_v2","pSARL_v20phma5u6","6107acfe97c63575a2344e36","reward","img/slot.png","74","","test","","","","","",""
"null","432941","pSARL_v2","pSARL_v20phma5u6","6107acfe97c63575a2344e36","points","<div class=""verylowPoints""> -7 </div>","null","na","test","","","","6","-7","5"
"505","433451","pSARL_v2","pSARL_v20phma5u6","6107acfe97c63575a2344e36","freq","img/orange_2bandit_b2.png","70","70","test","1","136","136","7","",""
"null","433752","pSARL_v2","pSARL_v20phma5u6","6107acfe97c63575a2344e36","freq_resp","img/orange_2bandit_b.png","70","70","test","","","","7","",""
"null","433907","pSARL_v2","pSARL_v20phma5u6","6107acfe97c63575a2344e36","fixation","img/fixation.png","null","","test","","","","","",""
"285","434196","pSARL_v2","pSARL_v20phma5u6","6107acfe97c63575a2344e36","infreq","img/green_2bandit_b2.png","70","68","test","0","137","137","7","",""
"null","434716","pSARL_v2","pSARL_v20phma5u6","6107acfe97c63575a2344e36","infreq_resp","img/green_2bandit_b.png","70","68","test","","","","7","",""
"null","434871","pSARL_v2","pSARL_v20phma5u6","6107acfe97c63575a2344e36","fixation","img/fixation.png","null","","test","","","","","",""
"20","434896","pSARL_v2","pSARL_v20phma5u6","6107acfe97c63575a2344e36","freq","img/orange_2bandit_b2.png","68","70","test","0","138","138","7","",""
"null","435681","pSARL_v2","pSARL_v20phma5u6","6107acfe97c63575a2344e36","freq_resp","img/orange_2bandit_b.png","68","70","test","","","","7","",""
"null","435837","pSARL_v2","pSARL_v20phma5u6","6107acfe97c63575a2344e36","fixation","img/fixation.png","null","","test","","","","","",""
"552","436393","pSARL_v2","pSARL_v20phma5u6","6107acfe97c63575a2344e36","infreq","img/green_2bandit_b2.png","68","68","test","1","139","139","7","",""
"null","436647","pSARL_v2","pSARL_v20phma5u6","6107acfe97c63575a2344e36","infreq_resp","img/green_2bandit_b.png","68","68","test","","","","7","",""
"null","436802","pSARL_v2","pSARL_v20phma5u6","6107acfe97c63575a2344e36","fixation","img/fixation.png","null","","test","","","","","",""
"440","437246","pSARL_v2","pSARL_v20phma5u6","6107acfe97c63575a2344e36","freq","img/orange_2bandit_b2.png","70","70","test","1","140","140","7","",""
"null","437611","pSARL_v2","pSARL_v20phma5u6","6107acfe97c63575a2344e36","freq_resp","img/orange_2bandit_b.png","70","70","test","","","","7","",""
"null","437766","pSARL_v2","pSARL_v20phma5u6","6107acfe97c63575a2344e36","fixation","img/fixation.png","null","","test","","","","","",""
"425.9999999999418","438196","pSARL_v2","pSARL_v20phma5u6","6107acfe97c63575a2344e36","freq","img/orange_2bandit_b2.png","70","70","test","1","141","141","7","",""
"null","438575","pSARL_v2","pSARL_v20phma5u6","6107acfe97c63575a2344e36","freq_resp","img/orange_2bandit_b.png","70","70","test","","","","7","",""
"null","438731","pSARL_v2","pSARL_v20phma5u6","6107acfe97c63575a2344e36","fixation","img/fixation.png","null","","test","","","","","",""
"331","439066","pSARL_v2","pSARL_v20phma5u6","6107acfe97c63575a2344e36","freq","img/orange_2bandit_b2.png","70","70","test","1","142","142","7","",""
"null","439540","pSARL_v2","pSARL_v20phma5u6","6107acfe97c63575a2344e36","freq_resp","img/orange_2bandit_b.png","70","70","test","","","","7","",""
"null","439696","pSARL_v2","pSARL_v20phma5u6","6107acfe97c63575a2344e36","fixation","img/fixation.png","null","","test","","","","","",""
"303.0000000000582","440002","pSARL_v2","pSARL_v20phma5u6","6107acfe97c63575a2344e36","freq","img/orange_2bandit_b2.png","70","70","test","1","143","143","7","",""
"null","440504","pSARL_v2","pSARL_v20phma5u6","6107acfe97c63575a2344e36","freq_resp","img/orange_2bandit_b.png","70","70","test","","","","7","",""
"null","440659","pSARL_v2","pSARL_v20phma5u6","6107acfe97c63575a2344e36","fixation","img/fixation.png","null","","test","","","","","",""
"332","440996","pSARL_v2","pSARL_v20phma5u6","6107acfe97c63575a2344e36","freq","img/orange_2bandit_b2.png","70","70","test","1","144","144","7","",""
"null","441470","pSARL_v2","pSARL_v20phma5u6","6107acfe97c63575a2344e36","freq_resp","img/orange_2bandit_b.png","70","70","test","","","","7","",""
"null","441626","pSARL_v2","pSARL_v20phma5u6","6107acfe97c63575a2344e36","fixation","img/fixation.png","null","","test","","","","","",""
"319","441949","pSARL_v2","pSARL_v20phma5u6","6107acfe97c63575a2344e36","freq","img/orange_2bandit_b2.png","70","70","test","1","145","145","7","",""
"null","442435","pSARL_v2","pSARL_v20phma5u6","6107acfe97c63575a2344e36","freq_resp","img/orange_2bandit_b.png","70","70","test","","","","7","",""
"null","442591","pSARL_v2","pSARL_v20phma5u6","6107acfe97c63575a2344e36","fixation","img/fixation.png","null","","test","","","","","",""
"324.0000000000582","442919","pSARL_v2","pSARL_v20phma5u6","6107acfe97c63575a2344e36","freq","img/orange_2bandit_b2.png","70","70","test","1","146","146","7","",""
"null","443401","pSARL_v2","pSARL_v20phma5u6","6107acfe97c63575a2344e36","freq_resp","img/orange_2bandit_b.png","70","70","test","","","","7","",""
"null","443556","pSARL_v2","pSARL_v20phma5u6","6107acfe97c63575a2344e36","fixation","img/fixation.png","null","","test","","","","","",""
"410","443969","pSARL_v2","pSARL_v20phma5u6","6107acfe97c63575a2344e36","freq","img/orange_2bandit_b2.png","70","70","test","1","147","147","7","",""
"null","444365","pSARL_v2","pSARL_v20phma5u6","6107acfe97c63575a2344e36","freq_resp","img/orange_2bandit_b.png","70","70","test","","","","7","",""
"null","444519","pSARL_v2","pSARL_v20phma5u6","6107acfe97c63575a2344e36","fixation","img/fixation.png","null","","test","","","","","",""
"334","444858","pSARL_v2","pSARL_v20phma5u6","6107acfe97c63575a2344e36","freq","img/orange_2bandit_b2.png","70","70","test","1","148","148","7","",""
"null","445329","pSARL_v2","pSARL_v20phma5u6","6107acfe97c63575a2344e36","freq_resp","img/orange_2bandit_b.png","70","70","test","","","","7","",""
"null","445484","pSARL_v2","pSARL_v20phma5u6","6107acfe97c63575a2344e36","fixation","img/fixation.png","null","","test","","","","","",""
"331","445820","pSARL_v2","pSARL_v20phma5u6","6107acfe97c63575a2344e36","freq","img/orange_2bandit_b2.png","70","70","test","1","149","149","7","",""
"null","446295","pSARL_v2","pSARL_v20phma5u6","6107acfe97c63575a2344e36","freq_resp","img/orange_2bandit_b.png","70","70","test","","","","7","",""
"null","446450","pSARL_v2","pSARL_v20phma5u6","6107acfe97c63575a2344e36","fixation","img/fixation.png","null","","test","","","","","",""
"326","446780","pSARL_v2","pSARL_v20phma5u6","6107acfe97c63575a2344e36","freq","img/orange_2bandit_b2.png","70","70","test","1","150","150","7","",""
"null","447259","pSARL_v2","pSARL_v20phma5u6","6107acfe97c63575a2344e36","freq_resp","img/orange_2bandit_b.png","70","70","test","","","","7","",""
"null","447416","pSARL_v2","pSARL_v20phma5u6","6107acfe97c63575a2344e36","fixation","img/fixation.png","null","","test","","","","","",""
"356","447776","pSARL_v2","pSARL_v20phma5u6","6107acfe97c63575a2344e36","freq","img/orange_2bandit_b2.png","70","70","test","1","151","151","7","",""
"null","448226","pSARL_v2","pSARL_v20phma5u6","6107acfe97c63575a2344e36","freq_resp","img/orange_2bandit_b.png","70","70","test","","","","7","",""
"null","448382","pSARL_v2","pSARL_v20phma5u6","6107acfe97c63575a2344e36","fixation","img/fixation.png","null","","test","","","","","",""
"323","448709","pSARL_v2","pSARL_v20phma5u6","6107acfe97c63575a2344e36","freq","img/orange_2bandit_b2.png","70","70","test","1","152","152","7","",""
"null","449192","pSARL_v2","pSARL_v20phma5u6","6107acfe97c63575a2344e36","freq_resp","img/orange_2bandit_b.png","70","70","test","","","","7","",""
"null","449348","pSARL_v2","pSARL_v20phma5u6","6107acfe97c63575a2344e36","fixation","img/fixation.png","null","","test","","","","","",""
"346","449699","pSARL_v2","pSARL_v20phma5u6","6107acfe97c63575a2344e36","freq","img/orange_2bandit_b2.png","70","70","test","1","153","153","7","",""
"null","450158","pSARL_v2","pSARL_v20phma5u6","6107acfe97c63575a2344e36","freq_resp","img/orange_2bandit_b.png","70","70","test","","","","7","",""
"null","450313","pSARL_v2","pSARL_v20phma5u6","6107acfe97c63575a2344e36","fixation","img/fixation.png","null","","test","","","","","",""
"271","450588","pSARL_v2","pSARL_v20phma5u6","6107acfe97c63575a2344e36","freq","img/orange_2bandit_b2.png","70","70","test","1","154","154","7","",""
"null","451123","pSARL_v2","pSARL_v20phma5u6","6107acfe97c63575a2344e36","freq_resp","img/orange_2bandit_b.png","70","70","test","","","","7","",""
"null","451279","pSARL_v2","pSARL_v20phma5u6","6107acfe97c63575a2344e36","fixation","img/fixation.png","null","","test","","","","","",""
"304","451588","pSARL_v2","pSARL_v20phma5u6","6107acfe97c63575a2344e36","freq","img/orange_2bandit_b2.png","70","70","test","1","155","155","7","",""
"null","452089","pSARL_v2","pSARL_v20phma5u6","6107acfe97c63575a2344e36","freq_resp","img/orange_2bandit_b.png","70","70","test","","","","7","",""
"null","452245","pSARL_v2","pSARL_v20phma5u6","6107acfe97c63575a2344e36","fixation","img/fixation.png","null","","test","","","","","",""
"607","452856","pSARL_v2","pSARL_v20phma5u6","6107acfe97c63575a2344e36","reward","img/slot.png","74","","test","","","","","",""
"null","453612","pSARL_v2","pSARL_v20phma5u6","6107acfe97c63575a2344e36","points","<div class=""verylowPoints""> -6 </div>","null","na","test","","","","7","-6","6"
"null","454417","pSARL_v2","pSARL_v20phma5u6","6107acfe97c63575a2344e36","freq","img/orange_2bandit_b2.png","null","70","test","0","156","156","8","",""
"null","454573","pSARL_v2","pSARL_v20phma5u6","6107acfe97c63575a2344e36","fixation","img/fixation.png","null","","test","","","","","",""
"83","454659","pSARL_v2","pSARL_v20phma5u6","6107acfe97c63575a2344e36","freq","img/orange_2bandit_b2.png","70","70","test","1","157","157","8","",""
"null","455382","pSARL_v2","pSARL_v20phma5u6","6107acfe97c63575a2344e36","freq_resp","img/orange_2bandit_b.png","70","70","test","","","","8","",""
"null","455538","pSARL_v2","pSARL_v20phma5u6","6107acfe97c63575a2344e36","fixation","img/fixation.png","null","","test","","","","","",""
"147","455690","pSARL_v2","pSARL_v20phma5u6","6107acfe97c63575a2344e36","freq","img/orange_2bandit_b2.png","70","70","test","1","158","158","8","",""
"null","456349","pSARL_v2","pSARL_v20phma5u6","6107acfe97c63575a2344e36","freq_resp","img/orange_2bandit_b.png","70","70","test","","","","8","",""
"null","456504","pSARL_v2","pSARL_v20phma5u6","6107acfe97c63575a2344e36","fixation","img/fixation.png","null","","test","","","","","",""
"154.9999999999418","456663","pSARL_v2","pSARL_v20phma5u6","6107acfe97c63575a2344e36","freq","img/orange_2bandit_b2.png","70","70","test","1","159","159","8","",""
"null","457314","pSARL_v2","pSARL_v20phma5u6","6107acfe97c63575a2344e36","freq_resp","img/orange_2bandit_b.png","70","70","test","","","","8","",""
"null","457470","pSARL_v2","pSARL_v20phma5u6","6107acfe97c63575a2344e36","fixation","img/fixation.png","null","","test","","","","","",""
"143","457617","pSARL_v2","pSARL_v20phma5u6","6107acfe97c63575a2344e36","freq","img/orange_2bandit_b2.png","70","70","test","1","160","160","8","",""
"null","458280","pSARL_v2","pSARL_v20phma5u6","6107acfe97c63575a2344e36","freq_resp","img/orange_2bandit_b.png","70","70","test","","","","8","",""
"null","458436","pSARL_v2","pSARL_v20phma5u6","6107acfe97c63575a2344e36","fixation","img/fixation.png","null","","test","","","","","",""
"206","458646","pSARL_v2","pSARL_v20phma5u6","6107acfe97c63575a2344e36","freq","img/orange_2bandit_b2.png","70","70","test","1","161","161","8","",""
"null","459249","pSARL_v2","pSARL_v20phma5u6","6107acfe97c63575a2344e36","freq_resp","img/orange_2bandit_b.png","70","70","test","","","","8","",""
"null","459405","pSARL_v2","pSARL_v20phma5u6","6107acfe97c63575a2344e36","fixation","img/fixation.png","null","","test","","","","","",""
"240","459649","pSARL_v2","pSARL_v20phma5u6","6107acfe97c63575a2344e36","infreq","img/green_2bandit_b2.png","70","68","test","0","162","162","8","",""
"null","460214","pSARL_v2","pSARL_v20phma5u6","6107acfe97c63575a2344e36","infreq_resp","img/green_2bandit_b.png","70","68","test","","","","8","",""
"null","460370","pSARL_v2","pSARL_v20phma5u6","6107acfe97c63575a2344e36","fixation","img/fixation.png","null","","test","","","","","",""
"494","460868","pSARL_v2","pSARL_v20phma5u6","6107acfe97c63575a2344e36","freq","img/orange_2bandit_b2.png","70","70","test","1","163","163","8","",""
"null","461180","pSARL_v2","pSARL_v20phma5u6","6107acfe97c63575a2344e36","freq_resp","img/orange_2bandit_b.png","70","70","test","","","","8","",""
"null","461335","pSARL_v2","pSARL_v20phma5u6","6107acfe97c63575a2344e36","fixation","img/fixation.png","null","","test","","","","","",""
"411","461750","pSARL_v2","pSARL_v20phma5u6","6107acfe97c63575a2344e36","freq","img/orange_2bandit_b2.png","70","70","test","1","164","164","8","",""
"null","462145","pSARL_v2","pSARL_v20phma5u6","6107acfe97c63575a2344e36","freq_resp","img/orange_2bandit_b.png","70","70","test","","","","8","",""
"null","462300","pSARL_v2","pSARL_v20phma5u6","6107acfe97c63575a2344e36","fixation","img/fixation.png","null","","test","","","","","",""
"328","462632","pSARL_v2","pSARL_v20phma5u6","6107acfe97c63575a2344e36","freq","img/orange_2bandit_b2.png","70","70","test","1","165","165","8","",""
"null","463109","pSARL_v2","pSARL_v20phma5u6","6107acfe97c63575a2344e36","freq_resp","img/orange_2bandit_b.png","70","70","test","","","","8","",""
"null","463265","pSARL_v2","pSARL_v20phma5u6","6107acfe97c63575a2344e36","fixation","img/fixation.png","null","","test","","","","","",""
"316","463585","pSARL_v2","pSARL_v20phma5u6","6107acfe97c63575a2344e36","infreq","img/green_2bandit_b2.png","70","68","test","0","166","166","8","",""
"null","464076","pSARL_v2","pSARL_v20phma5u6","6107acfe97c63575a2344e36","infreq_resp","img/green_2bandit_b.png","70","68","test","","","","8","",""
"null","464231","pSARL_v2","pSARL_v20phma5u6","6107acfe97c63575a2344e36","fixation","img/fixation.png","null","","test","","","","","",""
"592","464828","pSARL_v2","pSARL_v20phma5u6","6107acfe97c63575a2344e36","freq","img/orange_2bandit_b2.png","70","70","test","1","167","167","8","",""
"null","465041","pSARL_v2","pSARL_v20phma5u6","6107acfe97c63575a2344e36","freq_resp","img/orange_2bandit_b.png","70","70","test","","","","8","",""
"null","465196","pSARL_v2","pSARL_v20phma5u6","6107acfe97c63575a2344e36","fixation","img/fixation.png","null","","test","","","","","",""
"417.9999999999418","465618","pSARL_v2","pSARL_v20phma5u6","6107acfe97c63575a2344e36","freq","img/orange_2bandit_b2.png","70","70","test","1","168","168","8","",""
"null","466006","pSARL_v2","pSARL_v20phma5u6","6107acfe97c63575a2344e36","freq_resp","img/orange_2bandit_b.png","70","70","test","","","","8","",""
"null","466161","pSARL_v2","pSARL_v20phma5u6","6107acfe97c63575a2344e36","fixation","img/fixation.png","null","","test","","","","","",""
"332","466497","pSARL_v2","pSARL_v20phma5u6","6107acfe97c63575a2344e36","freq","img/orange_2bandit_b2.png","70","70","test","1","169","169","8","",""
"null","466969","pSARL_v2","pSARL_v20phma5u6","6107acfe97c63575a2344e36","freq_resp","img/orange_2bandit_b.png","70","70","test","","","","8","",""
"null","467125","pSARL_v2","pSARL_v20phma5u6","6107acfe97c63575a2344e36","fixation","img/fixation.png","null","","test","","","","","",""
"315","467446","pSARL_v2","pSARL_v20phma5u6","6107acfe97c63575a2344e36","freq","img/orange_2bandit_b2.png","70","70","test","1","170","170","8","",""
"null","467936","pSARL_v2","pSARL_v20phma5u6","6107acfe97c63575a2344e36","freq_resp","img/orange_2bandit_b.png","70","70","test","","","","8","",""
"null","468092","pSARL_v2","pSARL_v20phma5u6","6107acfe97c63575a2344e36","fixation","img/fixation.png","null","","test","","","","","",""
"364","468459","pSARL_v2","pSARL_v20phma5u6","6107acfe97c63575a2344e36","freq","img/orange_2bandit_b2.png","70","70","test","1","171","171","8","",""
"null","468901","pSARL_v2","pSARL_v20phma5u6","6107acfe97c63575a2344e36","freq_resp","img/orange_2bandit_b.png","70","70","test","","","","8","",""
"null","469057","pSARL_v2","pSARL_v20phma5u6","6107acfe97c63575a2344e36","fixation","img/fixation.png","null","","test","","","","","",""
"382.0000000000582","469442","pSARL_v2","pSARL_v20phma5u6","6107acfe97c63575a2344e36","freq","img/orange_2bandit_b2.png","70","70","test","1","172","172","8","",""
"null","469866","pSARL_v2","pSARL_v20phma5u6","6107acfe97c63575a2344e36","freq_resp","img/orange_2bandit_b.png","70","70","test","","","","8","",""
"null","470022","pSARL_v2","pSARL_v20phma5u6","6107acfe97c63575a2344e36","fixation","img/fixation.png","null","","test","","","","","",""
"380","470407","pSARL_v2","pSARL_v20phma5u6","6107acfe97c63575a2344e36","freq","img/orange_2bandit_b2.png","70","70","test","1","173","173","8","",""
"null","470832","pSARL_v2","pSARL_v20phma5u6","6107acfe97c63575a2344e36","freq_resp","img/orange_2bandit_b.png","70","70","test","","","","8","",""
"null","470988","pSARL_v2","pSARL_v20phma5u6","6107acfe97c63575a2344e36","fixation","img/fixation.png","null","","test","","","","","",""
"327","471321","pSARL_v2","pSARL_v20phma5u6","6107acfe97c63575a2344e36","freq","img/orange_2bandit_b2.png","70","70","test","1","174","174","8","",""
"null","471800","pSARL_v2","pSARL_v20phma5u6","6107acfe97c63575a2344e36","freq_resp","img/orange_2bandit_b.png","70","70","test","","","","8","",""
"null","471955","pSARL_v2","pSARL_v20phma5u6","6107acfe97c63575a2344e36","fixation","img/fixation.png","null","","test","","","","","",""
"503","472462","pSARL_v2","pSARL_v20phma5u6","6107acfe97c63575a2344e36","reward","img/slot.png","74","","test","","","","","",""
"null","473217","pSARL_v2","pSARL_v20phma5u6","6107acfe97c63575a2344e36","points","<div class=""verylowPoints""> -4 </div>","null","na","test","","","","8","-4","7"
"612","473834","pSARL_v2","pSARL_v20phma5u6","6107acfe97c63575a2344e36","freq","img/orange_2bandit_b2.png","70","70","test","1","175","175","9","",""
"null","474027","pSARL_v2","pSARL_v20phma5u6","6107acfe97c63575a2344e36","freq_resp","img/orange_2bandit_b.png","70","70","test","","","","9","",""
"null","474183","pSARL_v2","pSARL_v20phma5u6","6107acfe97c63575a2344e36","fixation","img/fixation.png","null","","test","","","","","",""
"547.0000000000582","474734","pSARL_v2","pSARL_v20phma5u6","6107acfe97c63575a2344e36","infreq","img/green_2bandit_b2.png","68","68","test","1","176","176","9","",""
"null","474992","pSARL_v2","pSARL_v20phma5u6","6107acfe97c63575a2344e36","infreq_resp","img/green_2bandit_b.png","68","68","test","","","","9","",""
"null","475147","pSARL_v2","pSARL_v20phma5u6","6107acfe97c63575a2344e36","fixation","img/fixation.png","null","","test","","","","","",""
"464","475615","pSARL_v2","pSARL_v20phma5u6","6107acfe97c63575a2344e36","freq","img/orange_2bandit_b2.png","70","70","test","1","177","177","9","",""
"null","475956","pSARL_v2","pSARL_v20phma5u6","6107acfe97c63575a2344e36","freq_resp","img/orange_2bandit_b.png","70","70","test","","","","9","",""
"null","476112","pSARL_v2","pSARL_v20phma5u6","6107acfe97c63575a2344e36","fixation","img/fixation.png","null","","test","","","","","",""
"306.9999999999418","476423","pSARL_v2","pSARL_v20phma5u6","6107acfe97c63575a2344e36","freq","img/orange_2bandit_b2.png","70","70","test","1","178","178","9","",""
"null","476922","pSARL_v2","pSARL_v20phma5u6","6107acfe97c63575a2344e36","freq_resp","img/orange_2bandit_b.png","70","70","test","","","","9","",""
"null","477077","pSARL_v2","pSARL_v20phma5u6","6107acfe97c63575a2344e36","fixation","img/fixation.png","null","","test","","","","","",""
"324","477404","pSARL_v2","pSARL_v20phma5u6","6107acfe97c63575a2344e36","freq","img/orange_2bandit_b2.png","70","70","test","1","179","179","9","",""
"null","477885","pSARL_v2","pSARL_v20phma5u6","6107acfe97c63575a2344e36","freq_resp","img/orange_2bandit_b.png","70","70","test","","","","9","",""
"null","478041","pSARL_v2","pSARL_v20phma5u6","6107acfe97c63575a2344e36","fixation","img/fixation.png","null","","test","","","","","",""
"303","478348","pSARL_v2","pSARL_v20phma5u6","6107acfe97c63575a2344e36","freq","img/orange_2bandit_b2.png","70","70","test","1","180","180","9","",""
"null","478850","pSARL_v2","pSARL_v20phma5u6","6107acfe97c63575a2344e36","freq_resp","img/orange_2bandit_b.png","70","70","test","","","","9","",""
"null","479006","pSARL_v2","pSARL_v20phma5u6","6107acfe97c63575a2344e36","fixation","img/fixation.png","null","","test","","","","","",""
"329","479338","pSARL_v2","pSARL_v20phma5u6","6107acfe97c63575a2344e36","freq","img/orange_2bandit_b2.png","70","70","test","1","181","181","9","",""
"null","479812","pSARL_v2","pSARL_v20phma5u6","6107acfe97c63575a2344e36","freq_resp","img/orange_2bandit_b.png","70","70","test","","","","9","",""
"null","479968","pSARL_v2","pSARL_v20phma5u6","6107acfe97c63575a2344e36","fixation","img/fixation.png","null","","test","","","","","",""
"330","480303","pSARL_v2","pSARL_v20phma5u6","6107acfe97c63575a2344e36","freq","img/orange_2bandit_b2.png","70","70","test","1","182","182","9","",""
"null","480778","pSARL_v2","pSARL_v20phma5u6","6107acfe97c63575a2344e36","freq_resp","img/orange_2bandit_b.png","70","70","test","","","","9","",""
"null","480934","pSARL_v2","pSARL_v20phma5u6","6107acfe97c63575a2344e36","fixation","img/fixation.png","null","","test","","","","","",""
"313.9999999999418","481252","pSARL_v2","pSARL_v20phma5u6","6107acfe97c63575a2344e36","freq","img/orange_2bandit_b2.png","70","70","test","1","183","183","9","",""
"null","481744","pSARL_v2","pSARL_v20phma5u6","6107acfe97c63575a2344e36","freq_resp","img/orange_2bandit_b.png","70","70","test","","","","9","",""
"null","481900","pSARL_v2","pSARL_v20phma5u6","6107acfe97c63575a2344e36","fixation","img/fixation.png","null","","test","","","","","",""
"327","482231","pSARL_v2","pSARL_v20phma5u6","6107acfe97c63575a2344e36","freq","img/orange_2bandit_b2.png","70","70","test","1","184","184","9","",""
"null","482709","pSARL_v2","pSARL_v20phma5u6","6107acfe97c63575a2344e36","freq_resp","img/orange_2bandit_b.png","70","70","test","","","","9","",""
"null","482865","pSARL_v2","pSARL_v20phma5u6","6107acfe97c63575a2344e36","fixation","img/fixation.png","null","","test","","","","","",""
"311","483181","pSARL_v2","pSARL_v20phma5u6","6107acfe97c63575a2344e36","freq","img/orange_2bandit_b2.png","70","70","test","1","185","185","9","",""
"null","483676","pSARL_v2","pSARL_v20phma5u6","6107acfe97c63575a2344e36","freq_resp","img/orange_2bandit_b.png","70","70","test","","","","9","",""
"null","483831","pSARL_v2","pSARL_v20phma5u6","6107acfe97c63575a2344e36","fixation","img/fixation.png","null","","test","","","","","",""
"323","484157","pSARL_v2","pSARL_v20phma5u6","6107acfe97c63575a2344e36","freq","img/orange_2bandit_b2.png","70","70","test","1","186","186","9","",""
"null","484639","pSARL_v2","pSARL_v20phma5u6","6107acfe97c63575a2344e36","freq_resp","img/orange_2bandit_b.png","70","70","test","","","","9","",""
"null","484795","pSARL_v2","pSARL_v20phma5u6","6107acfe97c63575a2344e36","fixation","img/fixation.png","null","","test","","","","","",""
"342","485140","pSARL_v2","pSARL_v20phma5u6","6107acfe97c63575a2344e36","freq","img/orange_2bandit_b2.png","70","70","test","1","187","187","9","",""
"null","485607","pSARL_v2","pSARL_v20phma5u6","6107acfe97c63575a2344e36","freq_resp","img/orange_2bandit_b.png","70","70","test","","","","9","",""
"null","485762","pSARL_v2","pSARL_v20phma5u6","6107acfe97c63575a2344e36","fixation","img/fixation.png","null","","test","","","","","",""
"310","486076","pSARL_v2","pSARL_v20phma5u6","6107acfe97c63575a2344e36","freq","img/orange_2bandit_b2.png","70","70","test","1","188","188","9","",""
"null","486572","pSARL_v2","pSARL_v20phma5u6","6107acfe97c63575a2344e36","freq_resp","img/orange_2bandit_b.png","70","70","test","","","","9","",""
"null","486727","pSARL_v2","pSARL_v20phma5u6","6107acfe97c63575a2344e36","fixation","img/fixation.png","null","","test","","","","","",""
"432.0000000000582","487164","pSARL_v2","pSARL_v20phma5u6","6107acfe97c63575a2344e36","infreq","img/green_2bandit_b2.png","68","68","test","1","189","189","9","",""
"null","487537","pSARL_v2","pSARL_v20phma5u6","6107acfe97c63575a2344e36","infreq_resp","img/green_2bandit_b.png","68","68","test","","","","9","",""
"null","487692","pSARL_v2","pSARL_v20phma5u6","6107acfe97c63575a2344e36","fixation","img/fixation.png","null","","test","","","","","",""
"342","488037","pSARL_v2","pSARL_v20phma5u6","6107acfe97c63575a2344e36","freq","img/orange_2bandit_b2.png","70","70","test","1","190","190","9","",""
"null","488500","pSARL_v2","pSARL_v20phma5u6","6107acfe97c63575a2344e36","freq_resp","img/orange_2bandit_b.png","70","70","test","","","","9","",""
"null","488656","pSARL_v2","pSARL_v20phma5u6","6107acfe97c63575a2344e36","fixation","img/fixation.png","null","","test","","","","","",""
"339","488999","pSARL_v2","pSARL_v20phma5u6","6107acfe97c63575a2344e36","freq","img/orange_2bandit_b2.png","70","70","test","1","191","191","9","",""
"null","489465","pSARL_v2","pSARL_v20phma5u6","6107acfe97c63575a2344e36","freq_resp","img/orange_2bandit_b.png","70","70","test","","","","9","",""
"null","489621","pSARL_v2","pSARL_v20phma5u6","6107acfe97c63575a2344e36","fixation","img/fixation.png","null","","test","","","","","",""
"366.0000000000582","489991","pSARL_v2","pSARL_v20phma5u6","6107acfe97c63575a2344e36","freq","img/orange_2bandit_b2.png","70","70","test","1","192","192","9","",""
"null","490429","pSARL_v2","pSARL_v20phma5u6","6107acfe97c63575a2344e36","freq_resp","img/orange_2bandit_b.png","70","70","test","","","","9","",""
"null","490585","pSARL_v2","pSARL_v20phma5u6","6107acfe97c63575a2344e36","fixation","img/fixation.png","null","","test","","","","","",""
"348","490937","pSARL_v2","pSARL_v20phma5u6","6107acfe97c63575a2344e36","freq","img/orange_2bandit_b2.png","70","70","test","1","193","193","9","",""
"null","491394","pSARL_v2","pSARL_v20phma5u6","6107acfe97c63575a2344e36","freq_resp","img/orange_2bandit_b.png","70","70","test","","","","9","",""
"null","491551","pSARL_v2","pSARL_v20phma5u6","6107acfe97c63575a2344e36","fixation","img/fixation.png","null","","test","","","","","",""
"396","491952","pSARL_v2","pSARL_v20phma5u6","6107acfe97c63575a2344e36","freq","img/orange_2bandit_b2.png","70","70","test","1","194","194","9","",""
"null","492361","pSARL_v2","pSARL_v20phma5u6","6107acfe97c63575a2344e36","freq_resp","img/orange_2bandit_b.png","70","70","test","","","","9","",""
"null","492517","pSARL_v2","pSARL_v20phma5u6","6107acfe97c63575a2344e36","fixation","img/fixation.png","null","","test","","","","","",""
"511","493033","pSARL_v2","pSARL_v20phma5u6","6107acfe97c63575a2344e36","freq","img/orange_2bandit_b2.png","70","70","test","1","195","195","9","",""
"null","493328","pSARL_v2","pSARL_v20phma5u6","6107acfe97c63575a2344e36","freq_resp","img/orange_2bandit_b.png","70","70","test","","","","9","",""
"null","493484","pSARL_v2","pSARL_v20phma5u6","6107acfe97c63575a2344e36","fixation","img/fixation.png","null","","test","","","","","",""
"463","493951","pSARL_v2","pSARL_v20phma5u6","6107acfe97c63575a2344e36","freq","img/orange_2bandit_b2.png","70","70","test","1","196","196","9","",""
"null","494294","pSARL_v2","pSARL_v20phma5u6","6107acfe97c63575a2344e36","freq_resp","img/orange_2bandit_b.png","70","70","test","","","","9","",""
"null","494450","pSARL_v2","pSARL_v20phma5u6","6107acfe97c63575a2344e36","fixation","img/fixation.png","null","","test","","","","","",""
"287.0000000000582","494741","pSARL_v2","pSARL_v20phma5u6","6107acfe97c63575a2344e36","freq","img/orange_2bandit_b2.png","70","70","test","1","197","197","9","",""
"null","495259","pSARL_v2","pSARL_v20phma5u6","6107acfe97c63575a2344e36","freq_resp","img/orange_2bandit_b.png","70","70","test","","","","9","",""
"null","495415","pSARL_v2","pSARL_v20phma5u6","6107acfe97c63575a2344e36","fixation","img/fixation.png","null","","test","","","","","",""
"488","495908","pSARL_v2","pSARL_v20phma5u6","6107acfe97c63575a2344e36","freq","img/orange_2bandit_b2.png","70","70","test","1","198","198","9","",""
"null","496225","pSARL_v2","pSARL_v20phma5u6","6107acfe97c63575a2344e36","freq_resp","img/orange_2bandit_b.png","70","70","test","","","","9","",""
"null","496381","pSARL_v2","pSARL_v20phma5u6","6107acfe97c63575a2344e36","fixation","img/fixation.png","null","","test","","","","","",""
"333","496718","pSARL_v2","pSARL_v20phma5u6","6107acfe97c63575a2344e36","freq","img/orange_2bandit_b2.png","70","70","test","1","199","199","9","",""
"null","497191","pSARL_v2","pSARL_v20phma5u6","6107acfe97c63575a2344e36","freq_resp","img/orange_2bandit_b.png","70","70","test","","","","9","",""
"null","497346","pSARL_v2","pSARL_v20phma5u6","6107acfe97c63575a2344e36","fixation","img/fixation.png","null","","test","","","","","",""
"349.0000000000582","497700","pSARL_v2","pSARL_v20phma5u6","6107acfe97c63575a2344e36","reward","img/slot.png","74","","test","","","","","",""
"null","498456","pSARL_v2","pSARL_v20phma5u6","6107acfe97c63575a2344e36","points","<div class=""verylowPoints""> -3 </div>","null","na","test","","","","9","-3","8"
"432","498893","pSARL_v2","pSARL_v20phma5u6","6107acfe97c63575a2344e36","freq","img/orange_2bandit_b2.png","70","70","test","1","200","200","10","",""
"null","499267","pSARL_v2","pSARL_v20phma5u6","6107acfe97c63575a2344e36","freq_resp","img/orange_2bandit_b.png","70","70","test","","","","10","",""
"null","499423","pSARL_v2","pSARL_v20phma5u6","6107acfe97c63575a2344e36","fixation","img/fixation.png","null","","test","","","","","",""
"546","499973","pSARL_v2","pSARL_v20phma5u6","6107acfe97c63575a2344e36","infreq","img/green_2bandit_b2.png","68","68","test","1","201","201","10","",""
"null","500231","pSARL_v2","pSARL_v20phma5u6","6107acfe97c63575a2344e36","infreq_resp","img/green_2bandit_b.png","68","68","test","","","","10","",""
"null","500386","pSARL_v2","pSARL_v20phma5u6","6107acfe97c63575a2344e36","fixation","img/fixation.png","null","","test","","","","","",""
"575","500966","pSARL_v2","pSARL_v20phma5u6","6107acfe97c63575a2344e36","infreq","img/green_2bandit_b2.png","68","68","test","1","202","202","10","",""
"null","501196","pSARL_v2","pSARL_v20phma5u6","6107acfe97c63575a2344e36","infreq_resp","img/green_2bandit_b.png","68","68","test","","","","10","",""
"null","501352","pSARL_v2","pSARL_v20phma5u6","6107acfe97c63575a2344e36","fixation","img/fixation.png","null","","test","","","","","",""
"422","501778","pSARL_v2","pSARL_v20phma5u6","6107acfe97c63575a2344e36","freq","img/orange_2bandit_b2.png","70","70","test","1","203","203","10","",""
"null","502159","pSARL_v2","pSARL_v20phma5u6","6107acfe97c63575a2344e36","freq_resp","img/orange_2bandit_b.png","70","70","test","","","","10","",""
"null","502315","pSARL_v2","pSARL_v20phma5u6","6107acfe97c63575a2344e36","fixation","img/fixation.png","null","","test","","","","","",""
"547.0000000000582","502866","pSARL_v2","pSARL_v20phma5u6","6107acfe97c63575a2344e36","freq","img/orange_2bandit_b2.png","70","70","test","1","204","204","10","",""
"null","503124","pSARL_v2","pSARL_v20phma5u6","6107acfe97c63575a2344e36","freq_resp","img/orange_2bandit_b.png","70","70","test","","","","10","",""
"null","503279","pSARL_v2","pSARL_v20phma5u6","6107acfe97c63575a2344e36","fixation","img/fixation.png","null","","test","","","","","",""
"702","503985","pSARL_v2","pSARL_v20phma5u6","6107acfe97c63575a2344e36","freq","img/orange_2bandit_b2.png","70","70","test","1","205","205","10","",""
"null","504089","pSARL_v2","pSARL_v20phma5u6","6107acfe97c63575a2344e36","freq_resp","img/orange_2bandit_b.png","70","70","test","","","","10","",""
"null","504244","pSARL_v2","pSARL_v20phma5u6","6107acfe97c63575a2344e36","fixation","img/fixation.png","null","","test","","","","","",""
"374","504622","pSARL_v2","pSARL_v20phma5u6","6107acfe97c63575a2344e36","freq","img/orange_2bandit_b2.png","70","70","test","1","206","206","10","",""
"null","505054","pSARL_v2","pSARL_v20phma5u6","6107acfe97c63575a2344e36","freq_resp","img/orange_2bandit_b.png","70","70","test","","","","10","",""
"null","505210","pSARL_v2","pSARL_v20phma5u6","6107acfe97c63575a2344e36","fixation","img/fixation.png","null","","test","","","","","",""
"300","505514","pSARL_v2","pSARL_v20phma5u6","6107acfe97c63575a2344e36","freq","img/orange_2bandit_b2.png","70","70","test","1","207","207","10","",""
"null","506019","pSARL_v2","pSARL_v20phma5u6","6107acfe97c63575a2344e36","freq_resp","img/orange_2bandit_b.png","70","70","test","","","","10","",""
"null","506174","pSARL_v2","pSARL_v20phma5u6","6107acfe97c63575a2344e36","fixation","img/fixation.png","null","","test","","","","","",""
"301","506480","pSARL_v2","pSARL_v20phma5u6","6107acfe97c63575a2344e36","freq","img/orange_2bandit_b2.png","70","70","test","1","208","208","10","",""
"null","506984","pSARL_v2","pSARL_v20phma5u6","6107acfe97c63575a2344e36","freq_resp","img/orange_2bandit_b.png","70","70","test","","","","10","",""
"null","507140","pSARL_v2","pSARL_v20phma5u6","6107acfe97c63575a2344e36","fixation","img/fixation.png","null","","test","","","","","",""
"396","507540","pSARL_v2","pSARL_v20phma5u6","6107acfe97c63575a2344e36","freq","img/orange_2bandit_b2.png","70","70","test","1","209","209","10","",""
"null","507950","pSARL_v2","pSARL_v20phma5u6","6107acfe97c63575a2344e36","freq_resp","img/orange_2bandit_b.png","70","70","test","","","","10","",""
"null","508106","pSARL_v2","pSARL_v20phma5u6","6107acfe97c63575a2344e36","fixation","img/fixation.png","null","","test","","","","","",""
"344","508454","pSARL_v2","pSARL_v20phma5u6","6107acfe97c63575a2344e36","freq","img/orange_2bandit_b2.png","70","70","test","1","210","210","10","",""
"null","508915","pSARL_v2","pSARL_v20phma5u6","6107acfe97c63575a2344e36","freq_resp","img/orange_2bandit_b.png","70","70","test","","","","10","",""
"null","509070","pSARL_v2","pSARL_v20phma5u6","6107acfe97c63575a2344e36","fixation","img/fixation.png","null","","test","","","","","",""
"315.9999999999418","509391","pSARL_v2","pSARL_v20phma5u6","6107acfe97c63575a2344e36","freq","img/orange_2bandit_b2.png","70","70","test","1","211","211","10","",""
