"rt","time_elapsed","expId","subject","prolificID","trialType","stimulus","key_press","corrresp","phase","corr","trialNum","attentionRunNum","blockNum","points","rlNum"
"11193","11193","pSARL_v2","pSARL_v2em69lx6m","60cfdcfdf8a3c6c42dad17d3","","","","","","","","","","",""
"","14711","pSARL_v2","pSARL_v2em69lx6m","60cfdcfdf8a3c6c42dad17d3","fullscreen","","","","","","","","","",""
"46952","61666","pSARL_v2","pSARL_v2em69lx6m","60cfdcfdf8a3c6c42dad17d3","","","","","","","","","","",""
"null","62478","pSARL_v2","pSARL_v2em69lx6m","60cfdcfdf8a3c6c42dad17d3","freqPrac","img/orange_2bandit_b2.png","null","70","prac","0","","","","",""
"null","63486","pSARL_v2","pSARL_v2em69lx6m","60cfdcfdf8a3c6c42dad17d3","feedback","img/tooSlow.png","null","na","prac","","","","","",""
"null","63641","pSARL_v2","pSARL_v2em69lx6m","60cfdcfdf8a3c6c42dad17d3","fixation","img/fixation.png","null","","prac","","","","","",""
"418","64061","pSARL_v2","pSARL_v2em69lx6m","60cfdcfdf8a3c6c42dad17d3","infreqPrac","img/green_2bandit_b2.png","68","68","prac","1","","","","",""
"418","64450","pSARL_v2","pSARL_v2em69lx6m","60cfdcfdf8a3c6c42dad17d3","infreqPrac_resp","img/green_2bandit_b.png","68","68","prac","","","","","",""
"null","64613","pSARL_v2","pSARL_v2em69lx6m","60cfdcfdf8a3c6c42dad17d3","fixation","img/fixation.png","null","","prac","","","","","",""
"371","64986","pSARL_v2","pSARL_v2em69lx6m","60cfdcfdf8a3c6c42dad17d3","freqPrac","img/orange_2bandit_b2.png","70","70","prac","1","","","","",""
"371","65428","pSARL_v2","pSARL_v2em69lx6m","60cfdcfdf8a3c6c42dad17d3","freqPrac_resp","img/orange_2bandit_b.png","70","70","prac","","","","","",""
"null","65581","pSARL_v2","pSARL_v2em69lx6m","60cfdcfdf8a3c6c42dad17d3","fixation","img/fixation.png","null","","prac","","","","","",""
"360","65944","pSARL_v2","pSARL_v2em69lx6m","60cfdcfdf8a3c6c42dad17d3","infreqPrac","img/green_2bandit_b2.png","68","68","prac","1","","","","",""
"360","66401","pSARL_v2","pSARL_v2em69lx6m","60cfdcfdf8a3c6c42dad17d3","infreqPrac_resp","img/green_2bandit_b.png","68","68","prac","","","","","",""
"null","66569","pSARL_v2","pSARL_v2em69lx6m","60cfdcfdf8a3c6c42dad17d3","fixation","img/fixation.png","null","","prac","","","","","",""
"337","66908","pSARL_v2","pSARL_v2em69lx6m","60cfdcfdf8a3c6c42dad17d3","infreqPrac","img/green_2bandit_b2.png","68","68","prac","1","","","","",""
"337","67385","pSARL_v2","pSARL_v2em69lx6m","60cfdcfdf8a3c6c42dad17d3","infreqPrac_resp","img/green_2bandit_b.png","68","68","prac","","","","","",""
"null","67548","pSARL_v2","pSARL_v2em69lx6m","60cfdcfdf8a3c6c42dad17d3","fixation","img/fixation.png","null","","prac","","","","","",""
"340","67890","pSARL_v2","pSARL_v2em69lx6m","60cfdcfdf8a3c6c42dad17d3","infreqPrac","img/green_2bandit_b2.png","68","68","prac","1","","","","",""
"340","68359","pSARL_v2","pSARL_v2em69lx6m","60cfdcfdf8a3c6c42dad17d3","infreqPrac_resp","img/green_2bandit_b.png","68","68","prac","","","","","",""
"null","68526","pSARL_v2","pSARL_v2em69lx6m","60cfdcfdf8a3c6c42dad17d3","fixation","img/fixation.png","null","","prac","","","","","",""
"320","68848","pSARL_v2","pSARL_v2em69lx6m","60cfdcfdf8a3c6c42dad17d3","freqPrac","img/orange_2bandit_b2.png","68","70","prac","0","","","","",""
"320","69348","pSARL_v2","pSARL_v2em69lx6m","60cfdcfdf8a3c6c42dad17d3","freqPrac_resp","img/orange_2bandit_b.png","68","70","prac","","","","","",""
"null","70358","pSARL_v2","pSARL_v2em69lx6m","60cfdcfdf8a3c6c42dad17d3","feedback","img/wrongKey.png","null","na","prac","","","","","",""
"null","70525","pSARL_v2","pSARL_v2em69lx6m","60cfdcfdf8a3c6c42dad17d3","fixation","img/fixation.png","null","","prac","","","","","",""
"658","71185","pSARL_v2","pSARL_v2em69lx6m","60cfdcfdf8a3c6c42dad17d3","infreqPrac","img/green_2bandit_b2.png","68","68","prac","1","","","","",""
"658","71335","pSARL_v2","pSARL_v2em69lx6m","60cfdcfdf8a3c6c42dad17d3","infreqPrac_resp","img/green_2bandit_b.png","68","68","prac","","","","","",""
"null","71504","pSARL_v2","pSARL_v2em69lx6m","60cfdcfdf8a3c6c42dad17d3","fixation","img/fixation.png","null","","prac","","","","","",""
"422","71928","pSARL_v2","pSARL_v2em69lx6m","60cfdcfdf8a3c6c42dad17d3","freqPrac","img/orange_2bandit_b2.png","70","70","prac","1","","","","",""
"422","72318","pSARL_v2","pSARL_v2em69lx6m","60cfdcfdf8a3c6c42dad17d3","freqPrac_resp","img/orange_2bandit_b.png","70","70","prac","","","","","",""
"null","72473","pSARL_v2","pSARL_v2em69lx6m","60cfdcfdf8a3c6c42dad17d3","fixation","img/fixation.png","null","","prac","","","","","",""
"249","72724","pSARL_v2","pSARL_v2em69lx6m","60cfdcfdf8a3c6c42dad17d3","freqPrac","img/orange_2bandit_b2.png","70","70","prac","1","","","","",""
"249","73290","pSARL_v2","pSARL_v2em69lx6m","60cfdcfdf8a3c6c42dad17d3","freqPrac_resp","img/orange_2bandit_b.png","70","70","prac","","","","","",""
"null","73444","pSARL_v2","pSARL_v2em69lx6m","60cfdcfdf8a3c6c42dad17d3","fixation","img/fixation.png","null","","prac","","","","","",""
"11083","84528","pSARL_v2","pSARL_v2em69lx6m","60cfdcfdf8a3c6c42dad17d3","","","","","prac","","","","","",""
"537","85068","pSARL_v2","pSARL_v2em69lx6m","60cfdcfdf8a3c6c42dad17d3","rewardPractice","img/slot.png","74","","prac","","","","","",""
"null","85823","pSARL_v2","pSARL_v2em69lx6m","60cfdcfdf8a3c6c42dad17d3","feedback","<div class=""veryhighPoints""> +15 </div>","null","na","prac","","","","","",""
"null","85986","pSARL_v2","pSARL_v2em69lx6m","60cfdcfdf8a3c6c42dad17d3","fixation","img/fixation.png","null","","prac","","","","","",""
"7395","93384","pSARL_v2","pSARL_v2em69lx6m","60cfdcfdf8a3c6c42dad17d3","","","","","prac","","","","","",""
"561","93946","pSARL_v2","pSARL_v2em69lx6m","60cfdcfdf8a3c6c42dad17d3","freq","img/orange_2bandit_b2.png","70","70","test","1","1","1","1","",""
"null","94190","pSARL_v2","pSARL_v2em69lx6m","60cfdcfdf8a3c6c42dad17d3","freq_resp","img/orange_2bandit_b.png","70","70","test","","","","1","",""
"null","94355","pSARL_v2","pSARL_v2em69lx6m","60cfdcfdf8a3c6c42dad17d3","fixation","img/fixation.png","null","","test","","","","","",""
"264","94621","pSARL_v2","pSARL_v2em69lx6m","60cfdcfdf8a3c6c42dad17d3","freq","img/orange_2bandit_b2.png","70","70","test","1","2","2","1","",""
"null","95176","pSARL_v2","pSARL_v2em69lx6m","60cfdcfdf8a3c6c42dad17d3","freq_resp","img/orange_2bandit_b.png","70","70","test","","","","1","",""
"null","95341","pSARL_v2","pSARL_v2em69lx6m","60cfdcfdf8a3c6c42dad17d3","fixation","img/fixation.png","null","","test","","","","","",""
"269","95612","pSARL_v2","pSARL_v2em69lx6m","60cfdcfdf8a3c6c42dad17d3","freq","img/orange_2bandit_b2.png","70","70","test","1","3","3","1","",""
"null","96152","pSARL_v2","pSARL_v2em69lx6m","60cfdcfdf8a3c6c42dad17d3","freq_resp","img/orange_2bandit_b.png","70","70","test","","","","1","",""
"null","96321","pSARL_v2","pSARL_v2em69lx6m","60cfdcfdf8a3c6c42dad17d3","fixation","img/fixation.png","null","","test","","","","","",""
"266","96590","pSARL_v2","pSARL_v2em69lx6m","60cfdcfdf8a3c6c42dad17d3","freq","img/orange_2bandit_b2.png","70","70","test","1","4","4","1","",""
"null","97131","pSARL_v2","pSARL_v2em69lx6m","60cfdcfdf8a3c6c42dad17d3","freq_resp","img/orange_2bandit_b.png","70","70","test","","","","1","",""
"null","97297","pSARL_v2","pSARL_v2em69lx6m","60cfdcfdf8a3c6c42dad17d3","fixation","img/fixation.png","null","","test","","","","","",""
"217","97514","pSARL_v2","pSARL_v2em69lx6m","60cfdcfdf8a3c6c42dad17d3","freq","img/orange_2bandit_b2.png","70","70","test","1","5","5","1","",""
"null","98107","pSARL_v2","pSARL_v2em69lx6m","60cfdcfdf8a3c6c42dad17d3","freq_resp","img/orange_2bandit_b.png","70","70","test","","","","1","",""
"null","98267","pSARL_v2","pSARL_v2em69lx6m","60cfdcfdf8a3c6c42dad17d3","fixation","img/fixation.png","null","","test","","","","","",""
"215","98484","pSARL_v2","pSARL_v2em69lx6m","60cfdcfdf8a3c6c42dad17d3","freq","img/orange_2bandit_b2.png","70","70","test","1","6","6","1","",""
"null","99073","pSARL_v2","pSARL_v2em69lx6m","60cfdcfdf8a3c6c42dad17d3","freq_resp","img/orange_2bandit_b.png","70","70","test","","","","1","",""
"null","99240","pSARL_v2","pSARL_v2em69lx6m","60cfdcfdf8a3c6c42dad17d3","fixation","img/fixation.png","null","","test","","","","","",""
"230","99473","pSARL_v2","pSARL_v2em69lx6m","60cfdcfdf8a3c6c42dad17d3","freq","img/orange_2bandit_b2.png","70","70","test","1","7","7","1","",""
"null","100058","pSARL_v2","pSARL_v2em69lx6m","60cfdcfdf8a3c6c42dad17d3","freq_resp","img/orange_2bandit_b.png","70","70","test","","","","1","",""
"null","100224","pSARL_v2","pSARL_v2em69lx6m","60cfdcfdf8a3c6c42dad17d3","fixation","img/fixation.png","null","","test","","","","","",""
"414","100638","pSARL_v2","pSARL_v2em69lx6m","60cfdcfdf8a3c6c42dad17d3","infreq","img/green_2bandit_b2.png","68","68","test","1","8","8","1","",""
"null","101037","pSARL_v2","pSARL_v2em69lx6m","60cfdcfdf8a3c6c42dad17d3","infreq_resp","img/green_2bandit_b.png","68","68","test","","","","1","",""
"null","101205","pSARL_v2","pSARL_v2em69lx6m","60cfdcfdf8a3c6c42dad17d3","fixation","img/fixation.png","null","","test","","","","","",""
"441","101649","pSARL_v2","pSARL_v2em69lx6m","60cfdcfdf8a3c6c42dad17d3","freq","img/orange_2bandit_b2.png","70","70","test","1","9","9","1","",""
"null","102025","pSARL_v2","pSARL_v2em69lx6m","60cfdcfdf8a3c6c42dad17d3","freq_resp","img/orange_2bandit_b.png","70","70","test","","","","1","",""
"null","102188","pSARL_v2","pSARL_v2em69lx6m","60cfdcfdf8a3c6c42dad17d3","fixation","img/fixation.png","null","","test","","","","","",""
"302","102492","pSARL_v2","pSARL_v2em69lx6m","60cfdcfdf8a3c6c42dad17d3","freq","img/orange_2bandit_b2.png","70","70","test","1","10","10","1","",""
"null","102999","pSARL_v2","pSARL_v2em69lx6m","60cfdcfdf8a3c6c42dad17d3","freq_resp","img/orange_2bandit_b.png","70","70","test","","","","1","",""
"null","103161","pSARL_v2","pSARL_v2em69lx6m","60cfdcfdf8a3c6c42dad17d3","fixation","img/fixation.png","null","","test","","","","","",""
"238","103402","pSARL_v2","pSARL_v2em69lx6m","60cfdcfdf8a3c6c42dad17d3","freq","img/orange_2bandit_b2.png","70","70","test","1","11","11","1","",""
"null","103970","pSARL_v2","pSARL_v2em69lx6m","60cfdcfdf8a3c6c42dad17d3","freq_resp","img/orange_2bandit_b.png","70","70","test","","","","1","",""
"null","104132","pSARL_v2","pSARL_v2em69lx6m","60cfdcfdf8a3c6c42dad17d3","fixation","img/fixation.png","null","","test","","","","","",""
"200","104334","pSARL_v2","pSARL_v2em69lx6m","60cfdcfdf8a3c6c42dad17d3","freq","img/orange_2bandit_b2.png","70","70","test","1","12","12","1","",""
"null","104953","pSARL_v2","pSARL_v2em69lx6m","60cfdcfdf8a3c6c42dad17d3","freq_resp","img/orange_2bandit_b.png","70","70","test","","","","1","",""
"null","105118","pSARL_v2","pSARL_v2em69lx6m","60cfdcfdf8a3c6c42dad17d3","fixation","img/fixation.png","null","","test","","","","","",""
"83","105203","pSARL_v2","pSARL_v2em69lx6m","60cfdcfdf8a3c6c42dad17d3","freq","img/orange_2bandit_b2.png","70","70","test","1","13","13","1","",""
"null","105937","pSARL_v2","pSARL_v2em69lx6m","60cfdcfdf8a3c6c42dad17d3","freq_resp","img/orange_2bandit_b.png","70","70","test","","","","1","",""
"null","106104","pSARL_v2","pSARL_v2em69lx6m","60cfdcfdf8a3c6c42dad17d3","fixation","img/fixation.png","null","","test","","","","","",""
"114","106220","pSARL_v2","pSARL_v2em69lx6m","60cfdcfdf8a3c6c42dad17d3","freq","img/orange_2bandit_b2.png","70","70","test","1","14","14","1","",""
"null","106912","pSARL_v2","pSARL_v2em69lx6m","60cfdcfdf8a3c6c42dad17d3","freq_resp","img/orange_2bandit_b.png","70","70","test","","","","1","",""
"null","107081","pSARL_v2","pSARL_v2em69lx6m","60cfdcfdf8a3c6c42dad17d3","fixation","img/fixation.png","null","","test","","","","","",""
"66","107148","pSARL_v2","pSARL_v2em69lx6m","60cfdcfdf8a3c6c42dad17d3","freq","img/orange_2bandit_b2.png","70","70","test","1","15","15","1","",""
"null","107899","pSARL_v2","pSARL_v2em69lx6m","60cfdcfdf8a3c6c42dad17d3","freq_resp","img/orange_2bandit_b.png","70","70","test","","","","1","",""
"null","108067","pSARL_v2","pSARL_v2em69lx6m","60cfdcfdf8a3c6c42dad17d3","fixation","img/fixation.png","null","","test","","","","","",""
"46","108115","pSARL_v2","pSARL_v2em69lx6m","60cfdcfdf8a3c6c42dad17d3","freq","img/orange_2bandit_b2.png","70","70","test","1","16","16","1","",""
"null","108886","pSARL_v2","pSARL_v2em69lx6m","60cfdcfdf8a3c6c42dad17d3","freq_resp","img/orange_2bandit_b.png","70","70","test","","","","1","",""
"null","109053","pSARL_v2","pSARL_v2em69lx6m","60cfdcfdf8a3c6c42dad17d3","fixation","img/fixation.png","null","","test","","","","","",""
"249","109304","pSARL_v2","pSARL_v2em69lx6m","60cfdcfdf8a3c6c42dad17d3","freq","img/orange_2bandit_b2.png","70","70","test","1","17","17","1","",""
"null","109866","pSARL_v2","pSARL_v2em69lx6m","60cfdcfdf8a3c6c42dad17d3","freq_resp","img/orange_2bandit_b.png","70","70","test","","","","1","",""
"null","110030","pSARL_v2","pSARL_v2em69lx6m","60cfdcfdf8a3c6c42dad17d3","fixation","img/fixation.png","null","","test","","","","","",""
"288","110319","pSARL_v2","pSARL_v2em69lx6m","60cfdcfdf8a3c6c42dad17d3","freq","img/orange_2bandit_b2.png","70","70","test","1","18","18","1","",""
"null","110840","pSARL_v2","pSARL_v2em69lx6m","60cfdcfdf8a3c6c42dad17d3","freq_resp","img/orange_2bandit_b.png","70","70","test","","","","1","",""
"null","111001","pSARL_v2","pSARL_v2em69lx6m","60cfdcfdf8a3c6c42dad17d3","fixation","img/fixation.png","null","","test","","","","","",""
"287","111289","pSARL_v2","pSARL_v2em69lx6m","60cfdcfdf8a3c6c42dad17d3","freq","img/orange_2bandit_b2.png","70","70","test","1","19","19","1","",""
"null","111820","pSARL_v2","pSARL_v2em69lx6m","60cfdcfdf8a3c6c42dad17d3","freq_resp","img/orange_2bandit_b.png","70","70","test","","","","1","",""
"null","111987","pSARL_v2","pSARL_v2em69lx6m","60cfdcfdf8a3c6c42dad17d3","fixation","img/fixation.png","null","","test","","","","","",""
"242","112231","pSARL_v2","pSARL_v2em69lx6m","60cfdcfdf8a3c6c42dad17d3","infreq","img/green_2bandit_b2.png","70","68","test","0","20","20","1","",""
"null","112794","pSARL_v2","pSARL_v2em69lx6m","60cfdcfdf8a3c6c42dad17d3","infreq_resp","img/green_2bandit_b.png","70","68","test","","","","1","",""
"null","112959","pSARL_v2","pSARL_v2em69lx6m","60cfdcfdf8a3c6c42dad17d3","fixation","img/fixation.png","null","","test","","","","","",""
"722","113682","pSARL_v2","pSARL_v2em69lx6m","60cfdcfdf8a3c6c42dad17d3","freq","img/orange_2bandit_b2.png","70","70","test","1","21","21","1","",""
"null","113776","pSARL_v2","pSARL_v2em69lx6m","60cfdcfdf8a3c6c42dad17d3","freq_resp","img/orange_2bandit_b.png","70","70","test","","","","1","",""
"null","113945","pSARL_v2","pSARL_v2em69lx6m","60cfdcfdf8a3c6c42dad17d3","fixation","img/fixation.png","null","","test","","","","","",""
"521","114468","pSARL_v2","pSARL_v2em69lx6m","60cfdcfdf8a3c6c42dad17d3","reward","img/slot.png","74","","test","","","","","",""
"null","115227","pSARL_v2","pSARL_v2em69lx6m","60cfdcfdf8a3c6c42dad17d3","points","<div class=""verylowPoints""> -6 </div>","null","na","test","","","","1","-6","0"
"671","115900","pSARL_v2","pSARL_v2em69lx6m","60cfdcfdf8a3c6c42dad17d3","freq","img/orange_2bandit_b2.png","70","70","test","1","22","22","2","",""
"null","116046","pSARL_v2","pSARL_v2em69lx6m","60cfdcfdf8a3c6c42dad17d3","freq_resp","img/orange_2bandit_b.png","70","70","test","","","","2","",""
"null","116215","pSARL_v2","pSARL_v2em69lx6m","60cfdcfdf8a3c6c42dad17d3","fixation","img/fixation.png","null","","test","","","","","",""
"291","116508","pSARL_v2","pSARL_v2em69lx6m","60cfdcfdf8a3c6c42dad17d3","freq","img/orange_2bandit_b2.png","70","70","test","1","23","23","2","",""
"null","117022","pSARL_v2","pSARL_v2em69lx6m","60cfdcfdf8a3c6c42dad17d3","freq_resp","img/orange_2bandit_b.png","70","70","test","","","","2","",""
"null","117186","pSARL_v2","pSARL_v2em69lx6m","60cfdcfdf8a3c6c42dad17d3","fixation","img/fixation.png","null","","test","","","","","",""
"303","117491","pSARL_v2","pSARL_v2em69lx6m","60cfdcfdf8a3c6c42dad17d3","infreq","img/green_2bandit_b2.png","70","68","test","0","24","24","2","",""
"null","118000","pSARL_v2","pSARL_v2em69lx6m","60cfdcfdf8a3c6c42dad17d3","infreq_resp","img/green_2bandit_b.png","70","68","test","","","","2","",""
"null","118153","pSARL_v2","pSARL_v2em69lx6m","60cfdcfdf8a3c6c42dad17d3","fixation","img/fixation.png","null","","test","","","","","",""
"304","118460","pSARL_v2","pSARL_v2em69lx6m","60cfdcfdf8a3c6c42dad17d3","freq","img/orange_2bandit_b2.png","70","70","test","1","25","25","2","",""
"null","118966","pSARL_v2","pSARL_v2em69lx6m","60cfdcfdf8a3c6c42dad17d3","freq_resp","img/orange_2bandit_b.png","70","70","test","","","","2","",""
"null","119135","pSARL_v2","pSARL_v2em69lx6m","60cfdcfdf8a3c6c42dad17d3","fixation","img/fixation.png","null","","test","","","","","",""
"381","119517","pSARL_v2","pSARL_v2em69lx6m","60cfdcfdf8a3c6c42dad17d3","infreq","img/green_2bandit_b2.png","68","68","test","1","26","26","2","",""
"null","119943","pSARL_v2","pSARL_v2em69lx6m","60cfdcfdf8a3c6c42dad17d3","infreq_resp","img/green_2bandit_b.png","68","68","test","","","","2","",""
"null","120100","pSARL_v2","pSARL_v2em69lx6m","60cfdcfdf8a3c6c42dad17d3","fixation","img/fixation.png","null","","test","","","","","",""
"370","120472","pSARL_v2","pSARL_v2em69lx6m","60cfdcfdf8a3c6c42dad17d3","freq","img/orange_2bandit_b2.png","70","70","test","1","27","27","2","",""
"null","120916","pSARL_v2","pSARL_v2em69lx6m","60cfdcfdf8a3c6c42dad17d3","freq_resp","img/orange_2bandit_b.png","70","70","test","","","","2","",""
"null","121080","pSARL_v2","pSARL_v2em69lx6m","60cfdcfdf8a3c6c42dad17d3","fixation","img/fixation.png","null","","test","","","","","",""
"425","121507","pSARL_v2","pSARL_v2em69lx6m","60cfdcfdf8a3c6c42dad17d3","freq","img/orange_2bandit_b2.png","70","70","test","1","28","28","2","",""
"null","121888","pSARL_v2","pSARL_v2em69lx6m","60cfdcfdf8a3c6c42dad17d3","freq_resp","img/orange_2bandit_b.png","70","70","test","","","","2","",""
"null","122050","pSARL_v2","pSARL_v2em69lx6m","60cfdcfdf8a3c6c42dad17d3","fixation","img/fixation.png","null","","test","","","","","",""
"390","122442","pSARL_v2","pSARL_v2em69lx6m","60cfdcfdf8a3c6c42dad17d3","freq","img/orange_2bandit_b2.png","70","70","test","1","29","29","2","",""
"null","122871","pSARL_v2","pSARL_v2em69lx6m","60cfdcfdf8a3c6c42dad17d3","freq_resp","img/orange_2bandit_b.png","70","70","test","","","","2","",""
"null","123036","pSARL_v2","pSARL_v2em69lx6m","60cfdcfdf8a3c6c42dad17d3","fixation","img/fixation.png","null","","test","","","","","",""
"392","123431","pSARL_v2","pSARL_v2em69lx6m","60cfdcfdf8a3c6c42dad17d3","freq","img/orange_2bandit_b2.png","70","70","test","1","30","30","2","",""
"null","123848","pSARL_v2","pSARL_v2em69lx6m","60cfdcfdf8a3c6c42dad17d3","freq_resp","img/orange_2bandit_b.png","70","70","test","","","","2","",""
"null","124014","pSARL_v2","pSARL_v2em69lx6m","60cfdcfdf8a3c6c42dad17d3","fixation","img/fixation.png","null","","test","","","","","",""
"546","124562","pSARL_v2","pSARL_v2em69lx6m","60cfdcfdf8a3c6c42dad17d3","freq","img/orange_2bandit_b2.png","70","70","test","1","31","31","2","",""
"null","124830","pSARL_v2","pSARL_v2em69lx6m","60cfdcfdf8a3c6c42dad17d3","freq_resp","img/orange_2bandit_b.png","70","70","test","","","","2","",""
"null","124992","pSARL_v2","pSARL_v2em69lx6m","60cfdcfdf8a3c6c42dad17d3","fixation","img/fixation.png","null","","test","","","","","",""
"408","125404","pSARL_v2","pSARL_v2em69lx6m","60cfdcfdf8a3c6c42dad17d3","freq","img/orange_2bandit_b2.png","70","70","test","1","32","32","2","",""
"null","125802","pSARL_v2","pSARL_v2em69lx6m","60cfdcfdf8a3c6c42dad17d3","freq_resp","img/orange_2bandit_b.png","70","70","test","","","","2","",""
"null","125965","pSARL_v2","pSARL_v2em69lx6m","60cfdcfdf8a3c6c42dad17d3","fixation","img/fixation.png","null","","test","","","","","",""
"307","126274","pSARL_v2","pSARL_v2em69lx6m","60cfdcfdf8a3c6c42dad17d3","freq","img/orange_2bandit_b2.png","70","70","test","1","33","33","2","",""
"null","126779","pSARL_v2","pSARL_v2em69lx6m","60cfdcfdf8a3c6c42dad17d3","freq_resp","img/orange_2bandit_b.png","70","70","test","","","","2","",""
"null","126934","pSARL_v2","pSARL_v2em69lx6m","60cfdcfdf8a3c6c42dad17d3","fixation","img/fixation.png","null","","test","","","","","",""
"353","127289","pSARL_v2","pSARL_v2em69lx6m","60cfdcfdf8a3c6c42dad17d3","freq","img/orange_2bandit_b2.png","70","70","test","1","34","34","2","",""
"null","127743","pSARL_v2","pSARL_v2em69lx6m","60cfdcfdf8a3c6c42dad17d3","freq_resp","img/orange_2bandit_b.png","70","70","test","","","","2","",""
"null","127899","pSARL_v2","pSARL_v2em69lx6m","60cfdcfdf8a3c6c42dad17d3","fixation","img/fixation.png","null","","test","","","","","",""
"405","128307","pSARL_v2","pSARL_v2em69lx6m","60cfdcfdf8a3c6c42dad17d3","freq","img/orange_2bandit_b2.png","70","70","test","1","35","35","2","",""
"null","128719","pSARL_v2","pSARL_v2em69lx6m","60cfdcfdf8a3c6c42dad17d3","freq_resp","img/orange_2bandit_b.png","70","70","test","","","","2","",""
"null","128885","pSARL_v2","pSARL_v2em69lx6m","60cfdcfdf8a3c6c42dad17d3","fixation","img/fixation.png","null","","test","","","","","",""
"524","129410","pSARL_v2","pSARL_v2em69lx6m","60cfdcfdf8a3c6c42dad17d3","freq","img/orange_2bandit_b2.png","70","70","test","1","36","36","2","",""
"null","129698","pSARL_v2","pSARL_v2em69lx6m","60cfdcfdf8a3c6c42dad17d3","freq_resp","img/orange_2bandit_b.png","70","70","test","","","","2","",""
"null","129864","pSARL_v2","pSARL_v2em69lx6m","60cfdcfdf8a3c6c42dad17d3","fixation","img/fixation.png","null","","test","","","","","",""
"492","130357","pSARL_v2","pSARL_v2em69lx6m","60cfdcfdf8a3c6c42dad17d3","freq","img/orange_2bandit_b2.png","70","70","test","1","37","37","2","",""
"null","130670","pSARL_v2","pSARL_v2em69lx6m","60cfdcfdf8a3c6c42dad17d3","freq_resp","img/orange_2bandit_b.png","70","70","test","","","","2","",""
"null","130836","pSARL_v2","pSARL_v2em69lx6m","60cfdcfdf8a3c6c42dad17d3","fixation","img/fixation.png","null","","test","","","","","",""
"436","131273","pSARL_v2","pSARL_v2em69lx6m","60cfdcfdf8a3c6c42dad17d3","freq","img/orange_2bandit_b2.png","70","70","test","1","38","38","2","",""
"null","131642","pSARL_v2","pSARL_v2em69lx6m","60cfdcfdf8a3c6c42dad17d3","freq_resp","img/orange_2bandit_b.png","70","70","test","","","","2","",""
"null","131807","pSARL_v2","pSARL_v2em69lx6m","60cfdcfdf8a3c6c42dad17d3","fixation","img/fixation.png","null","","test","","","","","",""
"375","132184","pSARL_v2","pSARL_v2em69lx6m","60cfdcfdf8a3c6c42dad17d3","freq","img/orange_2bandit_b2.png","70","70","test","1","39","39","2","",""
"null","132615","pSARL_v2","pSARL_v2em69lx6m","60cfdcfdf8a3c6c42dad17d3","freq_resp","img/orange_2bandit_b.png","70","70","test","","","","2","",""
"null","132770","pSARL_v2","pSARL_v2em69lx6m","60cfdcfdf8a3c6c42dad17d3","fixation","img/fixation.png","null","","test","","","","","",""
"403","133176","pSARL_v2","pSARL_v2em69lx6m","60cfdcfdf8a3c6c42dad17d3","freq","img/orange_2bandit_b2.png","70","70","test","1","40","40","2","",""
"null","133583","pSARL_v2","pSARL_v2em69lx6m","60cfdcfdf8a3c6c42dad17d3","freq_resp","img/orange_2bandit_b.png","70","70","test","","","","2","",""
"null","133750","pSARL_v2","pSARL_v2em69lx6m","60cfdcfdf8a3c6c42dad17d3","fixation","img/fixation.png","null","","test","","","","","",""
"504","134256","pSARL_v2","pSARL_v2em69lx6m","60cfdcfdf8a3c6c42dad17d3","reward","img/slot.png","74","","test","","","","","",""
"null","135016","pSARL_v2","pSARL_v2em69lx6m","60cfdcfdf8a3c6c42dad17d3","points","<div class=""verylowPoints""> -11 </div>","null","na","test","","","","2","-11","1"
"427","135445","pSARL_v2","pSARL_v2em69lx6m","60cfdcfdf8a3c6c42dad17d3","freq","img/orange_2bandit_b2.png","70","70","test","1","41","41","3","",""
"null","135836","pSARL_v2","pSARL_v2em69lx6m","60cfdcfdf8a3c6c42dad17d3","freq_resp","img/orange_2bandit_b.png","70","70","test","","","","3","",""
"null","135997","pSARL_v2","pSARL_v2em69lx6m","60cfdcfdf8a3c6c42dad17d3","fixation","img/fixation.png","null","","test","","","","","",""
"380","136378","pSARL_v2","pSARL_v2em69lx6m","60cfdcfdf8a3c6c42dad17d3","freq","img/orange_2bandit_b2.png","70","70","test","1","42","42","3","",""
"null","136805","pSARL_v2","pSARL_v2em69lx6m","60cfdcfdf8a3c6c42dad17d3","freq_resp","img/orange_2bandit_b.png","70","70","test","","","","3","",""
"null","136970","pSARL_v2","pSARL_v2em69lx6m","60cfdcfdf8a3c6c42dad17d3","fixation","img/fixation.png","null","","test","","","","","",""
"428","137401","pSARL_v2","pSARL_v2em69lx6m","60cfdcfdf8a3c6c42dad17d3","freq","img/orange_2bandit_b2.png","70","70","test","1","43","43","3","",""
"null","137785","pSARL_v2","pSARL_v2em69lx6m","60cfdcfdf8a3c6c42dad17d3","freq_resp","img/orange_2bandit_b.png","70","70","test","","","","3","",""
"null","137939","pSARL_v2","pSARL_v2em69lx6m","60cfdcfdf8a3c6c42dad17d3","fixation","img/fixation.png","null","","test","","","","","",""
"498","138439","pSARL_v2","pSARL_v2em69lx6m","60cfdcfdf8a3c6c42dad17d3","freq","img/orange_2bandit_b2.png","70","70","test","1","44","44","3","",""
"null","138757","pSARL_v2","pSARL_v2em69lx6m","60cfdcfdf8a3c6c42dad17d3","freq_resp","img/orange_2bandit_b.png","70","70","test","","","","3","",""
"null","138911","pSARL_v2","pSARL_v2em69lx6m","60cfdcfdf8a3c6c42dad17d3","fixation","img/fixation.png","null","","test","","","","","",""
"395","139308","pSARL_v2","pSARL_v2em69lx6m","60cfdcfdf8a3c6c42dad17d3","freq","img/orange_2bandit_b2.png","70","70","test","1","45","45","3","",""
"null","139725","pSARL_v2","pSARL_v2em69lx6m","60cfdcfdf8a3c6c42dad17d3","freq_resp","img/orange_2bandit_b.png","70","70","test","","","","3","",""
"null","139890","pSARL_v2","pSARL_v2em69lx6m","60cfdcfdf8a3c6c42dad17d3","fixation","img/fixation.png","null","","test","","","","","",""
"407","140300","pSARL_v2","pSARL_v2em69lx6m","60cfdcfdf8a3c6c42dad17d3","freq","img/orange_2bandit_b2.png","70","70","test","1","46","46","3","",""
"null","140711","pSARL_v2","pSARL_v2em69lx6m","60cfdcfdf8a3c6c42dad17d3","freq_resp","img/orange_2bandit_b.png","70","70","test","","","","3","",""
"null","140876","pSARL_v2","pSARL_v2em69lx6m","60cfdcfdf8a3c6c42dad17d3","fixation","img/fixation.png","null","","test","","","","","",""
"551","141429","pSARL_v2","pSARL_v2em69lx6m","60cfdcfdf8a3c6c42dad17d3","freq","img/orange_2bandit_b2.png","70","70","test","1","47","47","3","",""
"null","141685","pSARL_v2","pSARL_v2em69lx6m","60cfdcfdf8a3c6c42dad17d3","freq_resp","img/orange_2bandit_b.png","70","70","test","","","","3","",""
"null","141841","pSARL_v2","pSARL_v2em69lx6m","60cfdcfdf8a3c6c42dad17d3","fixation","img/fixation.png","null","","test","","","","","",""
"461","142305","pSARL_v2","pSARL_v2em69lx6m","60cfdcfdf8a3c6c42dad17d3","freq","img/orange_2bandit_b2.png","70","70","test","1","48","48","3","",""
"null","142653","pSARL_v2","pSARL_v2em69lx6m","60cfdcfdf8a3c6c42dad17d3","freq_resp","img/orange_2bandit_b.png","70","70","test","","","","3","",""
"null","142820","pSARL_v2","pSARL_v2em69lx6m","60cfdcfdf8a3c6c42dad17d3","fixation","img/fixation.png","null","","test","","","","","",""
"526","143349","pSARL_v2","pSARL_v2em69lx6m","60cfdcfdf8a3c6c42dad17d3","freq","img/orange_2bandit_b2.png","70","70","test","1","49","49","3","",""
"null","143629","pSARL_v2","pSARL_v2em69lx6m","60cfdcfdf8a3c6c42dad17d3","freq_resp","img/orange_2bandit_b.png","70","70","test","","","","3","",""
"null","143792","pSARL_v2","pSARL_v2em69lx6m","60cfdcfdf8a3c6c42dad17d3","fixation","img/fixation.png","null","","test","","","","","",""
"396","144191","pSARL_v2","pSARL_v2em69lx6m","60cfdcfdf8a3c6c42dad17d3","freq","img/orange_2bandit_b2.png","70","70","test","1","50","50","3","",""
"null","144602","pSARL_v2","pSARL_v2em69lx6m","60cfdcfdf8a3c6c42dad17d3","freq_resp","img/orange_2bandit_b.png","70","70","test","","","","3","",""
"null","144763","pSARL_v2","pSARL_v2em69lx6m","60cfdcfdf8a3c6c42dad17d3","fixation","img/fixation.png","null","","test","","","","","",""
"393","145159","pSARL_v2","pSARL_v2em69lx6m","60cfdcfdf8a3c6c42dad17d3","freq","img/orange_2bandit_b2.png","70","70","test","1","51","51","3","",""
"null","145576","pSARL_v2","pSARL_v2em69lx6m","60cfdcfdf8a3c6c42dad17d3","freq_resp","img/orange_2bandit_b.png","70","70","test","","","","3","",""
"null","145742","pSARL_v2","pSARL_v2em69lx6m","60cfdcfdf8a3c6c42dad17d3","fixation","img/fixation.png","null","","test","","","","","",""
"447","146191","pSARL_v2","pSARL_v2em69lx6m","60cfdcfdf8a3c6c42dad17d3","freq","img/orange_2bandit_b2.png","70","70","test","1","52","52","3","",""
"null","146556","pSARL_v2","pSARL_v2em69lx6m","60cfdcfdf8a3c6c42dad17d3","freq_resp","img/orange_2bandit_b.png","70","70","test","","","","3","",""
"null","146711","pSARL_v2","pSARL_v2em69lx6m","60cfdcfdf8a3c6c42dad17d3","fixation","img/fixation.png","null","","test","","","","","",""
"444","147157","pSARL_v2","pSARL_v2em69lx6m","60cfdcfdf8a3c6c42dad17d3","freq","img/orange_2bandit_b2.png","70","70","test","1","53","53","3","",""
"null","147525","pSARL_v2","pSARL_v2em69lx6m","60cfdcfdf8a3c6c42dad17d3","freq_resp","img/orange_2bandit_b.png","70","70","test","","","","3","",""
"null","147691","pSARL_v2","pSARL_v2em69lx6m","60cfdcfdf8a3c6c42dad17d3","fixation","img/fixation.png","null","","test","","","","","",""
"473","148167","pSARL_v2","pSARL_v2em69lx6m","60cfdcfdf8a3c6c42dad17d3","freq","img/orange_2bandit_b2.png","70","70","test","1","54","54","3","",""
"null","148501","pSARL_v2","pSARL_v2em69lx6m","60cfdcfdf8a3c6c42dad17d3","freq_resp","img/orange_2bandit_b.png","70","70","test","","","","3","",""
"null","148670","pSARL_v2","pSARL_v2em69lx6m","60cfdcfdf8a3c6c42dad17d3","fixation","img/fixation.png","null","","test","","","","","",""
"396","149069","pSARL_v2","pSARL_v2em69lx6m","60cfdcfdf8a3c6c42dad17d3","freq","img/orange_2bandit_b2.png","70","70","test","1","55","55","3","",""
"null","149482","pSARL_v2","pSARL_v2em69lx6m","60cfdcfdf8a3c6c42dad17d3","freq_resp","img/orange_2bandit_b.png","70","70","test","","","","3","",""
"null","149649","pSARL_v2","pSARL_v2em69lx6m","60cfdcfdf8a3c6c42dad17d3","fixation","img/fixation.png","null","","test","","","","","",""
"498","150149","pSARL_v2","pSARL_v2em69lx6m","60cfdcfdf8a3c6c42dad17d3","infreq","img/green_2bandit_b2.png","68","68","test","1","56","56","3","",""
"null","150454","pSARL_v2","pSARL_v2em69lx6m","60cfdcfdf8a3c6c42dad17d3","infreq_resp","img/green_2bandit_b.png","68","68","test","","","","3","",""
"null","150620","pSARL_v2","pSARL_v2em69lx6m","60cfdcfdf8a3c6c42dad17d3","fixation","img/fixation.png","null","","test","","","","","",""
"481","151103","pSARL_v2","pSARL_v2em69lx6m","60cfdcfdf8a3c6c42dad17d3","freq","img/orange_2bandit_b2.png","70","70","test","1","57","57","3","",""
"null","151437","pSARL_v2","pSARL_v2em69lx6m","60cfdcfdf8a3c6c42dad17d3","freq_resp","img/orange_2bandit_b.png","70","70","test","","","","3","",""
"null","151605","pSARL_v2","pSARL_v2em69lx6m","60cfdcfdf8a3c6c42dad17d3","fixation","img/fixation.png","null","","test","","","","","",""
"450","152057","pSARL_v2","pSARL_v2em69lx6m","60cfdcfdf8a3c6c42dad17d3","freq","img/orange_2bandit_b2.png","70","70","test","1","58","58","3","",""
"null","152412","pSARL_v2","pSARL_v2em69lx6m","60cfdcfdf8a3c6c42dad17d3","freq_resp","img/orange_2bandit_b.png","70","70","test","","","","3","",""
"null","152579","pSARL_v2","pSARL_v2em69lx6m","60cfdcfdf8a3c6c42dad17d3","fixation","img/fixation.png","null","","test","","","","","",""
"478","153059","pSARL_v2","pSARL_v2em69lx6m","60cfdcfdf8a3c6c42dad17d3","freq","img/orange_2bandit_b2.png","70","70","test","1","59","59","3","",""
"null","153394","pSARL_v2","pSARL_v2em69lx6m","60cfdcfdf8a3c6c42dad17d3","freq_resp","img/orange_2bandit_b.png","70","70","test","","","","3","",""
"null","153561","pSARL_v2","pSARL_v2em69lx6m","60cfdcfdf8a3c6c42dad17d3","fixation","img/fixation.png","null","","test","","","","","",""
"482","154046","pSARL_v2","pSARL_v2em69lx6m","60cfdcfdf8a3c6c42dad17d3","infreq","img/green_2bandit_b2.png","68","68","test","1","60","60","3","",""
"null","154379","pSARL_v2","pSARL_v2em69lx6m","60cfdcfdf8a3c6c42dad17d3","infreq_resp","img/green_2bandit_b.png","68","68","test","","","","3","",""
"null","154547","pSARL_v2","pSARL_v2em69lx6m","60cfdcfdf8a3c6c42dad17d3","fixation","img/fixation.png","null","","test","","","","","",""
"639","155188","pSARL_v2","pSARL_v2em69lx6m","60cfdcfdf8a3c6c42dad17d3","freq","img/orange_2bandit_b2.png","70","70","test","1","61","61","3","",""
"null","155360","pSARL_v2","pSARL_v2em69lx6m","60cfdcfdf8a3c6c42dad17d3","freq_resp","img/orange_2bandit_b.png","70","70","test","","","","3","",""
"null","155525","pSARL_v2","pSARL_v2em69lx6m","60cfdcfdf8a3c6c42dad17d3","fixation","img/fixation.png","null","","test","","","","","",""
"403","155929","pSARL_v2","pSARL_v2em69lx6m","60cfdcfdf8a3c6c42dad17d3","freq","img/orange_2bandit_b2.png","70","70","test","1","62","62","3","",""
"null","156345","pSARL_v2","pSARL_v2em69lx6m","60cfdcfdf8a3c6c42dad17d3","freq_resp","img/orange_2bandit_b.png","70","70","test","","","","3","",""
"null","156510","pSARL_v2","pSARL_v2em69lx6m","60cfdcfdf8a3c6c42dad17d3","fixation","img/fixation.png","null","","test","","","","","",""
"505","157018","pSARL_v2","pSARL_v2em69lx6m","60cfdcfdf8a3c6c42dad17d3","reward","img/slot.png","74","","test","","","","","",""
"null","157781","pSARL_v2","pSARL_v2em69lx6m","60cfdcfdf8a3c6c42dad17d3","points","<div class=""verylowPoints""> -7 </div>","null","na","test","","","","3","-7","2"
"437","158219","pSARL_v2","pSARL_v2em69lx6m","60cfdcfdf8a3c6c42dad17d3","freq","img/orange_2bandit_b2.png","70","70","test","1","63","63","4","",""
"null","158588","pSARL_v2","pSARL_v2em69lx6m","60cfdcfdf8a3c6c42dad17d3","freq_resp","img/orange_2bandit_b.png","70","70","test","","","","4","",""
"null","158752","pSARL_v2","pSARL_v2em69lx6m","60cfdcfdf8a3c6c42dad17d3","fixation","img/fixation.png","null","","test","","","","","",""
"442","159196","pSARL_v2","pSARL_v2em69lx6m","60cfdcfdf8a3c6c42dad17d3","infreq","img/green_2bandit_b2.png","68","68","test","1","64","64","4","",""
"null","159560","pSARL_v2","pSARL_v2em69lx6m","60cfdcfdf8a3c6c42dad17d3","infreq_resp","img/green_2bandit_b.png","68","68","test","","","","4","",""
"null","159724","pSARL_v2","pSARL_v2em69lx6m","60cfdcfdf8a3c6c42dad17d3","fixation","img/fixation.png","null","","test","","","","","",""
"410","160136","pSARL_v2","pSARL_v2em69lx6m","60cfdcfdf8a3c6c42dad17d3","freq","img/orange_2bandit_b2.png","70","70","test","1","65","65","4","",""
"null","160535","pSARL_v2","pSARL_v2em69lx6m","60cfdcfdf8a3c6c42dad17d3","freq_resp","img/orange_2bandit_b.png","70","70","test","","","","4","",""
"null","160702","pSARL_v2","pSARL_v2em69lx6m","60cfdcfdf8a3c6c42dad17d3","fixation","img/fixation.png","null","","test","","","","","",""
"287","160993","pSARL_v2","pSARL_v2em69lx6m","60cfdcfdf8a3c6c42dad17d3","freq","img/orange_2bandit_b2.png","70","70","test","1","66","66","4","",""
"null","161514","pSARL_v2","pSARL_v2em69lx6m","60cfdcfdf8a3c6c42dad17d3","freq_resp","img/orange_2bandit_b.png","70","70","test","","","","4","",""
"null","161681","pSARL_v2","pSARL_v2em69lx6m","60cfdcfdf8a3c6c42dad17d3","fixation","img/fixation.png","null","","test","","","","","",""
"365","162048","pSARL_v2","pSARL_v2em69lx6m","60cfdcfdf8a3c6c42dad17d3","freq","img/orange_2bandit_b2.png","70","70","test","1","67","67","4","",""
"null","162489","pSARL_v2","pSARL_v2em69lx6m","60cfdcfdf8a3c6c42dad17d3","freq_resp","img/orange_2bandit_b.png","70","70","test","","","","4","",""
"null","162645","pSARL_v2","pSARL_v2em69lx6m","60cfdcfdf8a3c6c42dad17d3","fixation","img/fixation.png","null","","test","","","","","",""
"455","163102","pSARL_v2","pSARL_v2em69lx6m","60cfdcfdf8a3c6c42dad17d3","infreq","img/green_2bandit_b2.png","68","68","test","1","68","68","4","",""
"null","163451","pSARL_v2","pSARL_v2em69lx6m","60cfdcfdf8a3c6c42dad17d3","infreq_resp","img/green_2bandit_b.png","68","68","test","","","","4","",""
"null","163617","pSARL_v2","pSARL_v2em69lx6m","60cfdcfdf8a3c6c42dad17d3","fixation","img/fixation.png","null","","test","","","","","",""
"444","164063","pSARL_v2","pSARL_v2em69lx6m","60cfdcfdf8a3c6c42dad17d3","freq","img/orange_2bandit_b2.png","70","70","test","1","69","69","4","",""
"null","164437","pSARL_v2","pSARL_v2em69lx6m","60cfdcfdf8a3c6c42dad17d3","freq_resp","img/orange_2bandit_b.png","70","70","test","","","","4","",""
"null","164603","pSARL_v2","pSARL_v2em69lx6m","60cfdcfdf8a3c6c42dad17d3","fixation","img/fixation.png","null","","test","","","","","",""
"370","164975","pSARL_v2","pSARL_v2em69lx6m","60cfdcfdf8a3c6c42dad17d3","freq","img/orange_2bandit_b2.png","70","70","test","1","70","70","4","",""
"null","165417","pSARL_v2","pSARL_v2em69lx6m","60cfdcfdf8a3c6c42dad17d3","freq_resp","img/orange_2bandit_b.png","70","70","test","","","","4","",""
"null","165572","pSARL_v2","pSARL_v2em69lx6m","60cfdcfdf8a3c6c42dad17d3","fixation","img/fixation.png","null","","test","","","","","",""
"292","165867","pSARL_v2","pSARL_v2em69lx6m","60cfdcfdf8a3c6c42dad17d3","freq","img/orange_2bandit_b2.png","70","70","test","1","71","71","4","",""
"null","166391","pSARL_v2","pSARL_v2em69lx6m","60cfdcfdf8a3c6c42dad17d3","freq_resp","img/orange_2bandit_b.png","70","70","test","","","","4","",""
"null","166560","pSARL_v2","pSARL_v2em69lx6m","60cfdcfdf8a3c6c42dad17d3","fixation","img/fixation.png","null","","test","","","","","",""
"296","166857","pSARL_v2","pSARL_v2em69lx6m","60cfdcfdf8a3c6c42dad17d3","freq","img/orange_2bandit_b2.png","70","70","test","1","72","72","4","",""
"null","167376","pSARL_v2","pSARL_v2em69lx6m","60cfdcfdf8a3c6c42dad17d3","freq_resp","img/orange_2bandit_b.png","70","70","test","","","","4","",""
"null","167546","pSARL_v2","pSARL_v2em69lx6m","60cfdcfdf8a3c6c42dad17d3","fixation","img/fixation.png","null","","test","","","","","",""
"311","167860","pSARL_v2","pSARL_v2em69lx6m","60cfdcfdf8a3c6c42dad17d3","freq","img/orange_2bandit_b2.png","70","70","test","1","73","73","4","",""
"null","168361","pSARL_v2","pSARL_v2em69lx6m","60cfdcfdf8a3c6c42dad17d3","freq_resp","img/orange_2bandit_b.png","70","70","test","","","","4","",""
"null","168524","pSARL_v2","pSARL_v2em69lx6m","60cfdcfdf8a3c6c42dad17d3","fixation","img/fixation.png","null","","test","","","","","",""
"241","168767","pSARL_v2","pSARL_v2em69lx6m","60cfdcfdf8a3c6c42dad17d3","freq","img/orange_2bandit_b2.png","70","70","test","1","74","74","4","",""
"null","169331","pSARL_v2","pSARL_v2em69lx6m","60cfdcfdf8a3c6c42dad17d3","freq_resp","img/orange_2bandit_b.png","70","70","test","","","","4","",""
"null","169494","pSARL_v2","pSARL_v2em69lx6m","60cfdcfdf8a3c6c42dad17d3","fixation","img/fixation.png","null","","test","","","","","",""
"147","169644","pSARL_v2","pSARL_v2em69lx6m","60cfdcfdf8a3c6c42dad17d3","freq","img/orange_2bandit_b2.png","70","70","test","1","75","75","4","",""
"null","170307","pSARL_v2","pSARL_v2em69lx6m","60cfdcfdf8a3c6c42dad17d3","freq_resp","img/orange_2bandit_b.png","70","70","test","","","","4","",""
"null","170473","pSARL_v2","pSARL_v2em69lx6m","60cfdcfdf8a3c6c42dad17d3","fixation","img/fixation.png","null","","test","","","","","",""
"245","170721","pSARL_v2","pSARL_v2em69lx6m","60cfdcfdf8a3c6c42dad17d3","freq","img/orange_2bandit_b2.png","70","70","test","1","76","76","4","",""
"null","171290","pSARL_v2","pSARL_v2em69lx6m","60cfdcfdf8a3c6c42dad17d3","freq_resp","img/orange_2bandit_b.png","70","70","test","","","","4","",""
"null","171452","pSARL_v2","pSARL_v2em69lx6m","60cfdcfdf8a3c6c42dad17d3","fixation","img/fixation.png","null","","test","","","","","",""
"291","171746","pSARL_v2","pSARL_v2em69lx6m","60cfdcfdf8a3c6c42dad17d3","freq","img/orange_2bandit_b2.png","70","70","test","1","77","77","4","",""
"null","172261","pSARL_v2","pSARL_v2em69lx6m","60cfdcfdf8a3c6c42dad17d3","freq_resp","img/orange_2bandit_b.png","70","70","test","","","","4","",""
"null","172424","pSARL_v2","pSARL_v2em69lx6m","60cfdcfdf8a3c6c42dad17d3","fixation","img/fixation.png","null","","test","","","","","",""
"231","172657","pSARL_v2","pSARL_v2em69lx6m","60cfdcfdf8a3c6c42dad17d3","freq","img/orange_2bandit_b2.png","70","70","test","1","78","78","4","",""
"null","173240","pSARL_v2","pSARL_v2em69lx6m","60cfdcfdf8a3c6c42dad17d3","freq_resp","img/orange_2bandit_b.png","70","70","test","","","","4","",""
"null","173409","pSARL_v2","pSARL_v2em69lx6m","60cfdcfdf8a3c6c42dad17d3","fixation","img/fixation.png","null","","test","","","","","",""
"273","173683","pSARL_v2","pSARL_v2em69lx6m","60cfdcfdf8a3c6c42dad17d3","freq","img/orange_2bandit_b2.png","70","70","test","1","79","79","4","",""
"null","174220","pSARL_v2","pSARL_v2em69lx6m","60cfdcfdf8a3c6c42dad17d3","freq_resp","img/orange_2bandit_b.png","70","70","test","","","","4","",""
"null","174387","pSARL_v2","pSARL_v2em69lx6m","60cfdcfdf8a3c6c42dad17d3","fixation","img/fixation.png","null","","test","","","","","",""
"252","174640","pSARL_v2","pSARL_v2em69lx6m","60cfdcfdf8a3c6c42dad17d3","freq","img/orange_2bandit_b2.png","70","70","test","1","80","80","4","",""
"null","175193","pSARL_v2","pSARL_v2em69lx6m","60cfdcfdf8a3c6c42dad17d3","freq_resp","img/orange_2bandit_b.png","70","70","test","","","","4","",""
"null","175358","pSARL_v2","pSARL_v2em69lx6m","60cfdcfdf8a3c6c42dad17d3","fixation","img/fixation.png","null","","test","","","","","",""
"279","175639","pSARL_v2","pSARL_v2em69lx6m","60cfdcfdf8a3c6c42dad17d3","freq","img/orange_2bandit_b2.png","70","70","test","1","81","81","4","",""
"null","176178","pSARL_v2","pSARL_v2em69lx6m","60cfdcfdf8a3c6c42dad17d3","freq_resp","img/orange_2bandit_b.png","70","70","test","","","","4","",""
"null","176344","pSARL_v2","pSARL_v2em69lx6m","60cfdcfdf8a3c6c42dad17d3","fixation","img/fixation.png","null","","test","","","","","",""
"207","176553","pSARL_v2","pSARL_v2em69lx6m","60cfdcfdf8a3c6c42dad17d3","freq","img/orange_2bandit_b2.png","70","70","test","1","82","82","4","",""
"null","177156","pSARL_v2","pSARL_v2em69lx6m","60cfdcfdf8a3c6c42dad17d3","freq_resp","img/orange_2bandit_b.png","70","70","test","","","","4","",""
"null","177322","pSARL_v2","pSARL_v2em69lx6m","60cfdcfdf8a3c6c42dad17d3","fixation","img/fixation.png","null","","test","","","","","",""
"259","177583","pSARL_v2","pSARL_v2em69lx6m","60cfdcfdf8a3c6c42dad17d3","freq","img/orange_2bandit_b2.png","70","70","test","1","83","83","4","",""
"null","178136","pSARL_v2","pSARL_v2em69lx6m","60cfdcfdf8a3c6c42dad17d3","freq_resp","img/orange_2bandit_b.png","70","70","test","","","","4","",""
"null","178300","pSARL_v2","pSARL_v2em69lx6m","60cfdcfdf8a3c6c42dad17d3","fixation","img/fixation.png","null","","test","","","","","",""
"546","178849","pSARL_v2","pSARL_v2em69lx6m","60cfdcfdf8a3c6c42dad17d3","reward","img/slot.png","74","","test","","","","","",""
"null","179609","pSARL_v2","pSARL_v2em69lx6m","60cfdcfdf8a3c6c42dad17d3","points","<div class=""verylowPoints""> -3 </div>","null","na","test","","","","4","-3","3"
"469","180082","pSARL_v2","pSARL_v2em69lx6m","60cfdcfdf8a3c6c42dad17d3","freq","img/orange_2bandit_b2.png","70","70","test","1","84","84","5","",""
"null","180430","pSARL_v2","pSARL_v2em69lx6m","60cfdcfdf8a3c6c42dad17d3","freq_resp","img/orange_2bandit_b.png","70","70","test","","","","5","",""
"null","180592","pSARL_v2","pSARL_v2em69lx6m","60cfdcfdf8a3c6c42dad17d3","fixation","img/fixation.png","null","","test","","","","","",""
"278","180872","pSARL_v2","pSARL_v2em69lx6m","60cfdcfdf8a3c6c42dad17d3","freq","img/orange_2bandit_b2.png","70","70","test","1","85","85","5","",""
"null","181409","pSARL_v2","pSARL_v2em69lx6m","60cfdcfdf8a3c6c42dad17d3","freq_resp","img/orange_2bandit_b.png","70","70","test","","","","5","",""
"null","181569","pSARL_v2","pSARL_v2em69lx6m","60cfdcfdf8a3c6c42dad17d3","fixation","img/fixation.png","null","","test","","","","","",""
"137","181708","pSARL_v2","pSARL_v2em69lx6m","60cfdcfdf8a3c6c42dad17d3","freq","img/orange_2bandit_b2.png","70","70","test","1","86","86","5","",""
"null","182384","pSARL_v2","pSARL_v2em69lx6m","60cfdcfdf8a3c6c42dad17d3","freq_resp","img/orange_2bandit_b.png","70","70","test","","","","5","",""
"null","182539","pSARL_v2","pSARL_v2em69lx6m","60cfdcfdf8a3c6c42dad17d3","fixation","img/fixation.png","null","","test","","","","","",""
"250","182792","pSARL_v2","pSARL_v2em69lx6m","60cfdcfdf8a3c6c42dad17d3","freq","img/orange_2bandit_b2.png","70","70","test","1","87","87","5","",""
"null","183356","pSARL_v2","pSARL_v2em69lx6m","60cfdcfdf8a3c6c42dad17d3","freq_resp","img/orange_2bandit_b.png","70","70","test","","","","5","",""
"null","183510","pSARL_v2","pSARL_v2em69lx6m","60cfdcfdf8a3c6c42dad17d3","fixation","img/fixation.png","null","","test","","","","","",""
"382","183893","pSARL_v2","pSARL_v2em69lx6m","60cfdcfdf8a3c6c42dad17d3","freq","img/orange_2bandit_b2.png","70","70","test","1","88","88","5","",""
"null","184320","pSARL_v2","pSARL_v2em69lx6m","60cfdcfdf8a3c6c42dad17d3","freq_resp","img/orange_2bandit_b.png","70","70","test","","","","5","",""
"null","184473","pSARL_v2","pSARL_v2em69lx6m","60cfdcfdf8a3c6c42dad17d3","fixation","img/fixation.png","null","","test","","","","","",""
"321","184797","pSARL_v2","pSARL_v2em69lx6m","60cfdcfdf8a3c6c42dad17d3","freq","img/orange_2bandit_b2.png","70","70","test","1","89","89","5","",""
"null","185291","pSARL_v2","pSARL_v2em69lx6m","60cfdcfdf8a3c6c42dad17d3","freq_resp","img/orange_2bandit_b.png","70","70","test","","","","5","",""
"null","185455","pSARL_v2","pSARL_v2em69lx6m","60cfdcfdf8a3c6c42dad17d3","fixation","img/fixation.png","null","","test","","","","","",""
"329","185787","pSARL_v2","pSARL_v2em69lx6m","60cfdcfdf8a3c6c42dad17d3","freq","img/orange_2bandit_b2.png","70","70","test","1","90","90","5","",""
"null","186275","pSARL_v2","pSARL_v2em69lx6m","60cfdcfdf8a3c6c42dad17d3","freq_resp","img/orange_2bandit_b.png","70","70","test","","","","5","",""
"null","186441","pSARL_v2","pSARL_v2em69lx6m","60cfdcfdf8a3c6c42dad17d3","fixation","img/fixation.png","null","","test","","","","","",""
"290","186733","pSARL_v2","pSARL_v2em69lx6m","60cfdcfdf8a3c6c42dad17d3","freq","img/orange_2bandit_b2.png","70","70","test","1","91","91","5","",""
"null","187258","pSARL_v2","pSARL_v2em69lx6m","60cfdcfdf8a3c6c42dad17d3","freq_resp","img/orange_2bandit_b.png","70","70","test","","","","5","",""
"null","187413","pSARL_v2","pSARL_v2em69lx6m","60cfdcfdf8a3c6c42dad17d3","fixation","img/fixation.png","null","","test","","","","","",""
"297","187712","pSARL_v2","pSARL_v2em69lx6m","60cfdcfdf8a3c6c42dad17d3","freq","img/orange_2bandit_b2.png","70","70","test","1","92","92","5","",""
"null","188228","pSARL_v2","pSARL_v2em69lx6m","60cfdcfdf8a3c6c42dad17d3","freq_resp","img/orange_2bandit_b.png","70","70","test","","","","5","",""
"null","188391","pSARL_v2","pSARL_v2em69lx6m","60cfdcfdf8a3c6c42dad17d3","fixation","img/fixation.png","null","","test","","","","","",""
"439","188832","pSARL_v2","pSARL_v2em69lx6m","60cfdcfdf8a3c6c42dad17d3","freq","img/orange_2bandit_b2.png","70","70","test","1","93","93","5","",""
"null","189213","pSARL_v2","pSARL_v2em69lx6m","60cfdcfdf8a3c6c42dad17d3","freq_resp","img/orange_2bandit_b.png","70","70","test","","","","5","",""
"null","189367","pSARL_v2","pSARL_v2em69lx6m","60cfdcfdf8a3c6c42dad17d3","fixation","img/fixation.png","null","","test","","","","","",""
"436","189805","pSARL_v2","pSARL_v2em69lx6m","60cfdcfdf8a3c6c42dad17d3","freq","img/orange_2bandit_b2.png","70","70","test","1","94","94","5","",""
"null","190185","pSARL_v2","pSARL_v2em69lx6m","60cfdcfdf8a3c6c42dad17d3","freq_resp","img/orange_2bandit_b.png","70","70","test","","","","5","",""
"null","190339","pSARL_v2","pSARL_v2em69lx6m","60cfdcfdf8a3c6c42dad17d3","fixation","img/fixation.png","null","","test","","","","","",""
"323","190665","pSARL_v2","pSARL_v2em69lx6m","60cfdcfdf8a3c6c42dad17d3","freq","img/orange_2bandit_b2.png","70","70","test","1","95","95","5","",""
"null","191155","pSARL_v2","pSARL_v2em69lx6m","60cfdcfdf8a3c6c42dad17d3","freq_resp","img/orange_2bandit_b.png","70","70","test","","","","5","",""
"null","191320","pSARL_v2","pSARL_v2em69lx6m","60cfdcfdf8a3c6c42dad17d3","fixation","img/fixation.png","null","","test","","","","","",""
"403","191725","pSARL_v2","pSARL_v2em69lx6m","60cfdcfdf8a3c6c42dad17d3","freq","img/orange_2bandit_b2.png","70","70","test","1","96","96","5","",""
"null","192138","pSARL_v2","pSARL_v2em69lx6m","60cfdcfdf8a3c6c42dad17d3","freq_resp","img/orange_2bandit_b.png","70","70","test","","","","5","",""
"null","192304","pSARL_v2","pSARL_v2em69lx6m","60cfdcfdf8a3c6c42dad17d3","fixation","img/fixation.png","null","","test","","","","","",""
"453","192758","pSARL_v2","pSARL_v2em69lx6m","60cfdcfdf8a3c6c42dad17d3","freq","img/orange_2bandit_b2.png","70","70","test","1","97","97","5","",""
"null","193117","pSARL_v2","pSARL_v2em69lx6m","60cfdcfdf8a3c6c42dad17d3","freq_resp","img/orange_2bandit_b.png","70","70","test","","","","5","",""
"null","193283","pSARL_v2","pSARL_v2em69lx6m","60cfdcfdf8a3c6c42dad17d3","fixation","img/fixation.png","null","","test","","","","","",""
"539","193824","pSARL_v2","pSARL_v2em69lx6m","60cfdcfdf8a3c6c42dad17d3","freq","img/orange_2bandit_b2.png","70","70","test","1","98","98","5","",""
"null","194100","pSARL_v2","pSARL_v2em69lx6m","60cfdcfdf8a3c6c42dad17d3","freq_resp","img/orange_2bandit_b.png","70","70","test","","","","5","",""
"null","194269","pSARL_v2","pSARL_v2em69lx6m","60cfdcfdf8a3c6c42dad17d3","fixation","img/fixation.png","null","","test","","","","","",""
"456","194728","pSARL_v2","pSARL_v2em69lx6m","60cfdcfdf8a3c6c42dad17d3","freq","img/orange_2bandit_b2.png","70","70","test","1","99","99","5","",""
"null","195087","pSARL_v2","pSARL_v2em69lx6m","60cfdcfdf8a3c6c42dad17d3","freq_resp","img/orange_2bandit_b.png","70","70","test","","","","5","",""
"null","195254","pSARL_v2","pSARL_v2em69lx6m","60cfdcfdf8a3c6c42dad17d3","fixation","img/fixation.png","null","","test","","","","","",""
"463","195719","pSARL_v2","pSARL_v2em69lx6m","60cfdcfdf8a3c6c42dad17d3","infreq","img/green_2bandit_b2.png","68","68","test","1","100","100","5","",""
"null","196073","pSARL_v2","pSARL_v2em69lx6m","60cfdcfdf8a3c6c42dad17d3","infreq_resp","img/green_2bandit_b.png","68","68","test","","","","5","",""
"null","196239","pSARL_v2","pSARL_v2em69lx6m","60cfdcfdf8a3c6c42dad17d3","fixation","img/fixation.png","null","","test","","","","","",""
"349","196589","pSARL_v2","pSARL_v2em69lx6m","60cfdcfdf8a3c6c42dad17d3","infreq","img/green_2bandit_b2.png","68","68","test","1","101","101","5","",""
"null","197049","pSARL_v2","pSARL_v2em69lx6m","60cfdcfdf8a3c6c42dad17d3","infreq_resp","img/green_2bandit_b.png","68","68","test","","","","5","",""
"null","197217","pSARL_v2","pSARL_v2em69lx6m","60cfdcfdf8a3c6c42dad17d3","fixation","img/fixation.png","null","","test","","","","","",""
"385","197603","pSARL_v2","pSARL_v2em69lx6m","60cfdcfdf8a3c6c42dad17d3","freq","img/orange_2bandit_b2.png","70","70","test","1","102","102","5","",""
"null","198031","pSARL_v2","pSARL_v2em69lx6m","60cfdcfdf8a3c6c42dad17d3","freq_resp","img/orange_2bandit_b.png","70","70","test","","","","5","",""
"null","198196","pSARL_v2","pSARL_v2em69lx6m","60cfdcfdf8a3c6c42dad17d3","fixation","img/fixation.png","null","","test","","","","","",""
"512","198710","pSARL_v2","pSARL_v2em69lx6m","60cfdcfdf8a3c6c42dad17d3","infreq","img/green_2bandit_b2.png","68","68","test","1","103","103","5","",""
"null","199012","pSARL_v2","pSARL_v2em69lx6m","60cfdcfdf8a3c6c42dad17d3","infreq_resp","img/green_2bandit_b.png","68","68","test","","","","5","",""
"null","199166","pSARL_v2","pSARL_v2em69lx6m","60cfdcfdf8a3c6c42dad17d3","fixation","img/fixation.png","null","","test","","","","","",""
"409","199577","pSARL_v2","pSARL_v2em69lx6m","60cfdcfdf8a3c6c42dad17d3","freq","img/orange_2bandit_b2.png","70","70","test","1","104","104","5","",""
"null","199978","pSARL_v2","pSARL_v2em69lx6m","60cfdcfdf8a3c6c42dad17d3","freq_resp","img/orange_2bandit_b.png","70","70","test","","","","5","",""
"null","200146","pSARL_v2","pSARL_v2em69lx6m","60cfdcfdf8a3c6c42dad17d3","fixation","img/fixation.png","null","","test","","","","","",""
"405","200553","pSARL_v2","pSARL_v2em69lx6m","60cfdcfdf8a3c6c42dad17d3","freq","img/orange_2bandit_b2.png","70","70","test","1","105","105","5","",""
"null","200965","pSARL_v2","pSARL_v2em69lx6m","60cfdcfdf8a3c6c42dad17d3","freq_resp","img/orange_2bandit_b.png","70","70","test","","","","5","",""
"null","201132","pSARL_v2","pSARL_v2em69lx6m","60cfdcfdf8a3c6c42dad17d3","fixation","img/fixation.png","null","","test","","","","","",""
"487","201620","pSARL_v2","pSARL_v2em69lx6m","60cfdcfdf8a3c6c42dad17d3","freq","img/orange_2bandit_b2.png","70","70","test","1","106","106","5","",""
"null","201939","pSARL_v2","pSARL_v2em69lx6m","60cfdcfdf8a3c6c42dad17d3","freq_resp","img/orange_2bandit_b.png","70","70","test","","","","5","",""
"null","202093","pSARL_v2","pSARL_v2em69lx6m","60cfdcfdf8a3c6c42dad17d3","fixation","img/fixation.png","null","","test","","","","","",""
"558","202653","pSARL_v2","pSARL_v2em69lx6m","60cfdcfdf8a3c6c42dad17d3","reward","img/slot.png","74","","test","","","","","",""
"null","203419","pSARL_v2","pSARL_v2em69lx6m","60cfdcfdf8a3c6c42dad17d3","points","<div class=""veryhighPoints""> +1 </div>","null","na","test","","","","5","1","4"
"478","203899","pSARL_v2","pSARL_v2em69lx6m","60cfdcfdf8a3c6c42dad17d3","freq","img/orange_2bandit_b2.png","70","70","test","1","107","107","6","",""
"null","204232","pSARL_v2","pSARL_v2em69lx6m","60cfdcfdf8a3c6c42dad17d3","freq_resp","img/orange_2bandit_b.png","70","70","test","","","","6","",""
"null","204400","pSARL_v2","pSARL_v2em69lx6m","60cfdcfdf8a3c6c42dad17d3","fixation","img/fixation.png","null","","test","","","","","",""
"368","204770","pSARL_v2","pSARL_v2em69lx6m","60cfdcfdf8a3c6c42dad17d3","freq","img/orange_2bandit_b2.png","70","70","test","1","108","108","6","",""
"null","205207","pSARL_v2","pSARL_v2em69lx6m","60cfdcfdf8a3c6c42dad17d3","freq_resp","img/orange_2bandit_b.png","70","70","test","","","","6","",""
"null","205372","pSARL_v2","pSARL_v2em69lx6m","60cfdcfdf8a3c6c42dad17d3","fixation","img/fixation.png","null","","test","","","","","",""
"277","205650","pSARL_v2","pSARL_v2em69lx6m","60cfdcfdf8a3c6c42dad17d3","freq","img/orange_2bandit_b2.png","70","70","test","1","109","109","6","",""
"null","206192","pSARL_v2","pSARL_v2em69lx6m","60cfdcfdf8a3c6c42dad17d3","freq_resp","img/orange_2bandit_b.png","70","70","test","","","","6","",""
"null","206357","pSARL_v2","pSARL_v2em69lx6m","60cfdcfdf8a3c6c42dad17d3","fixation","img/fixation.png","null","","test","","","","","",""
"309","206668","pSARL_v2","pSARL_v2em69lx6m","60cfdcfdf8a3c6c42dad17d3","freq","img/orange_2bandit_b2.png","70","70","test","1","110","110","6","",""
"null","207172","pSARL_v2","pSARL_v2em69lx6m","60cfdcfdf8a3c6c42dad17d3","freq_resp","img/orange_2bandit_b.png","70","70","test","","","","6","",""
"null","207342","pSARL_v2","pSARL_v2em69lx6m","60cfdcfdf8a3c6c42dad17d3","fixation","img/fixation.png","null","","test","","","","","",""
"230","207574","pSARL_v2","pSARL_v2em69lx6m","60cfdcfdf8a3c6c42dad17d3","freq","img/orange_2bandit_b2.png","70","70","test","1","111","111","6","",""
"null","208160","pSARL_v2","pSARL_v2em69lx6m","60cfdcfdf8a3c6c42dad17d3","freq_resp","img/orange_2bandit_b.png","70","70","test","","","","6","",""
"null","208329","pSARL_v2","pSARL_v2em69lx6m","60cfdcfdf8a3c6c42dad17d3","fixation","img/fixation.png","null","","test","","","","","",""
"270","208601","pSARL_v2","pSARL_v2em69lx6m","60cfdcfdf8a3c6c42dad17d3","freq","img/orange_2bandit_b2.png","70","70","test","1","112","112","6","",""
"null","209140","pSARL_v2","pSARL_v2em69lx6m","60cfdcfdf8a3c6c42dad17d3","freq_resp","img/orange_2bandit_b.png","70","70","test","","","","6","",""
"null","209306","pSARL_v2","pSARL_v2em69lx6m","60cfdcfdf8a3c6c42dad17d3","fixation","img/fixation.png","null","","test","","","","","",""
"456","209764","pSARL_v2","pSARL_v2em69lx6m","60cfdcfdf8a3c6c42dad17d3","freq","img/orange_2bandit_b2.png","70","70","test","1","113","113","6","",""
"null","210126","pSARL_v2","pSARL_v2em69lx6m","60cfdcfdf8a3c6c42dad17d3","freq_resp","img/orange_2bandit_b.png","70","70","test","","","","6","",""
"null","210292","pSARL_v2","pSARL_v2em69lx6m","60cfdcfdf8a3c6c42dad17d3","fixation","img/fixation.png","null","","test","","","","","",""
"460","210754","pSARL_v2","pSARL_v2em69lx6m","60cfdcfdf8a3c6c42dad17d3","freq","img/orange_2bandit_b2.png","70","70","test","1","114","114","6","",""
"null","211103","pSARL_v2","pSARL_v2em69lx6m","60cfdcfdf8a3c6c42dad17d3","freq_resp","img/orange_2bandit_b.png","70","70","test","","","","6","",""
"null","211270","pSARL_v2","pSARL_v2em69lx6m","60cfdcfdf8a3c6c42dad17d3","fixation","img/fixation.png","null","","test","","","","","",""
"648","211922","pSARL_v2","pSARL_v2em69lx6m","60cfdcfdf8a3c6c42dad17d3","freq","img/orange_2bandit_b2.png","70","70","test","1","115","115","6","",""
"null","212082","pSARL_v2","pSARL_v2em69lx6m","60cfdcfdf8a3c6c42dad17d3","freq_resp","img/orange_2bandit_b.png","70","70","test","","","","6","",""
"null","212248","pSARL_v2","pSARL_v2em69lx6m","60cfdcfdf8a3c6c42dad17d3","fixation","img/fixation.png","null","","test","","","","","",""
"582","212832","pSARL_v2","pSARL_v2em69lx6m","60cfdcfdf8a3c6c42dad17d3","infreq","img/green_2bandit_b2.png","68","68","test","1","116","116","6","",""
"null","213062","pSARL_v2","pSARL_v2em69lx6m","60cfdcfdf8a3c6c42dad17d3","infreq_resp","img/green_2bandit_b.png","68","68","test","","","","6","",""
"null","213226","pSARL_v2","pSARL_v2em69lx6m","60cfdcfdf8a3c6c42dad17d3","fixation","img/fixation.png","null","","test","","","","","",""
"424","213652","pSARL_v2","pSARL_v2em69lx6m","60cfdcfdf8a3c6c42dad17d3","freq","img/orange_2bandit_b2.png","70","70","test","1","117","117","6","",""
"null","214043","pSARL_v2","pSARL_v2em69lx6m","60cfdcfdf8a3c6c42dad17d3","freq_resp","img/orange_2bandit_b.png","70","70","test","","","","6","",""
"null","214205","pSARL_v2","pSARL_v2em69lx6m","60cfdcfdf8a3c6c42dad17d3","fixation","img/fixation.png","null","","test","","","","","",""
"471","214680","pSARL_v2","pSARL_v2em69lx6m","60cfdcfdf8a3c6c42dad17d3","infreq","img/green_2bandit_b2.png","68","68","test","1","118","118","6","",""
"null","215021","pSARL_v2","pSARL_v2em69lx6m","60cfdcfdf8a3c6c42dad17d3","infreq_resp","img/green_2bandit_b.png","68","68","test","","","","6","",""
"null","215184","pSARL_v2","pSARL_v2em69lx6m","60cfdcfdf8a3c6c42dad17d3","fixation","img/fixation.png","null","","test","","","","","",""
"343","215530","pSARL_v2","pSARL_v2em69lx6m","60cfdcfdf8a3c6c42dad17d3","freq","img/orange_2bandit_b2.png","70","70","test","1","119","119","6","",""
"null","216002","pSARL_v2","pSARL_v2em69lx6m","60cfdcfdf8a3c6c42dad17d3","freq_resp","img/orange_2bandit_b.png","70","70","test","","","","6","",""
"null","216162","pSARL_v2","pSARL_v2em69lx6m","60cfdcfdf8a3c6c42dad17d3","fixation","img/fixation.png","null","","test","","","","","",""
"405","216569","pSARL_v2","pSARL_v2em69lx6m","60cfdcfdf8a3c6c42dad17d3","freq","img/orange_2bandit_b2.png","70","70","test","1","120","120","6","",""
"null","216982","pSARL_v2","pSARL_v2em69lx6m","60cfdcfdf8a3c6c42dad17d3","freq_resp","img/orange_2bandit_b.png","70","70","test","","","","6","",""
"null","217147","pSARL_v2","pSARL_v2em69lx6m","60cfdcfdf8a3c6c42dad17d3","fixation","img/fixation.png","null","","test","","","","","",""
"521","217669","pSARL_v2","pSARL_v2em69lx6m","60cfdcfdf8a3c6c42dad17d3","freq","img/orange_2bandit_b2.png","70","70","test","1","121","121","6","",""
"null","217967","pSARL_v2","pSARL_v2em69lx6m","60cfdcfdf8a3c6c42dad17d3","freq_resp","img/orange_2bandit_b.png","70","70","test","","","","6","",""
"null","218134","pSARL_v2","pSARL_v2em69lx6m","60cfdcfdf8a3c6c42dad17d3","fixation","img/fixation.png","null","","test","","","","","",""
"614","218750","pSARL_v2","pSARL_v2em69lx6m","60cfdcfdf8a3c6c42dad17d3","freq","img/orange_2bandit_b2.png","70","70","test","1","122","122","6","",""
"null","218940","pSARL_v2","pSARL_v2em69lx6m","60cfdcfdf8a3c6c42dad17d3","freq_resp","img/orange_2bandit_b.png","70","70","test","","","","6","",""
"null","219104","pSARL_v2","pSARL_v2em69lx6m","60cfdcfdf8a3c6c42dad17d3","fixation","img/fixation.png","null","","test","","","","","",""
"511","219618","pSARL_v2","pSARL_v2em69lx6m","60cfdcfdf8a3c6c42dad17d3","freq","img/orange_2bandit_b2.png","70","70","test","1","123","123","6","",""
"null","219925","pSARL_v2","pSARL_v2em69lx6m","60cfdcfdf8a3c6c42dad17d3","freq_resp","img/orange_2bandit_b.png","70","70","test","","","","6","",""
"null","220090","pSARL_v2","pSARL_v2em69lx6m","60cfdcfdf8a3c6c42dad17d3","fixation","img/fixation.png","null","","test","","","","","",""
"498","220590","pSARL_v2","pSARL_v2em69lx6m","60cfdcfdf8a3c6c42dad17d3","freq","img/orange_2bandit_b2.png","70","70","test","1","124","124","6","",""
"null","220897","pSARL_v2","pSARL_v2em69lx6m","60cfdcfdf8a3c6c42dad17d3","freq_resp","img/orange_2bandit_b.png","70","70","test","","","","6","",""
"null","221062","pSARL_v2","pSARL_v2em69lx6m","60cfdcfdf8a3c6c42dad17d3","fixation","img/fixation.png","null","","test","","","","","",""
"294","221359","pSARL_v2","pSARL_v2em69lx6m","60cfdcfdf8a3c6c42dad17d3","freq","img/orange_2bandit_b2.png","70","70","test","1","125","125","6","",""
"null","221871","pSARL_v2","pSARL_v2em69lx6m","60cfdcfdf8a3c6c42dad17d3","freq_resp","img/orange_2bandit_b.png","70","70","test","","","","6","",""
"null","222033","pSARL_v2","pSARL_v2em69lx6m","60cfdcfdf8a3c6c42dad17d3","fixation","img/fixation.png","null","","test","","","","","",""
"362","222398","pSARL_v2","pSARL_v2em69lx6m","60cfdcfdf8a3c6c42dad17d3","freq","img/orange_2bandit_b2.png","70","70","test","1","126","126","6","",""
"null","222842","pSARL_v2","pSARL_v2em69lx6m","60cfdcfdf8a3c6c42dad17d3","freq_resp","img/orange_2bandit_b.png","70","70","test","","","","6","",""
"null","223005","pSARL_v2","pSARL_v2em69lx6m","60cfdcfdf8a3c6c42dad17d3","fixation","img/fixation.png","null","","test","","","","","",""
"302","223309","pSARL_v2","pSARL_v2em69lx6m","60cfdcfdf8a3c6c42dad17d3","freq","img/orange_2bandit_b2.png","70","70","test","1","127","127","6","",""
"null","223813","pSARL_v2","pSARL_v2em69lx6m","60cfdcfdf8a3c6c42dad17d3","freq_resp","img/orange_2bandit_b.png","70","70","test","","","","6","",""
"null","223967","pSARL_v2","pSARL_v2em69lx6m","60cfdcfdf8a3c6c42dad17d3","fixation","img/fixation.png","null","","test","","","","","",""
"523","224491","pSARL_v2","pSARL_v2em69lx6m","60cfdcfdf8a3c6c42dad17d3","freq","img/orange_2bandit_b2.png","70","70","test","1","128","128","6","",""
"null","224772","pSARL_v2","pSARL_v2em69lx6m","60cfdcfdf8a3c6c42dad17d3","freq_resp","img/orange_2bandit_b.png","70","70","test","","","","6","",""
"null","224935","pSARL_v2","pSARL_v2em69lx6m","60cfdcfdf8a3c6c42dad17d3","fixation","img/fixation.png","null","","test","","","","","",""
"504","225441","pSARL_v2","pSARL_v2em69lx6m","60cfdcfdf8a3c6c42dad17d3","freq","img/orange_2bandit_b2.png","70","70","test","1","129","129","6","",""
"null","225748","pSARL_v2","pSARL_v2em69lx6m","60cfdcfdf8a3c6c42dad17d3","freq_resp","img/orange_2bandit_b.png","70","70","test","","","","6","",""
"null","225910","pSARL_v2","pSARL_v2em69lx6m","60cfdcfdf8a3c6c42dad17d3","fixation","img/fixation.png","null","","test","","","","","",""
"560","226472","pSARL_v2","pSARL_v2em69lx6m","60cfdcfdf8a3c6c42dad17d3","reward","img/slot.png","74","","test","","","","","",""
"null","227228","pSARL_v2","pSARL_v2em69lx6m","60cfdcfdf8a3c6c42dad17d3","points","<div class=""verylowPoints""> -7 </div>","null","na","test","","","","6","-7","5"
"439","227670","pSARL_v2","pSARL_v2em69lx6m","60cfdcfdf8a3c6c42dad17d3","freq","img/orange_2bandit_b2.png","70","70","test","1","130","130","7","",""
"null","228036","pSARL_v2","pSARL_v2em69lx6m","60cfdcfdf8a3c6c42dad17d3","freq_resp","img/orange_2bandit_b.png","70","70","test","","","","7","",""
"null","228202","pSARL_v2","pSARL_v2em69lx6m","60cfdcfdf8a3c6c42dad17d3","fixation","img/fixation.png","null","","test","","","","","",""
"449","228653","pSARL_v2","pSARL_v2em69lx6m","60cfdcfdf8a3c6c42dad17d3","freq","img/orange_2bandit_b2.png","70","70","test","1","131","131","7","",""
"null","229016","pSARL_v2","pSARL_v2em69lx6m","60cfdcfdf8a3c6c42dad17d3","freq_resp","img/orange_2bandit_b.png","70","70","test","","","","7","",""
"null","229181","pSARL_v2","pSARL_v2em69lx6m","60cfdcfdf8a3c6c42dad17d3","fixation","img/fixation.png","null","","test","","","","","",""
"424","229606","pSARL_v2","pSARL_v2em69lx6m","60cfdcfdf8a3c6c42dad17d3","freq","img/orange_2bandit_b2.png","70","70","test","1","132","132","7","",""
"null","229996","pSARL_v2","pSARL_v2em69lx6m","60cfdcfdf8a3c6c42dad17d3","freq_resp","img/orange_2bandit_b.png","70","70","test","","","","7","",""
"null","230150","pSARL_v2","pSARL_v2em69lx6m","60cfdcfdf8a3c6c42dad17d3","fixation","img/fixation.png","null","","test","","","","","",""
"307","230458","pSARL_v2","pSARL_v2em69lx6m","60cfdcfdf8a3c6c42dad17d3","freq","img/orange_2bandit_b2.png","70","70","test","1","133","133","7","",""
"null","230967","pSARL_v2","pSARL_v2em69lx6m","60cfdcfdf8a3c6c42dad17d3","freq_resp","img/orange_2bandit_b.png","70","70","test","","","","7","",""
"null","231131","pSARL_v2","pSARL_v2em69lx6m","60cfdcfdf8a3c6c42dad17d3","fixation","img/fixation.png","null","","test","","","","","",""
"502","231635","pSARL_v2","pSARL_v2em69lx6m","60cfdcfdf8a3c6c42dad17d3","freq","img/orange_2bandit_b2.png","70","70","test","1","134","134","7","",""
"null","231938","pSARL_v2","pSARL_v2em69lx6m","60cfdcfdf8a3c6c42dad17d3","freq_resp","img/orange_2bandit_b.png","70","70","test","","","","7","",""
"null","232103","pSARL_v2","pSARL_v2em69lx6m","60cfdcfdf8a3c6c42dad17d3","fixation","img/fixation.png","null","","test","","","","","",""
"466","232571","pSARL_v2","pSARL_v2em69lx6m","60cfdcfdf8a3c6c42dad17d3","freq","img/orange_2bandit_b2.png","70","70","test","1","135","135","7","",""
"null","232921","pSARL_v2","pSARL_v2em69lx6m","60cfdcfdf8a3c6c42dad17d3","freq_resp","img/orange_2bandit_b.png","70","70","test","","","","7","",""
"null","233088","pSARL_v2","pSARL_v2em69lx6m","60cfdcfdf8a3c6c42dad17d3","fixation","img/fixation.png","null","","test","","","","","",""
"295","233385","pSARL_v2","pSARL_v2em69lx6m","60cfdcfdf8a3c6c42dad17d3","freq","img/orange_2bandit_b2.png","70","70","test","1","136","136","7","",""
"null","233896","pSARL_v2","pSARL_v2em69lx6m","60cfdcfdf8a3c6c42dad17d3","freq_resp","img/orange_2bandit_b.png","70","70","test","","","","7","",""
"null","234059","pSARL_v2","pSARL_v2em69lx6m","60cfdcfdf8a3c6c42dad17d3","fixation","img/fixation.png","null","","test","","","","","",""
"313","234375","pSARL_v2","pSARL_v2em69lx6m","60cfdcfdf8a3c6c42dad17d3","freq","img/orange_2bandit_b2.png","70","70","test","1","137","137","7","",""
"null","234867","pSARL_v2","pSARL_v2em69lx6m","60cfdcfdf8a3c6c42dad17d3","freq_resp","img/orange_2bandit_b.png","70","70","test","","","","7","",""
"null","235022","pSARL_v2","pSARL_v2em69lx6m","60cfdcfdf8a3c6c42dad17d3","fixation","img/fixation.png","null","","test","","","","","",""
"278","235302","pSARL_v2","pSARL_v2em69lx6m","60cfdcfdf8a3c6c42dad17d3","infreq","img/green_2bandit_b2.png","70","68","test","0","138","138","7","",""
"null","235827","pSARL_v2","pSARL_v2em69lx6m","60cfdcfdf8a3c6c42dad17d3","infreq_resp","img/green_2bandit_b.png","70","68","test","","","","7","",""
"null","235996","pSARL_v2","pSARL_v2em69lx6m","60cfdcfdf8a3c6c42dad17d3","fixation","img/fixation.png","null","","test","","","","","",""
"499","236497","pSARL_v2","pSARL_v2em69lx6m","60cfdcfdf8a3c6c42dad17d3","freq","img/orange_2bandit_b2.png","70","70","test","1","139","139","7","",""
"null","236808","pSARL_v2","pSARL_v2em69lx6m","60cfdcfdf8a3c6c42dad17d3","freq_resp","img/orange_2bandit_b.png","70","70","test","","","","7","",""
"null","236974","pSARL_v2","pSARL_v2em69lx6m","60cfdcfdf8a3c6c42dad17d3","fixation","img/fixation.png","null","","test","","","","","",""
"250","237225","pSARL_v2","pSARL_v2em69lx6m","60cfdcfdf8a3c6c42dad17d3","freq","img/orange_2bandit_b2.png","70","70","test","1","140","140","7","",""
"null","237788","pSARL_v2","pSARL_v2em69lx6m","60cfdcfdf8a3c6c42dad17d3","freq_resp","img/orange_2bandit_b.png","70","70","test","","","","7","",""
"null","237953","pSARL_v2","pSARL_v2em69lx6m","60cfdcfdf8a3c6c42dad17d3","fixation","img/fixation.png","null","","test","","","","","",""
"207","238163","pSARL_v2","pSARL_v2em69lx6m","60cfdcfdf8a3c6c42dad17d3","freq","img/orange_2bandit_b2.png","70","70","test","1","141","141","7","",""
"null","238772","pSARL_v2","pSARL_v2em69lx6m","60cfdcfdf8a3c6c42dad17d3","freq_resp","img/orange_2bandit_b.png","70","70","test","","","","7","",""
"null","238937","pSARL_v2","pSARL_v2em69lx6m","60cfdcfdf8a3c6c42dad17d3","fixation","img/fixation.png","null","","test","","","","","",""
"286","239225","pSARL_v2","pSARL_v2em69lx6m","60cfdcfdf8a3c6c42dad17d3","freq","img/orange_2bandit_b2.png","70","70","test","1","142","142","7","",""
"null","239747","pSARL_v2","pSARL_v2em69lx6m","60cfdcfdf8a3c6c42dad17d3","freq_resp","img/orange_2bandit_b.png","70","70","test","","","","7","",""
"null","239908","pSARL_v2","pSARL_v2em69lx6m","60cfdcfdf8a3c6c42dad17d3","fixation","img/fixation.png","null","","test","","","","","",""
"277","240187","pSARL_v2","pSARL_v2em69lx6m","60cfdcfdf8a3c6c42dad17d3","freq","img/orange_2bandit_b2.png","70","70","test","1","143","143","7","",""
"null","240728","pSARL_v2","pSARL_v2em69lx6m","60cfdcfdf8a3c6c42dad17d3","freq_resp","img/orange_2bandit_b.png","70","70","test","","","","7","",""
"null","240894","pSARL_v2","pSARL_v2em69lx6m","60cfdcfdf8a3c6c42dad17d3","fixation","img/fixation.png","null","","test","","","","","",""
"263","241159","pSARL_v2","pSARL_v2em69lx6m","60cfdcfdf8a3c6c42dad17d3","freq","img/orange_2bandit_b2.png","70","70","test","1","144","144","7","",""
"null","241700","pSARL_v2","pSARL_v2em69lx6m","60cfdcfdf8a3c6c42dad17d3","freq_resp","img/orange_2bandit_b.png","70","70","test","","","","7","",""
"null","241867","pSARL_v2","pSARL_v2em69lx6m","60cfdcfdf8a3c6c42dad17d3","fixation","img/fixation.png","null","","test","","","","","",""
"224","242094","pSARL_v2","pSARL_v2em69lx6m","60cfdcfdf8a3c6c42dad17d3","freq","img/orange_2bandit_b2.png","70","70","test","1","145","145","7","",""
"null","242672","pSARL_v2","pSARL_v2em69lx6m","60cfdcfdf8a3c6c42dad17d3","freq_resp","img/orange_2bandit_b.png","70","70","test","","","","7","",""
"null","242830","pSARL_v2","pSARL_v2em69lx6m","60cfdcfdf8a3c6c42dad17d3","fixation","img/fixation.png","null","","test","","","","","",""
"153","242984","pSARL_v2","pSARL_v2em69lx6m","60cfdcfdf8a3c6c42dad17d3","freq","img/orange_2bandit_b2.png","70","70","test","1","146","146","7","",""
"null","243639","pSARL_v2","pSARL_v2em69lx6m","60cfdcfdf8a3c6c42dad17d3","freq_resp","img/orange_2bandit_b.png","70","70","test","","","","7","",""
"null","243794","pSARL_v2","pSARL_v2em69lx6m","60cfdcfdf8a3c6c42dad17d3","fixation","img/fixation.png","null","","test","","","","","",""
"224","244020","pSARL_v2","pSARL_v2em69lx6m","60cfdcfdf8a3c6c42dad17d3","freq","img/orange_2bandit_b2.png","70","70","test","1","147","147","7","",""
"null","244605","pSARL_v2","pSARL_v2em69lx6m","60cfdcfdf8a3c6c42dad17d3","freq_resp","img/orange_2bandit_b.png","70","70","test","","","","7","",""
"null","244774","pSARL_v2","pSARL_v2em69lx6m","60cfdcfdf8a3c6c42dad17d3","fixation","img/fixation.png","null","","test","","","","","",""
"79","244854","pSARL_v2","pSARL_v2em69lx6m","60cfdcfdf8a3c6c42dad17d3","freq","img/orange_2bandit_b2.png","70","70","test","1","148","148","7","",""
"null","245582","pSARL_v2","pSARL_v2em69lx6m","60cfdcfdf8a3c6c42dad17d3","freq_resp","img/orange_2bandit_b.png","70","70","test","","","","7","",""
"null","245735","pSARL_v2","pSARL_v2em69lx6m","60cfdcfdf8a3c6c42dad17d3","fixation","img/fixation.png","null","","test","","","","","",""
"294","246032","pSARL_v2","pSARL_v2em69lx6m","60cfdcfdf8a3c6c42dad17d3","freq","img/orange_2bandit_b2.png","70","70","test","1","149","149","7","",""
"null","246548","pSARL_v2","pSARL_v2em69lx6m","60cfdcfdf8a3c6c42dad17d3","freq_resp","img/orange_2bandit_b.png","70","70","test","","","","7","",""
"null","246710","pSARL_v2","pSARL_v2em69lx6m","60cfdcfdf8a3c6c42dad17d3","fixation","img/fixation.png","null","","test","","","","","",""
"224","246936","pSARL_v2","pSARL_v2em69lx6m","60cfdcfdf8a3c6c42dad17d3","freq","img/orange_2bandit_b2.png","70","70","test","1","150","150","7","",""
"null","247530","pSARL_v2","pSARL_v2em69lx6m","60cfdcfdf8a3c6c42dad17d3","freq_resp","img/orange_2bandit_b.png","70","70","test","","","","7","",""
"null","247695","pSARL_v2","pSARL_v2em69lx6m","60cfdcfdf8a3c6c42dad17d3","fixation","img/fixation.png","null","","test","","","","","",""
"121","247818","pSARL_v2","pSARL_v2em69lx6m","60cfdcfdf8a3c6c42dad17d3","freq","img/orange_2bandit_b2.png","70","70","test","1","151","151","7","",""
"null","248510","pSARL_v2","pSARL_v2em69lx6m","60cfdcfdf8a3c6c42dad17d3","freq_resp","img/orange_2bandit_b.png","70","70","test","","","","7","",""
"null","248665","pSARL_v2","pSARL_v2em69lx6m","60cfdcfdf8a3c6c42dad17d3","fixation","img/fixation.png","null","","test","","","","","",""
"148","248816","pSARL_v2","pSARL_v2em69lx6m","60cfdcfdf8a3c6c42dad17d3","infreq","img/green_2bandit_b2.png","70","68","test","0","152","152","7","",""
"null","249480","pSARL_v2","pSARL_v2em69lx6m","60cfdcfdf8a3c6c42dad17d3","infreq_resp","img/green_2bandit_b.png","70","68","test","","","","7","",""
"null","249646","pSARL_v2","pSARL_v2em69lx6m","60cfdcfdf8a3c6c42dad17d3","fixation","img/fixation.png","null","","test","","","","","",""
"365","250014","pSARL_v2","pSARL_v2em69lx6m","60cfdcfdf8a3c6c42dad17d3","freq","img/orange_2bandit_b2.png","70","70","test","1","153","153","7","",""
"null","250461","pSARL_v2","pSARL_v2em69lx6m","60cfdcfdf8a3c6c42dad17d3","freq_resp","img/orange_2bandit_b.png","70","70","test","","","","7","",""
"null","250616","pSARL_v2","pSARL_v2em69lx6m","60cfdcfdf8a3c6c42dad17d3","fixation","img/fixation.png","null","","test","","","","","",""
"316","250934","pSARL_v2","pSARL_v2em69lx6m","60cfdcfdf8a3c6c42dad17d3","freq","img/orange_2bandit_b2.png","70","70","test","1","154","154","7","",""
"null","251423","pSARL_v2","pSARL_v2em69lx6m","60cfdcfdf8a3c6c42dad17d3","freq_resp","img/orange_2bandit_b.png","70","70","test","","","","7","",""
"null","251589","pSARL_v2","pSARL_v2em69lx6m","60cfdcfdf8a3c6c42dad17d3","fixation","img/fixation.png","null","","test","","","","","",""
"324","251915","pSARL_v2","pSARL_v2em69lx6m","60cfdcfdf8a3c6c42dad17d3","freq","img/orange_2bandit_b2.png","70","70","test","1","155","155","7","",""
"null","252408","pSARL_v2","pSARL_v2em69lx6m","60cfdcfdf8a3c6c42dad17d3","freq_resp","img/orange_2bandit_b.png","70","70","test","","","","7","",""
"null","252572","pSARL_v2","pSARL_v2em69lx6m","60cfdcfdf8a3c6c42dad17d3","fixation","img/fixation.png","null","","test","","","","","",""
"591","253164","pSARL_v2","pSARL_v2em69lx6m","60cfdcfdf8a3c6c42dad17d3","reward","img/slot.png","74","","test","","","","","",""
"null","253923","pSARL_v2","pSARL_v2em69lx6m","60cfdcfdf8a3c6c42dad17d3","points","<div class=""verylowPoints""> -6 </div>","null","na","test","","","","7","-6","6"
"464","254389","pSARL_v2","pSARL_v2em69lx6m","60cfdcfdf8a3c6c42dad17d3","freq","img/orange_2bandit_b2.png","70","70","test","1","156","156","8","",""
"null","254738","pSARL_v2","pSARL_v2em69lx6m","60cfdcfdf8a3c6c42dad17d3","freq_resp","img/orange_2bandit_b.png","70","70","test","","","","8","",""
"null","254906","pSARL_v2","pSARL_v2em69lx6m","60cfdcfdf8a3c6c42dad17d3","fixation","img/fixation.png","null","","test","","","","","",""
"303","255211","pSARL_v2","pSARL_v2em69lx6m","60cfdcfdf8a3c6c42dad17d3","freq","img/orange_2bandit_b2.png","70","70","test","1","157","157","8","",""
"null","255722","pSARL_v2","pSARL_v2em69lx6m","60cfdcfdf8a3c6c42dad17d3","freq_resp","img/orange_2bandit_b.png","70","70","test","","","","8","",""
"null","255891","pSARL_v2","pSARL_v2em69lx6m","60cfdcfdf8a3c6c42dad17d3","fixation","img/fixation.png","null","","test","","","","","",""
"500","256395","pSARL_v2","pSARL_v2em69lx6m","60cfdcfdf8a3c6c42dad17d3","freq","img/orange_2bandit_b2.png","70","70","test","1","158","158","8","",""
"null","256712","pSARL_v2","pSARL_v2em69lx6m","60cfdcfdf8a3c6c42dad17d3","freq_resp","img/orange_2bandit_b.png","70","70","test","","","","8","",""
"null","256867","pSARL_v2","pSARL_v2em69lx6m","60cfdcfdf8a3c6c42dad17d3","fixation","img/fixation.png","null","","test","","","","","",""
"613","257483","pSARL_v2","pSARL_v2em69lx6m","60cfdcfdf8a3c6c42dad17d3","freq","img/orange_2bandit_b2.png","70","70","test","1","159","159","8","",""
"null","257677","pSARL_v2","pSARL_v2em69lx6m","60cfdcfdf8a3c6c42dad17d3","freq_resp","img/orange_2bandit_b.png","70","70","test","","","","8","",""
"null","257833","pSARL_v2","pSARL_v2em69lx6m","60cfdcfdf8a3c6c42dad17d3","fixation","img/fixation.png","null","","test","","","","","",""
"424","258259","pSARL_v2","pSARL_v2em69lx6m","60cfdcfdf8a3c6c42dad17d3","freq","img/orange_2bandit_b2.png","70","70","test","1","160","160","8","",""
"null","258642","pSARL_v2","pSARL_v2em69lx6m","60cfdcfdf8a3c6c42dad17d3","freq_resp","img/orange_2bandit_b.png","70","70","test","","","","8","",""
"null","258807","pSARL_v2","pSARL_v2em69lx6m","60cfdcfdf8a3c6c42dad17d3","fixation","img/fixation.png","null","","test","","","","","",""
"401","259210","pSARL_v2","pSARL_v2em69lx6m","60cfdcfdf8a3c6c42dad17d3","freq","img/orange_2bandit_b2.png","70","70","test","1","161","161","8","",""
"null","259624","pSARL_v2","pSARL_v2em69lx6m","60cfdcfdf8a3c6c42dad17d3","freq_resp","img/orange_2bandit_b.png","70","70","test","","","","8","",""
"null","259790","pSARL_v2","pSARL_v2em69lx6m","60cfdcfdf8a3c6c42dad17d3","fixation","img/fixation.png","null","","test","","","","","",""
"371","260163","pSARL_v2","pSARL_v2em69lx6m","60cfdcfdf8a3c6c42dad17d3","freq","img/orange_2bandit_b2.png","70","70","test","1","162","162","8","",""
"null","260606","pSARL_v2","pSARL_v2em69lx6m","60cfdcfdf8a3c6c42dad17d3","freq_resp","img/orange_2bandit_b.png","70","70","test","","","","8","",""
"null","260761","pSARL_v2","pSARL_v2em69lx6m","60cfdcfdf8a3c6c42dad17d3","fixation","img/fixation.png","null","","test","","","","","",""
"466","261230","pSARL_v2","pSARL_v2em69lx6m","60cfdcfdf8a3c6c42dad17d3","freq","img/orange_2bandit_b2.png","70","70","test","1","163","163","8","",""
"null","261581","pSARL_v2","pSARL_v2em69lx6m","60cfdcfdf8a3c6c42dad17d3","freq_resp","img/orange_2bandit_b.png","70","70","test","","","","8","",""
"null","261747","pSARL_v2","pSARL_v2em69lx6m","60cfdcfdf8a3c6c42dad17d3","fixation","img/fixation.png","null","","test","","","","","",""
"364","262113","pSARL_v2","pSARL_v2em69lx6m","60cfdcfdf8a3c6c42dad17d3","freq","img/orange_2bandit_b2.png","70","70","test","1","164","164","8","",""
"null","262555","pSARL_v2","pSARL_v2em69lx6m","60cfdcfdf8a3c6c42dad17d3","freq_resp","img/orange_2bandit_b.png","70","70","test","","","","8","",""
"null","262710","pSARL_v2","pSARL_v2em69lx6m","60cfdcfdf8a3c6c42dad17d3","fixation","img/fixation.png","null","","test","","","","","",""
"430","263142","pSARL_v2","pSARL_v2em69lx6m","60cfdcfdf8a3c6c42dad17d3","infreq","img/green_2bandit_b2.png","68","68","test","1","165","165","8","",""
"null","263528","pSARL_v2","pSARL_v2em69lx6m","60cfdcfdf8a3c6c42dad17d3","infreq_resp","img/green_2bandit_b.png","68","68","test","","","","8","",""
"null","263691","pSARL_v2","pSARL_v2em69lx6m","60cfdcfdf8a3c6c42dad17d3","fixation","img/fixation.png","null","","test","","","","","",""
"675","264369","pSARL_v2","pSARL_v2em69lx6m","60cfdcfdf8a3c6c42dad17d3","freq","img/orange_2bandit_b2.png","70","70","test","1","166","166","8","",""
"null","264498","pSARL_v2","pSARL_v2em69lx6m","60cfdcfdf8a3c6c42dad17d3","freq_resp","img/orange_2bandit_b.png","70","70","test","","","","8","",""
"null","264653","pSARL_v2","pSARL_v2em69lx6m","60cfdcfdf8a3c6c42dad17d3","fixation","img/fixation.png","null","","test","","","","","",""
"403","265059","pSARL_v2","pSARL_v2em69lx6m","60cfdcfdf8a3c6c42dad17d3","infreq","img/green_2bandit_b2.png","68","68","test","1","167","167","8","",""
"null","265468","pSARL_v2","pSARL_v2em69lx6m","60cfdcfdf8a3c6c42dad17d3","infreq_resp","img/green_2bandit_b.png","68","68","test","","","","8","",""
"null","265634","pSARL_v2","pSARL_v2em69lx6m","60cfdcfdf8a3c6c42dad17d3","fixation","img/fixation.png","null","","test","","","","","",""
"360","265997","pSARL_v2","pSARL_v2em69lx6m","60cfdcfdf8a3c6c42dad17d3","freq","img/orange_2bandit_b2.png","70","70","test","1","168","168","8","",""
"null","266442","pSARL_v2","pSARL_v2em69lx6m","60cfdcfdf8a3c6c42dad17d3","freq_resp","img/orange_2bandit_b.png","70","70","test","","","","8","",""
"null","266606","pSARL_v2","pSARL_v2em69lx6m","60cfdcfdf8a3c6c42dad17d3","fixation","img/fixation.png","null","","test","","","","","",""
"319","266928","pSARL_v2","pSARL_v2em69lx6m","60cfdcfdf8a3c6c42dad17d3","freq","img/orange_2bandit_b2.png","70","70","test","1","169","169","8","",""
"null","267418","pSARL_v2","pSARL_v2em69lx6m","60cfdcfdf8a3c6c42dad17d3","freq_resp","img/orange_2bandit_b.png","70","70","test","","","","8","",""
"null","267584","pSARL_v2","pSARL_v2em69lx6m","60cfdcfdf8a3c6c42dad17d3","fixation","img/fixation.png","null","","test","","","","","",""
"388","267974","pSARL_v2","pSARL_v2em69lx6m","60cfdcfdf8a3c6c42dad17d3","freq","img/orange_2bandit_b2.png","70","70","test","1","170","170","8","",""
"null","268404","pSARL_v2","pSARL_v2em69lx6m","60cfdcfdf8a3c6c42dad17d3","freq_resp","img/orange_2bandit_b.png","70","70","test","","","","8","",""
"null","268568","pSARL_v2","pSARL_v2em69lx6m","60cfdcfdf8a3c6c42dad17d3","fixation","img/fixation.png","null","","test","","","","","",""
"341","268911","pSARL_v2","pSARL_v2em69lx6m","60cfdcfdf8a3c6c42dad17d3","freq","img/orange_2bandit_b2.png","70","70","test","1","171","171","8","",""
"null","269380","pSARL_v2","pSARL_v2em69lx6m","60cfdcfdf8a3c6c42dad17d3","freq_resp","img/orange_2bandit_b.png","70","70","test","","","","8","",""
"null","269548","pSARL_v2","pSARL_v2em69lx6m","60cfdcfdf8a3c6c42dad17d3","fixation","img/fixation.png","null","","test","","","","","",""
"297","269848","pSARL_v2","pSARL_v2em69lx6m","60cfdcfdf8a3c6c42dad17d3","freq","img/orange_2bandit_b2.png","70","70","test","1","172","172","8","",""
"null","270363","pSARL_v2","pSARL_v2em69lx6m","60cfdcfdf8a3c6c42dad17d3","freq_resp","img/orange_2bandit_b.png","70","70","test","","","","8","",""
"null","270526","pSARL_v2","pSARL_v2em69lx6m","60cfdcfdf8a3c6c42dad17d3","fixation","img/fixation.png","null","","test","","","","","",""
"563","271092","pSARL_v2","pSARL_v2em69lx6m","60cfdcfdf8a3c6c42dad17d3","freq","img/orange_2bandit_b2.png","70","70","test","1","173","173","8","",""
"null","271348","pSARL_v2","pSARL_v2em69lx6m","60cfdcfdf8a3c6c42dad17d3","freq_resp","img/orange_2bandit_b.png","70","70","test","","","","8","",""
"null","271503","pSARL_v2","pSARL_v2em69lx6m","60cfdcfdf8a3c6c42dad17d3","fixation","img/fixation.png","null","","test","","","","","",""
"542","272048","pSARL_v2","pSARL_v2em69lx6m","60cfdcfdf8a3c6c42dad17d3","freq","img/orange_2bandit_b2.png","68","70","test","0","174","174","8","",""
"null","272320","pSARL_v2","pSARL_v2em69lx6m","60cfdcfdf8a3c6c42dad17d3","freq_resp","img/orange_2bandit_b.png","68","70","test","","","","8","",""
"null","272483","pSARL_v2","pSARL_v2em69lx6m","60cfdcfdf8a3c6c42dad17d3","fixation","img/fixation.png","null","","test","","","","","",""
"317","272803","pSARL_v2","pSARL_v2em69lx6m","60cfdcfdf8a3c6c42dad17d3","freq","img/orange_2bandit_b2.png","70","70","test","1","175","175","8","",""
"null","273302","pSARL_v2","pSARL_v2em69lx6m","60cfdcfdf8a3c6c42dad17d3","freq_resp","img/orange_2bandit_b.png","70","70","test","","","","8","",""
"null","273467","pSARL_v2","pSARL_v2em69lx6m","60cfdcfdf8a3c6c42dad17d3","fixation","img/fixation.png","null","","test","","","","","",""
"579","274047","pSARL_v2","pSARL_v2em69lx6m","60cfdcfdf8a3c6c42dad17d3","reward","img/slot.png","74","","test","","","","","",""
"null","274804","pSARL_v2","pSARL_v2em69lx6m","60cfdcfdf8a3c6c42dad17d3","points","<div class=""verylowPoints""> -4 </div>","null","na","test","","","","8","-4","7"
"null","275614","pSARL_v2","pSARL_v2em69lx6m","60cfdcfdf8a3c6c42dad17d3","freq","img/orange_2bandit_b2.png","null","70","test","0","176","176","9","",""
"null","275771","pSARL_v2","pSARL_v2em69lx6m","60cfdcfdf8a3c6c42dad17d3","fixation","img/fixation.png","null","","test","","","","","",""
"557","276331","pSARL_v2","pSARL_v2em69lx6m","60cfdcfdf8a3c6c42dad17d3","freq","img/orange_2bandit_b2.png","70","70","test","1","177","177","9","",""
"null","276587","pSARL_v2","pSARL_v2em69lx6m","60cfdcfdf8a3c6c42dad17d3","freq_resp","img/orange_2bandit_b.png","70","70","test","","","","9","",""
"null","276741","pSARL_v2","pSARL_v2em69lx6m","60cfdcfdf8a3c6c42dad17d3","fixation","img/fixation.png","null","","test","","","","","",""
"305","277049","pSARL_v2","pSARL_v2em69lx6m","60cfdcfdf8a3c6c42dad17d3","freq","img/orange_2bandit_b2.png","70","70","test","1","178","178","9","",""
"null","277559","pSARL_v2","pSARL_v2em69lx6m","60cfdcfdf8a3c6c42dad17d3","freq_resp","img/orange_2bandit_b.png","70","70","test","","","","9","",""
"null","277713","pSARL_v2","pSARL_v2em69lx6m","60cfdcfdf8a3c6c42dad17d3","fixation","img/fixation.png","null","","test","","","","","",""
"248","277963","pSARL_v2","pSARL_v2em69lx6m","60cfdcfdf8a3c6c42dad17d3","infreq","img/green_2bandit_b2.png","70","68","test","0","179","179","9","",""
"null","278530","pSARL_v2","pSARL_v2em69lx6m","60cfdcfdf8a3c6c42dad17d3","infreq_resp","img/green_2bandit_b.png","70","68","test","","","","9","",""
"null","278684","pSARL_v2","pSARL_v2em69lx6m","60cfdcfdf8a3c6c42dad17d3","fixation","img/fixation.png","null","","test","","","","","",""
"364","279050","pSARL_v2","pSARL_v2em69lx6m","60cfdcfdf8a3c6c42dad17d3","freq","img/orange_2bandit_b2.png","70","70","test","1","180","180","9","",""
"null","279502","pSARL_v2","pSARL_v2em69lx6m","60cfdcfdf8a3c6c42dad17d3","freq_resp","img/orange_2bandit_b.png","70","70","test","","","","9","",""
"null","279657","pSARL_v2","pSARL_v2em69lx6m","60cfdcfdf8a3c6c42dad17d3","fixation","img/fixation.png","null","","test","","","","","",""
"425","280084","pSARL_v2","pSARL_v2em69lx6m","60cfdcfdf8a3c6c42dad17d3","freq","img/orange_2bandit_b2.png","70","70","test","1","181","181","9","",""
"null","280474","pSARL_v2","pSARL_v2em69lx6m","60cfdcfdf8a3c6c42dad17d3","freq_resp","img/orange_2bandit_b.png","70","70","test","","","","9","",""
"null","280642","pSARL_v2","pSARL_v2em69lx6m","60cfdcfdf8a3c6c42dad17d3","fixation","img/fixation.png","null","","test","","","","","",""
"325","280968","pSARL_v2","pSARL_v2em69lx6m","60cfdcfdf8a3c6c42dad17d3","freq","img/orange_2bandit_b2.png","70","70","test","1","182","182","9","",""
"null","281458","pSARL_v2","pSARL_v2em69lx6m","60cfdcfdf8a3c6c42dad17d3","freq_resp","img/orange_2bandit_b.png","70","70","test","","","","9","",""
"null","281614","pSARL_v2","pSARL_v2em69lx6m","60cfdcfdf8a3c6c42dad17d3","fixation","img/fixation.png","null","","test","","","","","",""
"292","281908","pSARL_v2","pSARL_v2em69lx6m","60cfdcfdf8a3c6c42dad17d3","freq","img/orange_2bandit_b2.png","70","70","test","1","183","183","9","",""
"null","282423","pSARL_v2","pSARL_v2em69lx6m","60cfdcfdf8a3c6c42dad17d3","freq_resp","img/orange_2bandit_b.png","70","70","test","","","","9","",""
"null","282578","pSARL_v2","pSARL_v2em69lx6m","60cfdcfdf8a3c6c42dad17d3","fixation","img/fixation.png","null","","test","","","","","",""
"319","282900","pSARL_v2","pSARL_v2em69lx6m","60cfdcfdf8a3c6c42dad17d3","freq","img/orange_2bandit_b2.png","70","70","test","1","184","184","9","",""
"null","283394","pSARL_v2","pSARL_v2em69lx6m","60cfdcfdf8a3c6c42dad17d3","freq_resp","img/orange_2bandit_b.png","70","70","test","","","","9","",""
"null","283558","pSARL_v2","pSARL_v2em69lx6m","60cfdcfdf8a3c6c42dad17d3","fixation","img/fixation.png","null","","test","","","","","",""
"268","283828","pSARL_v2","pSARL_v2em69lx6m","60cfdcfdf8a3c6c42dad17d3","freq","img/orange_2bandit_b2.png","70","70","test","1","185","185","9","",""
"null","284371","pSARL_v2","pSARL_v2em69lx6m","60cfdcfdf8a3c6c42dad17d3","freq_resp","img/orange_2bandit_b.png","70","70","test","","","","9","",""
"null","284536","pSARL_v2","pSARL_v2em69lx6m","60cfdcfdf8a3c6c42dad17d3","fixation","img/fixation.png","null","","test","","","","","",""
"170","284709","pSARL_v2","pSARL_v2em69lx6m","60cfdcfdf8a3c6c42dad17d3","freq","img/orange_2bandit_b2.png","70","70","test","1","186","186","9","",""
"null","285354","pSARL_v2","pSARL_v2em69lx6m","60cfdcfdf8a3c6c42dad17d3","freq_resp","img/orange_2bandit_b.png","70","70","test","","","","9","",""
"null","285523","pSARL_v2","pSARL_v2em69lx6m","60cfdcfdf8a3c6c42dad17d3","fixation","img/fixation.png","null","","test","","","","","",""
"230","285753","pSARL_v2","pSARL_v2em69lx6m","60cfdcfdf8a3c6c42dad17d3","freq","img/orange_2bandit_b2.png","70","70","test","1","187","187","9","",""
"null","286338","pSARL_v2","pSARL_v2em69lx6m","60cfdcfdf8a3c6c42dad17d3","freq_resp","img/orange_2bandit_b.png","70","70","test","","","","9","",""
"null","286500","pSARL_v2","pSARL_v2em69lx6m","60cfdcfdf8a3c6c42dad17d3","fixation","img/fixation.png","null","","test","","","","","",""
"292","286794","pSARL_v2","pSARL_v2em69lx6m","60cfdcfdf8a3c6c42dad17d3","freq","img/orange_2bandit_b2.png","70","70","test","1","188","188","9","",""
"null","287332","pSARL_v2","pSARL_v2em69lx6m","60cfdcfdf8a3c6c42dad17d3","freq_resp","img/orange_2bandit_b.png","70","70","test","","","","9","",""
"null","287492","pSARL_v2","pSARL_v2em69lx6m","60cfdcfdf8a3c6c42dad17d3","fixation","img/fixation.png","null","","test","","","","","",""
"255","287749","pSARL_v2","pSARL_v2em69lx6m","60cfdcfdf8a3c6c42dad17d3","freq","img/orange_2bandit_b2.png","70","70","test","1","189","189","9","",""
"null","288306","pSARL_v2","pSARL_v2em69lx6m","60cfdcfdf8a3c6c42dad17d3","freq_resp","img/orange_2bandit_b.png","70","70","test","","","","9","",""
"null","288461","pSARL_v2","pSARL_v2em69lx6m","60cfdcfdf8a3c6c42dad17d3","fixation","img/fixation.png","null","","test","","","","","",""
"485","288949","pSARL_v2","pSARL_v2em69lx6m","60cfdcfdf8a3c6c42dad17d3","infreq","img/green_2bandit_b2.png","68","68","test","1","190","190","9","",""
"null","289281","pSARL_v2","pSARL_v2em69lx6m","60cfdcfdf8a3c6c42dad17d3","infreq_resp","img/green_2bandit_b.png","68","68","test","","","","9","",""
"null","289442","pSARL_v2","pSARL_v2em69lx6m","60cfdcfdf8a3c6c42dad17d3","fixation","img/fixation.png","null","","test","","","","","",""
"468","289913","pSARL_v2","pSARL_v2em69lx6m","60cfdcfdf8a3c6c42dad17d3","freq","img/orange_2bandit_b2.png","70","70","test","1","191","191","9","",""
"null","290262","pSARL_v2","pSARL_v2em69lx6m","60cfdcfdf8a3c6c42dad17d3","freq_resp","img/orange_2bandit_b.png","70","70","test","","","","9","",""
"null","290429","pSARL_v2","pSARL_v2em69lx6m","60cfdcfdf8a3c6c42dad17d3","fixation","img/fixation.png","null","","test","","","","","",""
"577","291009","pSARL_v2","pSARL_v2em69lx6m","60cfdcfdf8a3c6c42dad17d3","freq","img/orange_2bandit_b2.png","70","70","test","1","192","192","9","",""
"null","291249","pSARL_v2","pSARL_v2em69lx6m","60cfdcfdf8a3c6c42dad17d3","freq_resp","img/orange_2bandit_b.png","70","70","test","","","","9","",""
"null","291413","pSARL_v2","pSARL_v2em69lx6m","60cfdcfdf8a3c6c42dad17d3","fixation","img/fixation.png","null","","test","","","","","",""
"441","291855","pSARL_v2","pSARL_v2em69lx6m","60cfdcfdf8a3c6c42dad17d3","infreq","img/green_2bandit_b2.png","68","68","test","1","193","193","9","",""
"null","292220","pSARL_v2","pSARL_v2em69lx6m","60cfdcfdf8a3c6c42dad17d3","infreq_resp","img/green_2bandit_b.png","68","68","test","","","","9","",""
"null","292382","pSARL_v2","pSARL_v2em69lx6m","60cfdcfdf8a3c6c42dad17d3","fixation","img/fixation.png","null","","test","","","","","",""
"269","292654","pSARL_v2","pSARL_v2em69lx6m","60cfdcfdf8a3c6c42dad17d3","freq","img/orange_2bandit_b2.png","70","70","test","1","194","194","9","",""
"null","293192","pSARL_v2","pSARL_v2em69lx6m","60cfdcfdf8a3c6c42dad17d3","freq_resp","img/orange_2bandit_b.png","70","70","test","","","","9","",""
"null","293357","pSARL_v2","pSARL_v2em69lx6m","60cfdcfdf8a3c6c42dad17d3","fixation","img/fixation.png","null","","test","","","","","",""
"374","293733","pSARL_v2","pSARL_v2em69lx6m","60cfdcfdf8a3c6c42dad17d3","freq","img/orange_2bandit_b2.png","70","70","test","1","195","195","9","",""
"null","294171","pSARL_v2","pSARL_v2em69lx6m","60cfdcfdf8a3c6c42dad17d3","freq_resp","img/orange_2bandit_b.png","70","70","test","","","","9","",""
"null","294335","pSARL_v2","pSARL_v2em69lx6m","60cfdcfdf8a3c6c42dad17d3","fixation","img/fixation.png","null","","test","","","","","",""
"359","294695","pSARL_v2","pSARL_v2em69lx6m","60cfdcfdf8a3c6c42dad17d3","freq","img/orange_2bandit_b2.png","70","70","test","1","196","196","9","",""
"null","295143","pSARL_v2","pSARL_v2em69lx6m","60cfdcfdf8a3c6c42dad17d3","freq_resp","img/orange_2bandit_b.png","70","70","test","","","","9","",""
"null","295312","pSARL_v2","pSARL_v2em69lx6m","60cfdcfdf8a3c6c42dad17d3","fixation","img/fixation.png","null","","test","","","","","",""
"307","295622","pSARL_v2","pSARL_v2em69lx6m","60cfdcfdf8a3c6c42dad17d3","freq","img/orange_2bandit_b2.png","70","70","test","1","197","197","9","",""
"null","296129","pSARL_v2","pSARL_v2em69lx6m","60cfdcfdf8a3c6c42dad17d3","freq_resp","img/orange_2bandit_b.png","70","70","test","","","","9","",""
"null","296291","pSARL_v2","pSARL_v2em69lx6m","60cfdcfdf8a3c6c42dad17d3","fixation","img/fixation.png","null","","test","","","","","",""
"549","296842","pSARL_v2","pSARL_v2em69lx6m","60cfdcfdf8a3c6c42dad17d3","reward","img/slot.png","74","","test","","","","","",""
"null","297604","pSARL_v2","pSARL_v2em69lx6m","60cfdcfdf8a3c6c42dad17d3","points","<div class=""verylowPoints""> -3 </div>","null","na","test","","","","9","-3","8"
"471","298077","pSARL_v2","pSARL_v2em69lx6m","60cfdcfdf8a3c6c42dad17d3","freq","img/orange_2bandit_b2.png","70","70","test","1","198","198","10","",""
"null","298419","pSARL_v2","pSARL_v2em69lx6m","60cfdcfdf8a3c6c42dad17d3","freq_resp","img/orange_2bandit_b.png","70","70","test","","","","10","",""
"null","298581","pSARL_v2","pSARL_v2em69lx6m","60cfdcfdf8a3c6c42dad17d3","fixation","img/fixation.png","null","","test","","","","","",""
"589","299173","pSARL_v2","pSARL_v2em69lx6m","60cfdcfdf8a3c6c42dad17d3","freq","img/orange_2bandit_b2.png","70","70","test","1","199","199","10","",""
"null","299392","pSARL_v2","pSARL_v2em69lx6m","60cfdcfdf8a3c6c42dad17d3","freq_resp","img/orange_2bandit_b.png","70","70","test","","","","10","",""
"null","299552","pSARL_v2","pSARL_v2em69lx6m","60cfdcfdf8a3c6c42dad17d3","fixation","img/fixation.png","null","","test","","","","","",""
"518","300073","pSARL_v2","pSARL_v2em69lx6m","60cfdcfdf8a3c6c42dad17d3","freq","img/orange_2bandit_b2.png","70","70","test","1","200","200","10","",""
"null","300364","pSARL_v2","pSARL_v2em69lx6m","60cfdcfdf8a3c6c42dad17d3","freq_resp","img/orange_2bandit_b.png","70","70","test","","","","10","",""
"null","300524","pSARL_v2","pSARL_v2em69lx6m","60cfdcfdf8a3c6c42dad17d3","fixation","img/fixation.png","null","","test","","","","","",""
"497","301024","pSARL_v2","pSARL_v2em69lx6m","60cfdcfdf8a3c6c42dad17d3","freq","img/orange_2bandit_b2.png","70","70","test","1","201","201","10","",""
"null","301331","pSARL_v2","pSARL_v2em69lx6m","60cfdcfdf8a3c6c42dad17d3","freq_resp","img/orange_2bandit_b.png","70","70","test","","","","10","",""
"null","301496","pSARL_v2","pSARL_v2em69lx6m","60cfdcfdf8a3c6c42dad17d3","fixation","img/fixation.png","null","","test","","","","","",""
"558","302056","pSARL_v2","pSARL_v2em69lx6m","60cfdcfdf8a3c6c42dad17d3","freq","img/orange_2bandit_b2.png","70","70","test","1","202","202","10","",""
"null","302310","pSARL_v2","pSARL_v2em69lx6m","60cfdcfdf8a3c6c42dad17d3","freq_resp","img/orange_2bandit_b.png","70","70","test","","","","10","",""
"null","302472","pSARL_v2","pSARL_v2em69lx6m","60cfdcfdf8a3c6c42dad17d3","fixation","img/fixation.png","null","","test","","","","","",""
"600","303074","pSARL_v2","pSARL_v2em69lx6m","60cfdcfdf8a3c6c42dad17d3","freq","img/orange_2bandit_b2.png","70","70","test","1","203","203","10","",""
"null","303282","pSARL_v2","pSARL_v2em69lx6m","60cfdcfdf8a3c6c42dad17d3","freq_resp","img/orange_2bandit_b.png","70","70","test","","","","10","",""
"null","303436","pSARL_v2","pSARL_v2em69lx6m","60cfdcfdf8a3c6c42dad17d3","fixation","img/fixation.png","null","","test","","","","","",""
"530","303968","pSARL_v2","pSARL_v2em69lx6m","60cfdcfdf8a3c6c42dad17d3","freq","img/orange_2bandit_b2.png","70","70","test","1","204","204","10","",""
"null","304249","pSARL_v2","pSARL_v2em69lx6m","60cfdcfdf8a3c6c42dad17d3","freq_resp","img/orange_2bandit_b.png","70","70","test","","","","10","",""
"null","304418","pSARL_v2","pSARL_v2em69lx6m","60cfdcfdf8a3c6c42dad17d3","fixation","img/fixation.png","null","","test","","","","","",""
"431","304851","pSARL_v2","pSARL_v2em69lx6m","60cfdcfdf8a3c6c42dad17d3","freq","img/orange_2bandit_b2.png","70","70","test","1","205","205","10","",""
"null","305233","pSARL_v2","pSARL_v2em69lx6m","60cfdcfdf8a3c6c42dad17d3","freq_resp","img/orange_2bandit_b.png","70","70","test","","","","10","",""
"null","305397","pSARL_v2","pSARL_v2em69lx6m","60cfdcfdf8a3c6c42dad17d3","fixation","img/fixation.png","null","","test","","","","","",""
"330","305731","pSARL_v2","pSARL_v2em69lx6m","60cfdcfdf8a3c6c42dad17d3","freq","img/orange_2bandit_b2.png","70","70","test","1","206","206","10","",""
"null","306215","pSARL_v2","pSARL_v2em69lx6m","60cfdcfdf8a3c6c42dad17d3","freq_resp","img/orange_2bandit_b.png","70","70","test","","","","10","",""
"null","306381","pSARL_v2","pSARL_v2em69lx6m","60cfdcfdf8a3c6c42dad17d3","fixation","img/fixation.png","null","","test","","","","","",""
"580","306964","pSARL_v2","pSARL_v2em69lx6m","60cfdcfdf8a3c6c42dad17d3","infreq","img/green_2bandit_b2.png","68","68","test","1","207","207","10","",""
"null","307192","pSARL_v2","pSARL_v2em69lx6m","60cfdcfdf8a3c6c42dad17d3","infreq_resp","img/green_2bandit_b.png","68","68","test","","","","10","",""
"null","307353","pSARL_v2","pSARL_v2em69lx6m","60cfdcfdf8a3c6c42dad17d3","fixation","img/fixation.png","null","","test","","","","","",""
"510","307864","pSARL_v2","pSARL_v2em69lx6m","60cfdcfdf8a3c6c42dad17d3","freq","img/orange_2bandit_b2.png","70","70","test","1","208","208","10","",""
"null","308166","pSARL_v2","pSARL_v2em69lx6m","60cfdcfdf8a3c6c42dad17d3","freq_resp","img/orange_2bandit_b.png","70","70","test","","","","10","",""
"null","308331","pSARL_v2","pSARL_v2em69lx6m","60cfdcfdf8a3c6c42dad17d3","fixation","img/fixation.png","null","","test","","","","","",""
"354","308688","pSARL_v2","pSARL_v2em69lx6m","60cfdcfdf8a3c6c42dad17d3","freq","img/orange_2bandit_b2.png","70","70","test","1","209","209","10","",""
"null","309148","pSARL_v2","pSARL_v2em69lx6m","60cfdcfdf8a3c6c42dad17d3","freq_resp","img/orange_2bandit_b.png","70","70","test","","","","10","",""
"null","309317","pSARL_v2","pSARL_v2em69lx6m","60cfdcfdf8a3c6c42dad17d3","fixation","img/fixation.png","null","","test","","","","","",""
"296","309615","pSARL_v2","pSARL_v2em69lx6m","60cfdcfdf8a3c6c42dad17d3","freq","img/orange_2bandit_b2.png","70","70","test","1","210","210","10","",""
"null","310125","pSARL_v2","pSARL_v2em69lx6m","60cfdcfdf8a3c6c42dad17d3","freq_resp","img/orange_2bandit_b.png","70","70","test","","","","10","",""
"null","310279","pSARL_v2","pSARL_v2em69lx6m","60cfdcfdf8a3c6c42dad17d3","fixation","img/fixation.png","null","","test","","","","","",""
"281","310564","pSARL_v2","pSARL_v2em69lx6m","60cfdcfdf8a3c6c42dad17d3","infreq","img/green_2bandit_b2.png","70","68","test","0","211","211","10","",""
"null","311100","pSARL_v2","pSARL_v2em69lx6m","60cfdcfdf8a3c6c42dad17d3","infreq_resp","img/green_2bandit_b.png","70","68","test","","","","10","",""
"null","311267","pSARL_v2","pSARL_v2em69lx6m","60cfdcfdf8a3c6c42dad17d3","fixation","img/fixation.png","null","","test","","","","","",""
