"rt","time_elapsed","expId","subject","prolificID","trialType","stimulus","key_press","corrresp","phase","corr","trialNum","attentionRunNum","blockNum","points","rlNum"
"8144","8163","pSARL_v2","pSARL_v26z5woqdb","5fb7398b7e9d5025e52c7e1d","","","","","","","","","","",""
"","11750","pSARL_v2","pSARL_v26z5woqdb","5fb7398b7e9d5025e52c7e1d","fullscreen","","","","","","","","","",""
"80665.79999995232","92435","pSARL_v2","pSARL_v26z5woqdb","5fb7398b7e9d5025e52c7e1d","","","","","","","","","","",""
"null","93261","pSARL_v2","pSARL_v26z5woqdb","5fb7398b7e9d5025e52c7e1d","freqPrac","img/orange_2bandit_b2.png","null","70","prac","0","","","","",""
"null","94287","pSARL_v2","pSARL_v26z5woqdb","5fb7398b7e9d5025e52c7e1d","feedback","img/tooSlow.png","null","na","prac","","","","","",""
"null","94465","pSARL_v2","pSARL_v26z5woqdb","5fb7398b7e9d5025e52c7e1d","fixation","img/fixation.png","null","","prac","","","","","",""
"null","95293","pSARL_v2","pSARL_v26z5woqdb","5fb7398b7e9d5025e52c7e1d","infreqPrac","img/green_2bandit_b2.png","null","68","prac","0","","","","",""
"null","96320","pSARL_v2","pSARL_v26z5woqdb","5fb7398b7e9d5025e52c7e1d","feedback","img/tooSlow.png","null","na","prac","","","","","",""
"null","96498","pSARL_v2","pSARL_v26z5woqdb","5fb7398b7e9d5025e52c7e1d","fixation","img/fixation.png","null","","prac","","","","","",""
"496.5","97011","pSARL_v2","pSARL_v26z5woqdb","5fb7398b7e9d5025e52c7e1d","freqPrac","img/orange_2bandit_b2.png","70","70","prac","1","","","","",""
"496.5","97337","pSARL_v2","pSARL_v26z5woqdb","5fb7398b7e9d5025e52c7e1d","freqPrac_resp","img/orange_2bandit_b.png","70","70","prac","","","","","",""
"null","97513","pSARL_v2","pSARL_v26z5woqdb","5fb7398b7e9d5025e52c7e1d","fixation","img/fixation.png","null","","prac","","","","","",""
"439.19999998807907","97968","pSARL_v2","pSARL_v26z5woqdb","5fb7398b7e9d5025e52c7e1d","infreqPrac","img/green_2bandit_b2.png","68","68","prac","1","","","","",""
"439.19999998807907","98356","pSARL_v2","pSARL_v26z5woqdb","5fb7398b7e9d5025e52c7e1d","infreqPrac_resp","img/green_2bandit_b.png","68","68","prac","","","","","",""
"null","98537","pSARL_v2","pSARL_v26z5woqdb","5fb7398b7e9d5025e52c7e1d","fixation","img/fixation.png","null","","prac","","","","","",""
"291.0999999642372","98845","pSARL_v2","pSARL_v26z5woqdb","5fb7398b7e9d5025e52c7e1d","infreqPrac","img/green_2bandit_b2.png","70","68","prac","0","","","","",""
"291.0999999642372","99378","pSARL_v2","pSARL_v26z5woqdb","5fb7398b7e9d5025e52c7e1d","infreqPrac_resp","img/green_2bandit_b.png","70","68","prac","","","","","",""
"null","100400","pSARL_v2","pSARL_v26z5woqdb","5fb7398b7e9d5025e52c7e1d","feedback","img/wrongKey.png","null","na","prac","","","","","",""
"null","100582","pSARL_v2","pSARL_v26z5woqdb","5fb7398b7e9d5025e52c7e1d","fixation","img/fixation.png","null","","prac","","","","","",""
"658.8999999761581","101258","pSARL_v2","pSARL_v26z5woqdb","5fb7398b7e9d5025e52c7e1d","infreqPrac","img/green_2bandit_b2.png","68","68","prac","1","","","","",""
"658.8999999761581","101421","pSARL_v2","pSARL_v26z5woqdb","5fb7398b7e9d5025e52c7e1d","infreqPrac_resp","img/green_2bandit_b.png","68","68","prac","","","","","",""
"null","101595","pSARL_v2","pSARL_v26z5woqdb","5fb7398b7e9d5025e52c7e1d","fixation","img/fixation.png","null","","prac","","","","","",""
"398.30000001192093","102010","pSARL_v2","pSARL_v26z5woqdb","5fb7398b7e9d5025e52c7e1d","freqPrac","img/orange_2bandit_b2.png","70","70","prac","1","","","","",""
"398.30000001192093","102438","pSARL_v2","pSARL_v26z5woqdb","5fb7398b7e9d5025e52c7e1d","freqPrac_resp","img/orange_2bandit_b.png","70","70","prac","","","","","",""
"null","102606","pSARL_v2","pSARL_v26z5woqdb","5fb7398b7e9d5025e52c7e1d","fixation","img/fixation.png","null","","prac","","","","","",""
"285.69999998807907","102908","pSARL_v2","pSARL_v26z5woqdb","5fb7398b7e9d5025e52c7e1d","infreqPrac","img/green_2bandit_b2.png","68","68","prac","1","","","","",""
"285.69999998807907","103449","pSARL_v2","pSARL_v26z5woqdb","5fb7398b7e9d5025e52c7e1d","infreqPrac_resp","img/green_2bandit_b.png","68","68","prac","","","","","",""
"null","103626","pSARL_v2","pSARL_v26z5woqdb","5fb7398b7e9d5025e52c7e1d","fixation","img/fixation.png","null","","prac","","","","","",""
"424.69999998807907","104066","pSARL_v2","pSARL_v26z5woqdb","5fb7398b7e9d5025e52c7e1d","freqPrac","img/orange_2bandit_b2.png","70","70","prac","1","","","","",""
"424.69999998807907","104465","pSARL_v2","pSARL_v26z5woqdb","5fb7398b7e9d5025e52c7e1d","freqPrac_resp","img/orange_2bandit_b.png","70","70","prac","","","","","",""
"null","104645","pSARL_v2","pSARL_v26z5woqdb","5fb7398b7e9d5025e52c7e1d","fixation","img/fixation.png","null","","prac","","","","","",""
"376.10000002384186","105037","pSARL_v2","pSARL_v26z5woqdb","5fb7398b7e9d5025e52c7e1d","freqPrac","img/orange_2bandit_b2.png","70","70","prac","1","","","","",""
"376.10000002384186","105478","pSARL_v2","pSARL_v26z5woqdb","5fb7398b7e9d5025e52c7e1d","freqPrac_resp","img/orange_2bandit_b.png","70","70","prac","","","","","",""
"null","105653","pSARL_v2","pSARL_v26z5woqdb","5fb7398b7e9d5025e52c7e1d","fixation","img/fixation.png","null","","prac","","","","","",""
"13773.100000023842","119433","pSARL_v2","pSARL_v26z5woqdb","5fb7398b7e9d5025e52c7e1d","","","","","prac","","","","","",""
"815.0999999642372","120266","pSARL_v2","pSARL_v26z5woqdb","5fb7398b7e9d5025e52c7e1d","rewardPractice","img/slot.png","74","","prac","","","","","",""
"null","121049","pSARL_v2","pSARL_v26z5woqdb","5fb7398b7e9d5025e52c7e1d","feedback","<div class=""veryhighPoints""> +15 </div>","null","na","prac","","","","","",""
"null","121212","pSARL_v2","pSARL_v26z5woqdb","5fb7398b7e9d5025e52c7e1d","fixation","img/fixation.png","null","","prac","","","","","",""
"13858.699999988079","135086","pSARL_v2","pSARL_v26z5woqdb","5fb7398b7e9d5025e52c7e1d","","","","","prac","","","","","",""
"522.6000000238419","135627","pSARL_v2","pSARL_v26z5woqdb","5fb7398b7e9d5025e52c7e1d","freq","img/orange_2bandit_b2.png","70","70","test","1","1","1","1","",""
"null","135935","pSARL_v2","pSARL_v26z5woqdb","5fb7398b7e9d5025e52c7e1d","freq_resp","img/orange_2bandit_b.png","70","70","test","","","","1","",""
"null","136105","pSARL_v2","pSARL_v26z5woqdb","5fb7398b7e9d5025e52c7e1d","fixation","img/fixation.png","null","","test","","","","","",""
"685.3000000119209","136808","pSARL_v2","pSARL_v26z5woqdb","5fb7398b7e9d5025e52c7e1d","freq","img/orange_2bandit_b2.png","70","70","test","1","2","2","1","",""
"null","136954","pSARL_v2","pSARL_v26z5woqdb","5fb7398b7e9d5025e52c7e1d","freq_resp","img/orange_2bandit_b.png","70","70","test","","","","1","",""
"null","137124","pSARL_v2","pSARL_v26z5woqdb","5fb7398b7e9d5025e52c7e1d","fixation","img/fixation.png","null","","test","","","","","",""
"333.69999998807907","137475","pSARL_v2","pSARL_v26z5woqdb","5fb7398b7e9d5025e52c7e1d","freq","img/orange_2bandit_b2.png","70","70","test","1","3","3","1","",""
"null","137970","pSARL_v2","pSARL_v26z5woqdb","5fb7398b7e9d5025e52c7e1d","freq_resp","img/orange_2bandit_b.png","70","70","test","","","","1","",""
"null","138139","pSARL_v2","pSARL_v26z5woqdb","5fb7398b7e9d5025e52c7e1d","fixation","img/fixation.png","null","","test","","","","","",""
"308.5","138464","pSARL_v2","pSARL_v26z5woqdb","5fb7398b7e9d5025e52c7e1d","freq","img/orange_2bandit_b2.png","70","70","test","1","4","4","1","",""
"null","138985","pSARL_v2","pSARL_v26z5woqdb","5fb7398b7e9d5025e52c7e1d","freq_resp","img/orange_2bandit_b.png","70","70","test","","","","1","",""
"null","139163","pSARL_v2","pSARL_v26z5woqdb","5fb7398b7e9d5025e52c7e1d","fixation","img/fixation.png","null","","test","","","","","",""
"258.30000001192093","139439","pSARL_v2","pSARL_v26z5woqdb","5fb7398b7e9d5025e52c7e1d","freq","img/orange_2bandit_b2.png","70","70","test","1","5","5","1","",""
"null","139998","pSARL_v2","pSARL_v26z5woqdb","5fb7398b7e9d5025e52c7e1d","freq_resp","img/orange_2bandit_b.png","70","70","test","","","","1","",""
"null","140176","pSARL_v2","pSARL_v26z5woqdb","5fb7398b7e9d5025e52c7e1d","fixation","img/fixation.png","null","","test","","","","","",""
"514","140708","pSARL_v2","pSARL_v26z5woqdb","5fb7398b7e9d5025e52c7e1d","infreq","img/green_2bandit_b2.png","68","68","test","1","6","6","1","",""
"null","141024","pSARL_v2","pSARL_v26z5woqdb","5fb7398b7e9d5025e52c7e1d","infreq_resp","img/green_2bandit_b.png","68","68","test","","","","1","",""
"null","141197","pSARL_v2","pSARL_v26z5woqdb","5fb7398b7e9d5025e52c7e1d","fixation","img/fixation.png","null","","test","","","","","",""
"219","141433","pSARL_v2","pSARL_v26z5woqdb","5fb7398b7e9d5025e52c7e1d","infreq","img/green_2bandit_b2.png","68","68","test","1","7","7","1","",""
"null","142038","pSARL_v2","pSARL_v26z5woqdb","5fb7398b7e9d5025e52c7e1d","infreq_resp","img/green_2bandit_b.png","68","68","test","","","","1","",""
"null","142218","pSARL_v2","pSARL_v26z5woqdb","5fb7398b7e9d5025e52c7e1d","fixation","img/fixation.png","null","","test","","","","","",""
"467.89999997615814","142702","pSARL_v2","pSARL_v26z5woqdb","5fb7398b7e9d5025e52c7e1d","freq","img/orange_2bandit_b2.png","70","70","test","1","8","8","1","",""
"null","143052","pSARL_v2","pSARL_v26z5woqdb","5fb7398b7e9d5025e52c7e1d","freq_resp","img/orange_2bandit_b.png","70","70","test","","","","1","",""
"null","143224","pSARL_v2","pSARL_v26z5woqdb","5fb7398b7e9d5025e52c7e1d","fixation","img/fixation.png","null","","test","","","","","",""
"374.19999998807907","143615","pSARL_v2","pSARL_v26z5woqdb","5fb7398b7e9d5025e52c7e1d","freq","img/orange_2bandit_b2.png","70","70","test","1","9","9","1","",""
"null","144058","pSARL_v2","pSARL_v26z5woqdb","5fb7398b7e9d5025e52c7e1d","freq_resp","img/orange_2bandit_b.png","70","70","test","","","","1","",""
"null","144232","pSARL_v2","pSARL_v26z5woqdb","5fb7398b7e9d5025e52c7e1d","fixation","img/fixation.png","null","","test","","","","","",""
"387.30000001192093","144630","pSARL_v2","pSARL_v26z5woqdb","5fb7398b7e9d5025e52c7e1d","freq","img/orange_2bandit_b2.png","70","70","test","1","10","10","1","",""
"null","145064","pSARL_v2","pSARL_v26z5woqdb","5fb7398b7e9d5025e52c7e1d","freq_resp","img/orange_2bandit_b.png","70","70","test","","","","1","",""
"null","145230","pSARL_v2","pSARL_v26z5woqdb","5fb7398b7e9d5025e52c7e1d","fixation","img/fixation.png","null","","test","","","","","",""
"286.19999998807907","145527","pSARL_v2","pSARL_v26z5woqdb","5fb7398b7e9d5025e52c7e1d","freq","img/orange_2bandit_b2.png","70","70","test","1","11","11","1","",""
"null","146058","pSARL_v2","pSARL_v26z5woqdb","5fb7398b7e9d5025e52c7e1d","freq_resp","img/orange_2bandit_b.png","70","70","test","","","","1","",""
"null","146224","pSARL_v2","pSARL_v26z5woqdb","5fb7398b7e9d5025e52c7e1d","fixation","img/fixation.png","null","","test","","","","","",""
"271.10000002384186","146506","pSARL_v2","pSARL_v26z5woqdb","5fb7398b7e9d5025e52c7e1d","freq","img/orange_2bandit_b2.png","70","70","test","1","12","12","1","",""
"null","147097","pSARL_v2","pSARL_v26z5woqdb","5fb7398b7e9d5025e52c7e1d","freq_resp","img/orange_2bandit_b.png","70","70","test","","","","1","",""
"null","147273","pSARL_v2","pSARL_v26z5woqdb","5fb7398b7e9d5025e52c7e1d","fixation","img/fixation.png","null","","test","","","","","",""
"137.69999998807907","147421","pSARL_v2","pSARL_v26z5woqdb","5fb7398b7e9d5025e52c7e1d","freq","img/orange_2bandit_b2.png","70","70","test","1","13","13","1","",""
"null","148098","pSARL_v2","pSARL_v26z5woqdb","5fb7398b7e9d5025e52c7e1d","freq_resp","img/orange_2bandit_b.png","70","70","test","","","","1","",""
"null","148261","pSARL_v2","pSARL_v26z5woqdb","5fb7398b7e9d5025e52c7e1d","fixation","img/fixation.png","null","","test","","","","","",""
"265","148542","pSARL_v2","pSARL_v26z5woqdb","5fb7398b7e9d5025e52c7e1d","freq","img/orange_2bandit_b2.png","70","70","test","1","14","14","1","",""
"null","149105","pSARL_v2","pSARL_v26z5woqdb","5fb7398b7e9d5025e52c7e1d","freq_resp","img/orange_2bandit_b.png","70","70","test","","","","1","",""
"null","149281","pSARL_v2","pSARL_v26z5woqdb","5fb7398b7e9d5025e52c7e1d","fixation","img/fixation.png","null","","test","","","","","",""
"269.7999999523163","149564","pSARL_v2","pSARL_v26z5woqdb","5fb7398b7e9d5025e52c7e1d","freq","img/orange_2bandit_b2.png","70","70","test","1","15","15","1","",""
"null","150121","pSARL_v2","pSARL_v26z5woqdb","5fb7398b7e9d5025e52c7e1d","freq_resp","img/orange_2bandit_b.png","70","70","test","","","","1","",""
"null","150300","pSARL_v2","pSARL_v26z5woqdb","5fb7398b7e9d5025e52c7e1d","fixation","img/fixation.png","null","","test","","","","","",""
"301","150617","pSARL_v2","pSARL_v26z5woqdb","5fb7398b7e9d5025e52c7e1d","freq","img/orange_2bandit_b2.png","70","70","test","1","16","16","1","",""
"null","151144","pSARL_v2","pSARL_v26z5woqdb","5fb7398b7e9d5025e52c7e1d","freq_resp","img/orange_2bandit_b.png","70","70","test","","","","1","",""
"null","151319","pSARL_v2","pSARL_v26z5woqdb","5fb7398b7e9d5025e52c7e1d","fixation","img/fixation.png","null","","test","","","","","",""
"294","151630","pSARL_v2","pSARL_v26z5woqdb","5fb7398b7e9d5025e52c7e1d","freq","img/orange_2bandit_b2.png","70","70","test","1","17","17","1","",""
"null","152160","pSARL_v2","pSARL_v26z5woqdb","5fb7398b7e9d5025e52c7e1d","freq_resp","img/orange_2bandit_b.png","70","70","test","","","","1","",""
"null","152328","pSARL_v2","pSARL_v26z5woqdb","5fb7398b7e9d5025e52c7e1d","fixation","img/fixation.png","null","","test","","","","","",""
"244.0999999642372","152588","pSARL_v2","pSARL_v26z5woqdb","5fb7398b7e9d5025e52c7e1d","freq","img/orange_2bandit_b2.png","70","70","test","1","18","18","1","",""
"null","153172","pSARL_v2","pSARL_v26z5woqdb","5fb7398b7e9d5025e52c7e1d","freq_resp","img/orange_2bandit_b.png","70","70","test","","","","1","",""
"null","153351","pSARL_v2","pSARL_v26z5woqdb","5fb7398b7e9d5025e52c7e1d","fixation","img/fixation.png","null","","test","","","","","",""
"255.69999998807907","153624","pSARL_v2","pSARL_v26z5woqdb","5fb7398b7e9d5025e52c7e1d","freq","img/orange_2bandit_b2.png","70","70","test","1","19","19","1","",""
"null","154195","pSARL_v2","pSARL_v26z5woqdb","5fb7398b7e9d5025e52c7e1d","freq_resp","img/orange_2bandit_b.png","70","70","test","","","","1","",""
"null","154377","pSARL_v2","pSARL_v26z5woqdb","5fb7398b7e9d5025e52c7e1d","fixation","img/fixation.png","null","","test","","","","","",""
"269.10000002384186","154658","pSARL_v2","pSARL_v26z5woqdb","5fb7398b7e9d5025e52c7e1d","freq","img/orange_2bandit_b2.png","70","70","test","1","20","20","1","",""
"null","155205","pSARL_v2","pSARL_v26z5woqdb","5fb7398b7e9d5025e52c7e1d","freq_resp","img/orange_2bandit_b.png","70","70","test","","","","1","",""
"null","155378","pSARL_v2","pSARL_v26z5woqdb","5fb7398b7e9d5025e52c7e1d","fixation","img/fixation.png","null","","test","","","","","",""
"272.5","155661","pSARL_v2","pSARL_v26z5woqdb","5fb7398b7e9d5025e52c7e1d","freq","img/orange_2bandit_b2.png","70","70","test","1","21","21","1","",""
"null","156217","pSARL_v2","pSARL_v26z5woqdb","5fb7398b7e9d5025e52c7e1d","freq_resp","img/orange_2bandit_b.png","70","70","test","","","","1","",""
"null","156394","pSARL_v2","pSARL_v26z5woqdb","5fb7398b7e9d5025e52c7e1d","fixation","img/fixation.png","null","","test","","","","","",""
"543.1999999880791","156953","pSARL_v2","pSARL_v26z5woqdb","5fb7398b7e9d5025e52c7e1d","reward","img/slot.png","74","","test","","","","","",""
"null","157730","pSARL_v2","pSARL_v26z5woqdb","5fb7398b7e9d5025e52c7e1d","points","<div class=""verylowPoints""> -6 </div>","null","na","test","","","","1","-6","0"
"496.0999999642372","158244","pSARL_v2","pSARL_v26z5woqdb","5fb7398b7e9d5025e52c7e1d","freq","img/orange_2bandit_b2.png","70","70","test","1","22","22","2","",""
"null","158575","pSARL_v2","pSARL_v26z5woqdb","5fb7398b7e9d5025e52c7e1d","freq_resp","img/orange_2bandit_b.png","70","70","test","","","","2","",""
"null","158751","pSARL_v2","pSARL_v26z5woqdb","5fb7398b7e9d5025e52c7e1d","fixation","img/fixation.png","null","","test","","","","","",""
"431.9000000357628","159199","pSARL_v2","pSARL_v26z5woqdb","5fb7398b7e9d5025e52c7e1d","infreq","img/green_2bandit_b2.png","68","68","test","1","23","23","2","",""
"null","159586","pSARL_v2","pSARL_v26z5woqdb","5fb7398b7e9d5025e52c7e1d","infreq_resp","img/green_2bandit_b.png","68","68","test","","","","2","",""
"null","159770","pSARL_v2","pSARL_v26z5woqdb","5fb7398b7e9d5025e52c7e1d","fixation","img/fixation.png","null","","test","","","","","",""
"382.5","160170","pSARL_v2","pSARL_v26z5woqdb","5fb7398b7e9d5025e52c7e1d","freq","img/orange_2bandit_b2.png","70","70","test","1","24","24","2","",""
"null","160610","pSARL_v2","pSARL_v26z5woqdb","5fb7398b7e9d5025e52c7e1d","freq_resp","img/orange_2bandit_b.png","70","70","test","","","","2","",""
"null","160785","pSARL_v2","pSARL_v26z5woqdb","5fb7398b7e9d5025e52c7e1d","fixation","img/fixation.png","null","","test","","","","","",""
"283","161085","pSARL_v2","pSARL_v26z5woqdb","5fb7398b7e9d5025e52c7e1d","freq","img/orange_2bandit_b2.png","70","70","test","1","25","25","2","",""
"null","161624","pSARL_v2","pSARL_v26z5woqdb","5fb7398b7e9d5025e52c7e1d","freq_resp","img/orange_2bandit_b.png","70","70","test","","","","2","",""
"null","161795","pSARL_v2","pSARL_v26z5woqdb","5fb7398b7e9d5025e52c7e1d","fixation","img/fixation.png","null","","test","","","","","",""
"231","162043","pSARL_v2","pSARL_v26z5woqdb","5fb7398b7e9d5025e52c7e1d","freq","img/orange_2bandit_b2.png","70","70","test","1","26","26","2","",""
"null","162642","pSARL_v2","pSARL_v26z5woqdb","5fb7398b7e9d5025e52c7e1d","freq_resp","img/orange_2bandit_b.png","70","70","test","","","","2","",""
"null","162809","pSARL_v2","pSARL_v26z5woqdb","5fb7398b7e9d5025e52c7e1d","fixation","img/fixation.png","null","","test","","","","","",""
"138.5999999642372","162964","pSARL_v2","pSARL_v26z5woqdb","5fb7398b7e9d5025e52c7e1d","freq","img/orange_2bandit_b2.png","70","70","test","1","27","27","2","",""
"null","163646","pSARL_v2","pSARL_v26z5woqdb","5fb7398b7e9d5025e52c7e1d","freq_resp","img/orange_2bandit_b.png","70","70","test","","","","2","",""
"null","163817","pSARL_v2","pSARL_v26z5woqdb","5fb7398b7e9d5025e52c7e1d","fixation","img/fixation.png","null","","test","","","","","",""
"181.19999998807907","164015","pSARL_v2","pSARL_v26z5woqdb","5fb7398b7e9d5025e52c7e1d","freq","img/orange_2bandit_b2.png","70","70","test","1","28","28","2","",""
"null","164651","pSARL_v2","pSARL_v26z5woqdb","5fb7398b7e9d5025e52c7e1d","freq_resp","img/orange_2bandit_b.png","70","70","test","","","","2","",""
"null","164832","pSARL_v2","pSARL_v26z5woqdb","5fb7398b7e9d5025e52c7e1d","fixation","img/fixation.png","null","","test","","","","","",""
"169.79999995231628","165020","pSARL_v2","pSARL_v26z5woqdb","5fb7398b7e9d5025e52c7e1d","freq","img/orange_2bandit_b2.png","70","70","test","1","29","29","2","",""
"null","165680","pSARL_v2","pSARL_v26z5woqdb","5fb7398b7e9d5025e52c7e1d","freq_resp","img/orange_2bandit_b.png","70","70","test","","","","2","",""
"null","165847","pSARL_v2","pSARL_v26z5woqdb","5fb7398b7e9d5025e52c7e1d","fixation","img/fixation.png","null","","test","","","","","",""
"326.30000001192093","166190","pSARL_v2","pSARL_v26z5woqdb","5fb7398b7e9d5025e52c7e1d","freq","img/orange_2bandit_b2.png","70","70","test","1","30","30","2","",""
"null","166689","pSARL_v2","pSARL_v26z5woqdb","5fb7398b7e9d5025e52c7e1d","freq_resp","img/orange_2bandit_b.png","70","70","test","","","","2","",""
"null","166868","pSARL_v2","pSARL_v26z5woqdb","5fb7398b7e9d5025e52c7e1d","fixation","img/fixation.png","null","","test","","","","","",""
"301.89999997615814","167186","pSARL_v2","pSARL_v26z5woqdb","5fb7398b7e9d5025e52c7e1d","freq","img/orange_2bandit_b2.png","70","70","test","1","31","31","2","",""
"null","167706","pSARL_v2","pSARL_v26z5woqdb","5fb7398b7e9d5025e52c7e1d","freq_resp","img/orange_2bandit_b.png","70","70","test","","","","2","",""
"null","167883","pSARL_v2","pSARL_v26z5woqdb","5fb7398b7e9d5025e52c7e1d","fixation","img/fixation.png","null","","test","","","","","",""
"343.2000000476837","168243","pSARL_v2","pSARL_v26z5woqdb","5fb7398b7e9d5025e52c7e1d","freq","img/orange_2bandit_b2.png","70","70","test","1","32","32","2","",""
"null","168725","pSARL_v2","pSARL_v26z5woqdb","5fb7398b7e9d5025e52c7e1d","freq_resp","img/orange_2bandit_b.png","70","70","test","","","","2","",""
"null","168894","pSARL_v2","pSARL_v26z5woqdb","5fb7398b7e9d5025e52c7e1d","fixation","img/fixation.png","null","","test","","","","","",""
"283","169193","pSARL_v2","pSARL_v26z5woqdb","5fb7398b7e9d5025e52c7e1d","freq","img/orange_2bandit_b2.png","70","70","test","1","33","33","2","",""
"null","169736","pSARL_v2","pSARL_v26z5woqdb","5fb7398b7e9d5025e52c7e1d","freq_resp","img/orange_2bandit_b.png","70","70","test","","","","2","",""
"null","169909","pSARL_v2","pSARL_v26z5woqdb","5fb7398b7e9d5025e52c7e1d","fixation","img/fixation.png","null","","test","","","","","",""
"284","170210","pSARL_v2","pSARL_v26z5woqdb","5fb7398b7e9d5025e52c7e1d","freq","img/orange_2bandit_b2.png","70","70","test","1","34","34","2","",""
"null","170755","pSARL_v2","pSARL_v26z5woqdb","5fb7398b7e9d5025e52c7e1d","freq_resp","img/orange_2bandit_b.png","70","70","test","","","","2","",""
"null","170923","pSARL_v2","pSARL_v26z5woqdb","5fb7398b7e9d5025e52c7e1d","fixation","img/fixation.png","null","","test","","","","","",""
"245.30000001192093","171185","pSARL_v2","pSARL_v26z5woqdb","5fb7398b7e9d5025e52c7e1d","freq","img/orange_2bandit_b2.png","70","70","test","1","35","35","2","",""
"null","171767","pSARL_v2","pSARL_v26z5woqdb","5fb7398b7e9d5025e52c7e1d","freq_resp","img/orange_2bandit_b.png","70","70","test","","","","2","",""
"null","171941","pSARL_v2","pSARL_v26z5woqdb","5fb7398b7e9d5025e52c7e1d","fixation","img/fixation.png","null","","test","","","","","",""
"433.5","172392","pSARL_v2","pSARL_v26z5woqdb","5fb7398b7e9d5025e52c7e1d","infreq","img/green_2bandit_b2.png","68","68","test","1","36","36","2","",""
"null","172780","pSARL_v2","pSARL_v26z5woqdb","5fb7398b7e9d5025e52c7e1d","infreq_resp","img/green_2bandit_b.png","68","68","test","","","","2","",""
"null","172959","pSARL_v2","pSARL_v26z5woqdb","5fb7398b7e9d5025e52c7e1d","fixation","img/fixation.png","null","","test","","","","","",""
"438.9000000357628","173415","pSARL_v2","pSARL_v26z5woqdb","5fb7398b7e9d5025e52c7e1d","freq","img/orange_2bandit_b2.png","70","70","test","1","37","37","2","",""
"null","173795","pSARL_v2","pSARL_v26z5woqdb","5fb7398b7e9d5025e52c7e1d","freq_resp","img/orange_2bandit_b.png","70","70","test","","","","2","",""
"null","173964","pSARL_v2","pSARL_v26z5woqdb","5fb7398b7e9d5025e52c7e1d","fixation","img/fixation.png","null","","test","","","","","",""
"344.10000002384186","174325","pSARL_v2","pSARL_v26z5woqdb","5fb7398b7e9d5025e52c7e1d","freq","img/orange_2bandit_b2.png","70","70","test","1","38","38","2","",""
"null","174806","pSARL_v2","pSARL_v26z5woqdb","5fb7398b7e9d5025e52c7e1d","freq_resp","img/orange_2bandit_b.png","70","70","test","","","","2","",""
"null","174975","pSARL_v2","pSARL_v26z5woqdb","5fb7398b7e9d5025e52c7e1d","fixation","img/fixation.png","null","","test","","","","","",""
"276","175268","pSARL_v2","pSARL_v26z5woqdb","5fb7398b7e9d5025e52c7e1d","freq","img/orange_2bandit_b2.png","70","70","test","1","39","39","2","",""
"null","175818","pSARL_v2","pSARL_v26z5woqdb","5fb7398b7e9d5025e52c7e1d","freq_resp","img/orange_2bandit_b.png","70","70","test","","","","2","",""
"null","175992","pSARL_v2","pSARL_v26z5woqdb","5fb7398b7e9d5025e52c7e1d","fixation","img/fixation.png","null","","test","","","","","",""
"307.60000002384186","176316","pSARL_v2","pSARL_v26z5woqdb","5fb7398b7e9d5025e52c7e1d","freq","img/orange_2bandit_b2.png","70","70","test","1","40","40","2","",""
"null","176823","pSARL_v2","pSARL_v26z5woqdb","5fb7398b7e9d5025e52c7e1d","freq_resp","img/orange_2bandit_b.png","70","70","test","","","","2","",""
"null","176999","pSARL_v2","pSARL_v26z5woqdb","5fb7398b7e9d5025e52c7e1d","fixation","img/fixation.png","null","","test","","","","","",""
"289.69999998807907","177310","pSARL_v2","pSARL_v26z5woqdb","5fb7398b7e9d5025e52c7e1d","freq","img/orange_2bandit_b2.png","70","70","test","1","41","41","2","",""
"null","177851","pSARL_v2","pSARL_v26z5woqdb","5fb7398b7e9d5025e52c7e1d","freq_resp","img/orange_2bandit_b.png","70","70","test","","","","2","",""
"null","178024","pSARL_v2","pSARL_v26z5woqdb","5fb7398b7e9d5025e52c7e1d","fixation","img/fixation.png","null","","test","","","","","",""
"220.29999995231628","178260","pSARL_v2","pSARL_v26z5woqdb","5fb7398b7e9d5025e52c7e1d","freq","img/orange_2bandit_b2.png","70","70","test","1","42","42","2","",""
"null","178871","pSARL_v2","pSARL_v26z5woqdb","5fb7398b7e9d5025e52c7e1d","freq_resp","img/orange_2bandit_b.png","70","70","test","","","","2","",""
"null","179040","pSARL_v2","pSARL_v26z5woqdb","5fb7398b7e9d5025e52c7e1d","fixation","img/fixation.png","null","","test","","","","","",""
"283.9000000357628","179340","pSARL_v2","pSARL_v26z5woqdb","5fb7398b7e9d5025e52c7e1d","freq","img/orange_2bandit_b2.png","70","70","test","1","43","43","2","",""
"null","179889","pSARL_v2","pSARL_v26z5woqdb","5fb7398b7e9d5025e52c7e1d","freq_resp","img/orange_2bandit_b.png","70","70","test","","","","2","",""
"null","180069","pSARL_v2","pSARL_v26z5woqdb","5fb7398b7e9d5025e52c7e1d","fixation","img/fixation.png","null","","test","","","","","",""
"488.30000001192093","180569","pSARL_v2","pSARL_v26z5woqdb","5fb7398b7e9d5025e52c7e1d","reward","img/slot.png","74","","test","","","","","",""
"null","181344","pSARL_v2","pSARL_v26z5woqdb","5fb7398b7e9d5025e52c7e1d","points","<div class=""verylowPoints""> -11 </div>","null","na","test","","","","2","-11","1"
"627.4000000357628","181988","pSARL_v2","pSARL_v26z5woqdb","5fb7398b7e9d5025e52c7e1d","freq","img/orange_2bandit_b2.png","70","70","test","1","44","44","3","",""
"null","182193","pSARL_v2","pSARL_v26z5woqdb","5fb7398b7e9d5025e52c7e1d","freq_resp","img/orange_2bandit_b.png","70","70","test","","","","3","",""
"null","182360","pSARL_v2","pSARL_v26z5woqdb","5fb7398b7e9d5025e52c7e1d","fixation","img/fixation.png","null","","test","","","","","",""
"425","182797","pSARL_v2","pSARL_v26z5woqdb","5fb7398b7e9d5025e52c7e1d","freq","img/orange_2bandit_b2.png","70","70","test","1","45","45","3","",""
"null","183184","pSARL_v2","pSARL_v26z5woqdb","5fb7398b7e9d5025e52c7e1d","freq_resp","img/orange_2bandit_b.png","70","70","test","","","","3","",""
"null","183362","pSARL_v2","pSARL_v26z5woqdb","5fb7398b7e9d5025e52c7e1d","fixation","img/fixation.png","null","","test","","","","","",""
"271.9000000357628","183650","pSARL_v2","pSARL_v26z5woqdb","5fb7398b7e9d5025e52c7e1d","freq","img/orange_2bandit_b2.png","70","70","test","1","46","46","3","",""
"null","184200","pSARL_v2","pSARL_v26z5woqdb","5fb7398b7e9d5025e52c7e1d","freq_resp","img/orange_2bandit_b.png","70","70","test","","","","3","",""
"null","184375","pSARL_v2","pSARL_v26z5woqdb","5fb7398b7e9d5025e52c7e1d","fixation","img/fixation.png","null","","test","","","","","",""
"257.9000000357628","184648","pSARL_v2","pSARL_v26z5woqdb","5fb7398b7e9d5025e52c7e1d","freq","img/orange_2bandit_b2.png","70","70","test","1","47","47","3","",""
"null","185210","pSARL_v2","pSARL_v26z5woqdb","5fb7398b7e9d5025e52c7e1d","freq_resp","img/orange_2bandit_b.png","70","70","test","","","","3","",""
"null","185393","pSARL_v2","pSARL_v26z5woqdb","5fb7398b7e9d5025e52c7e1d","fixation","img/fixation.png","null","","test","","","","","",""
"317.30000001192093","185727","pSARL_v2","pSARL_v26z5woqdb","5fb7398b7e9d5025e52c7e1d","freq","img/orange_2bandit_b2.png","70","70","test","1","48","48","3","",""
"null","186240","pSARL_v2","pSARL_v26z5woqdb","5fb7398b7e9d5025e52c7e1d","freq_resp","img/orange_2bandit_b.png","70","70","test","","","","3","",""
"null","186417","pSARL_v2","pSARL_v26z5woqdb","5fb7398b7e9d5025e52c7e1d","fixation","img/fixation.png","null","","test","","","","","",""
"292.80000001192093","186727","pSARL_v2","pSARL_v26z5woqdb","5fb7398b7e9d5025e52c7e1d","freq","img/orange_2bandit_b2.png","70","70","test","1","49","49","3","",""
"null","187255","pSARL_v2","pSARL_v26z5woqdb","5fb7398b7e9d5025e52c7e1d","freq_resp","img/orange_2bandit_b.png","70","70","test","","","","3","",""
"null","187434","pSARL_v2","pSARL_v26z5woqdb","5fb7398b7e9d5025e52c7e1d","fixation","img/fixation.png","null","","test","","","","","",""
"236.20000004768372","187688","pSARL_v2","pSARL_v26z5woqdb","5fb7398b7e9d5025e52c7e1d","freq","img/orange_2bandit_b2.png","70","70","test","1","50","50","3","",""
"null","188278","pSARL_v2","pSARL_v26z5woqdb","5fb7398b7e9d5025e52c7e1d","freq_resp","img/orange_2bandit_b.png","70","70","test","","","","3","",""
"null","188452","pSARL_v2","pSARL_v26z5woqdb","5fb7398b7e9d5025e52c7e1d","fixation","img/fixation.png","null","","test","","","","","",""
"225.4000000357628","188695","pSARL_v2","pSARL_v26z5woqdb","5fb7398b7e9d5025e52c7e1d","freq","img/orange_2bandit_b2.png","70","70","test","1","51","51","3","",""
"null","189300","pSARL_v2","pSARL_v26z5woqdb","5fb7398b7e9d5025e52c7e1d","freq_resp","img/orange_2bandit_b.png","70","70","test","","","","3","",""
"null","189468","pSARL_v2","pSARL_v26z5woqdb","5fb7398b7e9d5025e52c7e1d","fixation","img/fixation.png","null","","test","","","","","",""
"107.5","189592","pSARL_v2","pSARL_v26z5woqdb","5fb7398b7e9d5025e52c7e1d","freq","img/orange_2bandit_b2.png","70","70","test","1","52","52","3","",""
"null","190314","pSARL_v2","pSARL_v26z5woqdb","5fb7398b7e9d5025e52c7e1d","freq_resp","img/orange_2bandit_b.png","70","70","test","","","","3","",""
"null","190486","pSARL_v2","pSARL_v26z5woqdb","5fb7398b7e9d5025e52c7e1d","fixation","img/fixation.png","null","","test","","","","","",""
"114.89999997615814","190618","pSARL_v2","pSARL_v26z5woqdb","5fb7398b7e9d5025e52c7e1d","freq","img/orange_2bandit_b2.png","70","70","test","1","53","53","3","",""
"null","191328","pSARL_v2","pSARL_v26z5woqdb","5fb7398b7e9d5025e52c7e1d","freq_resp","img/orange_2bandit_b.png","70","70","test","","","","3","",""
"null","191509","pSARL_v2","pSARL_v26z5woqdb","5fb7398b7e9d5025e52c7e1d","fixation","img/fixation.png","null","","test","","","","","",""
"111.70000004768372","191638","pSARL_v2","pSARL_v26z5woqdb","5fb7398b7e9d5025e52c7e1d","freq","img/orange_2bandit_b2.png","70","70","test","1","54","54","3","",""
"null","192345","pSARL_v2","pSARL_v26z5woqdb","5fb7398b7e9d5025e52c7e1d","freq_resp","img/orange_2bandit_b.png","70","70","test","","","","3","",""
"null","192518","pSARL_v2","pSARL_v26z5woqdb","5fb7398b7e9d5025e52c7e1d","fixation","img/fixation.png","null","","test","","","","","",""
"145.19999998807907","192679","pSARL_v2","pSARL_v26z5woqdb","5fb7398b7e9d5025e52c7e1d","freq","img/orange_2bandit_b2.png","70","70","test","1","55","55","3","",""
"null","193361","pSARL_v2","pSARL_v26z5woqdb","5fb7398b7e9d5025e52c7e1d","freq_resp","img/orange_2bandit_b.png","70","70","test","","","","3","",""
"null","193532","pSARL_v2","pSARL_v26z5woqdb","5fb7398b7e9d5025e52c7e1d","fixation","img/fixation.png","null","","test","","","","","",""
"143","193693","pSARL_v2","pSARL_v26z5woqdb","5fb7398b7e9d5025e52c7e1d","freq","img/orange_2bandit_b2.png","70","70","test","1","56","56","3","",""
"null","194381","pSARL_v2","pSARL_v26z5woqdb","5fb7398b7e9d5025e52c7e1d","freq_resp","img/orange_2bandit_b.png","70","70","test","","","","3","",""
"null","194560","pSARL_v2","pSARL_v26z5woqdb","5fb7398b7e9d5025e52c7e1d","fixation","img/fixation.png","null","","test","","","","","",""
"237.29999995231628","194814","pSARL_v2","pSARL_v26z5woqdb","5fb7398b7e9d5025e52c7e1d","freq","img/orange_2bandit_b2.png","70","70","test","1","57","57","3","",""
"null","195408","pSARL_v2","pSARL_v26z5woqdb","5fb7398b7e9d5025e52c7e1d","freq_resp","img/orange_2bandit_b.png","70","70","test","","","","3","",""
"null","195581","pSARL_v2","pSARL_v26z5woqdb","5fb7398b7e9d5025e52c7e1d","fixation","img/fixation.png","null","","test","","","","","",""
"186.5","195784","pSARL_v2","pSARL_v26z5woqdb","5fb7398b7e9d5025e52c7e1d","infreq","img/green_2bandit_b2.png","70","68","test","0","58","58","3","",""
"null","196422","pSARL_v2","pSARL_v26z5woqdb","5fb7398b7e9d5025e52c7e1d","infreq_resp","img/green_2bandit_b.png","70","68","test","","","","3","",""
"null","196592","pSARL_v2","pSARL_v26z5woqdb","5fb7398b7e9d5025e52c7e1d","fixation","img/fixation.png","null","","test","","","","","",""
"355.39999997615814","196964","pSARL_v2","pSARL_v26z5woqdb","5fb7398b7e9d5025e52c7e1d","freq","img/orange_2bandit_b2.png","70","70","test","1","59","59","3","",""
"null","197428","pSARL_v2","pSARL_v26z5woqdb","5fb7398b7e9d5025e52c7e1d","freq_resp","img/orange_2bandit_b.png","70","70","test","","","","3","",""
"null","197608","pSARL_v2","pSARL_v26z5woqdb","5fb7398b7e9d5025e52c7e1d","fixation","img/fixation.png","null","","test","","","","","",""
"330.5999999642372","197956","pSARL_v2","pSARL_v26z5woqdb","5fb7398b7e9d5025e52c7e1d","freq","img/orange_2bandit_b2.png","70","70","test","1","60","60","3","",""
"null","198446","pSARL_v2","pSARL_v26z5woqdb","5fb7398b7e9d5025e52c7e1d","freq_resp","img/orange_2bandit_b.png","70","70","test","","","","3","",""
"null","198625","pSARL_v2","pSARL_v26z5woqdb","5fb7398b7e9d5025e52c7e1d","fixation","img/fixation.png","null","","test","","","","","",""
"382.5","199024","pSARL_v2","pSARL_v26z5woqdb","5fb7398b7e9d5025e52c7e1d","freq","img/orange_2bandit_b2.png","70","70","test","1","61","61","3","",""
"null","199460","pSARL_v2","pSARL_v26z5woqdb","5fb7398b7e9d5025e52c7e1d","freq_resp","img/orange_2bandit_b.png","70","70","test","","","","3","",""
"null","199626","pSARL_v2","pSARL_v26z5woqdb","5fb7398b7e9d5025e52c7e1d","fixation","img/fixation.png","null","","test","","","","","",""
"332.4000000357628","199975","pSARL_v2","pSARL_v26z5woqdb","5fb7398b7e9d5025e52c7e1d","freq","img/orange_2bandit_b2.png","70","70","test","1","62","62","3","",""
"null","200464","pSARL_v2","pSARL_v26z5woqdb","5fb7398b7e9d5025e52c7e1d","freq_resp","img/orange_2bandit_b.png","70","70","test","","","","3","",""
"null","200641","pSARL_v2","pSARL_v26z5woqdb","5fb7398b7e9d5025e52c7e1d","fixation","img/fixation.png","null","","test","","","","","",""
"303.9000000357628","200961","pSARL_v2","pSARL_v26z5woqdb","5fb7398b7e9d5025e52c7e1d","freq","img/orange_2bandit_b2.png","70","70","test","1","63","63","3","",""
"null","201479","pSARL_v2","pSARL_v26z5woqdb","5fb7398b7e9d5025e52c7e1d","freq_resp","img/orange_2bandit_b.png","70","70","test","","","","3","",""
"null","201650","pSARL_v2","pSARL_v26z5woqdb","5fb7398b7e9d5025e52c7e1d","fixation","img/fixation.png","null","","test","","","","","",""
"376.39999997615814","202043","pSARL_v2","pSARL_v26z5woqdb","5fb7398b7e9d5025e52c7e1d","freq","img/orange_2bandit_b2.png","70","70","test","1","64","64","3","",""
"null","202496","pSARL_v2","pSARL_v26z5woqdb","5fb7398b7e9d5025e52c7e1d","freq_resp","img/orange_2bandit_b.png","70","70","test","","","","3","",""
"null","202674","pSARL_v2","pSARL_v26z5woqdb","5fb7398b7e9d5025e52c7e1d","fixation","img/fixation.png","null","","test","","","","","",""
"418.5","203110","pSARL_v2","pSARL_v26z5woqdb","5fb7398b7e9d5025e52c7e1d","infreq","img/green_2bandit_b2.png","68","68","test","1","65","65","3","",""
"null","203518","pSARL_v2","pSARL_v26z5woqdb","5fb7398b7e9d5025e52c7e1d","infreq_resp","img/green_2bandit_b.png","68","68","test","","","","3","",""
"null","203691","pSARL_v2","pSARL_v26z5woqdb","5fb7398b7e9d5025e52c7e1d","fixation","img/fixation.png","null","","test","","","","","",""
"384","204092","pSARL_v2","pSARL_v26z5woqdb","5fb7398b7e9d5025e52c7e1d","freq","img/orange_2bandit_b2.png","70","70","test","1","66","66","3","",""
"null","204541","pSARL_v2","pSARL_v26z5woqdb","5fb7398b7e9d5025e52c7e1d","freq_resp","img/orange_2bandit_b.png","70","70","test","","","","3","",""
"null","204716","pSARL_v2","pSARL_v26z5woqdb","5fb7398b7e9d5025e52c7e1d","fixation","img/fixation.png","null","","test","","","","","",""
"468.10000002384186","205201","pSARL_v2","pSARL_v26z5woqdb","5fb7398b7e9d5025e52c7e1d","reward","img/slot.png","74","","test","","","","","",""
"null","205972","pSARL_v2","pSARL_v26z5woqdb","5fb7398b7e9d5025e52c7e1d","points","<div class=""verylowPoints""> -7 </div>","null","na","test","","","","3","-7","2"
"512.8000000119209","206501","pSARL_v2","pSARL_v26z5woqdb","5fb7398b7e9d5025e52c7e1d","freq","img/orange_2bandit_b2.png","70","70","test","1","67","67","4","",""
"null","206815","pSARL_v2","pSARL_v26z5woqdb","5fb7398b7e9d5025e52c7e1d","freq_resp","img/orange_2bandit_b.png","70","70","test","","","","4","",""
"null","206983","pSARL_v2","pSARL_v26z5woqdb","5fb7398b7e9d5025e52c7e1d","fixation","img/fixation.png","null","","test","","","","","",""
"397","207398","pSARL_v2","pSARL_v26z5woqdb","5fb7398b7e9d5025e52c7e1d","freq","img/orange_2bandit_b2.png","70","70","test","1","68","68","4","",""
"null","207827","pSARL_v2","pSARL_v26z5woqdb","5fb7398b7e9d5025e52c7e1d","freq_resp","img/orange_2bandit_b.png","70","70","test","","","","4","",""
"null","208006","pSARL_v2","pSARL_v26z5woqdb","5fb7398b7e9d5025e52c7e1d","fixation","img/fixation.png","null","","test","","","","","",""
"581.5","208605","pSARL_v2","pSARL_v26z5woqdb","5fb7398b7e9d5025e52c7e1d","freq","img/orange_2bandit_b2.png","70","70","test","1","69","69","4","",""
"null","208845","pSARL_v2","pSARL_v26z5woqdb","5fb7398b7e9d5025e52c7e1d","freq_resp","img/orange_2bandit_b.png","70","70","test","","","","4","",""
"null","209023","pSARL_v2","pSARL_v26z5woqdb","5fb7398b7e9d5025e52c7e1d","fixation","img/fixation.png","null","","test","","","","","",""
"547.1999999880791","209586","pSARL_v2","pSARL_v26z5woqdb","5fb7398b7e9d5025e52c7e1d","freq","img/orange_2bandit_b2.png","70","70","test","1","70","70","4","",""
"null","209867","pSARL_v2","pSARL_v26z5woqdb","5fb7398b7e9d5025e52c7e1d","freq_resp","img/orange_2bandit_b.png","70","70","test","","","","4","",""
"null","210039","pSARL_v2","pSARL_v26z5woqdb","5fb7398b7e9d5025e52c7e1d","fixation","img/fixation.png","null","","test","","","","","",""
"372","210428","pSARL_v2","pSARL_v26z5woqdb","5fb7398b7e9d5025e52c7e1d","freq","img/orange_2bandit_b2.png","70","70","test","1","71","71","4","",""
"null","210888","pSARL_v2","pSARL_v26z5woqdb","5fb7398b7e9d5025e52c7e1d","freq_resp","img/orange_2bandit_b.png","70","70","test","","","","4","",""
"null","211055","pSARL_v2","pSARL_v26z5woqdb","5fb7398b7e9d5025e52c7e1d","fixation","img/fixation.png","null","","test","","","","","",""
"341.7000000476837","211415","pSARL_v2","pSARL_v26z5woqdb","5fb7398b7e9d5025e52c7e1d","freq","img/orange_2bandit_b2.png","70","70","test","1","72","72","4","",""
"null","211902","pSARL_v2","pSARL_v26z5woqdb","5fb7398b7e9d5025e52c7e1d","freq_resp","img/orange_2bandit_b.png","70","70","test","","","","4","",""
"null","212075","pSARL_v2","pSARL_v26z5woqdb","5fb7398b7e9d5025e52c7e1d","fixation","img/fixation.png","null","","test","","","","","",""
"323.39999997615814","212416","pSARL_v2","pSARL_v26z5woqdb","5fb7398b7e9d5025e52c7e1d","freq","img/orange_2bandit_b2.png","70","70","test","1","73","73","4","",""
"null","212920","pSARL_v2","pSARL_v26z5woqdb","5fb7398b7e9d5025e52c7e1d","freq_resp","img/orange_2bandit_b.png","70","70","test","","","","4","",""
"null","213089","pSARL_v2","pSARL_v26z5woqdb","5fb7398b7e9d5025e52c7e1d","fixation","img/fixation.png","null","","test","","","","","",""
"446.0999999642372","213553","pSARL_v2","pSARL_v26z5woqdb","5fb7398b7e9d5025e52c7e1d","infreq","img/green_2bandit_b2.png","68","68","test","1","74","74","4","",""
"null","213927","pSARL_v2","pSARL_v26z5woqdb","5fb7398b7e9d5025e52c7e1d","infreq_resp","img/green_2bandit_b.png","68","68","test","","","","4","",""
"null","214108","pSARL_v2","pSARL_v26z5woqdb","5fb7398b7e9d5025e52c7e1d","fixation","img/fixation.png","null","","test","","","","","",""
"439.39999997615814","214565","pSARL_v2","pSARL_v26z5woqdb","5fb7398b7e9d5025e52c7e1d","freq","img/orange_2bandit_b2.png","70","70","test","1","75","75","4","",""
"null","214943","pSARL_v2","pSARL_v26z5woqdb","5fb7398b7e9d5025e52c7e1d","freq_resp","img/orange_2bandit_b.png","70","70","test","","","","4","",""
"null","215121","pSARL_v2","pSARL_v26z5woqdb","5fb7398b7e9d5025e52c7e1d","fixation","img/fixation.png","null","","test","","","","","",""
"329.5","215468","pSARL_v2","pSARL_v26z5woqdb","5fb7398b7e9d5025e52c7e1d","freq","img/orange_2bandit_b2.png","70","70","test","1","76","76","4","",""
"null","215958","pSARL_v2","pSARL_v26z5woqdb","5fb7398b7e9d5025e52c7e1d","freq_resp","img/orange_2bandit_b.png","70","70","test","","","","4","",""
"null","216138","pSARL_v2","pSARL_v26z5woqdb","5fb7398b7e9d5025e52c7e1d","fixation","img/fixation.png","null","","test","","","","","",""
"297.5999999642372","216452","pSARL_v2","pSARL_v26z5woqdb","5fb7398b7e9d5025e52c7e1d","freq","img/orange_2bandit_b2.png","70","70","test","1","77","77","4","",""
"null","216984","pSARL_v2","pSARL_v26z5woqdb","5fb7398b7e9d5025e52c7e1d","freq_resp","img/orange_2bandit_b.png","70","70","test","","","","4","",""
"null","217162","pSARL_v2","pSARL_v26z5woqdb","5fb7398b7e9d5025e52c7e1d","fixation","img/fixation.png","null","","test","","","","","",""
"298.4000000357628","217477","pSARL_v2","pSARL_v26z5woqdb","5fb7398b7e9d5025e52c7e1d","freq","img/orange_2bandit_b2.png","70","70","test","1","78","78","4","",""
"null","218003","pSARL_v2","pSARL_v26z5woqdb","5fb7398b7e9d5025e52c7e1d","freq_resp","img/orange_2bandit_b.png","70","70","test","","","","4","",""
"null","218177","pSARL_v2","pSARL_v26z5woqdb","5fb7398b7e9d5025e52c7e1d","fixation","img/fixation.png","null","","test","","","","","",""
"229.19999998807907","218423","pSARL_v2","pSARL_v26z5woqdb","5fb7398b7e9d5025e52c7e1d","freq","img/orange_2bandit_b2.png","70","70","test","1","79","79","4","",""
"null","219019","pSARL_v2","pSARL_v26z5woqdb","5fb7398b7e9d5025e52c7e1d","freq_resp","img/orange_2bandit_b.png","70","70","test","","","","4","",""
"null","219188","pSARL_v2","pSARL_v26z5woqdb","5fb7398b7e9d5025e52c7e1d","fixation","img/fixation.png","null","","test","","","","","",""
"301","219506","pSARL_v2","pSARL_v26z5woqdb","5fb7398b7e9d5025e52c7e1d","freq","img/orange_2bandit_b2.png","70","70","test","1","80","80","4","",""
"null","220033","pSARL_v2","pSARL_v26z5woqdb","5fb7398b7e9d5025e52c7e1d","freq_resp","img/orange_2bandit_b.png","70","70","test","","","","4","",""
"null","220211","pSARL_v2","pSARL_v26z5woqdb","5fb7398b7e9d5025e52c7e1d","fixation","img/fixation.png","null","","test","","","","","",""
"243.39999997615814","220473","pSARL_v2","pSARL_v26z5woqdb","5fb7398b7e9d5025e52c7e1d","freq","img/orange_2bandit_b2.png","70","70","test","1","81","81","4","",""
"null","221049","pSARL_v2","pSARL_v26z5woqdb","5fb7398b7e9d5025e52c7e1d","freq_resp","img/orange_2bandit_b.png","70","70","test","","","","4","",""
"null","221228","pSARL_v2","pSARL_v26z5woqdb","5fb7398b7e9d5025e52c7e1d","fixation","img/fixation.png","null","","test","","","","","",""
"284.5","221530","pSARL_v2","pSARL_v26z5woqdb","5fb7398b7e9d5025e52c7e1d","freq","img/orange_2bandit_b2.png","70","70","test","1","82","82","4","",""
"null","222069","pSARL_v2","pSARL_v26z5woqdb","5fb7398b7e9d5025e52c7e1d","freq_resp","img/orange_2bandit_b.png","70","70","test","","","","4","",""
"null","222237","pSARL_v2","pSARL_v26z5woqdb","5fb7398b7e9d5025e52c7e1d","fixation","img/fixation.png","null","","test","","","","","",""
"216.9000000357628","222471","pSARL_v2","pSARL_v26z5woqdb","5fb7398b7e9d5025e52c7e1d","freq","img/orange_2bandit_b2.png","70","70","test","1","83","83","4","",""
"null","223086","pSARL_v2","pSARL_v26z5woqdb","5fb7398b7e9d5025e52c7e1d","freq_resp","img/orange_2bandit_b.png","70","70","test","","","","4","",""
"null","223254","pSARL_v2","pSARL_v26z5woqdb","5fb7398b7e9d5025e52c7e1d","fixation","img/fixation.png","null","","test","","","","","",""
"481.5","223752","pSARL_v2","pSARL_v26z5woqdb","5fb7398b7e9d5025e52c7e1d","infreq","img/green_2bandit_b2.png","68","68","test","1","84","84","4","",""
"null","224100","pSARL_v2","pSARL_v26z5woqdb","5fb7398b7e9d5025e52c7e1d","infreq_resp","img/green_2bandit_b.png","68","68","test","","","","4","",""
"null","224273","pSARL_v2","pSARL_v26z5woqdb","5fb7398b7e9d5025e52c7e1d","fixation","img/fixation.png","null","","test","","","","","",""
"425","224714","pSARL_v2","pSARL_v26z5woqdb","5fb7398b7e9d5025e52c7e1d","freq","img/orange_2bandit_b2.png","70","70","test","1","85","85","4","",""
"null","225107","pSARL_v2","pSARL_v26z5woqdb","5fb7398b7e9d5025e52c7e1d","freq_resp","img/orange_2bandit_b.png","70","70","test","","","","4","",""
"null","225281","pSARL_v2","pSARL_v26z5woqdb","5fb7398b7e9d5025e52c7e1d","fixation","img/fixation.png","null","","test","","","","","",""
"294.10000002384186","225591","pSARL_v2","pSARL_v26z5woqdb","5fb7398b7e9d5025e52c7e1d","freq","img/orange_2bandit_b2.png","70","70","test","1","86","86","4","",""
"null","226123","pSARL_v2","pSARL_v26z5woqdb","5fb7398b7e9d5025e52c7e1d","freq_resp","img/orange_2bandit_b.png","70","70","test","","","","4","",""
"null","226301","pSARL_v2","pSARL_v26z5woqdb","5fb7398b7e9d5025e52c7e1d","fixation","img/fixation.png","null","","test","","","","","",""
"205.70000004768372","226524","pSARL_v2","pSARL_v26z5woqdb","5fb7398b7e9d5025e52c7e1d","freq","img/orange_2bandit_b2.png","70","70","test","1","87","87","4","",""
"null","227138","pSARL_v2","pSARL_v26z5woqdb","5fb7398b7e9d5025e52c7e1d","freq_resp","img/orange_2bandit_b.png","70","70","test","","","","4","",""
"null","227309","pSARL_v2","pSARL_v26z5woqdb","5fb7398b7e9d5025e52c7e1d","fixation","img/fixation.png","null","","test","","","","","",""
"191.9000000357628","227519","pSARL_v2","pSARL_v26z5woqdb","5fb7398b7e9d5025e52c7e1d","freq","img/orange_2bandit_b2.png","70","70","test","1","88","88","4","",""
"null","228151","pSARL_v2","pSARL_v26z5woqdb","5fb7398b7e9d5025e52c7e1d","freq_resp","img/orange_2bandit_b.png","70","70","test","","","","4","",""
"null","228320","pSARL_v2","pSARL_v26z5woqdb","5fb7398b7e9d5025e52c7e1d","fixation","img/fixation.png","null","","test","","","","","",""
"159","228496","pSARL_v2","pSARL_v26z5woqdb","5fb7398b7e9d5025e52c7e1d","freq","img/orange_2bandit_b2.png","70","70","test","1","89","89","4","",""
"null","229157","pSARL_v2","pSARL_v26z5woqdb","5fb7398b7e9d5025e52c7e1d","freq_resp","img/orange_2bandit_b.png","70","70","test","","","","4","",""
"null","229336","pSARL_v2","pSARL_v26z5woqdb","5fb7398b7e9d5025e52c7e1d","fixation","img/fixation.png","null","","test","","","","","",""
"141.19999998807907","229494","pSARL_v2","pSARL_v26z5woqdb","5fb7398b7e9d5025e52c7e1d","freq","img/orange_2bandit_b2.png","70","70","test","1","90","90","4","",""
"null","230173","pSARL_v2","pSARL_v26z5woqdb","5fb7398b7e9d5025e52c7e1d","freq_resp","img/orange_2bandit_b.png","70","70","test","","","","4","",""
"null","230353","pSARL_v2","pSARL_v26z5woqdb","5fb7398b7e9d5025e52c7e1d","fixation","img/fixation.png","null","","test","","","","","",""
"806.5","231176","pSARL_v2","pSARL_v26z5woqdb","5fb7398b7e9d5025e52c7e1d","freq","img/orange_2bandit_b2.png","70","70","test","1","91","91","4","",""
"null","231352","pSARL_v2","pSARL_v26z5woqdb","5fb7398b7e9d5025e52c7e1d","fixation","img/fixation.png","null","","test","","","","","",""
"537.6999999880791","231905","pSARL_v2","pSARL_v26z5woqdb","5fb7398b7e9d5025e52c7e1d","reward","img/slot.png","74","","test","","","","","",""
"null","232682","pSARL_v2","pSARL_v26z5woqdb","5fb7398b7e9d5025e52c7e1d","points","<div class=""verylowPoints""> -3 </div>","null","na","test","","","","4","-3","3"
"393.5","233092","pSARL_v2","pSARL_v26z5woqdb","5fb7398b7e9d5025e52c7e1d","freq","img/orange_2bandit_b2.png","70","70","test","1","92","92","5","",""
"null","233527","pSARL_v2","pSARL_v26z5woqdb","5fb7398b7e9d5025e52c7e1d","freq_resp","img/orange_2bandit_b.png","70","70","test","","","","5","",""
"null","233709","pSARL_v2","pSARL_v26z5woqdb","5fb7398b7e9d5025e52c7e1d","fixation","img/fixation.png","null","","test","","","","","",""
"329.5","234055","pSARL_v2","pSARL_v26z5woqdb","5fb7398b7e9d5025e52c7e1d","freq","img/orange_2bandit_b2.png","70","70","test","1","93","93","5","",""
"null","234549","pSARL_v2","pSARL_v26z5woqdb","5fb7398b7e9d5025e52c7e1d","freq_resp","img/orange_2bandit_b.png","70","70","test","","","","5","",""
"null","234725","pSARL_v2","pSARL_v26z5woqdb","5fb7398b7e9d5025e52c7e1d","fixation","img/fixation.png","null","","test","","","","","",""
"373.10000002384186","235115","pSARL_v2","pSARL_v26z5woqdb","5fb7398b7e9d5025e52c7e1d","freq","img/orange_2bandit_b2.png","70","70","test","1","94","94","5","",""
"null","235567","pSARL_v2","pSARL_v26z5woqdb","5fb7398b7e9d5025e52c7e1d","freq_resp","img/orange_2bandit_b.png","70","70","test","","","","5","",""
"null","235741","pSARL_v2","pSARL_v26z5woqdb","5fb7398b7e9d5025e52c7e1d","fixation","img/fixation.png","null","","test","","","","","",""
"550.1000000238419","236309","pSARL_v2","pSARL_v26z5woqdb","5fb7398b7e9d5025e52c7e1d","infreq","img/green_2bandit_b2.png","68","68","test","1","95","95","5","",""
"null","236584","pSARL_v2","pSARL_v26z5woqdb","5fb7398b7e9d5025e52c7e1d","infreq_resp","img/green_2bandit_b.png","68","68","test","","","","5","",""
"null","236752","pSARL_v2","pSARL_v26z5woqdb","5fb7398b7e9d5025e52c7e1d","fixation","img/fixation.png","null","","test","","","","","",""
"415.19999998807907","237184","pSARL_v2","pSARL_v26z5woqdb","5fb7398b7e9d5025e52c7e1d","freq","img/orange_2bandit_b2.png","70","70","test","1","96","96","5","",""
"null","237596","pSARL_v2","pSARL_v26z5woqdb","5fb7398b7e9d5025e52c7e1d","freq_resp","img/orange_2bandit_b.png","70","70","test","","","","5","",""
"null","237776","pSARL_v2","pSARL_v26z5woqdb","5fb7398b7e9d5025e52c7e1d","fixation","img/fixation.png","null","","test","","","","","",""
"290.80000001192093","238084","pSARL_v2","pSARL_v26z5woqdb","5fb7398b7e9d5025e52c7e1d","infreq","img/green_2bandit_b2.png","70","68","test","0","97","97","5","",""
"null","238612","pSARL_v2","pSARL_v26z5woqdb","5fb7398b7e9d5025e52c7e1d","infreq_resp","img/green_2bandit_b.png","70","68","test","","","","5","",""
"null","238803","pSARL_v2","pSARL_v26z5woqdb","5fb7398b7e9d5025e52c7e1d","fixation","img/fixation.png","null","","test","","","","","",""
"385.30000001192093","239204","pSARL_v2","pSARL_v26z5woqdb","5fb7398b7e9d5025e52c7e1d","freq","img/orange_2bandit_b2.png","70","70","test","1","98","98","5","",""
"null","239636","pSARL_v2","pSARL_v26z5woqdb","5fb7398b7e9d5025e52c7e1d","freq_resp","img/orange_2bandit_b.png","70","70","test","","","","5","",""
"null","239810","pSARL_v2","pSARL_v26z5woqdb","5fb7398b7e9d5025e52c7e1d","fixation","img/fixation.png","null","","test","","","","","",""
"402.89999997615814","240226","pSARL_v2","pSARL_v26z5woqdb","5fb7398b7e9d5025e52c7e1d","freq","img/orange_2bandit_b2.png","70","70","test","1","99","99","5","",""
"null","240645","pSARL_v2","pSARL_v26z5woqdb","5fb7398b7e9d5025e52c7e1d","freq_resp","img/orange_2bandit_b.png","70","70","test","","","","5","",""
"null","240818","pSARL_v2","pSARL_v26z5woqdb","5fb7398b7e9d5025e52c7e1d","fixation","img/fixation.png","null","","test","","","","","",""
"383.10000002384186","241219","pSARL_v2","pSARL_v26z5woqdb","5fb7398b7e9d5025e52c7e1d","freq","img/orange_2bandit_b2.png","70","70","test","1","100","100","5","",""
"null","241661","pSARL_v2","pSARL_v26z5woqdb","5fb7398b7e9d5025e52c7e1d","freq_resp","img/orange_2bandit_b.png","70","70","test","","","","5","",""
"null","241841","pSARL_v2","pSARL_v26z5woqdb","5fb7398b7e9d5025e52c7e1d","fixation","img/fixation.png","null","","test","","","","","",""
"361.9000000357628","242220","pSARL_v2","pSARL_v26z5woqdb","5fb7398b7e9d5025e52c7e1d","freq","img/orange_2bandit_b2.png","70","70","test","1","101","101","5","",""
"null","242684","pSARL_v2","pSARL_v26z5woqdb","5fb7398b7e9d5025e52c7e1d","freq_resp","img/orange_2bandit_b.png","70","70","test","","","","5","",""
"null","242852","pSARL_v2","pSARL_v26z5woqdb","5fb7398b7e9d5025e52c7e1d","fixation","img/fixation.png","null","","test","","","","","",""
"381.2000000476837","243251","pSARL_v2","pSARL_v26z5woqdb","5fb7398b7e9d5025e52c7e1d","freq","img/orange_2bandit_b2.png","70","70","test","1","102","102","5","",""
"null","243700","pSARL_v2","pSARL_v26z5woqdb","5fb7398b7e9d5025e52c7e1d","freq_resp","img/orange_2bandit_b.png","70","70","test","","","","5","",""
"null","243873","pSARL_v2","pSARL_v26z5woqdb","5fb7398b7e9d5025e52c7e1d","fixation","img/fixation.png","null","","test","","","","","",""
"350.80000001192093","244242","pSARL_v2","pSARL_v26z5woqdb","5fb7398b7e9d5025e52c7e1d","freq","img/orange_2bandit_b2.png","70","70","test","1","103","103","5","",""
"null","244716","pSARL_v2","pSARL_v26z5woqdb","5fb7398b7e9d5025e52c7e1d","freq_resp","img/orange_2bandit_b.png","70","70","test","","","","5","",""
"null","244885","pSARL_v2","pSARL_v26z5woqdb","5fb7398b7e9d5025e52c7e1d","fixation","img/fixation.png","null","","test","","","","","",""
"433.60000002384186","245336","pSARL_v2","pSARL_v26z5woqdb","5fb7398b7e9d5025e52c7e1d","freq","img/orange_2bandit_b2.png","70","70","test","1","104","104","5","",""
"null","245723","pSARL_v2","pSARL_v26z5woqdb","5fb7398b7e9d5025e52c7e1d","freq_resp","img/orange_2bandit_b.png","70","70","test","","","","5","",""
"null","245893","pSARL_v2","pSARL_v26z5woqdb","5fb7398b7e9d5025e52c7e1d","fixation","img/fixation.png","null","","test","","","","","",""
"485.69999998807907","246390","pSARL_v2","pSARL_v26z5woqdb","5fb7398b7e9d5025e52c7e1d","freq","img/orange_2bandit_b2.png","70","70","test","1","105","105","5","",""
"null","246728","pSARL_v2","pSARL_v26z5woqdb","5fb7398b7e9d5025e52c7e1d","freq_resp","img/orange_2bandit_b.png","70","70","test","","","","5","",""
"null","246901","pSARL_v2","pSARL_v26z5woqdb","5fb7398b7e9d5025e52c7e1d","fixation","img/fixation.png","null","","test","","","","","",""
"496.2000000476837","247415","pSARL_v2","pSARL_v26z5woqdb","5fb7398b7e9d5025e52c7e1d","freq","img/orange_2bandit_b2.png","70","70","test","1","106","106","5","",""
"null","247742","pSARL_v2","pSARL_v26z5woqdb","5fb7398b7e9d5025e52c7e1d","freq_resp","img/orange_2bandit_b.png","70","70","test","","","","5","",""
"null","247917","pSARL_v2","pSARL_v26z5woqdb","5fb7398b7e9d5025e52c7e1d","fixation","img/fixation.png","null","","test","","","","","",""
"530","248463","pSARL_v2","pSARL_v26z5woqdb","5fb7398b7e9d5025e52c7e1d","freq","img/orange_2bandit_b2.png","70","70","test","1","107","107","5","",""
"null","248758","pSARL_v2","pSARL_v26z5woqdb","5fb7398b7e9d5025e52c7e1d","freq_resp","img/orange_2bandit_b.png","70","70","test","","","","5","",""
"null","248933","pSARL_v2","pSARL_v26z5woqdb","5fb7398b7e9d5025e52c7e1d","fixation","img/fixation.png","null","","test","","","","","",""
"582.3999999761581","249532","pSARL_v2","pSARL_v26z5woqdb","5fb7398b7e9d5025e52c7e1d","freq","img/orange_2bandit_b2.png","70","70","test","1","108","108","5","",""
"null","249775","pSARL_v2","pSARL_v26z5woqdb","5fb7398b7e9d5025e52c7e1d","freq_resp","img/orange_2bandit_b.png","70","70","test","","","","5","",""
"null","249954","pSARL_v2","pSARL_v26z5woqdb","5fb7398b7e9d5025e52c7e1d","fixation","img/fixation.png","null","","test","","","","","",""
"563.5","250534","pSARL_v2","pSARL_v26z5woqdb","5fb7398b7e9d5025e52c7e1d","freq","img/orange_2bandit_b2.png","70","70","test","1","109","109","5","",""
"null","250795","pSARL_v2","pSARL_v26z5woqdb","5fb7398b7e9d5025e52c7e1d","freq_resp","img/orange_2bandit_b.png","70","70","test","","","","5","",""
"null","250975","pSARL_v2","pSARL_v26z5woqdb","5fb7398b7e9d5025e52c7e1d","fixation","img/fixation.png","null","","test","","","","","",""
"627.2999999523163","251619","pSARL_v2","pSARL_v26z5woqdb","5fb7398b7e9d5025e52c7e1d","freq","img/orange_2bandit_b2.png","70","70","test","1","110","110","5","",""
"null","251816","pSARL_v2","pSARL_v26z5woqdb","5fb7398b7e9d5025e52c7e1d","freq_resp","img/orange_2bandit_b.png","70","70","test","","","","5","",""
"null","251986","pSARL_v2","pSARL_v26z5woqdb","5fb7398b7e9d5025e52c7e1d","fixation","img/fixation.png","null","","test","","","","","",""
"660.5","252664","pSARL_v2","pSARL_v26z5woqdb","5fb7398b7e9d5025e52c7e1d","freq","img/orange_2bandit_b2.png","70","70","test","1","111","111","5","",""
"null","252833","pSARL_v2","pSARL_v26z5woqdb","5fb7398b7e9d5025e52c7e1d","freq_resp","img/orange_2bandit_b.png","70","70","test","","","","5","",""
"null","253001","pSARL_v2","pSARL_v26z5woqdb","5fb7398b7e9d5025e52c7e1d","fixation","img/fixation.png","null","","test","","","","","",""
"482.30000001192093","253502","pSARL_v2","pSARL_v26z5woqdb","5fb7398b7e9d5025e52c7e1d","infreq","img/green_2bandit_b2.png","68","68","test","1","112","112","5","",""
"null","253848","pSARL_v2","pSARL_v26z5woqdb","5fb7398b7e9d5025e52c7e1d","infreq_resp","img/green_2bandit_b.png","68","68","test","","","","5","",""
"null","254025","pSARL_v2","pSARL_v26z5woqdb","5fb7398b7e9d5025e52c7e1d","fixation","img/fixation.png","null","","test","","","","","",""
"393.30000001192093","254435","pSARL_v2","pSARL_v26z5woqdb","5fb7398b7e9d5025e52c7e1d","freq","img/orange_2bandit_b2.png","70","70","test","1","113","113","5","",""
"null","254861","pSARL_v2","pSARL_v26z5woqdb","5fb7398b7e9d5025e52c7e1d","freq_resp","img/orange_2bandit_b.png","70","70","test","","","","5","",""
"null","255040","pSARL_v2","pSARL_v26z5woqdb","5fb7398b7e9d5025e52c7e1d","fixation","img/fixation.png","null","","test","","","","","",""
"422.80000001192093","255480","pSARL_v2","pSARL_v26z5woqdb","5fb7398b7e9d5025e52c7e1d","freq","img/orange_2bandit_b2.png","70","70","test","1","114","114","5","",""
"null","255886","pSARL_v2","pSARL_v26z5woqdb","5fb7398b7e9d5025e52c7e1d","freq_resp","img/orange_2bandit_b.png","70","70","test","","","","5","",""
"null","256066","pSARL_v2","pSARL_v26z5woqdb","5fb7398b7e9d5025e52c7e1d","fixation","img/fixation.png","null","","test","","","","","",""
"380.19999998807907","256463","pSARL_v2","pSARL_v26z5woqdb","5fb7398b7e9d5025e52c7e1d","reward","img/slot.png","74","","test","","","","","",""
"null","257233","pSARL_v2","pSARL_v26z5woqdb","5fb7398b7e9d5025e52c7e1d","points","<div class=""veryhighPoints""> +1 </div>","null","na","test","","","","5","1","4"
"584.8999999761581","257835","pSARL_v2","pSARL_v26z5woqdb","5fb7398b7e9d5025e52c7e1d","freq","img/orange_2bandit_b2.png","70","70","test","1","115","115","6","",""
"null","258079","pSARL_v2","pSARL_v26z5woqdb","5fb7398b7e9d5025e52c7e1d","freq_resp","img/orange_2bandit_b.png","70","70","test","","","","6","",""
"null","258248","pSARL_v2","pSARL_v26z5woqdb","5fb7398b7e9d5025e52c7e1d","fixation","img/fixation.png","null","","test","","","","","",""
"366","258632","pSARL_v2","pSARL_v26z5woqdb","5fb7398b7e9d5025e52c7e1d","freq","img/orange_2bandit_b2.png","70","70","test","1","116","116","6","",""
"null","259097","pSARL_v2","pSARL_v26z5woqdb","5fb7398b7e9d5025e52c7e1d","freq_resp","img/orange_2bandit_b.png","70","70","test","","","","6","",""
"null","259264","pSARL_v2","pSARL_v26z5woqdb","5fb7398b7e9d5025e52c7e1d","fixation","img/fixation.png","null","","test","","","","","",""
"336.19999998807907","259617","pSARL_v2","pSARL_v26z5woqdb","5fb7398b7e9d5025e52c7e1d","freq","img/orange_2bandit_b2.png","70","70","test","1","117","117","6","",""
"null","260105","pSARL_v2","pSARL_v26z5woqdb","5fb7398b7e9d5025e52c7e1d","freq_resp","img/orange_2bandit_b.png","70","70","test","","","","6","",""
"null","260282","pSARL_v2","pSARL_v26z5woqdb","5fb7398b7e9d5025e52c7e1d","fixation","img/fixation.png","null","","test","","","","","",""
"356","260654","pSARL_v2","pSARL_v26z5woqdb","5fb7398b7e9d5025e52c7e1d","freq","img/orange_2bandit_b2.png","70","70","test","1","118","118","6","",""
"null","261129","pSARL_v2","pSARL_v26z5woqdb","5fb7398b7e9d5025e52c7e1d","freq_resp","img/orange_2bandit_b.png","70","70","test","","","","6","",""
"null","261298","pSARL_v2","pSARL_v26z5woqdb","5fb7398b7e9d5025e52c7e1d","fixation","img/fixation.png","null","","test","","","","","",""
"458.10000002384186","261774","pSARL_v2","pSARL_v26z5woqdb","5fb7398b7e9d5025e52c7e1d","infreq","img/green_2bandit_b2.png","68","68","test","1","119","119","6","",""
"null","262142","pSARL_v2","pSARL_v26z5woqdb","5fb7398b7e9d5025e52c7e1d","infreq_resp","img/green_2bandit_b.png","68","68","test","","","","6","",""
"null","262322","pSARL_v2","pSARL_v26z5woqdb","5fb7398b7e9d5025e52c7e1d","fixation","img/fixation.png","null","","test","","","","","",""
"419.9000000357628","262759","pSARL_v2","pSARL_v26z5woqdb","5fb7398b7e9d5025e52c7e1d","freq","img/orange_2bandit_b2.png","70","70","test","1","120","120","6","",""
"null","263167","pSARL_v2","pSARL_v26z5woqdb","5fb7398b7e9d5025e52c7e1d","freq_resp","img/orange_2bandit_b.png","70","70","test","","","","6","",""
"null","263340","pSARL_v2","pSARL_v26z5woqdb","5fb7398b7e9d5025e52c7e1d","fixation","img/fixation.png","null","","test","","","","","",""
"310.19999998807907","263666","pSARL_v2","pSARL_v26z5woqdb","5fb7398b7e9d5025e52c7e1d","freq","img/orange_2bandit_b2.png","70","70","test","1","121","121","6","",""
"null","264177","pSARL_v2","pSARL_v26z5woqdb","5fb7398b7e9d5025e52c7e1d","freq_resp","img/orange_2bandit_b.png","70","70","test","","","","6","",""
"null","264356","pSARL_v2","pSARL_v26z5woqdb","5fb7398b7e9d5025e52c7e1d","fixation","img/fixation.png","null","","test","","","","","",""
"283.9000000357628","264657","pSARL_v2","pSARL_v26z5woqdb","5fb7398b7e9d5025e52c7e1d","freq","img/orange_2bandit_b2.png","70","70","test","1","122","122","6","",""
"null","265192","pSARL_v2","pSARL_v26z5woqdb","5fb7398b7e9d5025e52c7e1d","freq_resp","img/orange_2bandit_b.png","70","70","test","","","","6","",""
"null","265372","pSARL_v2","pSARL_v26z5woqdb","5fb7398b7e9d5025e52c7e1d","fixation","img/fixation.png","null","","test","","","","","",""
"303.5","265692","pSARL_v2","pSARL_v26z5woqdb","5fb7398b7e9d5025e52c7e1d","freq","img/orange_2bandit_b2.png","70","70","test","1","123","123","6","",""
"null","266217","pSARL_v2","pSARL_v26z5woqdb","5fb7398b7e9d5025e52c7e1d","freq_resp","img/orange_2bandit_b.png","70","70","test","","","","6","",""
"null","266398","pSARL_v2","pSARL_v26z5woqdb","5fb7398b7e9d5025e52c7e1d","fixation","img/fixation.png","null","","test","","","","","",""
"321.5","266736","pSARL_v2","pSARL_v26z5woqdb","5fb7398b7e9d5025e52c7e1d","freq","img/orange_2bandit_b2.png","70","70","test","1","124","124","6","",""
"null","267234","pSARL_v2","pSARL_v26z5woqdb","5fb7398b7e9d5025e52c7e1d","freq_resp","img/orange_2bandit_b.png","70","70","test","","","","6","",""
"null","267405","pSARL_v2","pSARL_v26z5woqdb","5fb7398b7e9d5025e52c7e1d","fixation","img/fixation.png","null","","test","","","","","",""
"287.69999998807907","267710","pSARL_v2","pSARL_v26z5woqdb","5fb7398b7e9d5025e52c7e1d","freq","img/orange_2bandit_b2.png","70","70","test","1","125","125","6","",""
"null","268242","pSARL_v2","pSARL_v26z5woqdb","5fb7398b7e9d5025e52c7e1d","freq_resp","img/orange_2bandit_b.png","70","70","test","","","","6","",""
"null","268421","pSARL_v2","pSARL_v26z5woqdb","5fb7398b7e9d5025e52c7e1d","fixation","img/fixation.png","null","","test","","","","","",""
"322.19999998807907","268761","pSARL_v2","pSARL_v26z5woqdb","5fb7398b7e9d5025e52c7e1d","freq","img/orange_2bandit_b2.png","70","70","test","1","126","126","6","",""
"null","269266","pSARL_v2","pSARL_v26z5woqdb","5fb7398b7e9d5025e52c7e1d","freq_resp","img/orange_2bandit_b.png","70","70","test","","","","6","",""
"null","269446","pSARL_v2","pSARL_v26z5woqdb","5fb7398b7e9d5025e52c7e1d","fixation","img/fixation.png","null","","test","","","","","",""
"305.30000001192093","269768","pSARL_v2","pSARL_v26z5woqdb","5fb7398b7e9d5025e52c7e1d","freq","img/orange_2bandit_b2.png","70","70","test","1","127","127","6","",""
"null","270292","pSARL_v2","pSARL_v26z5woqdb","5fb7398b7e9d5025e52c7e1d","freq_resp","img/orange_2bandit_b.png","70","70","test","","","","6","",""
"null","270471","pSARL_v2","pSARL_v26z5woqdb","5fb7398b7e9d5025e52c7e1d","fixation","img/fixation.png","null","","test","","","","","",""
"304.80000001192093","270793","pSARL_v2","pSARL_v26z5woqdb","5fb7398b7e9d5025e52c7e1d","freq","img/orange_2bandit_b2.png","70","70","test","1","128","128","6","",""
"null","271318","pSARL_v2","pSARL_v26z5woqdb","5fb7398b7e9d5025e52c7e1d","freq_resp","img/orange_2bandit_b.png","70","70","test","","","","6","",""
"null","271499","pSARL_v2","pSARL_v26z5woqdb","5fb7398b7e9d5025e52c7e1d","fixation","img/fixation.png","null","","test","","","","","",""
"355","271871","pSARL_v2","pSARL_v26z5woqdb","5fb7398b7e9d5025e52c7e1d","freq","img/orange_2bandit_b2.png","70","70","test","1","129","129","6","",""
"null","272334","pSARL_v2","pSARL_v26z5woqdb","5fb7398b7e9d5025e52c7e1d","freq_resp","img/orange_2bandit_b.png","70","70","test","","","","6","",""
"null","272512","pSARL_v2","pSARL_v26z5woqdb","5fb7398b7e9d5025e52c7e1d","fixation","img/fixation.png","null","","test","","","","","",""
"364","272894","pSARL_v2","pSARL_v26z5woqdb","5fb7398b7e9d5025e52c7e1d","freq","img/orange_2bandit_b2.png","70","70","test","1","130","130","6","",""
"null","273360","pSARL_v2","pSARL_v26z5woqdb","5fb7398b7e9d5025e52c7e1d","freq_resp","img/orange_2bandit_b.png","70","70","test","","","","6","",""
"null","273537","pSARL_v2","pSARL_v26z5woqdb","5fb7398b7e9d5025e52c7e1d","fixation","img/fixation.png","null","","test","","","","","",""
"401.30000001192093","273955","pSARL_v2","pSARL_v26z5woqdb","5fb7398b7e9d5025e52c7e1d","infreq","img/green_2bandit_b2.png","68","68","test","1","131","131","6","",""
"null","274373","pSARL_v2","pSARL_v26z5woqdb","5fb7398b7e9d5025e52c7e1d","infreq_resp","img/green_2bandit_b.png","68","68","test","","","","6","",""
"null","274547","pSARL_v2","pSARL_v26z5woqdb","5fb7398b7e9d5025e52c7e1d","fixation","img/fixation.png","null","","test","","","","","",""
"433.80000001192093","274997","pSARL_v2","pSARL_v26z5woqdb","5fb7398b7e9d5025e52c7e1d","freq","img/orange_2bandit_b2.png","70","70","test","1","132","132","6","",""
"null","275391","pSARL_v2","pSARL_v26z5woqdb","5fb7398b7e9d5025e52c7e1d","freq_resp","img/orange_2bandit_b.png","70","70","test","","","","6","",""
"null","275562","pSARL_v2","pSARL_v26z5woqdb","5fb7398b7e9d5025e52c7e1d","fixation","img/fixation.png","null","","test","","","","","",""
"347.19999998807907","275927","pSARL_v2","pSARL_v26z5woqdb","5fb7398b7e9d5025e52c7e1d","freq","img/orange_2bandit_b2.png","70","70","test","1","133","133","6","",""
"null","276403","pSARL_v2","pSARL_v26z5woqdb","5fb7398b7e9d5025e52c7e1d","freq_resp","img/orange_2bandit_b.png","70","70","test","","","","6","",""
"null","276577","pSARL_v2","pSARL_v26z5woqdb","5fb7398b7e9d5025e52c7e1d","fixation","img/fixation.png","null","","test","","","","","",""
"356.0999999642372","276950","pSARL_v2","pSARL_v26z5woqdb","5fb7398b7e9d5025e52c7e1d","freq","img/orange_2bandit_b2.png","70","70","test","1","134","134","6","",""
"null","277414","pSARL_v2","pSARL_v26z5woqdb","5fb7398b7e9d5025e52c7e1d","freq_resp","img/orange_2bandit_b.png","70","70","test","","","","6","",""
"null","277583","pSARL_v2","pSARL_v26z5woqdb","5fb7398b7e9d5025e52c7e1d","fixation","img/fixation.png","null","","test","","","","","",""
"425.7000000476837","278026","pSARL_v2","pSARL_v26z5woqdb","5fb7398b7e9d5025e52c7e1d","freq","img/orange_2bandit_b2.png","70","70","test","1","135","135","6","",""
"null","278422","pSARL_v2","pSARL_v26z5woqdb","5fb7398b7e9d5025e52c7e1d","freq_resp","img/orange_2bandit_b.png","70","70","test","","","","6","",""
"null","278602","pSARL_v2","pSARL_v26z5woqdb","5fb7398b7e9d5025e52c7e1d","fixation","img/fixation.png","null","","test","","","","","",""
"365.4000000357628","278984","pSARL_v2","pSARL_v26z5woqdb","5fb7398b7e9d5025e52c7e1d","freq","img/orange_2bandit_b2.png","70","70","test","1","136","136","6","",""
"null","279450","pSARL_v2","pSARL_v26z5woqdb","5fb7398b7e9d5025e52c7e1d","freq_resp","img/orange_2bandit_b.png","70","70","test","","","","6","",""
"null","279628","pSARL_v2","pSARL_v26z5woqdb","5fb7398b7e9d5025e52c7e1d","fixation","img/fixation.png","null","","test","","","","","",""
"361.19999998807907","280005","pSARL_v2","pSARL_v26z5woqdb","5fb7398b7e9d5025e52c7e1d","reward","img/slot.png","74","","test","","","","","",""
"null","280781","pSARL_v2","pSARL_v26z5woqdb","5fb7398b7e9d5025e52c7e1d","points","<div class=""verylowPoints""> -7 </div>","null","na","test","","","","6","-7","5"
"403.4000000357628","281201","pSARL_v2","pSARL_v26z5woqdb","5fb7398b7e9d5025e52c7e1d","freq","img/orange_2bandit_b2.png","70","70","test","1","137","137","7","",""
"null","281614","pSARL_v2","pSARL_v26z5woqdb","5fb7398b7e9d5025e52c7e1d","freq_resp","img/orange_2bandit_b.png","70","70","test","","","","7","",""
"null","281786","pSARL_v2","pSARL_v26z5woqdb","5fb7398b7e9d5025e52c7e1d","fixation","img/fixation.png","null","","test","","","","","",""
"165.70000004768372","281969","pSARL_v2","pSARL_v26z5woqdb","5fb7398b7e9d5025e52c7e1d","freq","img/orange_2bandit_b2.png","70","70","test","1","138","138","7","",""
"null","282624","pSARL_v2","pSARL_v26z5woqdb","5fb7398b7e9d5025e52c7e1d","freq_resp","img/orange_2bandit_b.png","70","70","test","","","","7","",""
"null","282803","pSARL_v2","pSARL_v26z5woqdb","5fb7398b7e9d5025e52c7e1d","fixation","img/fixation.png","null","","test","","","","","",""
"261.80000001192093","283081","pSARL_v2","pSARL_v26z5woqdb","5fb7398b7e9d5025e52c7e1d","freq","img/orange_2bandit_b2.png","70","70","test","1","139","139","7","",""
"null","283638","pSARL_v2","pSARL_v26z5woqdb","5fb7398b7e9d5025e52c7e1d","freq_resp","img/orange_2bandit_b.png","70","70","test","","","","7","",""
"null","283818","pSARL_v2","pSARL_v26z5woqdb","5fb7398b7e9d5025e52c7e1d","fixation","img/fixation.png","null","","test","","","","","",""
"134.39999997615814","283970","pSARL_v2","pSARL_v26z5woqdb","5fb7398b7e9d5025e52c7e1d","freq","img/orange_2bandit_b2.png","70","70","test","1","140","140","7","",""
"null","284662","pSARL_v2","pSARL_v26z5woqdb","5fb7398b7e9d5025e52c7e1d","freq_resp","img/orange_2bandit_b.png","70","70","test","","","","7","",""
"null","284838","pSARL_v2","pSARL_v26z5woqdb","5fb7398b7e9d5025e52c7e1d","fixation","img/fixation.png","null","","test","","","","","",""
"137.70000004768372","284992","pSARL_v2","pSARL_v26z5woqdb","5fb7398b7e9d5025e52c7e1d","freq","img/orange_2bandit_b2.png","70","70","test","1","141","141","7","",""
"null","285682","pSARL_v2","pSARL_v26z5woqdb","5fb7398b7e9d5025e52c7e1d","freq_resp","img/orange_2bandit_b.png","70","70","test","","","","7","",""
"null","285852","pSARL_v2","pSARL_v26z5woqdb","5fb7398b7e9d5025e52c7e1d","fixation","img/fixation.png","null","","test","","","","","",""
"105.30000001192093","285974","pSARL_v2","pSARL_v26z5woqdb","5fb7398b7e9d5025e52c7e1d","freq","img/orange_2bandit_b2.png","70","70","test","1","142","142","7","",""
"null","286694","pSARL_v2","pSARL_v26z5woqdb","5fb7398b7e9d5025e52c7e1d","freq_resp","img/orange_2bandit_b.png","70","70","test","","","","7","",""
"null","286869","pSARL_v2","pSARL_v26z5woqdb","5fb7398b7e9d5025e52c7e1d","fixation","img/fixation.png","null","","test","","","","","",""
"145.80000001192093","287031","pSARL_v2","pSARL_v26z5woqdb","5fb7398b7e9d5025e52c7e1d","freq","img/orange_2bandit_b2.png","70","70","test","1","143","143","7","",""
"null","287705","pSARL_v2","pSARL_v26z5woqdb","5fb7398b7e9d5025e52c7e1d","freq_resp","img/orange_2bandit_b.png","70","70","test","","","","7","",""
"null","287881","pSARL_v2","pSARL_v26z5woqdb","5fb7398b7e9d5025e52c7e1d","fixation","img/fixation.png","null","","test","","","","","",""
"93.10000002384186","287991","pSARL_v2","pSARL_v26z5woqdb","5fb7398b7e9d5025e52c7e1d","infreq","img/green_2bandit_b2.png","70","68","test","0","144","144","7","",""
"null","288717","pSARL_v2","pSARL_v26z5woqdb","5fb7398b7e9d5025e52c7e1d","infreq_resp","img/green_2bandit_b.png","70","68","test","","","","7","",""
"null","288893","pSARL_v2","pSARL_v26z5woqdb","5fb7398b7e9d5025e52c7e1d","fixation","img/fixation.png","null","","test","","","","","",""
"358.9000000357628","289271","pSARL_v2","pSARL_v26z5woqdb","5fb7398b7e9d5025e52c7e1d","infreq","img/green_2bandit_b2.png","68","68","test","1","145","145","7","",""
"null","289733","pSARL_v2","pSARL_v26z5woqdb","5fb7398b7e9d5025e52c7e1d","infreq_resp","img/green_2bandit_b.png","68","68","test","","","","7","",""
"null","289913","pSARL_v2","pSARL_v26z5woqdb","5fb7398b7e9d5025e52c7e1d","fixation","img/fixation.png","null","","test","","","","","",""
"379.60000002384186","290309","pSARL_v2","pSARL_v26z5woqdb","5fb7398b7e9d5025e52c7e1d","freq","img/orange_2bandit_b2.png","70","70","test","1","146","146","7","",""
"null","290745","pSARL_v2","pSARL_v26z5woqdb","5fb7398b7e9d5025e52c7e1d","freq_resp","img/orange_2bandit_b.png","70","70","test","","","","7","",""
"null","290913","pSARL_v2","pSARL_v26z5woqdb","5fb7398b7e9d5025e52c7e1d","fixation","img/fixation.png","null","","test","","","","","",""
"360.10000002384186","291291","pSARL_v2","pSARL_v26z5woqdb","5fb7398b7e9d5025e52c7e1d","freq","img/orange_2bandit_b2.png","70","70","test","1","147","147","7","",""
"null","291758","pSARL_v2","pSARL_v26z5woqdb","5fb7398b7e9d5025e52c7e1d","freq_resp","img/orange_2bandit_b.png","70","70","test","","","","7","",""
"null","291928","pSARL_v2","pSARL_v26z5woqdb","5fb7398b7e9d5025e52c7e1d","fixation","img/fixation.png","null","","test","","","","","",""
"398","292343","pSARL_v2","pSARL_v26z5woqdb","5fb7398b7e9d5025e52c7e1d","freq","img/orange_2bandit_b2.png","70","70","test","1","148","148","7","",""
"null","292777","pSARL_v2","pSARL_v26z5woqdb","5fb7398b7e9d5025e52c7e1d","freq_resp","img/orange_2bandit_b.png","70","70","test","","","","7","",""
"null","292958","pSARL_v2","pSARL_v26z5woqdb","5fb7398b7e9d5025e52c7e1d","fixation","img/fixation.png","null","","test","","","","","",""
"405.60000002384186","293380","pSARL_v2","pSARL_v26z5woqdb","5fb7398b7e9d5025e52c7e1d","freq","img/orange_2bandit_b2.png","70","70","test","1","149","149","7","",""
"null","293794","pSARL_v2","pSARL_v26z5woqdb","5fb7398b7e9d5025e52c7e1d","freq_resp","img/orange_2bandit_b.png","70","70","test","","","","7","",""
"null","293976","pSARL_v2","pSARL_v26z5woqdb","5fb7398b7e9d5025e52c7e1d","fixation","img/fixation.png","null","","test","","","","","",""
"416.30000001192093","294409","pSARL_v2","pSARL_v26z5woqdb","5fb7398b7e9d5025e52c7e1d","freq","img/orange_2bandit_b2.png","70","70","test","1","150","150","7","",""
"null","294814","pSARL_v2","pSARL_v26z5woqdb","5fb7398b7e9d5025e52c7e1d","freq_resp","img/orange_2bandit_b.png","70","70","test","","","","7","",""
"null","294978","pSARL_v2","pSARL_v26z5woqdb","5fb7398b7e9d5025e52c7e1d","fixation","img/fixation.png","null","","test","","","","","",""
"415.19999998807907","295409","pSARL_v2","pSARL_v26z5woqdb","5fb7398b7e9d5025e52c7e1d","freq","img/orange_2bandit_b2.png","70","70","test","1","151","151","7","",""
"null","295807","pSARL_v2","pSARL_v26z5woqdb","5fb7398b7e9d5025e52c7e1d","freq_resp","img/orange_2bandit_b.png","70","70","test","","","","7","",""
"null","295982","pSARL_v2","pSARL_v26z5woqdb","5fb7398b7e9d5025e52c7e1d","fixation","img/fixation.png","null","","test","","","","","",""
"372.2000000476837","296372","pSARL_v2","pSARL_v26z5woqdb","5fb7398b7e9d5025e52c7e1d","freq","img/orange_2bandit_b2.png","70","70","test","1","152","152","7","",""
"null","296827","pSARL_v2","pSARL_v26z5woqdb","5fb7398b7e9d5025e52c7e1d","freq_resp","img/orange_2bandit_b.png","70","70","test","","","","7","",""
"null","296999","pSARL_v2","pSARL_v26z5woqdb","5fb7398b7e9d5025e52c7e1d","fixation","img/fixation.png","null","","test","","","","","",""
"354.89999997615814","297371","pSARL_v2","pSARL_v26z5woqdb","5fb7398b7e9d5025e52c7e1d","freq","img/orange_2bandit_b2.png","70","70","test","1","153","153","7","",""
"null","297839","pSARL_v2","pSARL_v26z5woqdb","5fb7398b7e9d5025e52c7e1d","freq_resp","img/orange_2bandit_b.png","70","70","test","","","","7","",""
"null","298009","pSARL_v2","pSARL_v26z5woqdb","5fb7398b7e9d5025e52c7e1d","fixation","img/fixation.png","null","","test","","","","","",""
"366.5999999642372","298393","pSARL_v2","pSARL_v26z5woqdb","5fb7398b7e9d5025e52c7e1d","freq","img/orange_2bandit_b2.png","70","70","test","1","154","154","7","",""
"null","298851","pSARL_v2","pSARL_v26z5woqdb","5fb7398b7e9d5025e52c7e1d","freq_resp","img/orange_2bandit_b.png","70","70","test","","","","7","",""
"null","299030","pSARL_v2","pSARL_v26z5woqdb","5fb7398b7e9d5025e52c7e1d","fixation","img/fixation.png","null","","test","","","","","",""
"338.30000001192093","299379","pSARL_v2","pSARL_v26z5woqdb","5fb7398b7e9d5025e52c7e1d","freq","img/orange_2bandit_b2.png","70","70","test","1","155","155","7","",""
"null","299863","pSARL_v2","pSARL_v26z5woqdb","5fb7398b7e9d5025e52c7e1d","freq_resp","img/orange_2bandit_b.png","70","70","test","","","","7","",""
"null","300041","pSARL_v2","pSARL_v26z5woqdb","5fb7398b7e9d5025e52c7e1d","fixation","img/fixation.png","null","","test","","","","","",""
"372.69999998807907","300427","pSARL_v2","pSARL_v26z5woqdb","5fb7398b7e9d5025e52c7e1d","freq","img/orange_2bandit_b2.png","70","70","test","1","156","156","7","",""
"null","300878","pSARL_v2","pSARL_v26z5woqdb","5fb7398b7e9d5025e52c7e1d","freq_resp","img/orange_2bandit_b.png","70","70","test","","","","7","",""
"null","301053","pSARL_v2","pSARL_v26z5woqdb","5fb7398b7e9d5025e52c7e1d","fixation","img/fixation.png","null","","test","","","","","",""
"348.89999997615814","301419","pSARL_v2","pSARL_v26z5woqdb","5fb7398b7e9d5025e52c7e1d","freq","img/orange_2bandit_b2.png","70","70","test","1","157","157","7","",""
"null","301902","pSARL_v2","pSARL_v26z5woqdb","5fb7398b7e9d5025e52c7e1d","freq_resp","img/orange_2bandit_b.png","70","70","test","","","","7","",""
"null","302071","pSARL_v2","pSARL_v26z5woqdb","5fb7398b7e9d5025e52c7e1d","fixation","img/fixation.png","null","","test","","","","","",""
"316.7999999523163","302405","pSARL_v2","pSARL_v26z5woqdb","5fb7398b7e9d5025e52c7e1d","freq","img/orange_2bandit_b2.png","70","70","test","1","158","158","7","",""
"null","302917","pSARL_v2","pSARL_v26z5woqdb","5fb7398b7e9d5025e52c7e1d","freq_resp","img/orange_2bandit_b.png","70","70","test","","","","7","",""
"null","303095","pSARL_v2","pSARL_v26z5woqdb","5fb7398b7e9d5025e52c7e1d","fixation","img/fixation.png","null","","test","","","","","",""
"273.80000001192093","303386","pSARL_v2","pSARL_v26z5woqdb","5fb7398b7e9d5025e52c7e1d","freq","img/orange_2bandit_b2.png","70","70","test","1","159","159","7","",""
"null","303945","pSARL_v2","pSARL_v26z5woqdb","5fb7398b7e9d5025e52c7e1d","freq_resp","img/orange_2bandit_b.png","70","70","test","","","","7","",""
"null","304123","pSARL_v2","pSARL_v26z5woqdb","5fb7398b7e9d5025e52c7e1d","fixation","img/fixation.png","null","","test","","","","","",""
"280.9000000357628","304422","pSARL_v2","pSARL_v26z5woqdb","5fb7398b7e9d5025e52c7e1d","freq","img/orange_2bandit_b2.png","70","70","test","1","160","160","7","",""
"null","304972","pSARL_v2","pSARL_v26z5woqdb","5fb7398b7e9d5025e52c7e1d","freq_resp","img/orange_2bandit_b.png","70","70","test","","","","7","",""
"null","305145","pSARL_v2","pSARL_v26z5woqdb","5fb7398b7e9d5025e52c7e1d","fixation","img/fixation.png","null","","test","","","","","",""
"334.5","305496","pSARL_v2","pSARL_v26z5woqdb","5fb7398b7e9d5025e52c7e1d","reward","img/slot.png","74","","test","","","","","",""
"null","306268","pSARL_v2","pSARL_v26z5woqdb","5fb7398b7e9d5025e52c7e1d","points","<div class=""verylowPoints""> -6 </div>","null","na","test","","","","7","-6","6"
"484.30000001192093","306767","pSARL_v2","pSARL_v26z5woqdb","5fb7398b7e9d5025e52c7e1d","freq","img/orange_2bandit_b2.png","70","70","test","1","161","161","8","",""
"null","307093","pSARL_v2","pSARL_v26z5woqdb","5fb7398b7e9d5025e52c7e1d","freq_resp","img/orange_2bandit_b.png","70","70","test","","","","8","",""
"null","307268","pSARL_v2","pSARL_v26z5woqdb","5fb7398b7e9d5025e52c7e1d","fixation","img/fixation.png","null","","test","","","","","",""
"349.60000002384186","307634","pSARL_v2","pSARL_v26z5woqdb","5fb7398b7e9d5025e52c7e1d","freq","img/orange_2bandit_b2.png","70","70","test","1","162","162","8","",""
"null","308103","pSARL_v2","pSARL_v26z5woqdb","5fb7398b7e9d5025e52c7e1d","freq_resp","img/orange_2bandit_b.png","70","70","test","","","","8","",""
"null","308270","pSARL_v2","pSARL_v26z5woqdb","5fb7398b7e9d5025e52c7e1d","fixation","img/fixation.png","null","","test","","","","","",""
"210","308497","pSARL_v2","pSARL_v26z5woqdb","5fb7398b7e9d5025e52c7e1d","freq","img/orange_2bandit_b2.png","70","70","test","1","163","163","8","",""
"null","309115","pSARL_v2","pSARL_v26z5woqdb","5fb7398b7e9d5025e52c7e1d","freq_resp","img/orange_2bandit_b.png","70","70","test","","","","8","",""
"null","309285","pSARL_v2","pSARL_v26z5woqdb","5fb7398b7e9d5025e52c7e1d","fixation","img/fixation.png","null","","test","","","","","",""
"86.80000001192093","309389","pSARL_v2","pSARL_v26z5woqdb","5fb7398b7e9d5025e52c7e1d","freq","img/orange_2bandit_b2.png","70","70","test","1","164","164","8","",""
"null","310134","pSARL_v2","pSARL_v26z5woqdb","5fb7398b7e9d5025e52c7e1d","freq_resp","img/orange_2bandit_b.png","70","70","test","","","","8","",""
"null","310306","pSARL_v2","pSARL_v26z5woqdb","5fb7398b7e9d5025e52c7e1d","fixation","img/fixation.png","null","","test","","","","","",""
"72","310395","pSARL_v2","pSARL_v26z5woqdb","5fb7398b7e9d5025e52c7e1d","freq","img/orange_2bandit_b2.png","70","70","test","1","165","165","8","",""
"null","311150","pSARL_v2","pSARL_v26z5woqdb","5fb7398b7e9d5025e52c7e1d","freq_resp","img/orange_2bandit_b.png","70","70","test","","","","8","",""
"null","311333","pSARL_v2","pSARL_v26z5woqdb","5fb7398b7e9d5025e52c7e1d","fixation","img/fixation.png","null","","test","","","","","",""
"12.700000047683716","311359","pSARL_v2","pSARL_v26z5woqdb","5fb7398b7e9d5025e52c7e1d","infreq","img/green_2bandit_b2.png","70","68","test","0","166","166","8","",""
"null","312172","pSARL_v2","pSARL_v26z5woqdb","5fb7398b7e9d5025e52c7e1d","infreq_resp","img/green_2bandit_b.png","70","68","test","","","","8","",""
"null","312345","pSARL_v2","pSARL_v26z5woqdb","5fb7398b7e9d5025e52c7e1d","fixation","img/fixation.png","null","","test","","","","","",""
"530.5999999642372","312893","pSARL_v2","pSARL_v26z5woqdb","5fb7398b7e9d5025e52c7e1d","freq","img/orange_2bandit_b2.png","70","70","test","1","167","167","8","",""
"null","313183","pSARL_v2","pSARL_v26z5woqdb","5fb7398b7e9d5025e52c7e1d","freq_resp","img/orange_2bandit_b.png","70","70","test","","","","8","",""
"null","313355","pSARL_v2","pSARL_v26z5woqdb","5fb7398b7e9d5025e52c7e1d","fixation","img/fixation.png","null","","test","","","","","",""
"295","313669","pSARL_v2","pSARL_v26z5woqdb","5fb7398b7e9d5025e52c7e1d","freq","img/orange_2bandit_b2.png","70","70","test","1","168","168","8","",""
"null","314200","pSARL_v2","pSARL_v26z5woqdb","5fb7398b7e9d5025e52c7e1d","freq_resp","img/orange_2bandit_b.png","70","70","test","","","","8","",""
"null","314368","pSARL_v2","pSARL_v26z5woqdb","5fb7398b7e9d5025e52c7e1d","fixation","img/fixation.png","null","","test","","","","","",""
"288.2999999523163","314673","pSARL_v2","pSARL_v26z5woqdb","5fb7398b7e9d5025e52c7e1d","freq","img/orange_2bandit_b2.png","70","70","test","1","169","169","8","",""
"null","315204","pSARL_v2","pSARL_v26z5woqdb","5fb7398b7e9d5025e52c7e1d","freq_resp","img/orange_2bandit_b.png","70","70","test","","","","8","",""
"null","315384","pSARL_v2","pSARL_v26z5woqdb","5fb7398b7e9d5025e52c7e1d","fixation","img/fixation.png","null","","test","","","","","",""
"326.4000000357628","315728","pSARL_v2","pSARL_v26z5woqdb","5fb7398b7e9d5025e52c7e1d","freq","img/orange_2bandit_b2.png","70","70","test","1","170","170","8","",""
"null","316231","pSARL_v2","pSARL_v26z5woqdb","5fb7398b7e9d5025e52c7e1d","freq_resp","img/orange_2bandit_b.png","70","70","test","","","","8","",""
"null","316405","pSARL_v2","pSARL_v26z5woqdb","5fb7398b7e9d5025e52c7e1d","fixation","img/fixation.png","null","","test","","","","","",""
"271.19999998807907","316694","pSARL_v2","pSARL_v26z5woqdb","5fb7398b7e9d5025e52c7e1d","freq","img/orange_2bandit_b2.png","70","70","test","1","171","171","8","",""
"null","317247","pSARL_v2","pSARL_v26z5woqdb","5fb7398b7e9d5025e52c7e1d","freq_resp","img/orange_2bandit_b.png","70","70","test","","","","8","",""
"null","317419","pSARL_v2","pSARL_v26z5woqdb","5fb7398b7e9d5025e52c7e1d","fixation","img/fixation.png","null","","test","","","","","",""
"418.19999998807907","317853","pSARL_v2","pSARL_v26z5woqdb","5fb7398b7e9d5025e52c7e1d","infreq","img/green_2bandit_b2.png","68","68","test","1","172","172","8","",""
"null","318265","pSARL_v2","pSARL_v26z5woqdb","5fb7398b7e9d5025e52c7e1d","infreq_resp","img/green_2bandit_b.png","68","68","test","","","","8","",""
"null","318442","pSARL_v2","pSARL_v26z5woqdb","5fb7398b7e9d5025e52c7e1d","fixation","img/fixation.png","null","","test","","","","","",""
"337.2999999523163","318797","pSARL_v2","pSARL_v26z5woqdb","5fb7398b7e9d5025e52c7e1d","freq","img/orange_2bandit_b2.png","70","70","test","1","173","173","8","",""
"null","319287","pSARL_v2","pSARL_v26z5woqdb","5fb7398b7e9d5025e52c7e1d","freq_resp","img/orange_2bandit_b.png","70","70","test","","","","8","",""
"null","319458","pSARL_v2","pSARL_v26z5woqdb","5fb7398b7e9d5025e52c7e1d","fixation","img/fixation.png","null","","test","","","","","",""
"304.10000002384186","319780","pSARL_v2","pSARL_v26z5woqdb","5fb7398b7e9d5025e52c7e1d","freq","img/orange_2bandit_b2.png","70","70","test","1","174","174","8","",""
"null","320303","pSARL_v2","pSARL_v26z5woqdb","5fb7398b7e9d5025e52c7e1d","freq_resp","img/orange_2bandit_b.png","70","70","test","","","","8","",""
"null","320483","pSARL_v2","pSARL_v26z5woqdb","5fb7398b7e9d5025e52c7e1d","fixation","img/fixation.png","null","","test","","","","","",""
"449.4000000357628","320949","pSARL_v2","pSARL_v26z5woqdb","5fb7398b7e9d5025e52c7e1d","freq","img/orange_2bandit_b2.png","70","70","test","1","175","175","8","",""
"null","321328","pSARL_v2","pSARL_v26z5woqdb","5fb7398b7e9d5025e52c7e1d","freq_resp","img/orange_2bandit_b.png","70","70","test","","","","8","",""
"null","321508","pSARL_v2","pSARL_v26z5woqdb","5fb7398b7e9d5025e52c7e1d","fixation","img/fixation.png","null","","test","","","","","",""
"448.39999997615814","321973","pSARL_v2","pSARL_v26z5woqdb","5fb7398b7e9d5025e52c7e1d","freq","img/orange_2bandit_b2.png","70","70","test","1","176","176","8","",""
"null","322355","pSARL_v2","pSARL_v26z5woqdb","5fb7398b7e9d5025e52c7e1d","freq_resp","img/orange_2bandit_b.png","70","70","test","","","","8","",""
"null","322535","pSARL_v2","pSARL_v26z5woqdb","5fb7398b7e9d5025e52c7e1d","fixation","img/fixation.png","null","","test","","","","","",""
"356.9000000357628","322909","pSARL_v2","pSARL_v26z5woqdb","5fb7398b7e9d5025e52c7e1d","freq","img/orange_2bandit_b2.png","70","70","test","1","177","177","8","",""
"null","323373","pSARL_v2","pSARL_v26z5woqdb","5fb7398b7e9d5025e52c7e1d","freq_resp","img/orange_2bandit_b.png","70","70","test","","","","8","",""
"null","323549","pSARL_v2","pSARL_v26z5woqdb","5fb7398b7e9d5025e52c7e1d","fixation","img/fixation.png","null","","test","","","","","",""
"361.30000001192093","323927","pSARL_v2","pSARL_v26z5woqdb","5fb7398b7e9d5025e52c7e1d","freq","img/orange_2bandit_b2.png","70","70","test","1","178","178","8","",""
"null","324401","pSARL_v2","pSARL_v26z5woqdb","5fb7398b7e9d5025e52c7e1d","freq_resp","img/orange_2bandit_b.png","70","70","test","","","","8","",""
"null","324575","pSARL_v2","pSARL_v26z5woqdb","5fb7398b7e9d5025e52c7e1d","fixation","img/fixation.png","null","","test","","","","","",""
"284.69999998807907","324877","pSARL_v2","pSARL_v26z5woqdb","5fb7398b7e9d5025e52c7e1d","freq","img/orange_2bandit_b2.png","70","70","test","1","179","179","8","",""
"null","325411","pSARL_v2","pSARL_v26z5woqdb","5fb7398b7e9d5025e52c7e1d","freq_resp","img/orange_2bandit_b.png","70","70","test","","","","8","",""
"null","325584","pSARL_v2","pSARL_v26z5woqdb","5fb7398b7e9d5025e52c7e1d","fixation","img/fixation.png","null","","test","","","","","",""
"293.4000000357628","325896","pSARL_v2","pSARL_v26z5woqdb","5fb7398b7e9d5025e52c7e1d","freq","img/orange_2bandit_b2.png","70","70","test","1","180","180","8","",""
"null","326433","pSARL_v2","pSARL_v26z5woqdb","5fb7398b7e9d5025e52c7e1d","freq_resp","img/orange_2bandit_b.png","70","70","test","","","","8","",""
"null","326607","pSARL_v2","pSARL_v26z5woqdb","5fb7398b7e9d5025e52c7e1d","fixation","img/fixation.png","null","","test","","","","","",""
"259","326883","pSARL_v2","pSARL_v26z5woqdb","5fb7398b7e9d5025e52c7e1d","freq","img/orange_2bandit_b2.png","70","70","test","1","181","181","8","",""
"null","327442","pSARL_v2","pSARL_v26z5woqdb","5fb7398b7e9d5025e52c7e1d","freq_resp","img/orange_2bandit_b.png","70","70","test","","","","8","",""
"null","327618","pSARL_v2","pSARL_v26z5woqdb","5fb7398b7e9d5025e52c7e1d","fixation","img/fixation.png","null","","test","","","","","",""
"352.19999998807907","328000","pSARL_v2","pSARL_v26z5woqdb","5fb7398b7e9d5025e52c7e1d","freq","img/orange_2bandit_b2.png","70","70","test","1","182","182","8","",""
"null","328480","pSARL_v2","pSARL_v26z5woqdb","5fb7398b7e9d5025e52c7e1d","freq_resp","img/orange_2bandit_b.png","70","70","test","","","","8","",""
"null","328650","pSARL_v2","pSARL_v26z5woqdb","5fb7398b7e9d5025e52c7e1d","fixation","img/fixation.png","null","","test","","","","","",""
"324.39999997615814","328990","pSARL_v2","pSARL_v26z5woqdb","5fb7398b7e9d5025e52c7e1d","freq","img/orange_2bandit_b2.png","70","70","test","1","183","183","8","",""
"null","329487","pSARL_v2","pSARL_v26z5woqdb","5fb7398b7e9d5025e52c7e1d","freq_resp","img/orange_2bandit_b.png","70","70","test","","","","8","",""
"null","329664","pSARL_v2","pSARL_v26z5woqdb","5fb7398b7e9d5025e52c7e1d","fixation","img/fixation.png","null","","test","","","","","",""
"495.5999999642372","330177","pSARL_v2","pSARL_v26z5woqdb","5fb7398b7e9d5025e52c7e1d","reward","img/slot.png","74","","test","","","","","",""
"null","330952","pSARL_v2","pSARL_v26z5woqdb","5fb7398b7e9d5025e52c7e1d","points","<div class=""verylowPoints""> -4 </div>","null","na","test","","","","8","-4","7"
"null","331780","pSARL_v2","pSARL_v26z5woqdb","5fb7398b7e9d5025e52c7e1d","freq","img/orange_2bandit_b2.png","null","70","test","0","184","184","9","",""
"null","331956","pSARL_v2","pSARL_v26z5woqdb","5fb7398b7e9d5025e52c7e1d","fixation","img/fixation.png","null","","test","","","","","",""
"510.80000001192093","332484","pSARL_v2","pSARL_v26z5woqdb","5fb7398b7e9d5025e52c7e1d","freq","img/orange_2bandit_b2.png","70","70","test","1","185","185","9","",""
"null","332792","pSARL_v2","pSARL_v26z5woqdb","5fb7398b7e9d5025e52c7e1d","freq_resp","img/orange_2bandit_b.png","70","70","test","","","","9","",""
"null","332971","pSARL_v2","pSARL_v26z5woqdb","5fb7398b7e9d5025e52c7e1d","fixation","img/fixation.png","null","","test","","","","","",""
"236.70000004768372","333225","pSARL_v2","pSARL_v26z5woqdb","5fb7398b7e9d5025e52c7e1d","freq","img/orange_2bandit_b2.png","70","70","test","1","186","186","9","",""
"null","333822","pSARL_v2","pSARL_v26z5woqdb","5fb7398b7e9d5025e52c7e1d","freq_resp","img/orange_2bandit_b.png","70","70","test","","","","9","",""
"null","334005","pSARL_v2","pSARL_v26z5woqdb","5fb7398b7e9d5025e52c7e1d","fixation","img/fixation.png","null","","test","","","","","",""
"99.89999997615814","334122","pSARL_v2","pSARL_v26z5woqdb","5fb7398b7e9d5025e52c7e1d","freq","img/orange_2bandit_b2.png","70","70","test","1","187","187","9","",""
"null","334847","pSARL_v2","pSARL_v26z5woqdb","5fb7398b7e9d5025e52c7e1d","freq_resp","img/orange_2bandit_b.png","70","70","test","","","","9","",""
"null","335017","pSARL_v2","pSARL_v26z5woqdb","5fb7398b7e9d5025e52c7e1d","fixation","img/fixation.png","null","","test","","","","","",""
"105.89999997615814","335140","pSARL_v2","pSARL_v26z5woqdb","5fb7398b7e9d5025e52c7e1d","freq","img/orange_2bandit_b2.png","70","70","test","1","188","188","9","",""
"null","335851","pSARL_v2","pSARL_v26z5woqdb","5fb7398b7e9d5025e52c7e1d","freq_resp","img/orange_2bandit_b.png","70","70","test","","","","9","",""
"null","336023","pSARL_v2","pSARL_v26z5woqdb","5fb7398b7e9d5025e52c7e1d","fixation","img/fixation.png","null","","test","","","","","",""
"279.39999997615814","336319","pSARL_v2","pSARL_v26z5woqdb","5fb7398b7e9d5025e52c7e1d","freq","img/orange_2bandit_b2.png","70","70","test","1","189","189","9","",""
"null","336859","pSARL_v2","pSARL_v26z5woqdb","5fb7398b7e9d5025e52c7e1d","freq_resp","img/orange_2bandit_b.png","70","70","test","","","","9","",""
"null","337036","pSARL_v2","pSARL_v26z5woqdb","5fb7398b7e9d5025e52c7e1d","fixation","img/fixation.png","null","","test","","","","","",""
"329.69999998807907","337383","pSARL_v2","pSARL_v26z5woqdb","5fb7398b7e9d5025e52c7e1d","freq","img/orange_2bandit_b2.png","70","70","test","1","190","190","9","",""
"null","337877","pSARL_v2","pSARL_v26z5woqdb","5fb7398b7e9d5025e52c7e1d","freq_resp","img/orange_2bandit_b.png","70","70","test","","","","9","",""
"null","338055","pSARL_v2","pSARL_v26z5woqdb","5fb7398b7e9d5025e52c7e1d","fixation","img/fixation.png","null","","test","","","","","",""
"518","338590","pSARL_v2","pSARL_v26z5woqdb","5fb7398b7e9d5025e52c7e1d","infreq","img/green_2bandit_b2.png","68","68","test","1","191","191","9","",""
"null","338894","pSARL_v2","pSARL_v26z5woqdb","5fb7398b7e9d5025e52c7e1d","infreq_resp","img/green_2bandit_b.png","68","68","test","","","","9","",""
"null","339071","pSARL_v2","pSARL_v26z5woqdb","5fb7398b7e9d5025e52c7e1d","fixation","img/fixation.png","null","","test","","","","","",""
"null","339891","pSARL_v2","pSARL_v26z5woqdb","5fb7398b7e9d5025e52c7e1d","freq","img/orange_2bandit_b2.png","null","70","test","0","192","192","9","",""
"null","340070","pSARL_v2","pSARL_v26z5woqdb","5fb7398b7e9d5025e52c7e1d","fixation","img/fixation.png","null","","test","","","","","",""
"673.6000000238419","340760","pSARL_v2","pSARL_v26z5woqdb","5fb7398b7e9d5025e52c7e1d","freq","img/orange_2bandit_b2.png","70","70","test","1","193","193","9","",""
"null","340905","pSARL_v2","pSARL_v26z5woqdb","5fb7398b7e9d5025e52c7e1d","freq_resp","img/orange_2bandit_b.png","70","70","test","","","","9","",""
"null","341084","pSARL_v2","pSARL_v26z5woqdb","5fb7398b7e9d5025e52c7e1d","fixation","img/fixation.png","null","","test","","","","","",""
"448.5","341552","pSARL_v2","pSARL_v26z5woqdb","5fb7398b7e9d5025e52c7e1d","infreq","img/green_2bandit_b2.png","68","68","test","1","194","194","9","",""
"null","341923","pSARL_v2","pSARL_v26z5woqdb","5fb7398b7e9d5025e52c7e1d","infreq_resp","img/green_2bandit_b.png","68","68","test","","","","9","",""
"null","342096","pSARL_v2","pSARL_v26z5woqdb","5fb7398b7e9d5025e52c7e1d","fixation","img/fixation.png","null","","test","","","","","",""
"298.2999999523163","342411","pSARL_v2","pSARL_v26z5woqdb","5fb7398b7e9d5025e52c7e1d","infreq","img/green_2bandit_b2.png","68","68","test","1","195","195","9","",""
"null","342940","pSARL_v2","pSARL_v26z5woqdb","5fb7398b7e9d5025e52c7e1d","infreq_resp","img/green_2bandit_b.png","68","68","test","","","","9","",""
"null","343112","pSARL_v2","pSARL_v26z5woqdb","5fb7398b7e9d5025e52c7e1d","fixation","img/fixation.png","null","","test","","","","","",""
"412.60000002384186","343542","pSARL_v2","pSARL_v26z5woqdb","5fb7398b7e9d5025e52c7e1d","freq","img/orange_2bandit_b2.png","70","70","test","1","196","196","9","",""
"null","343943","pSARL_v2","pSARL_v26z5woqdb","5fb7398b7e9d5025e52c7e1d","freq_resp","img/orange_2bandit_b.png","70","70","test","","","","9","",""
"null","344119","pSARL_v2","pSARL_v26z5woqdb","5fb7398b7e9d5025e52c7e1d","fixation","img/fixation.png","null","","test","","","","","",""
"281.4000000357628","344417","pSARL_v2","pSARL_v26z5woqdb","5fb7398b7e9d5025e52c7e1d","freq","img/orange_2bandit_b2.png","70","70","test","1","197","197","9","",""
"null","344964","pSARL_v2","pSARL_v26z5woqdb","5fb7398b7e9d5025e52c7e1d","freq_resp","img/orange_2bandit_b.png","70","70","test","","","","9","",""
"null","345135","pSARL_v2","pSARL_v26z5woqdb","5fb7398b7e9d5025e52c7e1d","fixation","img/fixation.png","null","","test","","","","","",""
"227","345380","pSARL_v2","pSARL_v26z5woqdb","5fb7398b7e9d5025e52c7e1d","freq","img/orange_2bandit_b2.png","70","70","test","1","198","198","9","",""
"null","345977","pSARL_v2","pSARL_v26z5woqdb","5fb7398b7e9d5025e52c7e1d","freq_resp","img/orange_2bandit_b.png","70","70","test","","","","9","",""
"null","346147","pSARL_v2","pSARL_v26z5woqdb","5fb7398b7e9d5025e52c7e1d","fixation","img/fixation.png","null","","test","","","","","",""
"204.80000001192093","346368","pSARL_v2","pSARL_v26z5woqdb","5fb7398b7e9d5025e52c7e1d","freq","img/orange_2bandit_b2.png","70","70","test","1","199","199","9","",""
"null","346985","pSARL_v2","pSARL_v26z5woqdb","5fb7398b7e9d5025e52c7e1d","freq_resp","img/orange_2bandit_b.png","70","70","test","","","","9","",""
"null","347161","pSARL_v2","pSARL_v26z5woqdb","5fb7398b7e9d5025e52c7e1d","fixation","img/fixation.png","null","","test","","","","","",""
"290.30000001192093","347463","pSARL_v2","pSARL_v26z5woqdb","5fb7398b7e9d5025e52c7e1d","freq","img/orange_2bandit_b2.png","70","70","test","1","200","200","9","",""
"null","347991","pSARL_v2","pSARL_v26z5woqdb","5fb7398b7e9d5025e52c7e1d","freq_resp","img/orange_2bandit_b.png","70","70","test","","","","9","",""
"null","348161","pSARL_v2","pSARL_v26z5woqdb","5fb7398b7e9d5025e52c7e1d","fixation","img/fixation.png","null","","test","","","","","",""
"326.10000002384186","348504","pSARL_v2","pSARL_v26z5woqdb","5fb7398b7e9d5025e52c7e1d","freq","img/orange_2bandit_b2.png","70","70","test","1","201","201","9","",""
"null","348999","pSARL_v2","pSARL_v26z5woqdb","5fb7398b7e9d5025e52c7e1d","freq_resp","img/orange_2bandit_b.png","70","70","test","","","","9","",""
"null","349177","pSARL_v2","pSARL_v26z5woqdb","5fb7398b7e9d5025e52c7e1d","fixation","img/fixation.png","null","","test","","","","","",""
"302.39999997615814","349496","pSARL_v2","pSARL_v26z5woqdb","5fb7398b7e9d5025e52c7e1d","freq","img/orange_2bandit_b2.png","70","70","test","1","202","202","9","",""
"null","350024","pSARL_v2","pSARL_v26z5woqdb","5fb7398b7e9d5025e52c7e1d","freq_resp","img/orange_2bandit_b.png","70","70","test","","","","9","",""
"null","350195","pSARL_v2","pSARL_v26z5woqdb","5fb7398b7e9d5025e52c7e1d","fixation","img/fixation.png","null","","test","","","","","",""
"276.5999999642372","350489","pSARL_v2","pSARL_v26z5woqdb","5fb7398b7e9d5025e52c7e1d","freq","img/orange_2bandit_b2.png","70","70","test","1","203","203","9","",""
"null","351042","pSARL_v2","pSARL_v26z5woqdb","5fb7398b7e9d5025e52c7e1d","freq_resp","img/orange_2bandit_b.png","70","70","test","","","","9","",""
"null","351213","pSARL_v2","pSARL_v26z5woqdb","5fb7398b7e9d5025e52c7e1d","fixation","img/fixation.png","null","","test","","","","","",""
"302.10000002384186","351533","pSARL_v2","pSARL_v26z5woqdb","5fb7398b7e9d5025e52c7e1d","freq","img/orange_2bandit_b2.png","70","70","test","1","204","204","9","",""
"null","352056","pSARL_v2","pSARL_v26z5woqdb","5fb7398b7e9d5025e52c7e1d","freq_resp","img/orange_2bandit_b.png","70","70","test","","","","9","",""
"null","352235","pSARL_v2","pSARL_v26z5woqdb","5fb7398b7e9d5025e52c7e1d","fixation","img/fixation.png","null","","test","","","","","",""
"285.80000001192093","352539","pSARL_v2","pSARL_v26z5woqdb","5fb7398b7e9d5025e52c7e1d","freq","img/orange_2bandit_b2.png","70","70","test","1","205","205","9","",""
"null","353080","pSARL_v2","pSARL_v26z5woqdb","5fb7398b7e9d5025e52c7e1d","freq_resp","img/orange_2bandit_b.png","70","70","test","","","","9","",""
"null","353261","pSARL_v2","pSARL_v26z5woqdb","5fb7398b7e9d5025e52c7e1d","fixation","img/fixation.png","null","","test","","","","","",""
"295.4000000357628","353574","pSARL_v2","pSARL_v26z5woqdb","5fb7398b7e9d5025e52c7e1d","freq","img/orange_2bandit_b2.png","70","70","test","1","206","206","9","",""
"null","354105","pSARL_v2","pSARL_v26z5woqdb","5fb7398b7e9d5025e52c7e1d","freq_resp","img/orange_2bandit_b.png","70","70","test","","","","9","",""
"null","354277","pSARL_v2","pSARL_v26z5woqdb","5fb7398b7e9d5025e52c7e1d","fixation","img/fixation.png","null","","test","","","","","",""
"275.9000000357628","354571","pSARL_v2","pSARL_v26z5woqdb","5fb7398b7e9d5025e52c7e1d","freq","img/orange_2bandit_b2.png","70","70","test","1","207","207","9","",""
