"rt","time_elapsed","expId","subject","prolificID","trialType","stimulus","key_press","corrresp","phase","corr","trialNum","attentionRunNum","blockNum","points","rlNum"
"174153.5","174157","pSARL_v2","pSARL_v28ahn14xz","631659ad8e5354f16aef7249","","","","","","","","","","",""
"","178465","pSARL_v2","pSARL_v28ahn14xz","631659ad8e5354f16aef7249","fullscreen","","","","","","","","","",""
"256543.20000004768","435010","pSARL_v2","pSARL_v28ahn14xz","631659ad8e5354f16aef7249","","","","","","","","","","",""
"null","435834","pSARL_v2","pSARL_v28ahn14xz","631659ad8e5354f16aef7249","freqPrac","img/green_2bandit_a2.png","null","70","prac","0","","","","",""
"null","436847","pSARL_v2","pSARL_v28ahn14xz","631659ad8e5354f16aef7249","feedback","img/tooSlow.png","null","na","prac","","","","","",""
"null","437010","pSARL_v2","pSARL_v28ahn14xz","631659ad8e5354f16aef7249","fixation","img/fixation.png","null","","prac","","","","","",""
"492.2000000476837","437508","pSARL_v2","pSARL_v28ahn14xz","631659ad8e5354f16aef7249","infreqPrac","img/orange_2bandit_a2.png","70","68","prac","0","","","","",""
"492.2000000476837","437833","pSARL_v2","pSARL_v28ahn14xz","631659ad8e5354f16aef7249","infreqPrac_resp","img/orange_2bandit_a.png","70","68","prac","","","","","",""
"null","438846","pSARL_v2","pSARL_v28ahn14xz","631659ad8e5354f16aef7249","feedback","img/wrongKey.png","null","na","prac","","","","","",""
"null","439011","pSARL_v2","pSARL_v28ahn14xz","631659ad8e5354f16aef7249","fixation","img/fixation.png","null","","prac","","","","","",""
"506.09999990463257","439525","pSARL_v2","pSARL_v28ahn14xz","631659ad8e5354f16aef7249","freqPrac","img/green_2bandit_a2.png","70","70","prac","1","","","","",""
"506.09999990463257","439835","pSARL_v2","pSARL_v28ahn14xz","631659ad8e5354f16aef7249","freqPrac_resp","img/green_2bandit_a.png","70","70","prac","","","","","",""
"null","439993","pSARL_v2","pSARL_v28ahn14xz","631659ad8e5354f16aef7249","fixation","img/fixation.png","null","","prac","","","","","",""
"524.8999998569489","440523","pSARL_v2","pSARL_v28ahn14xz","631659ad8e5354f16aef7249","infreqPrac","img/orange_2bandit_a2.png","68","68","prac","1","","","","",""
"524.8999998569489","440818","pSARL_v2","pSARL_v28ahn14xz","631659ad8e5354f16aef7249","infreqPrac_resp","img/orange_2bandit_a.png","68","68","prac","","","","","",""
"null","440976","pSARL_v2","pSARL_v28ahn14xz","631659ad8e5354f16aef7249","fixation","img/fixation.png","null","","prac","","","","","",""
"508.60000014305115","441492","pSARL_v2","pSARL_v28ahn14xz","631659ad8e5354f16aef7249","infreqPrac","img/orange_2bandit_a2.png","68","68","prac","1","","","","",""
"508.60000014305115","441800","pSARL_v2","pSARL_v28ahn14xz","631659ad8e5354f16aef7249","infreqPrac_resp","img/orange_2bandit_a.png","68","68","prac","","","","","",""
"null","441960","pSARL_v2","pSARL_v28ahn14xz","631659ad8e5354f16aef7249","fixation","img/fixation.png","null","","prac","","","","","",""
"374","442340","pSARL_v2","pSARL_v28ahn14xz","631659ad8e5354f16aef7249","infreqPrac","img/orange_2bandit_a2.png","68","68","prac","1","","","","",""
"374","442775","pSARL_v2","pSARL_v28ahn14xz","631659ad8e5354f16aef7249","infreqPrac_resp","img/orange_2bandit_a.png","68","68","prac","","","","","",""
"null","442942","pSARL_v2","pSARL_v28ahn14xz","631659ad8e5354f16aef7249","fixation","img/fixation.png","null","","prac","","","","","",""
"391.7000000476837","443339","pSARL_v2","pSARL_v28ahn14xz","631659ad8e5354f16aef7249","freqPrac","img/green_2bandit_a2.png","70","70","prac","1","","","","",""
"391.7000000476837","443755","pSARL_v2","pSARL_v28ahn14xz","631659ad8e5354f16aef7249","freqPrac_resp","img/green_2bandit_a.png","70","70","prac","","","","","",""
"null","443935","pSARL_v2","pSARL_v28ahn14xz","631659ad8e5354f16aef7249","fixation","img/fixation.png","null","","prac","","","","","",""
"317.90000009536743","444260","pSARL_v2","pSARL_v28ahn14xz","631659ad8e5354f16aef7249","infreqPrac","img/orange_2bandit_a2.png","68","68","prac","1","","","","",""
"317.90000009536743","444752","pSARL_v2","pSARL_v28ahn14xz","631659ad8e5354f16aef7249","infreqPrac_resp","img/orange_2bandit_a.png","68","68","prac","","","","","",""
"null","444914","pSARL_v2","pSARL_v28ahn14xz","631659ad8e5354f16aef7249","fixation","img/fixation.png","null","","prac","","","","","",""
"403.60000014305115","445324","pSARL_v2","pSARL_v28ahn14xz","631659ad8e5354f16aef7249","freqPrac","img/green_2bandit_a2.png","70","70","prac","1","","","","",""
"403.60000014305115","445742","pSARL_v2","pSARL_v28ahn14xz","631659ad8e5354f16aef7249","freqPrac_resp","img/green_2bandit_a.png","70","70","prac","","","","","",""
"null","445910","pSARL_v2","pSARL_v28ahn14xz","631659ad8e5354f16aef7249","fixation","img/fixation.png","null","","prac","","","","","",""
"406.89999985694885","446323","pSARL_v2","pSARL_v28ahn14xz","631659ad8e5354f16aef7249","freqPrac","img/green_2bandit_a2.png","70","70","prac","1","","","","",""
"406.89999985694885","446724","pSARL_v2","pSARL_v28ahn14xz","631659ad8e5354f16aef7249","freqPrac_resp","img/green_2bandit_a.png","70","70","prac","","","","","",""
"null","446891","pSARL_v2","pSARL_v28ahn14xz","631659ad8e5354f16aef7249","fixation","img/fixation.png","null","","prac","","","","","",""
"15083.100000143051","461976","pSARL_v2","pSARL_v28ahn14xz","631659ad8e5354f16aef7249","","","","","prac","","","","","",""
"570.7000000476837","462550","pSARL_v2","pSARL_v28ahn14xz","631659ad8e5354f16aef7249","rewardPractice","img/slot.png","74","","prac","","","","","",""
"null","463317","pSARL_v2","pSARL_v28ahn14xz","631659ad8e5354f16aef7249","feedback","<div class=""veryhighPoints""> +15 </div>","null","na","prac","","","","","",""
"null","463474","pSARL_v2","pSARL_v28ahn14xz","631659ad8e5354f16aef7249","fixation","img/fixation.png","null","","prac","","","","","",""
"5474.799999952316","468955","pSARL_v2","pSARL_v28ahn14xz","631659ad8e5354f16aef7249","","","","","prac","","","","","",""
"673.3999998569489","469635","pSARL_v2","pSARL_v28ahn14xz","631659ad8e5354f16aef7249","freq","img/green_2bandit_a2.png","68","70","test","0","1","1","1","",""
"null","469777","pSARL_v2","pSARL_v28ahn14xz","631659ad8e5354f16aef7249","freq_resp","img/green_2bandit_a.png","68","70","test","","","","1","",""
"null","469942","pSARL_v2","pSARL_v28ahn14xz","631659ad8e5354f16aef7249","fixation","img/fixation.png","null","","test","","","","","",""
"406.09999990463257","470355","pSARL_v2","pSARL_v28ahn14xz","631659ad8e5354f16aef7249","freq","img/green_2bandit_a2.png","68","70","test","0","2","2","1","",""
"null","470758","pSARL_v2","pSARL_v28ahn14xz","631659ad8e5354f16aef7249","freq_resp","img/green_2bandit_a.png","68","70","test","","","","1","",""
"null","470925","pSARL_v2","pSARL_v28ahn14xz","631659ad8e5354f16aef7249","fixation","img/fixation.png","null","","test","","","","","",""
"423","471355","pSARL_v2","pSARL_v28ahn14xz","631659ad8e5354f16aef7249","freq","img/green_2bandit_a2.png","68","70","test","0","3","3","1","",""
"null","471743","pSARL_v2","pSARL_v28ahn14xz","631659ad8e5354f16aef7249","freq_resp","img/green_2bandit_a.png","68","70","test","","","","1","",""
"null","471909","pSARL_v2","pSARL_v28ahn14xz","631659ad8e5354f16aef7249","fixation","img/fixation.png","null","","test","","","","","",""
"639.6000001430511","472554","pSARL_v2","pSARL_v28ahn14xz","631659ad8e5354f16aef7249","infreq","img/orange_2bandit_a2.png","70","68","test","0","4","4","1","",""
"null","472725","pSARL_v2","pSARL_v28ahn14xz","631659ad8e5354f16aef7249","infreq_resp","img/orange_2bandit_a.png","70","68","test","","","","1","",""
"null","472892","pSARL_v2","pSARL_v28ahn14xz","631659ad8e5354f16aef7249","fixation","img/fixation.png","null","","test","","","","","",""
"null","473714","pSARL_v2","pSARL_v28ahn14xz","631659ad8e5354f16aef7249","freq","img/green_2bandit_a2.png","null","70","test","0","5","5","1","",""
"null","473876","pSARL_v2","pSARL_v28ahn14xz","631659ad8e5354f16aef7249","fixation","img/fixation.png","null","","test","","","","","",""
"496.2000000476837","474379","pSARL_v2","pSARL_v28ahn14xz","631659ad8e5354f16aef7249","infreq","img/orange_2bandit_a2.png","70","68","test","0","6","6","1","",""
"null","474699","pSARL_v2","pSARL_v28ahn14xz","631659ad8e5354f16aef7249","infreq_resp","img/orange_2bandit_a.png","70","68","test","","","","1","",""
"null","474859","pSARL_v2","pSARL_v28ahn14xz","631659ad8e5354f16aef7249","fixation","img/fixation.png","null","","test","","","","","",""
"545.5","475411","pSARL_v2","pSARL_v28ahn14xz","631659ad8e5354f16aef7249","freq","img/green_2bandit_a2.png","68","70","test","0","7","7","1","",""
"null","475684","pSARL_v2","pSARL_v28ahn14xz","631659ad8e5354f16aef7249","freq_resp","img/green_2bandit_a.png","68","70","test","","","","1","",""
"null","475842","pSARL_v2","pSARL_v28ahn14xz","631659ad8e5354f16aef7249","fixation","img/fixation.png","null","","test","","","","","",""
"633.4000000953674","476480","pSARL_v2","pSARL_v28ahn14xz","631659ad8e5354f16aef7249","freq","img/green_2bandit_a2.png","70","70","test","1","8","8","1","",""
"null","476659","pSARL_v2","pSARL_v28ahn14xz","631659ad8e5354f16aef7249","freq_resp","img/green_2bandit_a.png","70","70","test","","","","1","",""
"null","476826","pSARL_v2","pSARL_v28ahn14xz","631659ad8e5354f16aef7249","fixation","img/fixation.png","null","","test","","","","","",""
"505.30000019073486","477337","pSARL_v2","pSARL_v28ahn14xz","631659ad8e5354f16aef7249","freq","img/green_2bandit_a2.png","70","70","test","1","9","9","1","",""
"null","477648","pSARL_v2","pSARL_v28ahn14xz","631659ad8e5354f16aef7249","freq_resp","img/green_2bandit_a.png","70","70","test","","","","1","",""
"null","477808","pSARL_v2","pSARL_v28ahn14xz","631659ad8e5354f16aef7249","fixation","img/fixation.png","null","","test","","","","","",""
"388","478202","pSARL_v2","pSARL_v28ahn14xz","631659ad8e5354f16aef7249","freq","img/green_2bandit_a2.png","70","70","test","1","10","10","1","",""
"null","478624","pSARL_v2","pSARL_v28ahn14xz","631659ad8e5354f16aef7249","freq_resp","img/green_2bandit_a.png","70","70","test","","","","1","",""
"null","478791","pSARL_v2","pSARL_v28ahn14xz","631659ad8e5354f16aef7249","fixation","img/fixation.png","null","","test","","","","","",""
"372.59999990463257","479171","pSARL_v2","pSARL_v28ahn14xz","631659ad8e5354f16aef7249","freq","img/green_2bandit_a2.png","70","70","test","1","11","11","1","",""
"null","479608","pSARL_v2","pSARL_v28ahn14xz","631659ad8e5354f16aef7249","freq_resp","img/green_2bandit_a.png","70","70","test","","","","1","",""
"null","479778","pSARL_v2","pSARL_v28ahn14xz","631659ad8e5354f16aef7249","fixation","img/fixation.png","null","","test","","","","","",""
"353.89999985694885","480139","pSARL_v2","pSARL_v28ahn14xz","631659ad8e5354f16aef7249","freq","img/green_2bandit_a2.png","70","70","test","1","12","12","1","",""
"null","480604","pSARL_v2","pSARL_v28ahn14xz","631659ad8e5354f16aef7249","freq_resp","img/green_2bandit_a.png","70","70","test","","","","1","",""
"null","480774","pSARL_v2","pSARL_v28ahn14xz","631659ad8e5354f16aef7249","fixation","img/fixation.png","null","","test","","","","","",""
"390","481170","pSARL_v2","pSARL_v28ahn14xz","631659ad8e5354f16aef7249","freq","img/green_2bandit_a2.png","70","70","test","1","13","13","1","",""
"null","481588","pSARL_v2","pSARL_v28ahn14xz","631659ad8e5354f16aef7249","freq_resp","img/green_2bandit_a.png","70","70","test","","","","1","",""
"null","481759","pSARL_v2","pSARL_v28ahn14xz","631659ad8e5354f16aef7249","fixation","img/fixation.png","null","","test","","","","","",""
"350","482115","pSARL_v2","pSARL_v28ahn14xz","631659ad8e5354f16aef7249","freq","img/green_2bandit_a2.png","70","70","test","1","14","14","1","",""
"null","482572","pSARL_v2","pSARL_v28ahn14xz","631659ad8e5354f16aef7249","freq_resp","img/green_2bandit_a.png","70","70","test","","","","1","",""
"null","482740","pSARL_v2","pSARL_v28ahn14xz","631659ad8e5354f16aef7249","fixation","img/fixation.png","null","","test","","","","","",""
"352","483099","pSARL_v2","pSARL_v28ahn14xz","631659ad8e5354f16aef7249","freq","img/green_2bandit_a2.png","70","70","test","1","15","15","1","",""
"null","483556","pSARL_v2","pSARL_v28ahn14xz","631659ad8e5354f16aef7249","freq_resp","img/green_2bandit_a.png","70","70","test","","","","1","",""
"null","483727","pSARL_v2","pSARL_v28ahn14xz","631659ad8e5354f16aef7249","fixation","img/fixation.png","null","","test","","","","","",""
"333","484064","pSARL_v2","pSARL_v28ahn14xz","631659ad8e5354f16aef7249","freq","img/green_2bandit_a2.png","70","70","test","1","16","16","1","",""
"null","484538","pSARL_v2","pSARL_v28ahn14xz","631659ad8e5354f16aef7249","freq_resp","img/green_2bandit_a.png","70","70","test","","","","1","",""
"null","484708","pSARL_v2","pSARL_v28ahn14xz","631659ad8e5354f16aef7249","fixation","img/fixation.png","null","","test","","","","","",""
"328","485043","pSARL_v2","pSARL_v28ahn14xz","631659ad8e5354f16aef7249","freq","img/green_2bandit_a2.png","70","70","test","1","17","17","1","",""
"null","485536","pSARL_v2","pSARL_v28ahn14xz","631659ad8e5354f16aef7249","freq_resp","img/green_2bandit_a.png","70","70","test","","","","1","",""
"null","485708","pSARL_v2","pSARL_v28ahn14xz","631659ad8e5354f16aef7249","fixation","img/fixation.png","null","","test","","","","","",""
"337.2000000476837","486052","pSARL_v2","pSARL_v28ahn14xz","631659ad8e5354f16aef7249","freq","img/green_2bandit_a2.png","70","70","test","1","18","18","1","",""
"null","486521","pSARL_v2","pSARL_v28ahn14xz","631659ad8e5354f16aef7249","freq_resp","img/green_2bandit_a.png","70","70","test","","","","1","",""
"null","486691","pSARL_v2","pSARL_v28ahn14xz","631659ad8e5354f16aef7249","fixation","img/fixation.png","null","","test","","","","","",""
"297","486995","pSARL_v2","pSARL_v28ahn14xz","631659ad8e5354f16aef7249","freq","img/green_2bandit_a2.png","70","70","test","1","19","19","1","",""
"null","487516","pSARL_v2","pSARL_v28ahn14xz","631659ad8e5354f16aef7249","freq_resp","img/green_2bandit_a.png","70","70","test","","","","1","",""
"null","487674","pSARL_v2","pSARL_v28ahn14xz","631659ad8e5354f16aef7249","fixation","img/fixation.png","null","","test","","","","","",""
"289.89999985694885","487971","pSARL_v2","pSARL_v28ahn14xz","631659ad8e5354f16aef7249","freq","img/green_2bandit_a2.png","70","70","test","1","20","20","1","",""
"null","488498","pSARL_v2","pSARL_v28ahn14xz","631659ad8e5354f16aef7249","freq_resp","img/green_2bandit_a.png","70","70","test","","","","1","",""
"null","488656","pSARL_v2","pSARL_v28ahn14xz","631659ad8e5354f16aef7249","fixation","img/fixation.png","null","","test","","","","","",""
"715.7000000476837","489376","pSARL_v2","pSARL_v28ahn14xz","631659ad8e5354f16aef7249","reward","img/slot.png","74","","test","","","","","",""
"null","490133","pSARL_v2","pSARL_v28ahn14xz","631659ad8e5354f16aef7249","points","<div class=""verylowPoints""> -6 </div>","null","na","test","","","","1","-6","0"
"567.5999999046326","490709","pSARL_v2","pSARL_v28ahn14xz","631659ad8e5354f16aef7249","freq","img/green_2bandit_a2.png","70","70","test","1","21","21","2","",""
"null","490953","pSARL_v2","pSARL_v28ahn14xz","631659ad8e5354f16aef7249","freq_resp","img/green_2bandit_a.png","70","70","test","","","","2","",""
"null","491109","pSARL_v2","pSARL_v28ahn14xz","631659ad8e5354f16aef7249","fixation","img/fixation.png","null","","test","","","","","",""
"334.89999985694885","491452","pSARL_v2","pSARL_v28ahn14xz","631659ad8e5354f16aef7249","freq","img/green_2bandit_a2.png","70","70","test","1","22","22","2","",""
"null","491935","pSARL_v2","pSARL_v28ahn14xz","631659ad8e5354f16aef7249","freq_resp","img/green_2bandit_a.png","70","70","test","","","","2","",""
"null","492092","pSARL_v2","pSARL_v28ahn14xz","631659ad8e5354f16aef7249","fixation","img/fixation.png","null","","test","","","","","",""
"240.29999995231628","492338","pSARL_v2","pSARL_v28ahn14xz","631659ad8e5354f16aef7249","freq","img/green_2bandit_a2.png","70","70","test","1","23","23","2","",""
"null","492912","pSARL_v2","pSARL_v28ahn14xz","631659ad8e5354f16aef7249","freq_resp","img/green_2bandit_a.png","70","70","test","","","","2","",""
"null","493073","pSARL_v2","pSARL_v28ahn14xz","631659ad8e5354f16aef7249","fixation","img/fixation.png","null","","test","","","","","",""
"418.90000009536743","493498","pSARL_v2","pSARL_v28ahn14xz","631659ad8e5354f16aef7249","freq","img/green_2bandit_a2.png","70","70","test","1","24","24","2","",""
"null","493892","pSARL_v2","pSARL_v28ahn14xz","631659ad8e5354f16aef7249","freq_resp","img/green_2bandit_a.png","70","70","test","","","","2","",""
"null","494059","pSARL_v2","pSARL_v28ahn14xz","631659ad8e5354f16aef7249","fixation","img/fixation.png","null","","test","","","","","",""
"489.19999980926514","494555","pSARL_v2","pSARL_v28ahn14xz","631659ad8e5354f16aef7249","freq","img/green_2bandit_a2.png","70","70","test","1","25","25","2","",""
"null","494881","pSARL_v2","pSARL_v28ahn14xz","631659ad8e5354f16aef7249","freq_resp","img/green_2bandit_a.png","70","70","test","","","","2","",""
"null","495042","pSARL_v2","pSARL_v28ahn14xz","631659ad8e5354f16aef7249","fixation","img/fixation.png","null","","test","","","","","",""
"387","495434","pSARL_v2","pSARL_v28ahn14xz","631659ad8e5354f16aef7249","freq","img/green_2bandit_a2.png","70","70","test","1","26","26","2","",""
"null","495857","pSARL_v2","pSARL_v28ahn14xz","631659ad8e5354f16aef7249","freq_resp","img/green_2bandit_a.png","70","70","test","","","","2","",""
"null","496024","pSARL_v2","pSARL_v28ahn14xz","631659ad8e5354f16aef7249","fixation","img/fixation.png","null","","test","","","","","",""
"403.5","496434","pSARL_v2","pSARL_v28ahn14xz","631659ad8e5354f16aef7249","freq","img/green_2bandit_a2.png","70","70","test","1","27","27","2","",""
"null","496842","pSARL_v2","pSARL_v28ahn14xz","631659ad8e5354f16aef7249","freq_resp","img/green_2bandit_a.png","70","70","test","","","","2","",""
"null","497009","pSARL_v2","pSARL_v28ahn14xz","631659ad8e5354f16aef7249","fixation","img/fixation.png","null","","test","","","","","",""
"419.7000000476837","497434","pSARL_v2","pSARL_v28ahn14xz","631659ad8e5354f16aef7249","freq","img/green_2bandit_a2.png","70","70","test","1","28","28","2","",""
"null","497827","pSARL_v2","pSARL_v28ahn14xz","631659ad8e5354f16aef7249","freq_resp","img/green_2bandit_a.png","70","70","test","","","","2","",""
"null","497992","pSARL_v2","pSARL_v28ahn14xz","631659ad8e5354f16aef7249","fixation","img/fixation.png","null","","test","","","","","",""
"419.09999990463257","498419","pSARL_v2","pSARL_v28ahn14xz","631659ad8e5354f16aef7249","freq","img/green_2bandit_a2.png","70","70","test","1","29","29","2","",""
"null","498810","pSARL_v2","pSARL_v28ahn14xz","631659ad8e5354f16aef7249","freq_resp","img/green_2bandit_a.png","70","70","test","","","","2","",""
"null","498976","pSARL_v2","pSARL_v28ahn14xz","631659ad8e5354f16aef7249","fixation","img/fixation.png","null","","test","","","","","",""
"355.2999999523163","499336","pSARL_v2","pSARL_v28ahn14xz","631659ad8e5354f16aef7249","freq","img/green_2bandit_a2.png","70","70","test","1","30","30","2","",""
"null","499788","pSARL_v2","pSARL_v28ahn14xz","631659ad8e5354f16aef7249","freq_resp","img/green_2bandit_a.png","70","70","test","","","","2","",""
"null","499958","pSARL_v2","pSARL_v28ahn14xz","631659ad8e5354f16aef7249","fixation","img/fixation.png","null","","test","","","","","",""
"430.60000014305115","500395","pSARL_v2","pSARL_v28ahn14xz","631659ad8e5354f16aef7249","infreq","img/orange_2bandit_a2.png","68","68","test","1","31","31","2","",""
"null","500777","pSARL_v2","pSARL_v28ahn14xz","631659ad8e5354f16aef7249","infreq_resp","img/orange_2bandit_a.png","68","68","test","","","","2","",""
"null","500943","pSARL_v2","pSARL_v28ahn14xz","631659ad8e5354f16aef7249","fixation","img/fixation.png","null","","test","","","","","",""
"404.90000009536743","501351","pSARL_v2","pSARL_v28ahn14xz","631659ad8e5354f16aef7249","freq","img/green_2bandit_a2.png","70","70","test","1","32","32","2","",""
"null","501755","pSARL_v2","pSARL_v28ahn14xz","631659ad8e5354f16aef7249","freq_resp","img/green_2bandit_a.png","70","70","test","","","","2","",""
"null","501924","pSARL_v2","pSARL_v28ahn14xz","631659ad8e5354f16aef7249","fixation","img/fixation.png","null","","test","","","","","",""
"320.7000000476837","502250","pSARL_v2","pSARL_v28ahn14xz","631659ad8e5354f16aef7249","freq","img/green_2bandit_a2.png","70","70","test","1","33","33","2","",""
"null","502734","pSARL_v2","pSARL_v28ahn14xz","631659ad8e5354f16aef7249","freq_resp","img/green_2bandit_a.png","70","70","test","","","","2","",""
"null","502892","pSARL_v2","pSARL_v28ahn14xz","631659ad8e5354f16aef7249","fixation","img/fixation.png","null","","test","","","","","",""
"272","503170","pSARL_v2","pSARL_v28ahn14xz","631659ad8e5354f16aef7249","freq","img/green_2bandit_a2.png","70","70","test","1","34","34","2","",""
"null","503716","pSARL_v2","pSARL_v28ahn14xz","631659ad8e5354f16aef7249","freq_resp","img/green_2bandit_a.png","70","70","test","","","","2","",""
"null","503875","pSARL_v2","pSARL_v28ahn14xz","631659ad8e5354f16aef7249","fixation","img/fixation.png","null","","test","","","","","",""
"328.90000009536743","504210","pSARL_v2","pSARL_v28ahn14xz","631659ad8e5354f16aef7249","freq","img/green_2bandit_a2.png","70","70","test","1","35","35","2","",""
"null","504687","pSARL_v2","pSARL_v28ahn14xz","631659ad8e5354f16aef7249","freq_resp","img/green_2bandit_a.png","70","70","test","","","","2","",""
"null","504860","pSARL_v2","pSARL_v28ahn14xz","631659ad8e5354f16aef7249","fixation","img/fixation.png","null","","test","","","","","",""
"336","505204","pSARL_v2","pSARL_v28ahn14xz","631659ad8e5354f16aef7249","freq","img/green_2bandit_a2.png","70","70","test","1","36","36","2","",""
"null","505686","pSARL_v2","pSARL_v28ahn14xz","631659ad8e5354f16aef7249","freq_resp","img/green_2bandit_a.png","70","70","test","","","","2","",""
"null","505857","pSARL_v2","pSARL_v28ahn14xz","631659ad8e5354f16aef7249","fixation","img/fixation.png","null","","test","","","","","",""
"275.5","506138","pSARL_v2","pSARL_v28ahn14xz","631659ad8e5354f16aef7249","freq","img/green_2bandit_a2.png","70","70","test","1","37","37","2","",""
"null","506682","pSARL_v2","pSARL_v28ahn14xz","631659ad8e5354f16aef7249","freq_resp","img/green_2bandit_a.png","70","70","test","","","","2","",""
"null","506840","pSARL_v2","pSARL_v28ahn14xz","631659ad8e5354f16aef7249","fixation","img/fixation.png","null","","test","","","","","",""
"347.5","507194","pSARL_v2","pSARL_v28ahn14xz","631659ad8e5354f16aef7249","freq","img/green_2bandit_a2.png","70","70","test","1","38","38","2","",""
"null","507653","pSARL_v2","pSARL_v28ahn14xz","631659ad8e5354f16aef7249","freq_resp","img/green_2bandit_a.png","70","70","test","","","","2","",""
"null","507821","pSARL_v2","pSARL_v28ahn14xz","631659ad8e5354f16aef7249","fixation","img/fixation.png","null","","test","","","","","",""
"335.2999999523163","508163","pSARL_v2","pSARL_v28ahn14xz","631659ad8e5354f16aef7249","freq","img/green_2bandit_a2.png","70","70","test","1","39","39","2","",""
"null","508639","pSARL_v2","pSARL_v28ahn14xz","631659ad8e5354f16aef7249","freq_resp","img/green_2bandit_a.png","70","70","test","","","","2","",""
"null","508806","pSARL_v2","pSARL_v28ahn14xz","631659ad8e5354f16aef7249","fixation","img/fixation.png","null","","test","","","","","",""
"302.2999999523163","509115","pSARL_v2","pSARL_v28ahn14xz","631659ad8e5354f16aef7249","freq","img/green_2bandit_a2.png","70","70","test","1","40","40","2","",""
"null","509620","pSARL_v2","pSARL_v28ahn14xz","631659ad8e5354f16aef7249","freq_resp","img/green_2bandit_a.png","70","70","test","","","","2","",""
"null","509791","pSARL_v2","pSARL_v28ahn14xz","631659ad8e5354f16aef7249","fixation","img/fixation.png","null","","test","","","","","",""
"405.60000014305115","510202","pSARL_v2","pSARL_v28ahn14xz","631659ad8e5354f16aef7249","infreq","img/orange_2bandit_a2.png","68","68","test","1","41","41","2","",""
"null","510606","pSARL_v2","pSARL_v28ahn14xz","631659ad8e5354f16aef7249","infreq_resp","img/orange_2bandit_a.png","68","68","test","","","","2","",""
"null","510774","pSARL_v2","pSARL_v28ahn14xz","631659ad8e5354f16aef7249","fixation","img/fixation.png","null","","test","","","","","",""
"398.39999985694885","511179","pSARL_v2","pSARL_v28ahn14xz","631659ad8e5354f16aef7249","freq","img/green_2bandit_a2.png","70","70","test","1","42","42","2","",""
"null","511592","pSARL_v2","pSARL_v28ahn14xz","631659ad8e5354f16aef7249","freq_resp","img/green_2bandit_a.png","70","70","test","","","","2","",""
"null","511759","pSARL_v2","pSARL_v28ahn14xz","631659ad8e5354f16aef7249","fixation","img/fixation.png","null","","test","","","","","",""
"541.7999999523163","512306","pSARL_v2","pSARL_v28ahn14xz","631659ad8e5354f16aef7249","reward","img/slot.png","74","","test","","","","","",""
"null","513068","pSARL_v2","pSARL_v28ahn14xz","631659ad8e5354f16aef7249","points","<div class=""verylowPoints""> -11 </div>","null","na","test","","","","2","-11","1"
"440.2000000476837","513516","pSARL_v2","pSARL_v28ahn14xz","631659ad8e5354f16aef7249","freq","img/green_2bandit_a2.png","70","70","test","1","43","43","3","",""
"null","513894","pSARL_v2","pSARL_v28ahn14xz","631659ad8e5354f16aef7249","freq_resp","img/green_2bandit_a.png","70","70","test","","","","3","",""
"null","514059","pSARL_v2","pSARL_v28ahn14xz","631659ad8e5354f16aef7249","fixation","img/fixation.png","null","","test","","","","","",""
"281.7000000476837","514346","pSARL_v2","pSARL_v28ahn14xz","631659ad8e5354f16aef7249","freq","img/green_2bandit_a2.png","70","70","test","1","44","44","3","",""
"null","514881","pSARL_v2","pSARL_v28ahn14xz","631659ad8e5354f16aef7249","freq_resp","img/green_2bandit_a.png","70","70","test","","","","3","",""
"null","515042","pSARL_v2","pSARL_v28ahn14xz","631659ad8e5354f16aef7249","fixation","img/fixation.png","null","","test","","","","","",""
"66.19999980926514","515112","pSARL_v2","pSARL_v28ahn14xz","631659ad8e5354f16aef7249","freq","img/green_2bandit_a2.png","70","70","test","1","45","45","3","",""
"null","515854","pSARL_v2","pSARL_v28ahn14xz","631659ad8e5354f16aef7249","freq_resp","img/green_2bandit_a.png","70","70","test","","","","3","",""
"null","516024","pSARL_v2","pSARL_v28ahn14xz","631659ad8e5354f16aef7249","fixation","img/fixation.png","null","","test","","","","","",""
"116.89999985694885","516145","pSARL_v2","pSARL_v28ahn14xz","631659ad8e5354f16aef7249","freq","img/green_2bandit_a2.png","70","70","test","1","46","46","3","",""
"null","516840","pSARL_v2","pSARL_v28ahn14xz","631659ad8e5354f16aef7249","freq_resp","img/green_2bandit_a.png","70","70","test","","","","3","",""
"null","517007","pSARL_v2","pSARL_v28ahn14xz","631659ad8e5354f16aef7249","fixation","img/fixation.png","null","","test","","","","","",""
"245.09999990463257","517259","pSARL_v2","pSARL_v28ahn14xz","631659ad8e5354f16aef7249","freq","img/green_2bandit_a2.png","70","70","test","1","47","47","3","",""
"null","517831","pSARL_v2","pSARL_v28ahn14xz","631659ad8e5354f16aef7249","freq_resp","img/green_2bandit_a.png","70","70","test","","","","3","",""
"null","517991","pSARL_v2","pSARL_v28ahn14xz","631659ad8e5354f16aef7249","fixation","img/fixation.png","null","","test","","","","","",""
"147.70000004768372","518146","pSARL_v2","pSARL_v28ahn14xz","631659ad8e5354f16aef7249","freq","img/green_2bandit_a2.png","70","70","test","1","48","48","3","",""
"null","518809","pSARL_v2","pSARL_v28ahn14xz","631659ad8e5354f16aef7249","freq_resp","img/green_2bandit_a.png","70","70","test","","","","3","",""
"null","518975","pSARL_v2","pSARL_v28ahn14xz","631659ad8e5354f16aef7249","fixation","img/fixation.png","null","","test","","","","","",""
"125.39999985694885","519106","pSARL_v2","pSARL_v28ahn14xz","631659ad8e5354f16aef7249","infreq","img/orange_2bandit_a2.png","70","68","test","0","49","49","3","",""
"null","519789","pSARL_v2","pSARL_v28ahn14xz","631659ad8e5354f16aef7249","infreq_resp","img/orange_2bandit_a.png","70","68","test","","","","3","",""
"null","519958","pSARL_v2","pSARL_v28ahn14xz","631659ad8e5354f16aef7249","fixation","img/fixation.png","null","","test","","","","","",""
"454.7999999523163","520418","pSARL_v2","pSARL_v28ahn14xz","631659ad8e5354f16aef7249","freq","img/green_2bandit_a2.png","70","70","test","1","50","50","3","",""
"null","520777","pSARL_v2","pSARL_v28ahn14xz","631659ad8e5354f16aef7249","freq_resp","img/green_2bandit_a.png","70","70","test","","","","3","",""
"null","520942","pSARL_v2","pSARL_v28ahn14xz","631659ad8e5354f16aef7249","fixation","img/fixation.png","null","","test","","","","","",""
"350.2000000476837","521299","pSARL_v2","pSARL_v28ahn14xz","631659ad8e5354f16aef7249","freq","img/green_2bandit_a2.png","70","70","test","1","51","51","3","",""
"null","521755","pSARL_v2","pSARL_v28ahn14xz","631659ad8e5354f16aef7249","freq_resp","img/green_2bandit_a.png","70","70","test","","","","3","",""
"null","521923","pSARL_v2","pSARL_v28ahn14xz","631659ad8e5354f16aef7249","fixation","img/fixation.png","null","","test","","","","","",""
"336.40000009536743","522263","pSARL_v2","pSARL_v28ahn14xz","631659ad8e5354f16aef7249","freq","img/green_2bandit_a2.png","70","70","test","1","52","52","3","",""
"null","522736","pSARL_v2","pSARL_v28ahn14xz","631659ad8e5354f16aef7249","freq_resp","img/green_2bandit_a.png","70","70","test","","","","3","",""
"null","522908","pSARL_v2","pSARL_v28ahn14xz","631659ad8e5354f16aef7249","fixation","img/fixation.png","null","","test","","","","","",""
"279.09999990463257","523190","pSARL_v2","pSARL_v28ahn14xz","631659ad8e5354f16aef7249","freq","img/green_2bandit_a2.png","70","70","test","1","53","53","3","",""
"null","523733","pSARL_v2","pSARL_v28ahn14xz","631659ad8e5354f16aef7249","freq_resp","img/green_2bandit_a.png","70","70","test","","","","3","",""
"null","523892","pSARL_v2","pSARL_v28ahn14xz","631659ad8e5354f16aef7249","fixation","img/fixation.png","null","","test","","","","","",""
"279.2000000476837","524175","pSARL_v2","pSARL_v28ahn14xz","631659ad8e5354f16aef7249","freq","img/green_2bandit_a2.png","70","70","test","1","54","54","3","",""
"null","524701","pSARL_v2","pSARL_v28ahn14xz","631659ad8e5354f16aef7249","freq_resp","img/green_2bandit_a.png","70","70","test","","","","3","",""
"null","524855","pSARL_v2","pSARL_v28ahn14xz","631659ad8e5354f16aef7249","fixation","img/fixation.png","null","","test","","","","","",""
"300.7999999523163","525162","pSARL_v2","pSARL_v28ahn14xz","631659ad8e5354f16aef7249","infreq","img/orange_2bandit_a2.png","70","68","test","0","55","55","3","",""
"null","525669","pSARL_v2","pSARL_v28ahn14xz","631659ad8e5354f16aef7249","infreq_resp","img/orange_2bandit_a.png","70","68","test","","","","3","",""
"null","525840","pSARL_v2","pSARL_v28ahn14xz","631659ad8e5354f16aef7249","fixation","img/fixation.png","null","","test","","","","","",""
"466.5","526314","pSARL_v2","pSARL_v28ahn14xz","631659ad8e5354f16aef7249","freq","img/green_2bandit_a2.png","70","70","test","1","56","56","3","",""
"null","526662","pSARL_v2","pSARL_v28ahn14xz","631659ad8e5354f16aef7249","freq_resp","img/green_2bandit_a.png","70","70","test","","","","3","",""
"null","526825","pSARL_v2","pSARL_v28ahn14xz","631659ad8e5354f16aef7249","fixation","img/fixation.png","null","","test","","","","","",""
"353.7999999523163","527186","pSARL_v2","pSARL_v28ahn14xz","631659ad8e5354f16aef7249","freq","img/green_2bandit_a2.png","70","70","test","1","57","57","3","",""
"null","527653","pSARL_v2","pSARL_v28ahn14xz","631659ad8e5354f16aef7249","freq_resp","img/green_2bandit_a.png","70","70","test","","","","3","",""
"null","527824","pSARL_v2","pSARL_v28ahn14xz","631659ad8e5354f16aef7249","fixation","img/fixation.png","null","","test","","","","","",""
"354.40000009536743","528185","pSARL_v2","pSARL_v28ahn14xz","631659ad8e5354f16aef7249","freq","img/green_2bandit_a2.png","70","70","test","1","58","58","3","",""
"null","528639","pSARL_v2","pSARL_v28ahn14xz","631659ad8e5354f16aef7249","freq_resp","img/green_2bandit_a.png","70","70","test","","","","3","",""
"null","528806","pSARL_v2","pSARL_v28ahn14xz","631659ad8e5354f16aef7249","fixation","img/fixation.png","null","","test","","","","","",""
"380.2000000476837","529191","pSARL_v2","pSARL_v28ahn14xz","631659ad8e5354f16aef7249","freq","img/green_2bandit_a2.png","70","70","test","1","59","59","3","",""
"null","529625","pSARL_v2","pSARL_v28ahn14xz","631659ad8e5354f16aef7249","freq_resp","img/green_2bandit_a.png","70","70","test","","","","3","",""
"null","529788","pSARL_v2","pSARL_v28ahn14xz","631659ad8e5354f16aef7249","fixation","img/fixation.png","null","","test","","","","","",""
"366.7999999523163","530158","pSARL_v2","pSARL_v28ahn14xz","631659ad8e5354f16aef7249","freq","img/green_2bandit_a2.png","70","70","test","1","60","60","3","",""
"null","530606","pSARL_v2","pSARL_v28ahn14xz","631659ad8e5354f16aef7249","freq_resp","img/green_2bandit_a.png","70","70","test","","","","3","",""
"null","530775","pSARL_v2","pSARL_v28ahn14xz","631659ad8e5354f16aef7249","fixation","img/fixation.png","null","","test","","","","","",""
"396.89999985694885","531178","pSARL_v2","pSARL_v28ahn14xz","631659ad8e5354f16aef7249","freq","img/green_2bandit_a2.png","70","70","test","1","61","61","3","",""
"null","531591","pSARL_v2","pSARL_v28ahn14xz","631659ad8e5354f16aef7249","freq_resp","img/green_2bandit_a.png","70","70","test","","","","3","",""
"null","531758","pSARL_v2","pSARL_v28ahn14xz","631659ad8e5354f16aef7249","fixation","img/fixation.png","null","","test","","","","","",""
"349.40000009536743","532110","pSARL_v2","pSARL_v28ahn14xz","631659ad8e5354f16aef7249","freq","img/green_2bandit_a2.png","70","70","test","1","62","62","3","",""
"null","532572","pSARL_v2","pSARL_v28ahn14xz","631659ad8e5354f16aef7249","freq_resp","img/green_2bandit_a.png","70","70","test","","","","3","",""
"null","532740","pSARL_v2","pSARL_v28ahn14xz","631659ad8e5354f16aef7249","fixation","img/fixation.png","null","","test","","","","","",""
"334.60000014305115","533079","pSARL_v2","pSARL_v28ahn14xz","631659ad8e5354f16aef7249","freq","img/green_2bandit_a2.png","70","70","test","1","63","63","3","",""
"null","533551","pSARL_v2","pSARL_v28ahn14xz","631659ad8e5354f16aef7249","freq_resp","img/green_2bandit_a.png","70","70","test","","","","3","",""
"null","533708","pSARL_v2","pSARL_v28ahn14xz","631659ad8e5354f16aef7249","fixation","img/fixation.png","null","","test","","","","","",""
"367.7999999523163","534081","pSARL_v2","pSARL_v28ahn14xz","631659ad8e5354f16aef7249","freq","img/green_2bandit_a2.png","70","70","test","1","64","64","3","",""
"null","534522","pSARL_v2","pSARL_v28ahn14xz","631659ad8e5354f16aef7249","freq_resp","img/green_2bandit_a.png","70","70","test","","","","3","",""
"null","534690","pSARL_v2","pSARL_v28ahn14xz","631659ad8e5354f16aef7249","fixation","img/fixation.png","null","","test","","","","","",""
"610","535305","pSARL_v2","pSARL_v28ahn14xz","631659ad8e5354f16aef7249","reward","img/slot.png","74","","test","","","","","",""
"null","536063","pSARL_v2","pSARL_v28ahn14xz","631659ad8e5354f16aef7249","points","<div class=""verylowPoints""> -7 </div>","null","na","test","","","","3","-7","2"
"723.5","536791","pSARL_v2","pSARL_v28ahn14xz","631659ad8e5354f16aef7249","freq","img/green_2bandit_a2.png","70","70","test","1","65","65","4","",""
"null","536873","pSARL_v2","pSARL_v28ahn14xz","631659ad8e5354f16aef7249","freq_resp","img/green_2bandit_a.png","70","70","test","","","","4","",""
"null","537040","pSARL_v2","pSARL_v28ahn14xz","631659ad8e5354f16aef7249","fixation","img/fixation.png","null","","test","","","","","",""
"363.2999999523163","537406","pSARL_v2","pSARL_v28ahn14xz","631659ad8e5354f16aef7249","freq","img/green_2bandit_a2.png","70","70","test","1","66","66","4","",""
"null","537855","pSARL_v2","pSARL_v28ahn14xz","631659ad8e5354f16aef7249","freq_resp","img/green_2bandit_a.png","70","70","test","","","","4","",""
"null","538024","pSARL_v2","pSARL_v28ahn14xz","631659ad8e5354f16aef7249","fixation","img/fixation.png","null","","test","","","","","",""
"323","538354","pSARL_v2","pSARL_v28ahn14xz","631659ad8e5354f16aef7249","freq","img/green_2bandit_a2.png","70","70","test","1","67","67","4","",""
"null","538851","pSARL_v2","pSARL_v28ahn14xz","631659ad8e5354f16aef7249","freq_resp","img/green_2bandit_a.png","70","70","test","","","","4","",""
"null","539009","pSARL_v2","pSARL_v28ahn14xz","631659ad8e5354f16aef7249","fixation","img/fixation.png","null","","test","","","","","",""
"321.2999999523163","539335","pSARL_v2","pSARL_v28ahn14xz","631659ad8e5354f16aef7249","freq","img/green_2bandit_a2.png","70","70","test","1","68","68","4","",""
"null","539836","pSARL_v2","pSARL_v28ahn14xz","631659ad8e5354f16aef7249","freq_resp","img/green_2bandit_a.png","70","70","test","","","","4","",""
"null","540007","pSARL_v2","pSARL_v28ahn14xz","631659ad8e5354f16aef7249","fixation","img/fixation.png","null","","test","","","","","",""
"340.7000000476837","540355","pSARL_v2","pSARL_v28ahn14xz","631659ad8e5354f16aef7249","freq","img/green_2bandit_a2.png","70","70","test","1","69","69","4","",""
"null","540820","pSARL_v2","pSARL_v28ahn14xz","631659ad8e5354f16aef7249","freq_resp","img/green_2bandit_a.png","70","70","test","","","","4","",""
"null","540990","pSARL_v2","pSARL_v28ahn14xz","631659ad8e5354f16aef7249","fixation","img/fixation.png","null","","test","","","","","",""
"364.5","541359","pSARL_v2","pSARL_v28ahn14xz","631659ad8e5354f16aef7249","freq","img/green_2bandit_a2.png","70","70","test","1","70","70","4","",""
"null","541805","pSARL_v2","pSARL_v28ahn14xz","631659ad8e5354f16aef7249","freq_resp","img/green_2bandit_a.png","70","70","test","","","","4","",""
"null","541973","pSARL_v2","pSARL_v28ahn14xz","631659ad8e5354f16aef7249","fixation","img/fixation.png","null","","test","","","","","",""
"374.60000014305115","542354","pSARL_v2","pSARL_v28ahn14xz","631659ad8e5354f16aef7249","freq","img/green_2bandit_a2.png","70","70","test","1","71","71","4","",""
"null","542789","pSARL_v2","pSARL_v28ahn14xz","631659ad8e5354f16aef7249","freq_resp","img/green_2bandit_a.png","70","70","test","","","","4","",""
"null","542958","pSARL_v2","pSARL_v28ahn14xz","631659ad8e5354f16aef7249","fixation","img/fixation.png","null","","test","","","","","",""
"333.40000009536743","543298","pSARL_v2","pSARL_v28ahn14xz","631659ad8e5354f16aef7249","freq","img/green_2bandit_a2.png","70","70","test","1","72","72","4","",""
"null","543770","pSARL_v2","pSARL_v28ahn14xz","631659ad8e5354f16aef7249","freq_resp","img/green_2bandit_a.png","70","70","test","","","","4","",""
"null","543940","pSARL_v2","pSARL_v28ahn14xz","631659ad8e5354f16aef7249","fixation","img/fixation.png","null","","test","","","","","",""
"294.09999990463257","544238","pSARL_v2","pSARL_v28ahn14xz","631659ad8e5354f16aef7249","freq","img/green_2bandit_a2.png","70","70","test","1","73","73","4","",""
"null","544748","pSARL_v2","pSARL_v28ahn14xz","631659ad8e5354f16aef7249","freq_resp","img/green_2bandit_a.png","70","70","test","","","","4","",""
"null","544908","pSARL_v2","pSARL_v28ahn14xz","631659ad8e5354f16aef7249","fixation","img/fixation.png","null","","test","","","","","",""
"415.7999999523163","545329","pSARL_v2","pSARL_v28ahn14xz","631659ad8e5354f16aef7249","freq","img/green_2bandit_a2.png","70","70","test","1","74","74","4","",""
"null","545725","pSARL_v2","pSARL_v28ahn14xz","631659ad8e5354f16aef7249","freq_resp","img/green_2bandit_a.png","70","70","test","","","","4","",""
"null","545891","pSARL_v2","pSARL_v28ahn14xz","631659ad8e5354f16aef7249","fixation","img/fixation.png","null","","test","","","","","",""
"464.10000014305115","546362","pSARL_v2","pSARL_v28ahn14xz","631659ad8e5354f16aef7249","infreq","img/orange_2bandit_a2.png","68","68","test","1","75","75","4","",""
"null","546713","pSARL_v2","pSARL_v28ahn14xz","631659ad8e5354f16aef7249","infreq_resp","img/orange_2bandit_a.png","68","68","test","","","","4","",""
"null","546876","pSARL_v2","pSARL_v28ahn14xz","631659ad8e5354f16aef7249","fixation","img/fixation.png","null","","test","","","","","",""
"495.90000009536743","547377","pSARL_v2","pSARL_v28ahn14xz","631659ad8e5354f16aef7249","freq","img/green_2bandit_a2.png","70","70","test","1","76","76","4","",""
"null","547698","pSARL_v2","pSARL_v28ahn14xz","631659ad8e5354f16aef7249","freq_resp","img/green_2bandit_a.png","70","70","test","","","","4","",""
"null","547858","pSARL_v2","pSARL_v28ahn14xz","631659ad8e5354f16aef7249","fixation","img/fixation.png","null","","test","","","","","",""
"345.2000000476837","548206","pSARL_v2","pSARL_v28ahn14xz","631659ad8e5354f16aef7249","freq","img/green_2bandit_a2.png","70","70","test","1","77","77","4","",""
"null","548668","pSARL_v2","pSARL_v28ahn14xz","631659ad8e5354f16aef7249","freq_resp","img/green_2bandit_a.png","70","70","test","","","","4","",""
"null","548840","pSARL_v2","pSARL_v28ahn14xz","631659ad8e5354f16aef7249","fixation","img/fixation.png","null","","test","","","","","",""
"323","549169","pSARL_v2","pSARL_v28ahn14xz","631659ad8e5354f16aef7249","freq","img/green_2bandit_a2.png","70","70","test","1","78","78","4","",""
"null","549665","pSARL_v2","pSARL_v28ahn14xz","631659ad8e5354f16aef7249","freq_resp","img/green_2bandit_a.png","70","70","test","","","","4","",""
"null","549822","pSARL_v2","pSARL_v28ahn14xz","631659ad8e5354f16aef7249","fixation","img/fixation.png","null","","test","","","","","",""
"316.7999999523163","550142","pSARL_v2","pSARL_v28ahn14xz","631659ad8e5354f16aef7249","infreq","img/orange_2bandit_a2.png","70","68","test","0","79","79","4","",""
"null","550632","pSARL_v2","pSARL_v28ahn14xz","631659ad8e5354f16aef7249","infreq_resp","img/orange_2bandit_a.png","70","68","test","","","","4","",""
"null","550789","pSARL_v2","pSARL_v28ahn14xz","631659ad8e5354f16aef7249","fixation","img/fixation.png","null","","test","","","","","",""
"374.2999999523163","551168","pSARL_v2","pSARL_v28ahn14xz","631659ad8e5354f16aef7249","freq","img/green_2bandit_a2.png","70","70","test","1","80","80","4","",""
"null","551603","pSARL_v2","pSARL_v28ahn14xz","631659ad8e5354f16aef7249","freq_resp","img/green_2bandit_a.png","70","70","test","","","","4","",""
"null","551774","pSARL_v2","pSARL_v28ahn14xz","631659ad8e5354f16aef7249","fixation","img/fixation.png","null","","test","","","","","",""
"333","552110","pSARL_v2","pSARL_v28ahn14xz","631659ad8e5354f16aef7249","freq","img/green_2bandit_a2.png","70","70","test","1","81","81","4","",""
"null","552585","pSARL_v2","pSARL_v28ahn14xz","631659ad8e5354f16aef7249","freq_resp","img/green_2bandit_a.png","70","70","test","","","","4","",""
"null","552738","pSARL_v2","pSARL_v28ahn14xz","631659ad8e5354f16aef7249","fixation","img/fixation.png","null","","test","","","","","",""
"304.7999999523163","553049","pSARL_v2","pSARL_v28ahn14xz","631659ad8e5354f16aef7249","freq","img/green_2bandit_a2.png","70","70","test","1","82","82","4","",""
"null","553550","pSARL_v2","pSARL_v28ahn14xz","631659ad8e5354f16aef7249","freq_resp","img/green_2bandit_a.png","70","70","test","","","","4","",""
"null","553710","pSARL_v2","pSARL_v28ahn14xz","631659ad8e5354f16aef7249","fixation","img/fixation.png","null","","test","","","","","",""
"308.2999999523163","554026","pSARL_v2","pSARL_v28ahn14xz","631659ad8e5354f16aef7249","freq","img/green_2bandit_a2.png","70","70","test","1","83","83","4","",""
"null","554534","pSARL_v2","pSARL_v28ahn14xz","631659ad8e5354f16aef7249","freq_resp","img/green_2bandit_a.png","70","70","test","","","","4","",""
"null","554688","pSARL_v2","pSARL_v28ahn14xz","631659ad8e5354f16aef7249","fixation","img/fixation.png","null","","test","","","","","",""
"379.5","555074","pSARL_v2","pSARL_v28ahn14xz","631659ad8e5354f16aef7249","freq","img/green_2bandit_a2.png","70","70","test","1","84","84","4","",""
"null","555506","pSARL_v2","pSARL_v28ahn14xz","631659ad8e5354f16aef7249","freq_resp","img/green_2bandit_a.png","70","70","test","","","","4","",""
"null","555673","pSARL_v2","pSARL_v28ahn14xz","631659ad8e5354f16aef7249","fixation","img/fixation.png","null","","test","","","","","",""
"330.7000000476837","556010","pSARL_v2","pSARL_v28ahn14xz","631659ad8e5354f16aef7249","freq","img/green_2bandit_a2.png","70","70","test","1","85","85","4","",""
"null","556487","pSARL_v2","pSARL_v28ahn14xz","631659ad8e5354f16aef7249","freq_resp","img/green_2bandit_a.png","70","70","test","","","","4","",""
"null","556659","pSARL_v2","pSARL_v28ahn14xz","631659ad8e5354f16aef7249","fixation","img/fixation.png","null","","test","","","","","",""
"375.2999999523163","557042","pSARL_v2","pSARL_v28ahn14xz","631659ad8e5354f16aef7249","freq","img/green_2bandit_a2.png","70","70","test","1","86","86","4","",""
"null","557473","pSARL_v2","pSARL_v28ahn14xz","631659ad8e5354f16aef7249","freq_resp","img/green_2bandit_a.png","70","70","test","","","","4","",""
"null","557641","pSARL_v2","pSARL_v28ahn14xz","631659ad8e5354f16aef7249","fixation","img/fixation.png","null","","test","","","","","",""
"371","558019","pSARL_v2","pSARL_v28ahn14xz","631659ad8e5354f16aef7249","freq","img/green_2bandit_a2.png","70","70","test","1","87","87","4","",""
"null","558456","pSARL_v2","pSARL_v28ahn14xz","631659ad8e5354f16aef7249","freq_resp","img/green_2bandit_a.png","70","70","test","","","","4","",""
"null","558623","pSARL_v2","pSARL_v28ahn14xz","631659ad8e5354f16aef7249","fixation","img/fixation.png","null","","test","","","","","",""
"308.7999999523163","558939","pSARL_v2","pSARL_v28ahn14xz","631659ad8e5354f16aef7249","freq","img/green_2bandit_a2.png","70","70","test","1","88","88","4","",""
"null","559451","pSARL_v2","pSARL_v28ahn14xz","631659ad8e5354f16aef7249","freq_resp","img/green_2bandit_a.png","70","70","test","","","","4","",""
"null","559624","pSARL_v2","pSARL_v28ahn14xz","631659ad8e5354f16aef7249","fixation","img/fixation.png","null","","test","","","","","",""
"579.8999998569489","560209","pSARL_v2","pSARL_v28ahn14xz","631659ad8e5354f16aef7249","reward","img/slot.png","74","","test","","","","","",""
"null","560969","pSARL_v2","pSARL_v28ahn14xz","631659ad8e5354f16aef7249","points","<div class=""verylowPoints""> -3 </div>","null","na","test","","","","4","-3","3"
"434.2999999523163","561408","pSARL_v2","pSARL_v28ahn14xz","631659ad8e5354f16aef7249","freq","img/green_2bandit_a2.png","70","70","test","1","89","89","5","",""
"null","561793","pSARL_v2","pSARL_v28ahn14xz","631659ad8e5354f16aef7249","freq_resp","img/green_2bandit_a.png","70","70","test","","","","5","",""
"null","561960","pSARL_v2","pSARL_v28ahn14xz","631659ad8e5354f16aef7249","fixation","img/fixation.png","null","","test","","","","","",""
"346.7000000476837","562315","pSARL_v2","pSARL_v28ahn14xz","631659ad8e5354f16aef7249","freq","img/green_2bandit_a2.png","70","70","test","1","90","90","5","",""
"null","562785","pSARL_v2","pSARL_v28ahn14xz","631659ad8e5354f16aef7249","freq_resp","img/green_2bandit_a.png","70","70","test","","","","5","",""
"null","562954","pSARL_v2","pSARL_v28ahn14xz","631659ad8e5354f16aef7249","fixation","img/fixation.png","null","","test","","","","","",""
"321","563279","pSARL_v2","pSARL_v28ahn14xz","631659ad8e5354f16aef7249","freq","img/green_2bandit_a2.png","70","70","test","1","91","91","5","",""
"null","563767","pSARL_v2","pSARL_v28ahn14xz","631659ad8e5354f16aef7249","freq_resp","img/green_2bandit_a.png","70","70","test","","","","5","",""
"null","563924","pSARL_v2","pSARL_v28ahn14xz","631659ad8e5354f16aef7249","fixation","img/fixation.png","null","","test","","","","","",""
"319.2999999523163","564251","pSARL_v2","pSARL_v28ahn14xz","631659ad8e5354f16aef7249","freq","img/green_2bandit_a2.png","70","70","test","1","92","92","5","",""
"null","564749","pSARL_v2","pSARL_v28ahn14xz","631659ad8e5354f16aef7249","freq_resp","img/green_2bandit_a.png","70","70","test","","","","5","",""
"null","564905","pSARL_v2","pSARL_v28ahn14xz","631659ad8e5354f16aef7249","fixation","img/fixation.png","null","","test","","","","","",""
"322.89999985694885","565234","pSARL_v2","pSARL_v28ahn14xz","631659ad8e5354f16aef7249","freq","img/green_2bandit_a2.png","70","70","test","1","93","93","5","",""
"null","565718","pSARL_v2","pSARL_v28ahn14xz","631659ad8e5354f16aef7249","freq_resp","img/green_2bandit_a.png","70","70","test","","","","5","",""
"null","565888","pSARL_v2","pSARL_v28ahn14xz","631659ad8e5354f16aef7249","fixation","img/fixation.png","null","","test","","","","","",""
"330.90000009536743","566225","pSARL_v2","pSARL_v28ahn14xz","631659ad8e5354f16aef7249","freq","img/green_2bandit_a2.png","70","70","test","1","94","94","5","",""
"null","566702","pSARL_v2","pSARL_v28ahn14xz","631659ad8e5354f16aef7249","freq_resp","img/green_2bandit_a.png","70","70","test","","","","5","",""
"null","566874","pSARL_v2","pSARL_v28ahn14xz","631659ad8e5354f16aef7249","fixation","img/fixation.png","null","","test","","","","","",""
"297.90000009536743","567177","pSARL_v2","pSARL_v28ahn14xz","631659ad8e5354f16aef7249","freq","img/green_2bandit_a2.png","70","70","test","1","95","95","5","",""
"null","567686","pSARL_v2","pSARL_v28ahn14xz","631659ad8e5354f16aef7249","freq_resp","img/green_2bandit_a.png","70","70","test","","","","5","",""
"null","567857","pSARL_v2","pSARL_v28ahn14xz","631659ad8e5354f16aef7249","fixation","img/fixation.png","null","","test","","","","","",""
"323","568186","pSARL_v2","pSARL_v28ahn14xz","631659ad8e5354f16aef7249","freq","img/green_2bandit_a2.png","70","70","test","1","96","96","5","",""
"null","568685","pSARL_v2","pSARL_v28ahn14xz","631659ad8e5354f16aef7249","freq_resp","img/green_2bandit_a.png","70","70","test","","","","5","",""
"null","568841","pSARL_v2","pSARL_v28ahn14xz","631659ad8e5354f16aef7249","fixation","img/fixation.png","null","","test","","","","","",""
"298","569146","pSARL_v2","pSARL_v28ahn14xz","631659ad8e5354f16aef7249","freq","img/green_2bandit_a2.png","70","70","test","1","97","97","5","",""
"null","569667","pSARL_v2","pSARL_v28ahn14xz","631659ad8e5354f16aef7249","freq_resp","img/green_2bandit_a.png","70","70","test","","","","5","",""
"null","569825","pSARL_v2","pSARL_v28ahn14xz","631659ad8e5354f16aef7249","fixation","img/fixation.png","null","","test","","","","","",""
"323","570153","pSARL_v2","pSARL_v28ahn14xz","631659ad8e5354f16aef7249","freq","img/green_2bandit_a2.png","70","70","test","1","98","98","5","",""
"null","570652","pSARL_v2","pSARL_v28ahn14xz","631659ad8e5354f16aef7249","freq_resp","img/green_2bandit_a.png","70","70","test","","","","5","",""
"null","570820","pSARL_v2","pSARL_v28ahn14xz","631659ad8e5354f16aef7249","fixation","img/fixation.png","null","","test","","","","","",""
"431.39999985694885","571258","pSARL_v2","pSARL_v28ahn14xz","631659ad8e5354f16aef7249","infreq","img/orange_2bandit_a2.png","68","68","test","1","99","99","5","",""
"null","571644","pSARL_v2","pSARL_v28ahn14xz","631659ad8e5354f16aef7249","infreq_resp","img/orange_2bandit_a.png","68","68","test","","","","5","",""
"null","571809","pSARL_v2","pSARL_v28ahn14xz","631659ad8e5354f16aef7249","fixation","img/fixation.png","null","","test","","","","","",""
"458.89999985694885","572274","pSARL_v2","pSARL_v28ahn14xz","631659ad8e5354f16aef7249","infreq","img/orange_2bandit_a2.png","70","68","test","0","100","100","5","",""
"null","572628","pSARL_v2","pSARL_v28ahn14xz","631659ad8e5354f16aef7249","infreq_resp","img/orange_2bandit_a.png","70","68","test","","","","5","",""
"null","572791","pSARL_v2","pSARL_v28ahn14xz","631659ad8e5354f16aef7249","fixation","img/fixation.png","null","","test","","","","","",""
"372.39999985694885","573170","pSARL_v2","pSARL_v28ahn14xz","631659ad8e5354f16aef7249","freq","img/green_2bandit_a2.png","70","70","test","1","101","101","5","",""
"null","573606","pSARL_v2","pSARL_v28ahn14xz","631659ad8e5354f16aef7249","freq_resp","img/green_2bandit_a.png","70","70","test","","","","5","",""
"null","573774","pSARL_v2","pSARL_v28ahn14xz","631659ad8e5354f16aef7249","fixation","img/fixation.png","null","","test","","","","","",""
"142.39999985694885","573921","pSARL_v2","pSARL_v28ahn14xz","631659ad8e5354f16aef7249","freq","img/green_2bandit_a2.png","70","70","test","1","102","102","5","",""
"null","574591","pSARL_v2","pSARL_v28ahn14xz","631659ad8e5354f16aef7249","freq_resp","img/green_2bandit_a.png","70","70","test","","","","5","",""
"null","574758","pSARL_v2","pSARL_v28ahn14xz","631659ad8e5354f16aef7249","fixation","img/fixation.png","null","","test","","","","","",""
"125.40000009536743","574890","pSARL_v2","pSARL_v28ahn14xz","631659ad8e5354f16aef7249","freq","img/green_2bandit_a2.png","70","70","test","1","103","103","5","",""
"null","575571","pSARL_v2","pSARL_v28ahn14xz","631659ad8e5354f16aef7249","freq_resp","img/green_2bandit_a.png","70","70","test","","","","5","",""
"null","575740","pSARL_v2","pSARL_v28ahn14xz","631659ad8e5354f16aef7249","fixation","img/fixation.png","null","","test","","","","","",""
"271.59999990463257","576019","pSARL_v2","pSARL_v28ahn14xz","631659ad8e5354f16aef7249","freq","img/green_2bandit_a2.png","70","70","test","1","104","104","5","",""
"null","576563","pSARL_v2","pSARL_v28ahn14xz","631659ad8e5354f16aef7249","freq_resp","img/green_2bandit_a.png","70","70","test","","","","5","",""
"null","576725","pSARL_v2","pSARL_v28ahn14xz","631659ad8e5354f16aef7249","fixation","img/fixation.png","null","","test","","","","","",""
"295.10000014305115","577027","pSARL_v2","pSARL_v28ahn14xz","631659ad8e5354f16aef7249","freq","img/green_2bandit_a2.png","70","70","test","1","105","105","5","",""
"null","577551","pSARL_v2","pSARL_v28ahn14xz","631659ad8e5354f16aef7249","freq_resp","img/green_2bandit_a.png","70","70","test","","","","5","",""
"null","577709","pSARL_v2","pSARL_v28ahn14xz","631659ad8e5354f16aef7249","fixation","img/fixation.png","null","","test","","","","","",""
"309.59999990463257","578026","pSARL_v2","pSARL_v28ahn14xz","631659ad8e5354f16aef7249","freq","img/green_2bandit_a2.png","70","70","test","1","106","106","5","",""
"null","578532","pSARL_v2","pSARL_v28ahn14xz","631659ad8e5354f16aef7249","freq_resp","img/green_2bandit_a.png","70","70","test","","","","5","",""
"null","578692","pSARL_v2","pSARL_v28ahn14xz","631659ad8e5354f16aef7249","fixation","img/fixation.png","null","","test","","","","","",""
"303.89999985694885","579003","pSARL_v2","pSARL_v28ahn14xz","631659ad8e5354f16aef7249","freq","img/green_2bandit_a2.png","70","70","test","1","107","107","5","",""
"null","579518","pSARL_v2","pSARL_v28ahn14xz","631659ad8e5354f16aef7249","freq_resp","img/green_2bandit_a.png","70","70","test","","","","5","",""
"null","579676","pSARL_v2","pSARL_v28ahn14xz","631659ad8e5354f16aef7249","fixation","img/fixation.png","null","","test","","","","","",""
"320.09999990463257","580003","pSARL_v2","pSARL_v28ahn14xz","631659ad8e5354f16aef7249","freq","img/green_2bandit_a2.png","70","70","test","1","108","108","5","",""
"null","580502","pSARL_v2","pSARL_v28ahn14xz","631659ad8e5354f16aef7249","freq_resp","img/green_2bandit_a.png","70","70","test","","","","5","",""
"null","580670","pSARL_v2","pSARL_v28ahn14xz","631659ad8e5354f16aef7249","fixation","img/fixation.png","null","","test","","","","","",""
"332.2999999523163","581005","pSARL_v2","pSARL_v28ahn14xz","631659ad8e5354f16aef7249","freq","img/green_2bandit_a2.png","70","70","test","1","109","109","5","",""
"null","581484","pSARL_v2","pSARL_v28ahn14xz","631659ad8e5354f16aef7249","freq_resp","img/green_2bandit_a.png","70","70","test","","","","5","",""
"null","581653","pSARL_v2","pSARL_v28ahn14xz","631659ad8e5354f16aef7249","fixation","img/fixation.png","null","","test","","","","","",""
"325.30000019073486","581985","pSARL_v2","pSARL_v28ahn14xz","631659ad8e5354f16aef7249","freq","img/green_2bandit_a2.png","70","70","test","1","110","110","5","",""
"null","582469","pSARL_v2","pSARL_v28ahn14xz","631659ad8e5354f16aef7249","freq_resp","img/green_2bandit_a.png","70","70","test","","","","5","",""
"null","582639","pSARL_v2","pSARL_v28ahn14xz","631659ad8e5354f16aef7249","fixation","img/fixation.png","null","","test","","","","","",""
"282.5","582929","pSARL_v2","pSARL_v28ahn14xz","631659ad8e5354f16aef7249","freq","img/green_2bandit_a2.png","70","70","test","1","111","111","5","",""
"null","583467","pSARL_v2","pSARL_v28ahn14xz","631659ad8e5354f16aef7249","freq_resp","img/green_2bandit_a.png","70","70","test","","","","5","",""
"null","583624","pSARL_v2","pSARL_v28ahn14xz","631659ad8e5354f16aef7249","fixation","img/fixation.png","null","","test","","","","","",""
"554.0999999046326","584186","pSARL_v2","pSARL_v28ahn14xz","631659ad8e5354f16aef7249","reward","img/slot.png","74","","test","","","","","",""
"null","584947","pSARL_v2","pSARL_v28ahn14xz","631659ad8e5354f16aef7249","points","<div class=""veryhighPoints""> +1 </div>","null","na","test","","","","5","1","4"
"527.3999998569489","585480","pSARL_v2","pSARL_v28ahn14xz","631659ad8e5354f16aef7249","freq","img/green_2bandit_a2.png","70","70","test","1","112","112","6","",""
"null","585765","pSARL_v2","pSARL_v28ahn14xz","631659ad8e5354f16aef7249","freq_resp","img/green_2bandit_a.png","70","70","test","","","","6","",""
"null","585925","pSARL_v2","pSARL_v28ahn14xz","631659ad8e5354f16aef7249","fixation","img/fixation.png","null","","test","","","","","",""
"326.09999990463257","586257","pSARL_v2","pSARL_v28ahn14xz","631659ad8e5354f16aef7249","freq","img/green_2bandit_a2.png","70","70","test","1","113","113","6","",""
"null","586737","pSARL_v2","pSARL_v28ahn14xz","631659ad8e5354f16aef7249","freq_resp","img/green_2bandit_a.png","70","70","test","","","","6","",""
"null","586906","pSARL_v2","pSARL_v28ahn14xz","631659ad8e5354f16aef7249","fixation","img/fixation.png","null","","test","","","","","",""
"135.79999995231628","587048","pSARL_v2","pSARL_v28ahn14xz","631659ad8e5354f16aef7249","freq","img/green_2bandit_a2.png","70","70","test","1","114","114","6","",""
"null","587723","pSARL_v2","pSARL_v28ahn14xz","631659ad8e5354f16aef7249","freq_resp","img/green_2bandit_a.png","70","70","test","","","","6","",""
"null","587890","pSARL_v2","pSARL_v28ahn14xz","631659ad8e5354f16aef7249","fixation","img/fixation.png","null","","test","","","","","",""
"367.90000009536743","588261","pSARL_v2","pSARL_v28ahn14xz","631659ad8e5354f16aef7249","freq","img/green_2bandit_a2.png","70","70","test","1","115","115","6","",""
"null","588707","pSARL_v2","pSARL_v28ahn14xz","631659ad8e5354f16aef7249","freq_resp","img/green_2bandit_a.png","70","70","test","","","","6","",""
"null","588874","pSARL_v2","pSARL_v28ahn14xz","631659ad8e5354f16aef7249","fixation","img/fixation.png","null","","test","","","","","",""
"424.90000009536743","589305","pSARL_v2","pSARL_v28ahn14xz","631659ad8e5354f16aef7249","infreq","img/orange_2bandit_a2.png","68","68","test","1","116","116","6","",""
"null","589692","pSARL_v2","pSARL_v28ahn14xz","631659ad8e5354f16aef7249","infreq_resp","img/orange_2bandit_a.png","68","68","test","","","","6","",""
"null","589857","pSARL_v2","pSARL_v28ahn14xz","631659ad8e5354f16aef7249","fixation","img/fixation.png","null","","test","","","","","",""
"393.89999985694885","590257","pSARL_v2","pSARL_v28ahn14xz","631659ad8e5354f16aef7249","freq","img/green_2bandit_a2.png","70","70","test","1","117","117","6","",""
"null","590673","pSARL_v2","pSARL_v28ahn14xz","631659ad8e5354f16aef7249","freq_resp","img/green_2bandit_a.png","70","70","test","","","","6","",""
"null","590841","pSARL_v2","pSARL_v28ahn14xz","631659ad8e5354f16aef7249","fixation","img/fixation.png","null","","test","","","","","",""
"346","591193","pSARL_v2","pSARL_v28ahn14xz","631659ad8e5354f16aef7249","freq","img/green_2bandit_a2.png","70","70","test","1","118","118","6","",""
"null","591651","pSARL_v2","pSARL_v28ahn14xz","631659ad8e5354f16aef7249","freq_resp","img/green_2bandit_a.png","70","70","test","","","","6","",""
"null","591807","pSARL_v2","pSARL_v28ahn14xz","631659ad8e5354f16aef7249","fixation","img/fixation.png","null","","test","","","","","",""
"339.90000009536743","592153","pSARL_v2","pSARL_v28ahn14xz","631659ad8e5354f16aef7249","freq","img/green_2bandit_a2.png","70","70","test","1","119","119","6","",""
"null","592617","pSARL_v2","pSARL_v28ahn14xz","631659ad8e5354f16aef7249","freq_resp","img/green_2bandit_a.png","70","70","test","","","","6","",""
"null","592774","pSARL_v2","pSARL_v28ahn14xz","631659ad8e5354f16aef7249","fixation","img/fixation.png","null","","test","","","","","",""
"340.89999985694885","593122","pSARL_v2","pSARL_v28ahn14xz","631659ad8e5354f16aef7249","freq","img/green_2bandit_a2.png","70","70","test","1","120","120","6","",""
"null","593602","pSARL_v2","pSARL_v28ahn14xz","631659ad8e5354f16aef7249","freq_resp","img/green_2bandit_a.png","70","70","test","","","","6","",""
"null","593770","pSARL_v2","pSARL_v28ahn14xz","631659ad8e5354f16aef7249","fixation","img/fixation.png","null","","test","","","","","",""
"321","594098","pSARL_v2","pSARL_v28ahn14xz","631659ad8e5354f16aef7249","freq","img/green_2bandit_a2.png","70","70","test","1","121","121","6","",""
"null","594585","pSARL_v2","pSARL_v28ahn14xz","631659ad8e5354f16aef7249","freq_resp","img/green_2bandit_a.png","70","70","test","","","","6","",""
"null","594756","pSARL_v2","pSARL_v28ahn14xz","631659ad8e5354f16aef7249","fixation","img/fixation.png","null","","test","","","","","",""
"391.10000014305115","595153","pSARL_v2","pSARL_v28ahn14xz","631659ad8e5354f16aef7249","infreq","img/orange_2bandit_a2.png","68","68","test","1","122","122","6","",""
"null","595574","pSARL_v2","pSARL_v28ahn14xz","631659ad8e5354f16aef7249","infreq_resp","img/orange_2bandit_a.png","68","68","test","","","","6","",""
"null","595740","pSARL_v2","pSARL_v28ahn14xz","631659ad8e5354f16aef7249","fixation","img/fixation.png","null","","test","","","","","",""
"260.40000009536743","596010","pSARL_v2","pSARL_v28ahn14xz","631659ad8e5354f16aef7249","freq","img/green_2bandit_a2.png","70","70","test","1","123","123","6","",""
"null","596563","pSARL_v2","pSARL_v28ahn14xz","631659ad8e5354f16aef7249","freq_resp","img/green_2bandit_a.png","70","70","test","","","","6","",""
"null","596724","pSARL_v2","pSARL_v28ahn14xz","631659ad8e5354f16aef7249","fixation","img/fixation.png","null","","test","","","","","",""
"359.09999990463257","597089","pSARL_v2","pSARL_v28ahn14xz","631659ad8e5354f16aef7249","infreq","img/orange_2bandit_a2.png","68","68","test","1","124","124","6","",""
"null","597537","pSARL_v2","pSARL_v28ahn14xz","631659ad8e5354f16aef7249","infreq_resp","img/orange_2bandit_a.png","68","68","test","","","","6","",""
"null","597703","pSARL_v2","pSARL_v28ahn14xz","631659ad8e5354f16aef7249","fixation","img/fixation.png","null","","test","","","","","",""
"323.09999990463257","598032","pSARL_v2","pSARL_v28ahn14xz","631659ad8e5354f16aef7249","freq","img/green_2bandit_a2.png","70","70","test","1","125","125","6","",""
"null","598515","pSARL_v2","pSARL_v28ahn14xz","631659ad8e5354f16aef7249","freq_resp","img/green_2bandit_a.png","70","70","test","","","","6","",""
"null","598673","pSARL_v2","pSARL_v28ahn14xz","631659ad8e5354f16aef7249","fixation","img/fixation.png","null","","test","","","","","",""
"313.7000000476837","598993","pSARL_v2","pSARL_v28ahn14xz","631659ad8e5354f16aef7249","freq","img/green_2bandit_a2.png","70","70","test","1","126","126","6","",""
"null","599498","pSARL_v2","pSARL_v28ahn14xz","631659ad8e5354f16aef7249","freq_resp","img/green_2bandit_a.png","70","70","test","","","","6","",""
"null","599657","pSARL_v2","pSARL_v28ahn14xz","631659ad8e5354f16aef7249","fixation","img/fixation.png","null","","test","","","","","",""
"312.5","599977","pSARL_v2","pSARL_v28ahn14xz","631659ad8e5354f16aef7249","freq","img/green_2bandit_a2.png","70","70","test","1","127","127","6","",""
"null","600485","pSARL_v2","pSARL_v28ahn14xz","631659ad8e5354f16aef7249","freq_resp","img/green_2bandit_a.png","70","70","test","","","","6","",""
"null","600656","pSARL_v2","pSARL_v28ahn14xz","631659ad8e5354f16aef7249","fixation","img/fixation.png","null","","test","","","","","",""
"330.59999990463257","600993","pSARL_v2","pSARL_v28ahn14xz","631659ad8e5354f16aef7249","freq","img/green_2bandit_a2.png","70","70","test","1","128","128","6","",""
"null","601470","pSARL_v2","pSARL_v28ahn14xz","631659ad8e5354f16aef7249","freq_resp","img/green_2bandit_a.png","70","70","test","","","","6","",""
"null","601642","pSARL_v2","pSARL_v28ahn14xz","631659ad8e5354f16aef7249","fixation","img/fixation.png","null","","test","","","","","",""
"272.2000000476837","601921","pSARL_v2","pSARL_v28ahn14xz","631659ad8e5354f16aef7249","freq","img/green_2bandit_a2.png","70","70","test","1","129","129","6","",""
"null","602465","pSARL_v2","pSARL_v28ahn14xz","631659ad8e5354f16aef7249","freq_resp","img/green_2bandit_a.png","70","70","test","","","","6","",""
"null","602621","pSARL_v2","pSARL_v28ahn14xz","631659ad8e5354f16aef7249","fixation","img/fixation.png","null","","test","","","","","",""
"221.79999995231628","602848","pSARL_v2","pSARL_v28ahn14xz","631659ad8e5354f16aef7249","freq","img/green_2bandit_a2.png","70","70","test","1","130","130","6","",""
"null","603446","pSARL_v2","pSARL_v28ahn14xz","631659ad8e5354f16aef7249","freq_resp","img/green_2bandit_a.png","70","70","test","","","","6","",""
"null","603607","pSARL_v2","pSARL_v28ahn14xz","631659ad8e5354f16aef7249","fixation","img/fixation.png","null","","test","","","","","",""
"307.5","603922","pSARL_v2","pSARL_v28ahn14xz","631659ad8e5354f16aef7249","freq","img/green_2bandit_a2.png","70","70","test","1","131","131","6","",""
"null","604433","pSARL_v2","pSARL_v28ahn14xz","631659ad8e5354f16aef7249","freq_resp","img/green_2bandit_a.png","70","70","test","","","","6","",""
"null","604588","pSARL_v2","pSARL_v28ahn14xz","631659ad8e5354f16aef7249","fixation","img/fixation.png","null","","test","","","","","",""
"310.7000000476837","604905","pSARL_v2","pSARL_v28ahn14xz","631659ad8e5354f16aef7249","freq","img/green_2bandit_a2.png","70","70","test","1","132","132","6","",""
"null","605401","pSARL_v2","pSARL_v28ahn14xz","631659ad8e5354f16aef7249","freq_resp","img/green_2bandit_a.png","70","70","test","","","","6","",""
"null","605572","pSARL_v2","pSARL_v28ahn14xz","631659ad8e5354f16aef7249","fixation","img/fixation.png","null","","test","","","","","",""
"327.09999990463257","605905","pSARL_v2","pSARL_v28ahn14xz","631659ad8e5354f16aef7249","freq","img/green_2bandit_a2.png","70","70","test","1","133","133","6","",""
"null","606386","pSARL_v2","pSARL_v28ahn14xz","631659ad8e5354f16aef7249","freq_resp","img/green_2bandit_a.png","70","70","test","","","","6","",""
"null","606556","pSARL_v2","pSARL_v28ahn14xz","631659ad8e5354f16aef7249","fixation","img/fixation.png","null","","test","","","","","",""
"510.7000000476837","607074","pSARL_v2","pSARL_v28ahn14xz","631659ad8e5354f16aef7249","reward","img/slot.png","74","","test","","","","","",""
"null","607834","pSARL_v2","pSARL_v28ahn14xz","631659ad8e5354f16aef7249","points","<div class=""verylowPoints""> -7 </div>","null","na","test","","","","6","-7","5"
"296.90000009536743","608138","pSARL_v2","pSARL_v28ahn14xz","631659ad8e5354f16aef7249","freq","img/green_2bandit_a2.png","70","70","test","1","134","134","7","",""
"null","608650","pSARL_v2","pSARL_v28ahn14xz","631659ad8e5354f16aef7249","freq_resp","img/green_2bandit_a.png","70","70","test","","","","7","",""
"null","608804","pSARL_v2","pSARL_v28ahn14xz","631659ad8e5354f16aef7249","fixation","img/fixation.png","null","","test","","","","","",""
"287","609098","pSARL_v2","pSARL_v28ahn14xz","631659ad8e5354f16aef7249","freq","img/green_2bandit_a2.png","70","70","test","1","135","135","7","",""
"null","609630","pSARL_v2","pSARL_v28ahn14xz","631659ad8e5354f16aef7249","freq_resp","img/green_2bandit_a.png","70","70","test","","","","7","",""
"null","609788","pSARL_v2","pSARL_v28ahn14xz","631659ad8e5354f16aef7249","fixation","img/fixation.png","null","","test","","","","","",""
"333.89999985694885","610126","pSARL_v2","pSARL_v28ahn14xz","631659ad8e5354f16aef7249","freq","img/green_2bandit_a2.png","70","70","test","1","136","136","7","",""
"null","610603","pSARL_v2","pSARL_v28ahn14xz","631659ad8e5354f16aef7249","freq_resp","img/green_2bandit_a.png","70","70","test","","","","7","",""
"null","610772","pSARL_v2","pSARL_v28ahn14xz","631659ad8e5354f16aef7249","fixation","img/fixation.png","null","","test","","","","","",""
"326.5","611105","pSARL_v2","pSARL_v28ahn14xz","631659ad8e5354f16aef7249","freq","img/green_2bandit_a2.png","70","70","test","1","137","137","7","",""
"null","611582","pSARL_v2","pSARL_v28ahn14xz","631659ad8e5354f16aef7249","freq_resp","img/green_2bandit_a.png","70","70","test","","","","7","",""
"null","611738","pSARL_v2","pSARL_v28ahn14xz","631659ad8e5354f16aef7249","fixation","img/fixation.png","null","","test","","","","","",""
"416.7000000476837","612161","pSARL_v2","pSARL_v28ahn14xz","631659ad8e5354f16aef7249","freq","img/green_2bandit_a2.png","70","70","test","1","138","138","7","",""
"null","612558","pSARL_v2","pSARL_v28ahn14xz","631659ad8e5354f16aef7249","freq_resp","img/green_2bandit_a.png","70","70","test","","","","7","",""
"null","612724","pSARL_v2","pSARL_v28ahn14xz","631659ad8e5354f16aef7249","fixation","img/fixation.png","null","","test","","","","","",""
"334.7999999523163","613065","pSARL_v2","pSARL_v28ahn14xz","631659ad8e5354f16aef7249","freq","img/green_2bandit_a2.png","70","70","test","1","139","139","7","",""
"null","613537","pSARL_v2","pSARL_v28ahn14xz","631659ad8e5354f16aef7249","freq_resp","img/green_2bandit_a.png","70","70","test","","","","7","",""
"null","613706","pSARL_v2","pSARL_v28ahn14xz","631659ad8e5354f16aef7249","fixation","img/fixation.png","null","","test","","","","","",""
"191.70000004768372","613904","pSARL_v2","pSARL_v28ahn14xz","631659ad8e5354f16aef7249","freq","img/green_2bandit_a2.png","70","70","test","1","140","140","7","",""
"null","614526","pSARL_v2","pSARL_v28ahn14xz","631659ad8e5354f16aef7249","freq_resp","img/green_2bandit_a.png","70","70","test","","","","7","",""
"null","614691","pSARL_v2","pSARL_v28ahn14xz","631659ad8e5354f16aef7249","fixation","img/fixation.png","null","","test","","","","","",""
"239.10000014305115","614939","pSARL_v2","pSARL_v28ahn14xz","631659ad8e5354f16aef7249","freq","img/green_2bandit_a2.png","70","70","test","1","141","141","7","",""
"null","615514","pSARL_v2","pSARL_v28ahn14xz","631659ad8e5354f16aef7249","freq_resp","img/green_2bandit_a.png","70","70","test","","","","7","",""
"null","615674","pSARL_v2","pSARL_v28ahn14xz","631659ad8e5354f16aef7249","fixation","img/fixation.png","null","","test","","","","","",""
"223.40000009536743","615904","pSARL_v2","pSARL_v28ahn14xz","631659ad8e5354f16aef7249","freq","img/green_2bandit_a2.png","70","70","test","1","142","142","7","",""
"null","616495","pSARL_v2","pSARL_v28ahn14xz","631659ad8e5354f16aef7249","freq_resp","img/green_2bandit_a.png","70","70","test","","","","7","",""
"null","616657","pSARL_v2","pSARL_v28ahn14xz","631659ad8e5354f16aef7249","fixation","img/fixation.png","null","","test","","","","","",""
"281.89999985694885","616944","pSARL_v2","pSARL_v28ahn14xz","631659ad8e5354f16aef7249","freq","img/green_2bandit_a2.png","70","70","test","1","143","143","7","",""
"null","617480","pSARL_v2","pSARL_v28ahn14xz","631659ad8e5354f16aef7249","freq_resp","img/green_2bandit_a.png","70","70","test","","","","7","",""
"null","617640","pSARL_v2","pSARL_v28ahn14xz","631659ad8e5354f16aef7249","fixation","img/fixation.png","null","","test","","","","","",""
"306.2999999523163","617949","pSARL_v2","pSARL_v28ahn14xz","631659ad8e5354f16aef7249","freq","img/green_2bandit_a2.png","70","70","test","1","144","144","7","",""
"null","618450","pSARL_v2","pSARL_v28ahn14xz","631659ad8e5354f16aef7249","freq_resp","img/green_2bandit_a.png","70","70","test","","","","7","",""
"null","618607","pSARL_v2","pSARL_v28ahn14xz","631659ad8e5354f16aef7249","fixation","img/fixation.png","null","","test","","","","","",""
"396.10000014305115","619009","pSARL_v2","pSARL_v28ahn14xz","631659ad8e5354f16aef7249","freq","img/green_2bandit_a2.png","70","70","test","1","145","145","7","",""
"null","619423","pSARL_v2","pSARL_v28ahn14xz","631659ad8e5354f16aef7249","freq_resp","img/green_2bandit_a.png","70","70","test","","","","7","",""
"null","619590","pSARL_v2","pSARL_v28ahn14xz","631659ad8e5354f16aef7249","fixation","img/fixation.png","null","","test","","","","","",""
"364.2999999523163","619958","pSARL_v2","pSARL_v28ahn14xz","631659ad8e5354f16aef7249","freq","img/green_2bandit_a2.png","70","70","test","1","146","146","7","",""
"null","620405","pSARL_v2","pSARL_v28ahn14xz","631659ad8e5354f16aef7249","freq_resp","img/green_2bandit_a.png","70","70","test","","","","7","",""
"null","620575","pSARL_v2","pSARL_v28ahn14xz","631659ad8e5354f16aef7249","fixation","img/fixation.png","null","","test","","","","","",""
"411.2000000476837","620989","pSARL_v2","pSARL_v28ahn14xz","631659ad8e5354f16aef7249","freq","img/green_2bandit_a2.png","70","70","test","1","147","147","7","",""
"null","621388","pSARL_v2","pSARL_v28ahn14xz","631659ad8e5354f16aef7249","freq_resp","img/green_2bandit_a.png","70","70","test","","","","7","",""
"null","621557","pSARL_v2","pSARL_v28ahn14xz","631659ad8e5354f16aef7249","fixation","img/fixation.png","null","","test","","","","","",""
"365.2999999523163","621925","pSARL_v2","pSARL_v28ahn14xz","631659ad8e5354f16aef7249","freq","img/green_2bandit_a2.png","70","70","test","1","148","148","7","",""
"null","622373","pSARL_v2","pSARL_v28ahn14xz","631659ad8e5354f16aef7249","freq_resp","img/green_2bandit_a.png","70","70","test","","","","7","",""
"null","622540","pSARL_v2","pSARL_v28ahn14xz","631659ad8e5354f16aef7249","fixation","img/fixation.png","null","","test","","","","","",""
"454.19999980926514","622997","pSARL_v2","pSARL_v28ahn14xz","631659ad8e5354f16aef7249","infreq","img/orange_2bandit_a2.png","68","68","test","1","149","149","7","",""
"null","623360","pSARL_v2","pSARL_v28ahn14xz","631659ad8e5354f16aef7249","infreq_resp","img/orange_2bandit_a.png","68","68","test","","","","7","",""
"null","623522","pSARL_v2","pSARL_v28ahn14xz","631659ad8e5354f16aef7249","fixation","img/fixation.png","null","","test","","","","","",""
"384.59999990463257","623914","pSARL_v2","pSARL_v28ahn14xz","631659ad8e5354f16aef7249","infreq","img/orange_2bandit_a2.png","68","68","test","1","150","150","7","",""
"null","624338","pSARL_v2","pSARL_v28ahn14xz","631659ad8e5354f16aef7249","infreq_resp","img/orange_2bandit_a.png","68","68","test","","","","7","",""
"null","624507","pSARL_v2","pSARL_v28ahn14xz","631659ad8e5354f16aef7249","fixation","img/fixation.png","null","","test","","","","","",""
"399.90000009536743","624912","pSARL_v2","pSARL_v28ahn14xz","631659ad8e5354f16aef7249","freq","img/green_2bandit_a2.png","70","70","test","1","151","151","7","",""
"null","625324","pSARL_v2","pSARL_v28ahn14xz","631659ad8e5354f16aef7249","freq_resp","img/green_2bandit_a.png","70","70","test","","","","7","",""
"null","625491","pSARL_v2","pSARL_v28ahn14xz","631659ad8e5354f16aef7249","fixation","img/fixation.png","null","","test","","","","","",""
"334.7000000476837","625832","pSARL_v2","pSARL_v28ahn14xz","631659ad8e5354f16aef7249","freq","img/green_2bandit_a2.png","70","70","test","1","152","152","7","",""
"null","626316","pSARL_v2","pSARL_v28ahn14xz","631659ad8e5354f16aef7249","freq_resp","img/green_2bandit_a.png","70","70","test","","","","7","",""
"null","626474","pSARL_v2","pSARL_v28ahn14xz","631659ad8e5354f16aef7249","fixation","img/fixation.png","null","","test","","","","","",""
"319.89999985694885","626801","pSARL_v2","pSARL_v28ahn14xz","631659ad8e5354f16aef7249","freq","img/green_2bandit_a2.png","70","70","test","1","153","153","7","",""
"null","627302","pSARL_v2","pSARL_v28ahn14xz","631659ad8e5354f16aef7249","freq_resp","img/green_2bandit_a.png","70","70","test","","","","7","",""
"null","627473","pSARL_v2","pSARL_v28ahn14xz","631659ad8e5354f16aef7249","fixation","img/fixation.png","null","","test","","","","","",""
"345.5","627825","pSARL_v2","pSARL_v28ahn14xz","631659ad8e5354f16aef7249","freq","img/green_2bandit_a2.png","70","70","test","1","154","154","7","",""
"null","628287","pSARL_v2","pSARL_v28ahn14xz","631659ad8e5354f16aef7249","freq_resp","img/green_2bandit_a.png","70","70","test","","","","7","",""
"null","628457","pSARL_v2","pSARL_v28ahn14xz","631659ad8e5354f16aef7249","fixation","img/fixation.png","null","","test","","","","","",""
"154.10000014305115","628616","pSARL_v2","pSARL_v28ahn14xz","631659ad8e5354f16aef7249","freq","img/green_2bandit_a2.png","70","70","test","1","155","155","7","",""
"null","629274","pSARL_v2","pSARL_v28ahn14xz","631659ad8e5354f16aef7249","freq_resp","img/green_2bandit_a.png","70","70","test","","","","7","",""
"null","629441","pSARL_v2","pSARL_v28ahn14xz","631659ad8e5354f16aef7249","fixation","img/fixation.png","null","","test","","","","","",""
"88.89999985694885","629537","pSARL_v2","pSARL_v28ahn14xz","631659ad8e5354f16aef7249","freq","img/green_2bandit_a2.png","70","70","test","1","156","156","7","",""
"null","630270","pSARL_v2","pSARL_v28ahn14xz","631659ad8e5354f16aef7249","freq_resp","img/green_2bandit_a.png","70","70","test","","","","7","",""
"null","630440","pSARL_v2","pSARL_v28ahn14xz","631659ad8e5354f16aef7249","fixation","img/fixation.png","null","","test","","","","","",""
"305.7000000476837","630753","pSARL_v2","pSARL_v28ahn14xz","631659ad8e5354f16aef7249","freq","img/green_2bandit_a2.png","70","70","test","1","157","157","7","",""
"null","631266","pSARL_v2","pSARL_v28ahn14xz","631659ad8e5354f16aef7249","freq_resp","img/green_2bandit_a.png","70","70","test","","","","7","",""
"null","631420","pSARL_v2","pSARL_v28ahn14xz","631659ad8e5354f16aef7249","fixation","img/fixation.png","null","","test","","","","","",""
"510.5","631937","pSARL_v2","pSARL_v28ahn14xz","631659ad8e5354f16aef7249","reward","img/slot.png","74","","test","","","","","",""
"null","632700","pSARL_v2","pSARL_v28ahn14xz","631659ad8e5354f16aef7249","points","<div class=""verylowPoints""> -6 </div>","null","na","test","","","","7","-6","6"
"470.7999999523163","633177","pSARL_v2","pSARL_v28ahn14xz","631659ad8e5354f16aef7249","freq","img/green_2bandit_a2.png","70","70","test","1","158","158","8","",""
"null","633513","pSARL_v2","pSARL_v28ahn14xz","631659ad8e5354f16aef7249","freq_resp","img/green_2bandit_a.png","70","70","test","","","","8","",""
"null","633674","pSARL_v2","pSARL_v28ahn14xz","631659ad8e5354f16aef7249","fixation","img/fixation.png","null","","test","","","","","",""
"311.80000019073486","633993","pSARL_v2","pSARL_v28ahn14xz","631659ad8e5354f16aef7249","freq","img/green_2bandit_a2.png","70","70","test","1","159","159","8","",""
"null","634501","pSARL_v2","pSARL_v28ahn14xz","631659ad8e5354f16aef7249","freq_resp","img/green_2bandit_a.png","70","70","test","","","","8","",""
"null","634673","pSARL_v2","pSARL_v28ahn14xz","631659ad8e5354f16aef7249","fixation","img/fixation.png","null","","test","","","","","",""
"113.90000009536743","634793","pSARL_v2","pSARL_v28ahn14xz","631659ad8e5354f16aef7249","freq","img/green_2bandit_a2.png","70","70","test","1","160","160","8","",""
"null","635488","pSARL_v2","pSARL_v28ahn14xz","631659ad8e5354f16aef7249","freq_resp","img/green_2bandit_a.png","70","70","test","","","","8","",""
"null","635657","pSARL_v2","pSARL_v28ahn14xz","631659ad8e5354f16aef7249","fixation","img/fixation.png","null","","test","","","","","",""
"354.10000014305115","636016","pSARL_v2","pSARL_v28ahn14xz","631659ad8e5354f16aef7249","freq","img/green_2bandit_a2.png","70","70","test","1","161","161","8","",""
"null","636468","pSARL_v2","pSARL_v28ahn14xz","631659ad8e5354f16aef7249","freq_resp","img/green_2bandit_a.png","70","70","test","","","","8","",""
"null","636624","pSARL_v2","pSARL_v28ahn14xz","631659ad8e5354f16aef7249","fixation","img/fixation.png","null","","test","","","","","",""
"466.09999990463257","637094","pSARL_v2","pSARL_v28ahn14xz","631659ad8e5354f16aef7249","infreq","img/orange_2bandit_a2.png","68","68","test","1","162","162","8","",""
"null","637446","pSARL_v2","pSARL_v28ahn14xz","631659ad8e5354f16aef7249","infreq_resp","img/orange_2bandit_a.png","68","68","test","","","","8","",""
"null","637609","pSARL_v2","pSARL_v28ahn14xz","631659ad8e5354f16aef7249","fixation","img/fixation.png","null","","test","","","","","",""
"274.5","637889","pSARL_v2","pSARL_v28ahn14xz","631659ad8e5354f16aef7249","freq","img/green_2bandit_a2.png","70","70","test","1","163","163","8","",""
"null","638432","pSARL_v2","pSARL_v28ahn14xz","631659ad8e5354f16aef7249","freq_resp","img/green_2bandit_a.png","70","70","test","","","","8","",""
"null","638591","pSARL_v2","pSARL_v28ahn14xz","631659ad8e5354f16aef7249","fixation","img/fixation.png","null","","test","","","","","",""
"107.10000014305115","638705","pSARL_v2","pSARL_v28ahn14xz","631659ad8e5354f16aef7249","freq","img/green_2bandit_a2.png","70","70","test","1","164","164","8","",""
"null","639419","pSARL_v2","pSARL_v28ahn14xz","631659ad8e5354f16aef7249","freq_resp","img/green_2bandit_a.png","70","70","test","","","","8","",""
"null","639589","pSARL_v2","pSARL_v28ahn14xz","631659ad8e5354f16aef7249","fixation","img/fixation.png","null","","test","","","","","",""
"291.2999999523163","639886","pSARL_v2","pSARL_v28ahn14xz","631659ad8e5354f16aef7249","freq","img/green_2bandit_a2.png","70","70","test","1","165","165","8","",""
"null","640416","pSARL_v2","pSARL_v28ahn14xz","631659ad8e5354f16aef7249","freq_resp","img/green_2bandit_a.png","70","70","test","","","","8","",""
"null","640574","pSARL_v2","pSARL_v28ahn14xz","631659ad8e5354f16aef7249","fixation","img/fixation.png","null","","test","","","","","",""
"324.90000009536743","640903","pSARL_v2","pSARL_v28ahn14xz","631659ad8e5354f16aef7249","freq","img/green_2bandit_a2.png","70","70","test","1","166","166","8","",""
"null","641398","pSARL_v2","pSARL_v28ahn14xz","631659ad8e5354f16aef7249","freq_resp","img/green_2bandit_a.png","70","70","test","","","","8","",""
"null","641556","pSARL_v2","pSARL_v28ahn14xz","631659ad8e5354f16aef7249","fixation","img/fixation.png","null","","test","","","","","",""
"309.40000009536743","641869","pSARL_v2","pSARL_v28ahn14xz","631659ad8e5354f16aef7249","freq","img/green_2bandit_a2.png","70","70","test","1","167","167","8","",""
"null","642368","pSARL_v2","pSARL_v28ahn14xz","631659ad8e5354f16aef7249","freq_resp","img/green_2bandit_a.png","70","70","test","","","","8","",""
"null","642536","pSARL_v2","pSARL_v28ahn14xz","631659ad8e5354f16aef7249","fixation","img/fixation.png","null","","test","","","","","",""
"289.2999999523163","642828","pSARL_v2","pSARL_v28ahn14xz","631659ad8e5354f16aef7249","freq","img/green_2bandit_a2.png","70","70","test","1","168","168","8","",""
"null","643349","pSARL_v2","pSARL_v28ahn14xz","631659ad8e5354f16aef7249","freq_resp","img/green_2bandit_a.png","70","70","test","","","","8","",""
"null","643522","pSARL_v2","pSARL_v28ahn14xz","631659ad8e5354f16aef7249","fixation","img/fixation.png","null","","test","","","","","",""
"320.09999990463257","643848","pSARL_v2","pSARL_v28ahn14xz","631659ad8e5354f16aef7249","freq","img/green_2bandit_a2.png","70","70","test","1","169","169","8","",""
"null","644332","pSARL_v2","pSARL_v28ahn14xz","631659ad8e5354f16aef7249","freq_resp","img/green_2bandit_a.png","70","70","test","","","","8","",""
"null","644487","pSARL_v2","pSARL_v28ahn14xz","631659ad8e5354f16aef7249","fixation","img/fixation.png","null","","test","","","","","",""
"337.60000014305115","644828","pSARL_v2","pSARL_v28ahn14xz","631659ad8e5354f16aef7249","freq","img/green_2bandit_a2.png","70","70","test","1","170","170","8","",""
"null","645300","pSARL_v2","pSARL_v28ahn14xz","631659ad8e5354f16aef7249","freq_resp","img/green_2bandit_a.png","70","70","test","","","","8","",""
"null","645472","pSARL_v2","pSARL_v28ahn14xz","631659ad8e5354f16aef7249","fixation","img/fixation.png","null","","test","","","","","",""
"449.5","645927","pSARL_v2","pSARL_v28ahn14xz","631659ad8e5354f16aef7249","infreq","img/orange_2bandit_a2.png","68","68","test","1","171","171","8","",""
"null","646291","pSARL_v2","pSARL_v28ahn14xz","631659ad8e5354f16aef7249","infreq_resp","img/orange_2bandit_a.png","68","68","test","","","","8","",""
"null","646454","pSARL_v2","pSARL_v28ahn14xz","631659ad8e5354f16aef7249","fixation","img/fixation.png","null","","test","","","","","",""
"284.2000000476837","646744","pSARL_v2","pSARL_v28ahn14xz","631659ad8e5354f16aef7249","freq","img/green_2bandit_a2.png","70","70","test","1","172","172","8","",""
"null","647280","pSARL_v2","pSARL_v28ahn14xz","631659ad8e5354f16aef7249","freq_resp","img/green_2bandit_a.png","70","70","test","","","","8","",""
"null","647439","pSARL_v2","pSARL_v28ahn14xz","631659ad8e5354f16aef7249","fixation","img/fixation.png","null","","test","","","","","",""
"82.59999990463257","647528","pSARL_v2","pSARL_v28ahn14xz","631659ad8e5354f16aef7249","freq","img/green_2bandit_a2.png","70","70","test","1","173","173","8","",""
"null","648252","pSARL_v2","pSARL_v28ahn14xz","631659ad8e5354f16aef7249","freq_resp","img/green_2bandit_a.png","70","70","test","","","","8","",""
"null","648419","pSARL_v2","pSARL_v28ahn14xz","631659ad8e5354f16aef7249","fixation","img/fixation.png","null","","test","","","","","",""
"310.39999985694885","648735","pSARL_v2","pSARL_v28ahn14xz","631659ad8e5354f16aef7249","freq","img/green_2bandit_a2.png","70","70","test","1","174","174","8","",""
"null","649231","pSARL_v2","pSARL_v28ahn14xz","631659ad8e5354f16aef7249","freq_resp","img/green_2bandit_a.png","70","70","test","","","","8","",""
"null","649387","pSARL_v2","pSARL_v28ahn14xz","631659ad8e5354f16aef7249","fixation","img/fixation.png","null","","test","","","","","",""
"230.79999995231628","649625","pSARL_v2","pSARL_v28ahn14xz","631659ad8e5354f16aef7249","freq","img/green_2bandit_a2.png","70","70","test","1","175","175","8","",""
"null","650209","pSARL_v2","pSARL_v28ahn14xz","631659ad8e5354f16aef7249","freq_resp","img/green_2bandit_a.png","70","70","test","","","","8","",""
"null","650374","pSARL_v2","pSARL_v28ahn14xz","631659ad8e5354f16aef7249","fixation","img/fixation.png","null","","test","","","","","",""
"267.7000000476837","650648","pSARL_v2","pSARL_v28ahn14xz","631659ad8e5354f16aef7249","freq","img/green_2bandit_a2.png","70","70","test","1","176","176","8","",""
"null","651195","pSARL_v2","pSARL_v28ahn14xz","631659ad8e5354f16aef7249","freq_resp","img/green_2bandit_a.png","70","70","test","","","","8","",""
"null","651354","pSARL_v2","pSARL_v28ahn14xz","631659ad8e5354f16aef7249","fixation","img/fixation.png","null","","test","","","","","",""
"256.09999990463257","651616","pSARL_v2","pSARL_v28ahn14xz","631659ad8e5354f16aef7249","freq","img/green_2bandit_a2.png","70","70","test","1","177","177","8","",""
"null","652179","pSARL_v2","pSARL_v28ahn14xz","631659ad8e5354f16aef7249","freq_resp","img/green_2bandit_a.png","70","70","test","","","","8","",""
"null","652339","pSARL_v2","pSARL_v28ahn14xz","631659ad8e5354f16aef7249","fixation","img/fixation.png","null","","test","","","","","",""
"166.80000019073486","652513","pSARL_v2","pSARL_v28ahn14xz","631659ad8e5354f16aef7249","freq","img/green_2bandit_a2.png","70","70","test","1","178","178","8","",""
"null","653158","pSARL_v2","pSARL_v28ahn14xz","631659ad8e5354f16aef7249","freq_resp","img/green_2bandit_a.png","70","70","test","","","","8","",""
"null","653324","pSARL_v2","pSARL_v28ahn14xz","631659ad8e5354f16aef7249","fixation","img/fixation.png","null","","test","","","","","",""
"309.2000000476837","653638","pSARL_v2","pSARL_v28ahn14xz","631659ad8e5354f16aef7249","freq","img/green_2bandit_a2.png","70","70","test","1","179","179","8","",""
"null","654149","pSARL_v2","pSARL_v28ahn14xz","631659ad8e5354f16aef7249","freq_resp","img/green_2bandit_a.png","70","70","test","","","","8","",""
"null","654306","pSARL_v2","pSARL_v28ahn14xz","631659ad8e5354f16aef7249","fixation","img/fixation.png","null","","test","","","","","",""
"311.80000019073486","654625","pSARL_v2","pSARL_v28ahn14xz","631659ad8e5354f16aef7249","freq","img/green_2bandit_a2.png","70","70","test","1","180","180","8","",""
"null","655134","pSARL_v2","pSARL_v28ahn14xz","631659ad8e5354f16aef7249","freq_resp","img/green_2bandit_a.png","70","70","test","","","","8","",""
"null","655290","pSARL_v2","pSARL_v28ahn14xz","631659ad8e5354f16aef7249","fixation","img/fixation.png","null","","test","","","","","",""
"238.90000009536743","655533","pSARL_v2","pSARL_v28ahn14xz","631659ad8e5354f16aef7249","freq","img/green_2bandit_a2.png","70","70","test","1","181","181","8","",""
"null","656112","pSARL_v2","pSARL_v28ahn14xz","631659ad8e5354f16aef7249","freq_resp","img/green_2bandit_a.png","70","70","test","","","","8","",""
"null","656273","pSARL_v2","pSARL_v28ahn14xz","631659ad8e5354f16aef7249","fixation","img/fixation.png","null","","test","","","","","",""
"104.70000004768372","656384","pSARL_v2","pSARL_v28ahn14xz","631659ad8e5354f16aef7249","freq","img/green_2bandit_a2.png","70","70","test","1","182","182","8","",""
"null","657087","pSARL_v2","pSARL_v28ahn14xz","631659ad8e5354f16aef7249","freq_resp","img/green_2bandit_a.png","70","70","test","","","","8","",""
"null","657257","pSARL_v2","pSARL_v28ahn14xz","631659ad8e5354f16aef7249","fixation","img/fixation.png","null","","test","","","","","",""
"280.2999999523163","657540","pSARL_v2","pSARL_v28ahn14xz","631659ad8e5354f16aef7249","freq","img/green_2bandit_a2.png","70","70","test","1","183","183","8","",""
"null","658082","pSARL_v2","pSARL_v28ahn14xz","631659ad8e5354f16aef7249","freq_resp","img/green_2bandit_a.png","70","70","test","","","","8","",""
"null","658240","pSARL_v2","pSARL_v28ahn14xz","631659ad8e5354f16aef7249","fixation","img/fixation.png","null","","test","","","","","",""
"538.2000000476837","658785","pSARL_v2","pSARL_v28ahn14xz","631659ad8e5354f16aef7249","reward","img/slot.png","74","","test","","","","","",""
"null","659549","pSARL_v2","pSARL_v28ahn14xz","631659ad8e5354f16aef7249","points","<div class=""verylowPoints""> -4 </div>","null","na","test","","","","8","-4","7"
"388.59999990463257","659942","pSARL_v2","pSARL_v28ahn14xz","631659ad8e5354f16aef7249","freq","img/green_2bandit_a2.png","70","70","test","1","184","184","9","",""
"null","660370","pSARL_v2","pSARL_v28ahn14xz","631659ad8e5354f16aef7249","freq_resp","img/green_2bandit_a.png","70","70","test","","","","9","",""
"null","660538","pSARL_v2","pSARL_v28ahn14xz","631659ad8e5354f16aef7249","fixation","img/fixation.png","null","","test","","","","","",""
"175.80000019073486","660720","pSARL_v2","pSARL_v28ahn14xz","631659ad8e5354f16aef7249","freq","img/green_2bandit_a2.png","70","70","test","1","185","185","9","",""
"null","661357","pSARL_v2","pSARL_v28ahn14xz","631659ad8e5354f16aef7249","freq_resp","img/green_2bandit_a.png","70","70","test","","","","9","",""
"null","661522","pSARL_v2","pSARL_v28ahn14xz","631659ad8e5354f16aef7249","fixation","img/fixation.png","null","","test","","","","","",""
"15.100000143051147","661540","pSARL_v2","pSARL_v28ahn14xz","631659ad8e5354f16aef7249","freq","img/green_2bandit_a2.png","70","70","test","1","186","186","9","",""
"null","662332","pSARL_v2","pSARL_v28ahn14xz","631659ad8e5354f16aef7249","freq_resp","img/green_2bandit_a.png","70","70","test","","","","9","",""
"null","662488","pSARL_v2","pSARL_v28ahn14xz","631659ad8e5354f16aef7249","fixation","img/fixation.png","null","","test","","","","","",""
"769.5999999046326","663263","pSARL_v2","pSARL_v28ahn14xz","631659ad8e5354f16aef7249","freq","img/green_2bandit_a2.png","70","70","test","1","187","187","9","",""
"null","663298","pSARL_v2","pSARL_v28ahn14xz","631659ad8e5354f16aef7249","freq_resp","img/green_2bandit_a.png","70","70","test","","","","9","",""
"null","663458","pSARL_v2","pSARL_v28ahn14xz","631659ad8e5354f16aef7249","fixation","img/fixation.png","null","","test","","","","","",""
"495.59999990463257","663960","pSARL_v2","pSARL_v28ahn14xz","631659ad8e5354f16aef7249","infreq","img/orange_2bandit_a2.png","68","68","test","1","188","188","9","",""
"null","664280","pSARL_v2","pSARL_v28ahn14xz","631659ad8e5354f16aef7249","infreq_resp","img/orange_2bandit_a.png","68","68","test","","","","9","",""
"null","664440","pSARL_v2","pSARL_v28ahn14xz","631659ad8e5354f16aef7249","fixation","img/fixation.png","null","","test","","","","","",""
"328.59999990463257","664776","pSARL_v2","pSARL_v28ahn14xz","631659ad8e5354f16aef7249","freq","img/green_2bandit_a2.png","70","70","test","1","189","189","9","",""
"null","665268","pSARL_v2","pSARL_v28ahn14xz","631659ad8e5354f16aef7249","freq_resp","img/green_2bandit_a.png","70","70","test","","","","9","",""
"null","665440","pSARL_v2","pSARL_v28ahn14xz","631659ad8e5354f16aef7249","fixation","img/fixation.png","null","","test","","","","","",""
"81.60000014305115","665526","pSARL_v2","pSARL_v28ahn14xz","631659ad8e5354f16aef7249","infreq","img/orange_2bandit_a2.png","70","68","test","0","190","190","9","",""
"null","666251","pSARL_v2","pSARL_v28ahn14xz","631659ad8e5354f16aef7249","infreq_resp","img/orange_2bandit_a.png","70","68","test","","","","9","",""
"null","666419","pSARL_v2","pSARL_v28ahn14xz","631659ad8e5354f16aef7249","fixation","img/fixation.png","null","","test","","","","","",""
"366.60000014305115","666791","pSARL_v2","pSARL_v28ahn14xz","631659ad8e5354f16aef7249","freq","img/green_2bandit_a2.png","70","70","test","1","191","191","9","",""
"null","667238","pSARL_v2","pSARL_v28ahn14xz","631659ad8e5354f16aef7249","freq_resp","img/green_2bandit_a.png","70","70","test","","","","9","",""
"null","667402","pSARL_v2","pSARL_v28ahn14xz","631659ad8e5354f16aef7249","fixation","img/fixation.png","null","","test","","","","","",""
"351.10000014305115","667757","pSARL_v2","pSARL_v28ahn14xz","631659ad8e5354f16aef7249","freq","img/green_2bandit_a2.png","70","70","test","1","192","192","9","",""
"null","668220","pSARL_v2","pSARL_v28ahn14xz","631659ad8e5354f16aef7249","freq_resp","img/green_2bandit_a.png","70","70","test","","","","9","",""
"null","668389","pSARL_v2","pSARL_v28ahn14xz","631659ad8e5354f16aef7249","fixation","img/fixation.png","null","","test","","","","","",""
"299.80000019073486","668696","pSARL_v2","pSARL_v28ahn14xz","631659ad8e5354f16aef7249","freq","img/green_2bandit_a2.png","70","70","test","1","193","193","9","",""
"null","669215","pSARL_v2","pSARL_v28ahn14xz","631659ad8e5354f16aef7249","freq_resp","img/green_2bandit_a.png","70","70","test","","","","9","",""
"null","669373","pSARL_v2","pSARL_v28ahn14xz","631659ad8e5354f16aef7249","fixation","img/fixation.png","null","","test","","","","","",""
"324.7999999523163","669704","pSARL_v2","pSARL_v28ahn14xz","631659ad8e5354f16aef7249","freq","img/green_2bandit_a2.png","70","70","test","1","194","194","9","",""
"null","670201","pSARL_v2","pSARL_v28ahn14xz","631659ad8e5354f16aef7249","freq_resp","img/green_2bandit_a.png","70","70","test","","","","9","",""
"null","670373","pSARL_v2","pSARL_v28ahn14xz","631659ad8e5354f16aef7249","fixation","img/fixation.png","null","","test","","","","","",""
"356.40000009536743","670734","pSARL_v2","pSARL_v28ahn14xz","631659ad8e5354f16aef7249","freq","img/green_2bandit_a2.png","70","70","test","1","195","195","9","",""
"null","671184","pSARL_v2","pSARL_v28ahn14xz","631659ad8e5354f16aef7249","freq_resp","img/green_2bandit_a.png","70","70","test","","","","9","",""
"null","671355","pSARL_v2","pSARL_v28ahn14xz","631659ad8e5354f16aef7249","fixation","img/fixation.png","null","","test","","","","","",""
"343.09999990463257","671704","pSARL_v2","pSARL_v28ahn14xz","631659ad8e5354f16aef7249","freq","img/green_2bandit_a2.png","70","70","test","1","196","196","9","",""
"null","672168","pSARL_v2","pSARL_v28ahn14xz","631659ad8e5354f16aef7249","freq_resp","img/green_2bandit_a.png","70","70","test","","","","9","",""
"null","672339","pSARL_v2","pSARL_v28ahn14xz","631659ad8e5354f16aef7249","fixation","img/fixation.png","null","","test","","","","","",""
"302.7000000476837","672646","pSARL_v2","pSARL_v28ahn14xz","631659ad8e5354f16aef7249","freq","img/green_2bandit_a2.png","70","70","test","1","197","197","9","",""
"null","673149","pSARL_v2","pSARL_v28ahn14xz","631659ad8e5354f16aef7249","freq_resp","img/green_2bandit_a.png","70","70","test","","","","9","",""
"null","673304","pSARL_v2","pSARL_v28ahn14xz","631659ad8e5354f16aef7249","fixation","img/fixation.png","null","","test","","","","","",""
"305.59999990463257","673615","pSARL_v2","pSARL_v28ahn14xz","631659ad8e5354f16aef7249","freq","img/green_2bandit_a2.png","70","70","test","1","198","198","9","",""
"null","674117","pSARL_v2","pSARL_v28ahn14xz","631659ad8e5354f16aef7249","freq_resp","img/green_2bandit_a.png","70","70","test","","","","9","",""
"null","674289","pSARL_v2","pSARL_v28ahn14xz","631659ad8e5354f16aef7249","fixation","img/fixation.png","null","","test","","","","","",""
"328.80000019073486","674624","pSARL_v2","pSARL_v28ahn14xz","631659ad8e5354f16aef7249","freq","img/green_2bandit_a2.png","70","70","test","1","199","199","9","",""
"null","675102","pSARL_v2","pSARL_v28ahn14xz","631659ad8e5354f16aef7249","freq_resp","img/green_2bandit_a.png","70","70","test","","","","9","",""
"null","675272","pSARL_v2","pSARL_v28ahn14xz","631659ad8e5354f16aef7249","fixation","img/fixation.png","null","","test","","","","","",""
"312.2000000476837","675591","pSARL_v2","pSARL_v28ahn14xz","631659ad8e5354f16aef7249","freq","img/green_2bandit_a2.png","70","70","test","1","200","200","9","",""
"null","676085","pSARL_v2","pSARL_v28ahn14xz","631659ad8e5354f16aef7249","freq_resp","img/green_2bandit_a.png","70","70","test","","","","9","",""
"null","676255","pSARL_v2","pSARL_v28ahn14xz","631659ad8e5354f16aef7249","fixation","img/fixation.png","null","","test","","","","","",""
"314.2999999523163","676574","pSARL_v2","pSARL_v28ahn14xz","631659ad8e5354f16aef7249","freq","img/green_2bandit_a2.png","70","70","test","1","201","201","9","",""
"null","677068","pSARL_v2","pSARL_v28ahn14xz","631659ad8e5354f16aef7249","freq_resp","img/green_2bandit_a.png","70","70","test","","","","9","",""
"null","677238","pSARL_v2","pSARL_v28ahn14xz","631659ad8e5354f16aef7249","fixation","img/fixation.png","null","","test","","","","","",""
"275.60000014305115","677518","pSARL_v2","pSARL_v28ahn14xz","631659ad8e5354f16aef7249","freq","img/green_2bandit_a2.png","70","70","test","1","202","202","9","",""
"null","678065","pSARL_v2","pSARL_v28ahn14xz","631659ad8e5354f16aef7249","freq_resp","img/green_2bandit_a.png","70","70","test","","","","9","",""
"null","678223","pSARL_v2","pSARL_v28ahn14xz","631659ad8e5354f16aef7249","fixation","img/fixation.png","null","","test","","","","","",""
"298.60000014305115","678528","pSARL_v2","pSARL_v28ahn14xz","631659ad8e5354f16aef7249","freq","img/green_2bandit_a2.png","70","70","test","1","203","203","9","",""
"null","679049","pSARL_v2","pSARL_v28ahn14xz","631659ad8e5354f16aef7249","freq_resp","img/green_2bandit_a.png","70","70","test","","","","9","",""
"null","679207","pSARL_v2","pSARL_v28ahn14xz","631659ad8e5354f16aef7249","fixation","img/fixation.png","null","","test","","","","","",""
"251.29999995231628","679464","pSARL_v2","pSARL_v28ahn14xz","631659ad8e5354f16aef7249","infreq","img/orange_2bandit_a2.png","70","68","test","0","204","204","9","",""
"null","680029","pSARL_v2","pSARL_v28ahn14xz","631659ad8e5354f16aef7249","infreq_resp","img/orange_2bandit_a.png","70","68","test","","","","9","",""
"null","680190","pSARL_v2","pSARL_v28ahn14xz","631659ad8e5354f16aef7249","fixation","img/fixation.png","null","","test","","","","","",""
"348.2000000476837","680545","pSARL_v2","pSARL_v28ahn14xz","631659ad8e5354f16aef7249","freq","img/green_2bandit_a2.png","70","70","test","1","205","205","9","",""
"null","681001","pSARL_v2","pSARL_v28ahn14xz","631659ad8e5354f16aef7249","freq_resp","img/green_2bandit_a.png","70","70","test","","","","9","",""
"null","681172","pSARL_v2","pSARL_v28ahn14xz","631659ad8e5354f16aef7249","fixation","img/fixation.png","null","","test","","","","","",""
"333.7999999523163","681514","pSARL_v2","pSARL_v28ahn14xz","631659ad8e5354f16aef7249","freq","img/green_2bandit_a2.png","70","70","test","1","206","206","9","",""
"null","681999","pSARL_v2","pSARL_v28ahn14xz","631659ad8e5354f16aef7249","freq_resp","img/green_2bandit_a.png","70","70","test","","","","9","",""
