"rt","time_elapsed","expId","subject","prolificID","trialType","stimulus","key_press","corrresp","phase","corr","trialNum","attentionRunNum","blockNum","points","rlNum"
"35623.20000000298","35637","pSARL_v2","pSARL_v2nmutjead","640b129fbdcd3bb1c4f1f7fe","","","","","","","","","","",""
"","39881","pSARL_v2","pSARL_v2nmutjead","640b129fbdcd3bb1c4f1f7fe","fullscreen","","","","","","","","","",""
"192517.90000000224","232414","pSARL_v2","pSARL_v2nmutjead","640b129fbdcd3bb1c4f1f7fe","","","","","","","","","","",""
"null","233231","pSARL_v2","pSARL_v2nmutjead","640b129fbdcd3bb1c4f1f7fe","freqPrac","img/orange_2bandit_b2.png","null","70","prac","0","","","","",""
"null","234247","pSARL_v2","pSARL_v2nmutjead","640b129fbdcd3bb1c4f1f7fe","feedback","img/tooSlow.png","null","na","prac","","","","","",""
"null","234412","pSARL_v2","pSARL_v2nmutjead","640b129fbdcd3bb1c4f1f7fe","fixation","img/fixation.png","null","","prac","","","","","",""
"769.7999999970198","235192","pSARL_v2","pSARL_v2nmutjead","640b129fbdcd3bb1c4f1f7fe","infreqPrac","img/green_2bandit_b2.png","68","68","prac","1","","","","",""
"769.7999999970198","235230","pSARL_v2","pSARL_v2nmutjead","640b129fbdcd3bb1c4f1f7fe","infreqPrac_resp","img/green_2bandit_b.png","68","68","prac","","","","","",""
"null","235393","pSARL_v2","pSARL_v2nmutjead","640b129fbdcd3bb1c4f1f7fe","fixation","img/fixation.png","null","","prac","","","","","",""
"753.3999999985099","236158","pSARL_v2","pSARL_v2nmutjead","640b129fbdcd3bb1c4f1f7fe","freqPrac","img/orange_2bandit_b2.png","70","70","prac","1","","","","",""
"753.3999999985099","236219","pSARL_v2","pSARL_v2nmutjead","640b129fbdcd3bb1c4f1f7fe","freqPrac_resp","img/orange_2bandit_b.png","70","70","prac","","","","","",""
"null","236385","pSARL_v2","pSARL_v2nmutjead","640b129fbdcd3bb1c4f1f7fe","fixation","img/fixation.png","null","","prac","","","","","",""
"624","237019","pSARL_v2","pSARL_v2nmutjead","640b129fbdcd3bb1c4f1f7fe","infreqPrac","img/green_2bandit_b2.png","68","68","prac","1","","","","",""
"624","237209","pSARL_v2","pSARL_v2nmutjead","640b129fbdcd3bb1c4f1f7fe","infreqPrac_resp","img/green_2bandit_b.png","68","68","prac","","","","","",""
"null","237375","pSARL_v2","pSARL_v2nmutjead","640b129fbdcd3bb1c4f1f7fe","fixation","img/fixation.png","null","","prac","","","","","",""
"478.8999999985099","237863","pSARL_v2","pSARL_v2nmutjead","640b129fbdcd3bb1c4f1f7fe","infreqPrac","img/green_2bandit_b2.png","68","68","prac","1","","","","",""
"478.8999999985099","238195","pSARL_v2","pSARL_v2nmutjead","640b129fbdcd3bb1c4f1f7fe","infreqPrac_resp","img/green_2bandit_b.png","68","68","prac","","","","","",""
"null","238360","pSARL_v2","pSARL_v2nmutjead","640b129fbdcd3bb1c4f1f7fe","fixation","img/fixation.png","null","","prac","","","","","",""
"394.30000000074506","238764","pSARL_v2","pSARL_v2nmutjead","640b129fbdcd3bb1c4f1f7fe","infreqPrac","img/green_2bandit_b2.png","68","68","prac","1","","","","",""
"394.30000000074506","239180","pSARL_v2","pSARL_v2nmutjead","640b129fbdcd3bb1c4f1f7fe","infreqPrac_resp","img/green_2bandit_b.png","68","68","prac","","","","","",""
"null","239351","pSARL_v2","pSARL_v2nmutjead","640b129fbdcd3bb1c4f1f7fe","fixation","img/fixation.png","null","","prac","","","","","",""
"464.30000000074506","239824","pSARL_v2","pSARL_v2nmutjead","640b129fbdcd3bb1c4f1f7fe","freqPrac","img/orange_2bandit_b2.png","70","70","prac","1","","","","",""
"464.30000000074506","240169","pSARL_v2","pSARL_v2nmutjead","640b129fbdcd3bb1c4f1f7fe","freqPrac_resp","img/orange_2bandit_b.png","70","70","prac","","","","","",""
"null","240338","pSARL_v2","pSARL_v2nmutjead","640b129fbdcd3bb1c4f1f7fe","fixation","img/fixation.png","null","","prac","","","","","",""
"687.5","241035","pSARL_v2","pSARL_v2nmutjead","640b129fbdcd3bb1c4f1f7fe","infreqPrac","img/green_2bandit_b2.png","68","68","prac","1","","","","",""
"687.5","241172","pSARL_v2","pSARL_v2nmutjead","640b129fbdcd3bb1c4f1f7fe","infreqPrac_resp","img/green_2bandit_b.png","68","68","prac","","","","","",""
"null","241337","pSARL_v2","pSARL_v2nmutjead","640b129fbdcd3bb1c4f1f7fe","fixation","img/fixation.png","null","","prac","","","","","",""
"null","242148","pSARL_v2","pSARL_v2nmutjead","640b129fbdcd3bb1c4f1f7fe","freqPrac","img/orange_2bandit_b2.png","null","70","prac","0","","","","",""
"null","243167","pSARL_v2","pSARL_v2nmutjead","640b129fbdcd3bb1c4f1f7fe","feedback","img/tooSlow.png","null","na","prac","","","","","",""
"null","243337","pSARL_v2","pSARL_v2nmutjead","640b129fbdcd3bb1c4f1f7fe","fixation","img/fixation.png","null","","prac","","","","","",""
"null","244153","pSARL_v2","pSARL_v2nmutjead","640b129fbdcd3bb1c4f1f7fe","freqPrac","img/orange_2bandit_b2.png","null","70","prac","0","","","","",""
"null","245174","pSARL_v2","pSARL_v2nmutjead","640b129fbdcd3bb1c4f1f7fe","feedback","img/tooSlow.png","null","na","prac","","","","","",""
"null","245341","pSARL_v2","pSARL_v2nmutjead","640b129fbdcd3bb1c4f1f7fe","fixation","img/fixation.png","null","","prac","","","","","",""
"64160","309507","pSARL_v2","pSARL_v2nmutjead","640b129fbdcd3bb1c4f1f7fe","","","","","prac","","","","","",""
"570.6000000014901","310082","pSARL_v2","pSARL_v2nmutjead","640b129fbdcd3bb1c4f1f7fe","rewardPractice","img/slot.png","74","","prac","","","","","",""
"null","310846","pSARL_v2","pSARL_v2nmutjead","640b129fbdcd3bb1c4f1f7fe","feedback","<div class=""veryhighPoints""> +15 </div>","null","na","prac","","","","","",""
"null","311009","pSARL_v2","pSARL_v2nmutjead","640b129fbdcd3bb1c4f1f7fe","fixation","img/fixation.png","null","","prac","","","","","",""
"10718.699999999255","321733","pSARL_v2","pSARL_v2nmutjead","640b129fbdcd3bb1c4f1f7fe","","","","","prac","","","","","",""
"565.1000000014901","322303","pSARL_v2","pSARL_v2nmutjead","640b129fbdcd3bb1c4f1f7fe","freq","img/orange_2bandit_b2.png","70","70","test","1","1","1","1","",""
"null","322553","pSARL_v2","pSARL_v2nmutjead","640b129fbdcd3bb1c4f1f7fe","freq_resp","img/orange_2bandit_b.png","70","70","test","","","","1","",""
"null","322714","pSARL_v2","pSARL_v2nmutjead","640b129fbdcd3bb1c4f1f7fe","fixation","img/fixation.png","null","","test","","","","","",""
"472.69999999925494","323192","pSARL_v2","pSARL_v2nmutjead","640b129fbdcd3bb1c4f1f7fe","freq","img/orange_2bandit_b2.png","70","70","test","1","2","2","1","",""
"null","323530","pSARL_v2","pSARL_v2nmutjead","640b129fbdcd3bb1c4f1f7fe","freq_resp","img/orange_2bandit_b.png","70","70","test","","","","1","",""
"null","323691","pSARL_v2","pSARL_v2nmutjead","640b129fbdcd3bb1c4f1f7fe","fixation","img/fixation.png","null","","test","","","","","",""
"372.6000000014901","324070","pSARL_v2","pSARL_v2nmutjead","640b129fbdcd3bb1c4f1f7fe","freq","img/orange_2bandit_b2.png","70","70","test","1","3","3","1","",""
"null","324515","pSARL_v2","pSARL_v2nmutjead","640b129fbdcd3bb1c4f1f7fe","freq_resp","img/orange_2bandit_b.png","70","70","test","","","","1","",""
"null","324684","pSARL_v2","pSARL_v2nmutjead","640b129fbdcd3bb1c4f1f7fe","fixation","img/fixation.png","null","","test","","","","","",""
"329.3999999985099","325019","pSARL_v2","pSARL_v2nmutjead","640b129fbdcd3bb1c4f1f7fe","freq","img/orange_2bandit_b2.png","70","70","test","1","4","4","1","",""
"null","325502","pSARL_v2","pSARL_v2nmutjead","640b129fbdcd3bb1c4f1f7fe","freq_resp","img/orange_2bandit_b.png","70","70","test","","","","1","",""
"null","325672","pSARL_v2","pSARL_v2nmutjead","640b129fbdcd3bb1c4f1f7fe","fixation","img/fixation.png","null","","test","","","","","",""
"354.30000000074506","326033","pSARL_v2","pSARL_v2nmutjead","640b129fbdcd3bb1c4f1f7fe","freq","img/orange_2bandit_b2.png","70","70","test","1","5","5","1","",""
"null","326491","pSARL_v2","pSARL_v2nmutjead","640b129fbdcd3bb1c4f1f7fe","freq_resp","img/orange_2bandit_b.png","70","70","test","","","","1","",""
"null","326648","pSARL_v2","pSARL_v2nmutjead","640b129fbdcd3bb1c4f1f7fe","fixation","img/fixation.png","null","","test","","","","","",""
"247","326900","pSARL_v2","pSARL_v2nmutjead","640b129fbdcd3bb1c4f1f7fe","freq","img/orange_2bandit_b2.png","70","70","test","1","6","6","1","",""
"null","327461","pSARL_v2","pSARL_v2nmutjead","640b129fbdcd3bb1c4f1f7fe","freq_resp","img/orange_2bandit_b.png","70","70","test","","","","1","",""
"null","327617","pSARL_v2","pSARL_v2nmutjead","640b129fbdcd3bb1c4f1f7fe","fixation","img/fixation.png","null","","test","","","","","",""
"282","327904","pSARL_v2","pSARL_v2nmutjead","640b129fbdcd3bb1c4f1f7fe","freq","img/orange_2bandit_b2.png","70","70","test","1","7","7","1","",""
"null","328431","pSARL_v2","pSARL_v2nmutjead","640b129fbdcd3bb1c4f1f7fe","freq_resp","img/orange_2bandit_b.png","70","70","test","","","","1","",""
"null","328602","pSARL_v2","pSARL_v2nmutjead","640b129fbdcd3bb1c4f1f7fe","fixation","img/fixation.png","null","","test","","","","","",""
"306.5","328913","pSARL_v2","pSARL_v2nmutjead","640b129fbdcd3bb1c4f1f7fe","infreq","img/green_2bandit_b2.png","70","68","test","0","8","8","1","",""
"null","329416","pSARL_v2","pSARL_v2nmutjead","640b129fbdcd3bb1c4f1f7fe","infreq_resp","img/green_2bandit_b.png","70","68","test","","","","1","",""
"null","329588","pSARL_v2","pSARL_v2nmutjead","640b129fbdcd3bb1c4f1f7fe","fixation","img/fixation.png","null","","test","","","","","",""
"707.1000000014901","330300","pSARL_v2","pSARL_v2nmutjead","640b129fbdcd3bb1c4f1f7fe","freq","img/orange_2bandit_b2.png","70","70","test","1","9","9","1","",""
"null","330399","pSARL_v2","pSARL_v2nmutjead","640b129fbdcd3bb1c4f1f7fe","freq_resp","img/orange_2bandit_b.png","70","70","test","","","","1","",""
"null","330556","pSARL_v2","pSARL_v2nmutjead","640b129fbdcd3bb1c4f1f7fe","fixation","img/fixation.png","null","","test","","","","","",""
"651.8999999985099","331213","pSARL_v2","pSARL_v2nmutjead","640b129fbdcd3bb1c4f1f7fe","freq","img/orange_2bandit_b2.png","70","70","test","1","10","10","1","",""
"null","331371","pSARL_v2","pSARL_v2nmutjead","640b129fbdcd3bb1c4f1f7fe","freq_resp","img/orange_2bandit_b.png","70","70","test","","","","1","",""
"null","331542","pSARL_v2","pSARL_v2nmutjead","640b129fbdcd3bb1c4f1f7fe","fixation","img/fixation.png","null","","test","","","","","",""
"536.6000000014901","332084","pSARL_v2","pSARL_v2nmutjead","640b129fbdcd3bb1c4f1f7fe","freq","img/orange_2bandit_b2.png","70","70","test","1","11","11","1","",""
"null","332357","pSARL_v2","pSARL_v2nmutjead","640b129fbdcd3bb1c4f1f7fe","freq_resp","img/orange_2bandit_b.png","70","70","test","","","","1","",""
"null","332528","pSARL_v2","pSARL_v2nmutjead","640b129fbdcd3bb1c4f1f7fe","fixation","img/fixation.png","null","","test","","","","","",""
"419","332952","pSARL_v2","pSARL_v2nmutjead","640b129fbdcd3bb1c4f1f7fe","freq","img/orange_2bandit_b2.png","70","70","test","1","12","12","1","",""
"null","333342","pSARL_v2","pSARL_v2nmutjead","640b129fbdcd3bb1c4f1f7fe","freq_resp","img/orange_2bandit_b.png","70","70","test","","","","1","",""
"null","333500","pSARL_v2","pSARL_v2nmutjead","640b129fbdcd3bb1c4f1f7fe","fixation","img/fixation.png","null","","test","","","","","",""
"469.5999999977648","333975","pSARL_v2","pSARL_v2nmutjead","640b129fbdcd3bb1c4f1f7fe","freq","img/orange_2bandit_b2.png","70","70","test","1","13","13","1","",""
"null","334311","pSARL_v2","pSARL_v2nmutjead","640b129fbdcd3bb1c4f1f7fe","freq_resp","img/orange_2bandit_b.png","70","70","test","","","","1","",""
"null","334470","pSARL_v2","pSARL_v2nmutjead","640b129fbdcd3bb1c4f1f7fe","fixation","img/fixation.png","null","","test","","","","","",""
"410.6000000014901","334885","pSARL_v2","pSARL_v2nmutjead","640b129fbdcd3bb1c4f1f7fe","freq","img/orange_2bandit_b2.png","70","70","test","1","14","14","1","",""
"null","335284","pSARL_v2","pSARL_v2nmutjead","640b129fbdcd3bb1c4f1f7fe","freq_resp","img/orange_2bandit_b.png","70","70","test","","","","1","",""
"null","335456","pSARL_v2","pSARL_v2nmutjead","640b129fbdcd3bb1c4f1f7fe","fixation","img/fixation.png","null","","test","","","","","",""
"370.69999999925494","335832","pSARL_v2","pSARL_v2nmutjead","640b129fbdcd3bb1c4f1f7fe","freq","img/orange_2bandit_b2.png","70","70","test","1","15","15","1","",""
"null","336267","pSARL_v2","pSARL_v2nmutjead","640b129fbdcd3bb1c4f1f7fe","freq_resp","img/orange_2bandit_b.png","70","70","test","","","","1","",""
"null","336424","pSARL_v2","pSARL_v2nmutjead","640b129fbdcd3bb1c4f1f7fe","fixation","img/fixation.png","null","","test","","","","","",""
"341.79999999701977","336770","pSARL_v2","pSARL_v2nmutjead","640b129fbdcd3bb1c4f1f7fe","freq","img/orange_2bandit_b2.png","70","70","test","1","16","16","1","",""
"null","337238","pSARL_v2","pSARL_v2nmutjead","640b129fbdcd3bb1c4f1f7fe","freq_resp","img/orange_2bandit_b.png","70","70","test","","","","1","",""
"null","337410","pSARL_v2","pSARL_v2nmutjead","640b129fbdcd3bb1c4f1f7fe","fixation","img/fixation.png","null","","test","","","","","",""
"610.5","338025","pSARL_v2","pSARL_v2nmutjead","640b129fbdcd3bb1c4f1f7fe","freq","img/orange_2bandit_b2.png","70","70","test","1","17","17","1","",""
"null","338221","pSARL_v2","pSARL_v2nmutjead","640b129fbdcd3bb1c4f1f7fe","freq_resp","img/orange_2bandit_b.png","70","70","test","","","","1","",""
"null","338393","pSARL_v2","pSARL_v2nmutjead","640b129fbdcd3bb1c4f1f7fe","fixation","img/fixation.png","null","","test","","","","","",""
"null","339206","pSARL_v2","pSARL_v2nmutjead","640b129fbdcd3bb1c4f1f7fe","freq","img/orange_2bandit_b2.png","null","70","test","0","18","18","1","",""
"null","339378","pSARL_v2","pSARL_v2nmutjead","640b129fbdcd3bb1c4f1f7fe","fixation","img/fixation.png","null","","test","","","","","",""
"171.29999999701977","339556","pSARL_v2","pSARL_v2nmutjead","640b129fbdcd3bb1c4f1f7fe","freq","img/orange_2bandit_b2.png","70","70","test","1","19","19","1","",""
"null","340204","pSARL_v2","pSARL_v2nmutjead","640b129fbdcd3bb1c4f1f7fe","freq_resp","img/orange_2bandit_b.png","70","70","test","","","","1","",""
"null","340362","pSARL_v2","pSARL_v2nmutjead","640b129fbdcd3bb1c4f1f7fe","fixation","img/fixation.png","null","","test","","","","","",""
"35.19999999925494","340402","pSARL_v2","pSARL_v2nmutjead","640b129fbdcd3bb1c4f1f7fe","freq","img/orange_2bandit_b2.png","70","70","test","1","20","20","1","",""
"null","341173","pSARL_v2","pSARL_v2nmutjead","640b129fbdcd3bb1c4f1f7fe","freq_resp","img/orange_2bandit_b.png","70","70","test","","","","1","",""
"null","341330","pSARL_v2","pSARL_v2nmutjead","640b129fbdcd3bb1c4f1f7fe","fixation","img/fixation.png","null","","test","","","","","",""
"274.8999999985099","341610","pSARL_v2","pSARL_v2nmutjead","640b129fbdcd3bb1c4f1f7fe","freq","img/orange_2bandit_b2.png","70","70","test","1","21","21","1","",""
"null","342144","pSARL_v2","pSARL_v2nmutjead","640b129fbdcd3bb1c4f1f7fe","freq_resp","img/orange_2bandit_b.png","70","70","test","","","","1","",""
"null","342315","pSARL_v2","pSARL_v2nmutjead","640b129fbdcd3bb1c4f1f7fe","fixation","img/fixation.png","null","","test","","","","","",""
"616.5999999977648","342937","pSARL_v2","pSARL_v2nmutjead","640b129fbdcd3bb1c4f1f7fe","freq","img/orange_2bandit_b2.png","70","70","test","1","22","22","1","",""
"null","343128","pSARL_v2","pSARL_v2nmutjead","640b129fbdcd3bb1c4f1f7fe","freq_resp","img/orange_2bandit_b.png","70","70","test","","","","1","",""
"null","343300","pSARL_v2","pSARL_v2nmutjead","640b129fbdcd3bb1c4f1f7fe","fixation","img/fixation.png","null","","test","","","","","",""
"637","343942","pSARL_v2","pSARL_v2nmutjead","640b129fbdcd3bb1c4f1f7fe","infreq","img/green_2bandit_b2.png","68","68","test","1","23","23","1","",""
"null","344112","pSARL_v2","pSARL_v2nmutjead","640b129fbdcd3bb1c4f1f7fe","infreq_resp","img/green_2bandit_b.png","68","68","test","","","","1","",""
"null","344282","pSARL_v2","pSARL_v2nmutjead","640b129fbdcd3bb1c4f1f7fe","fixation","img/fixation.png","null","","test","","","","","",""
"null","345097","pSARL_v2","pSARL_v2nmutjead","640b129fbdcd3bb1c4f1f7fe","freq","img/orange_2bandit_b2.png","null","70","test","0","24","24","1","",""
"null","345268","pSARL_v2","pSARL_v2nmutjead","640b129fbdcd3bb1c4f1f7fe","fixation","img/fixation.png","null","","test","","","","","",""
"464.5999999977648","345738","pSARL_v2","pSARL_v2nmutjead","640b129fbdcd3bb1c4f1f7fe","freq","img/orange_2bandit_b2.png","70","70","test","1","25","25","1","",""
"null","346082","pSARL_v2","pSARL_v2nmutjead","640b129fbdcd3bb1c4f1f7fe","freq_resp","img/orange_2bandit_b.png","70","70","test","","","","1","",""
"null","346250","pSARL_v2","pSARL_v2nmutjead","640b129fbdcd3bb1c4f1f7fe","fixation","img/fixation.png","null","","test","","","","","",""
"694.5","346949","pSARL_v2","pSARL_v2nmutjead","640b129fbdcd3bb1c4f1f7fe","freq","img/orange_2bandit_b2.png","70","70","test","1","26","26","1","",""
"null","347066","pSARL_v2","pSARL_v2nmutjead","640b129fbdcd3bb1c4f1f7fe","freq_resp","img/orange_2bandit_b.png","70","70","test","","","","1","",""
"null","347237","pSARL_v2","pSARL_v2nmutjead","640b129fbdcd3bb1c4f1f7fe","fixation","img/fixation.png","null","","test","","","","","",""
"602.0999999977648","347845","pSARL_v2","pSARL_v2nmutjead","640b129fbdcd3bb1c4f1f7fe","reward","img/slot.png","74","","test","","","","","",""
"null","348615","pSARL_v2","pSARL_v2nmutjead","640b129fbdcd3bb1c4f1f7fe","points","<div class=""verylowPoints""> -6 </div>","null","na","test","","","","1","-6","0"
"759.8000000007451","349379","pSARL_v2","pSARL_v2nmutjead","640b129fbdcd3bb1c4f1f7fe","freq","img/orange_2bandit_b2.png","70","70","test","1","27","27","2","",""
"null","349427","pSARL_v2","pSARL_v2nmutjead","640b129fbdcd3bb1c4f1f7fe","freq_resp","img/orange_2bandit_b.png","70","70","test","","","","2","",""
"null","349584","pSARL_v2","pSARL_v2nmutjead","640b129fbdcd3bb1c4f1f7fe","fixation","img/fixation.png","null","","test","","","","","",""
"null","350398","pSARL_v2","pSARL_v2nmutjead","640b129fbdcd3bb1c4f1f7fe","freq","img/orange_2bandit_b2.png","null","70","test","0","28","28","2","",""
"null","350554","pSARL_v2","pSARL_v2nmutjead","640b129fbdcd3bb1c4f1f7fe","fixation","img/fixation.png","null","","test","","","","","",""
"41.70000000298023","350601","pSARL_v2","pSARL_v2nmutjead","640b129fbdcd3bb1c4f1f7fe","freq","img/orange_2bandit_b2.png","70","70","test","1","29","29","2","",""
"null","351369","pSARL_v2","pSARL_v2nmutjead","640b129fbdcd3bb1c4f1f7fe","freq_resp","img/orange_2bandit_b.png","70","70","test","","","","2","",""
"null","351526","pSARL_v2","pSARL_v2nmutjead","640b129fbdcd3bb1c4f1f7fe","fixation","img/fixation.png","null","","test","","","","","",""
"330.8999999985099","351862","pSARL_v2","pSARL_v2nmutjead","640b129fbdcd3bb1c4f1f7fe","infreq","img/green_2bandit_b2.png","70","68","test","0","30","30","2","",""
"null","352347","pSARL_v2","pSARL_v2nmutjead","640b129fbdcd3bb1c4f1f7fe","infreq_resp","img/green_2bandit_b.png","70","68","test","","","","2","",""
"null","352507","pSARL_v2","pSARL_v2nmutjead","640b129fbdcd3bb1c4f1f7fe","fixation","img/fixation.png","null","","test","","","","","",""
"592.2000000029802","353105","pSARL_v2","pSARL_v2nmutjead","640b129fbdcd3bb1c4f1f7fe","freq","img/orange_2bandit_b2.png","70","70","test","1","31","31","2","",""
"null","353323","pSARL_v2","pSARL_v2nmutjead","640b129fbdcd3bb1c4f1f7fe","freq_resp","img/orange_2bandit_b.png","70","70","test","","","","2","",""
"null","353482","pSARL_v2","pSARL_v2nmutjead","640b129fbdcd3bb1c4f1f7fe","fixation","img/fixation.png","null","","test","","","","","",""
"616.6000000014901","354104","pSARL_v2","pSARL_v2nmutjead","640b129fbdcd3bb1c4f1f7fe","freq","img/orange_2bandit_b2.png","70","70","test","1","32","32","2","",""
"null","354294","pSARL_v2","pSARL_v2nmutjead","640b129fbdcd3bb1c4f1f7fe","freq_resp","img/orange_2bandit_b.png","70","70","test","","","","2","",""
"null","354454","pSARL_v2","pSARL_v2nmutjead","640b129fbdcd3bb1c4f1f7fe","fixation","img/fixation.png","null","","test","","","","","",""
"659.3000000007451","355120","pSARL_v2","pSARL_v2nmutjead","640b129fbdcd3bb1c4f1f7fe","freq","img/orange_2bandit_b2.png","70","70","test","1","33","33","2","",""
"null","355268","pSARL_v2","pSARL_v2nmutjead","640b129fbdcd3bb1c4f1f7fe","freq_resp","img/orange_2bandit_b.png","70","70","test","","","","2","",""
"null","355424","pSARL_v2","pSARL_v2nmutjead","640b129fbdcd3bb1c4f1f7fe","fixation","img/fixation.png","null","","test","","","","","",""
"767.7999999970198","356199","pSARL_v2","pSARL_v2nmutjead","640b129fbdcd3bb1c4f1f7fe","infreq","img/green_2bandit_b2.png","68","68","test","1","34","34","2","",""
"null","356244","pSARL_v2","pSARL_v2nmutjead","640b129fbdcd3bb1c4f1f7fe","infreq_resp","img/green_2bandit_b.png","68","68","test","","","","2","",""
"null","356410","pSARL_v2","pSARL_v2nmutjead","640b129fbdcd3bb1c4f1f7fe","fixation","img/fixation.png","null","","test","","","","","",""
"691.1999999992549","357108","pSARL_v2","pSARL_v2nmutjead","640b129fbdcd3bb1c4f1f7fe","freq","img/orange_2bandit_b2.png","70","70","test","1","35","35","2","",""
"null","357224","pSARL_v2","pSARL_v2nmutjead","640b129fbdcd3bb1c4f1f7fe","freq_resp","img/orange_2bandit_b.png","70","70","test","","","","2","",""
"null","357386","pSARL_v2","pSARL_v2nmutjead","640b129fbdcd3bb1c4f1f7fe","fixation","img/fixation.png","null","","test","","","","","",""
"640.2999999970198","358031","pSARL_v2","pSARL_v2nmutjead","640b129fbdcd3bb1c4f1f7fe","freq","img/orange_2bandit_b2.png","70","70","test","1","36","36","2","",""
"null","358210","pSARL_v2","pSARL_v2nmutjead","640b129fbdcd3bb1c4f1f7fe","freq_resp","img/orange_2bandit_b.png","70","70","test","","","","2","",""
"null","358371","pSARL_v2","pSARL_v2nmutjead","640b129fbdcd3bb1c4f1f7fe","fixation","img/fixation.png","null","","test","","","","","",""
"722","359099","pSARL_v2","pSARL_v2nmutjead","640b129fbdcd3bb1c4f1f7fe","freq","img/orange_2bandit_b2.png","70","70","test","1","37","37","2","",""
"null","359184","pSARL_v2","pSARL_v2nmutjead","640b129fbdcd3bb1c4f1f7fe","freq_resp","img/orange_2bandit_b.png","70","70","test","","","","2","",""
"null","359344","pSARL_v2","pSARL_v2nmutjead","640b129fbdcd3bb1c4f1f7fe","fixation","img/fixation.png","null","","test","","","","","",""
"746","360095","pSARL_v2","pSARL_v2nmutjead","640b129fbdcd3bb1c4f1f7fe","freq","img/orange_2bandit_b2.png","70","70","test","1","38","38","2","",""
"null","360159","pSARL_v2","pSARL_v2nmutjead","640b129fbdcd3bb1c4f1f7fe","freq_resp","img/orange_2bandit_b.png","70","70","test","","","","2","",""
"null","360317","pSARL_v2","pSARL_v2nmutjead","640b129fbdcd3bb1c4f1f7fe","fixation","img/fixation.png","null","","test","","","","","",""
"null","361129","pSARL_v2","pSARL_v2nmutjead","640b129fbdcd3bb1c4f1f7fe","freq","img/orange_2bandit_b2.png","null","70","test","0","39","39","2","",""
"null","361288","pSARL_v2","pSARL_v2nmutjead","640b129fbdcd3bb1c4f1f7fe","fixation","img/fixation.png","null","","test","","","","","",""
"156.80000000074506","361450","pSARL_v2","pSARL_v2nmutjead","640b129fbdcd3bb1c4f1f7fe","freq","img/orange_2bandit_b2.png","70","70","test","1","40","40","2","",""
"null","362101","pSARL_v2","pSARL_v2nmutjead","640b129fbdcd3bb1c4f1f7fe","freq_resp","img/orange_2bandit_b.png","70","70","test","","","","2","",""
"null","362260","pSARL_v2","pSARL_v2nmutjead","640b129fbdcd3bb1c4f1f7fe","fixation","img/fixation.png","null","","test","","","","","",""
"560.1000000014901","362825","pSARL_v2","pSARL_v2nmutjead","640b129fbdcd3bb1c4f1f7fe","freq","img/orange_2bandit_b2.png","70","70","test","1","41","41","2","",""
"null","363077","pSARL_v2","pSARL_v2nmutjead","640b129fbdcd3bb1c4f1f7fe","freq_resp","img/orange_2bandit_b.png","70","70","test","","","","2","",""
"null","363236","pSARL_v2","pSARL_v2nmutjead","640b129fbdcd3bb1c4f1f7fe","fixation","img/fixation.png","null","","test","","","","","",""
"null","364051","pSARL_v2","pSARL_v2nmutjead","640b129fbdcd3bb1c4f1f7fe","freq","img/orange_2bandit_b2.png","null","70","test","0","42","42","2","",""
"null","364208","pSARL_v2","pSARL_v2nmutjead","640b129fbdcd3bb1c4f1f7fe","fixation","img/fixation.png","null","","test","","","","","",""
"null","365022","pSARL_v2","pSARL_v2nmutjead","640b129fbdcd3bb1c4f1f7fe","freq","img/orange_2bandit_b2.png","null","70","test","0","43","43","2","",""
"null","365192","pSARL_v2","pSARL_v2nmutjead","640b129fbdcd3bb1c4f1f7fe","fixation","img/fixation.png","null","","test","","","","","",""
"439.4000000022352","365636","pSARL_v2","pSARL_v2nmutjead","640b129fbdcd3bb1c4f1f7fe","freq","img/orange_2bandit_b2.png","70","70","test","1","44","44","2","",""
"null","366006","pSARL_v2","pSARL_v2nmutjead","640b129fbdcd3bb1c4f1f7fe","freq_resp","img/orange_2bandit_b.png","70","70","test","","","","2","",""
"null","366164","pSARL_v2","pSARL_v2nmutjead","640b129fbdcd3bb1c4f1f7fe","fixation","img/fixation.png","null","","test","","","","","",""
"444.0999999977648","366613","pSARL_v2","pSARL_v2nmutjead","640b129fbdcd3bb1c4f1f7fe","freq","img/orange_2bandit_b2.png","70","70","test","1","45","45","2","",""
"null","366979","pSARL_v2","pSARL_v2nmutjead","640b129fbdcd3bb1c4f1f7fe","freq_resp","img/orange_2bandit_b.png","70","70","test","","","","2","",""
"null","367149","pSARL_v2","pSARL_v2nmutjead","640b129fbdcd3bb1c4f1f7fe","fixation","img/fixation.png","null","","test","","","","","",""
"460.80000000074506","367615","pSARL_v2","pSARL_v2nmutjead","640b129fbdcd3bb1c4f1f7fe","freq","img/orange_2bandit_b2.png","70","70","test","1","46","46","2","",""
"null","367964","pSARL_v2","pSARL_v2nmutjead","640b129fbdcd3bb1c4f1f7fe","freq_resp","img/orange_2bandit_b.png","70","70","test","","","","2","",""
"null","368121","pSARL_v2","pSARL_v2nmutjead","640b129fbdcd3bb1c4f1f7fe","fixation","img/fixation.png","null","","test","","","","","",""
"486.4000000022352","368614","pSARL_v2","pSARL_v2nmutjead","640b129fbdcd3bb1c4f1f7fe","freq","img/orange_2bandit_b2.png","70","70","test","1","47","47","2","",""
"null","368932","pSARL_v2","pSARL_v2nmutjead","640b129fbdcd3bb1c4f1f7fe","freq_resp","img/orange_2bandit_b.png","70","70","test","","","","2","",""
"null","369090","pSARL_v2","pSARL_v2nmutjead","640b129fbdcd3bb1c4f1f7fe","fixation","img/fixation.png","null","","test","","","","","",""
"504.80000000074506","369599","pSARL_v2","pSARL_v2nmutjead","640b129fbdcd3bb1c4f1f7fe","freq","img/orange_2bandit_b2.png","70","70","test","1","48","48","2","",""
"null","369905","pSARL_v2","pSARL_v2nmutjead","640b129fbdcd3bb1c4f1f7fe","freq_resp","img/orange_2bandit_b.png","70","70","test","","","","2","",""
"null","370076","pSARL_v2","pSARL_v2nmutjead","640b129fbdcd3bb1c4f1f7fe","fixation","img/fixation.png","null","","test","","","","","",""
"490.19999999925494","370573","pSARL_v2","pSARL_v2nmutjead","640b129fbdcd3bb1c4f1f7fe","reward","img/slot.png","74","","test","","","","","",""
"null","371342","pSARL_v2","pSARL_v2nmutjead","640b129fbdcd3bb1c4f1f7fe","points","<div class=""verylowPoints""> -11 </div>","null","na","test","","","","2","-11","1"
"null","372153","pSARL_v2","pSARL_v2nmutjead","640b129fbdcd3bb1c4f1f7fe","freq","img/orange_2bandit_b2.png","null","70","test","0","49","49","3","",""
"null","372311","pSARL_v2","pSARL_v2nmutjead","640b129fbdcd3bb1c4f1f7fe","fixation","img/fixation.png","null","","test","","","","","",""
"null","373120","pSARL_v2","pSARL_v2nmutjead","640b129fbdcd3bb1c4f1f7fe","freq","img/orange_2bandit_b2.png","null","70","test","0","50","50","3","",""
"null","373290","pSARL_v2","pSARL_v2nmutjead","640b129fbdcd3bb1c4f1f7fe","fixation","img/fixation.png","null","","test","","","","","",""
"175.39999999850988","373471","pSARL_v2","pSARL_v2nmutjead","640b129fbdcd3bb1c4f1f7fe","freq","img/orange_2bandit_b2.png","70","70","test","1","51","51","3","",""
"null","374104","pSARL_v2","pSARL_v2nmutjead","640b129fbdcd3bb1c4f1f7fe","freq_resp","img/orange_2bandit_b.png","70","70","test","","","","3","",""
"null","374275","pSARL_v2","pSARL_v2nmutjead","640b129fbdcd3bb1c4f1f7fe","fixation","img/fixation.png","null","","test","","","","","",""
"613","374895","pSARL_v2","pSARL_v2nmutjead","640b129fbdcd3bb1c4f1f7fe","freq","img/orange_2bandit_b2.png","70","70","test","1","52","52","3","",""
"null","375104","pSARL_v2","pSARL_v2nmutjead","640b129fbdcd3bb1c4f1f7fe","freq_resp","img/orange_2bandit_b.png","70","70","test","","","","3","",""
"null","375274","pSARL_v2","pSARL_v2nmutjead","640b129fbdcd3bb1c4f1f7fe","fixation","img/fixation.png","null","","test","","","","","",""
"null","376088","pSARL_v2","pSARL_v2nmutjead","640b129fbdcd3bb1c4f1f7fe","freq","img/orange_2bandit_b2.png","null","70","test","0","53","53","3","",""
"null","376245","pSARL_v2","pSARL_v2nmutjead","640b129fbdcd3bb1c4f1f7fe","fixation","img/fixation.png","null","","test","","","","","",""
"null","377057","pSARL_v2","pSARL_v2nmutjead","640b129fbdcd3bb1c4f1f7fe","freq","img/orange_2bandit_b2.png","null","70","test","0","54","54","3","",""
"null","377229","pSARL_v2","pSARL_v2nmutjead","640b129fbdcd3bb1c4f1f7fe","fixation","img/fixation.png","null","","test","","","","","",""
"99.19999999925494","377334","pSARL_v2","pSARL_v2nmutjead","640b129fbdcd3bb1c4f1f7fe","infreq","img/green_2bandit_b2.png","70","68","test","0","55","55","3","",""
"null","378040","pSARL_v2","pSARL_v2nmutjead","640b129fbdcd3bb1c4f1f7fe","infreq_resp","img/green_2bandit_b.png","70","68","test","","","","3","",""
"null","378196","pSARL_v2","pSARL_v2nmutjead","640b129fbdcd3bb1c4f1f7fe","fixation","img/fixation.png","null","","test","","","","","",""
"556.8999999985099","378758","pSARL_v2","pSARL_v2nmutjead","640b129fbdcd3bb1c4f1f7fe","freq","img/orange_2bandit_b2.png","70","70","test","1","56","56","3","",""
"null","379009","pSARL_v2","pSARL_v2nmutjead","640b129fbdcd3bb1c4f1f7fe","freq_resp","img/orange_2bandit_b.png","70","70","test","","","","3","",""
"null","379167","pSARL_v2","pSARL_v2nmutjead","640b129fbdcd3bb1c4f1f7fe","fixation","img/fixation.png","null","","test","","","","","",""
"569.6999999992549","379742","pSARL_v2","pSARL_v2nmutjead","640b129fbdcd3bb1c4f1f7fe","freq","img/orange_2bandit_b2.png","70","70","test","1","57","57","3","",""
"null","379994","pSARL_v2","pSARL_v2nmutjead","640b129fbdcd3bb1c4f1f7fe","freq_resp","img/orange_2bandit_b.png","70","70","test","","","","3","",""
"null","380152","pSARL_v2","pSARL_v2nmutjead","640b129fbdcd3bb1c4f1f7fe","fixation","img/fixation.png","null","","test","","","","","",""
"606.3999999985099","380763","pSARL_v2","pSARL_v2nmutjead","640b129fbdcd3bb1c4f1f7fe","freq","img/orange_2bandit_b2.png","70","70","test","1","58","58","3","",""
"null","380978","pSARL_v2","pSARL_v2nmutjead","640b129fbdcd3bb1c4f1f7fe","freq_resp","img/orange_2bandit_b.png","70","70","test","","","","3","",""
"null","381150","pSARL_v2","pSARL_v2nmutjead","640b129fbdcd3bb1c4f1f7fe","fixation","img/fixation.png","null","","test","","","","","",""
"504.19999999925494","381659","pSARL_v2","pSARL_v2nmutjead","640b129fbdcd3bb1c4f1f7fe","infreq","img/green_2bandit_b2.png","68","68","test","1","59","59","3","",""
"null","381964","pSARL_v2","pSARL_v2nmutjead","640b129fbdcd3bb1c4f1f7fe","infreq_resp","img/green_2bandit_b.png","68","68","test","","","","3","",""
"null","382121","pSARL_v2","pSARL_v2nmutjead","640b129fbdcd3bb1c4f1f7fe","fixation","img/fixation.png","null","","test","","","","","",""
"487.69999999925494","382614","pSARL_v2","pSARL_v2nmutjead","640b129fbdcd3bb1c4f1f7fe","freq","img/orange_2bandit_b2.png","70","70","test","1","60","60","3","",""
"null","382932","pSARL_v2","pSARL_v2nmutjead","640b129fbdcd3bb1c4f1f7fe","freq_resp","img/orange_2bandit_b.png","70","70","test","","","","3","",""
"null","383090","pSARL_v2","pSARL_v2nmutjead","640b129fbdcd3bb1c4f1f7fe","fixation","img/fixation.png","null","","test","","","","","",""
"508.19999999925494","383603","pSARL_v2","pSARL_v2nmutjead","640b129fbdcd3bb1c4f1f7fe","freq","img/orange_2bandit_b2.png","70","70","test","1","61","61","3","",""
"null","383900","pSARL_v2","pSARL_v2nmutjead","640b129fbdcd3bb1c4f1f7fe","freq_resp","img/orange_2bandit_b.png","70","70","test","","","","3","",""
"null","384073","pSARL_v2","pSARL_v2nmutjead","640b129fbdcd3bb1c4f1f7fe","fixation","img/fixation.png","null","","test","","","","","",""
"569.8999999985099","384649","pSARL_v2","pSARL_v2nmutjead","640b129fbdcd3bb1c4f1f7fe","freq","img/orange_2bandit_b2.png","70","70","test","1","62","62","3","",""
"null","384888","pSARL_v2","pSARL_v2nmutjead","640b129fbdcd3bb1c4f1f7fe","freq_resp","img/orange_2bandit_b.png","70","70","test","","","","3","",""
"null","385058","pSARL_v2","pSARL_v2nmutjead","640b129fbdcd3bb1c4f1f7fe","fixation","img/fixation.png","null","","test","","","","","",""
"631.5","385696","pSARL_v2","pSARL_v2nmutjead","640b129fbdcd3bb1c4f1f7fe","freq","img/orange_2bandit_b2.png","70","70","test","1","63","63","3","",""
"null","385886","pSARL_v2","pSARL_v2nmutjead","640b129fbdcd3bb1c4f1f7fe","freq_resp","img/orange_2bandit_b.png","70","70","test","","","","3","",""
"null","386060","pSARL_v2","pSARL_v2nmutjead","640b129fbdcd3bb1c4f1f7fe","fixation","img/fixation.png","null","","test","","","","","",""
"710.1999999992549","386775","pSARL_v2","pSARL_v2nmutjead","640b129fbdcd3bb1c4f1f7fe","freq","img/orange_2bandit_b2.png","70","70","test","1","64","64","3","",""
"null","386879","pSARL_v2","pSARL_v2nmutjead","640b129fbdcd3bb1c4f1f7fe","freq_resp","img/orange_2bandit_b.png","70","70","test","","","","3","",""
"null","387041","pSARL_v2","pSARL_v2nmutjead","640b129fbdcd3bb1c4f1f7fe","fixation","img/fixation.png","null","","test","","","","","",""
"752.1000000014901","387799","pSARL_v2","pSARL_v2nmutjead","640b129fbdcd3bb1c4f1f7fe","freq","img/orange_2bandit_b2.png","70","70","test","1","65","65","3","",""
"null","387855","pSARL_v2","pSARL_v2nmutjead","640b129fbdcd3bb1c4f1f7fe","freq_resp","img/orange_2bandit_b.png","70","70","test","","","","3","",""
"null","388014","pSARL_v2","pSARL_v2nmutjead","640b129fbdcd3bb1c4f1f7fe","fixation","img/fixation.png","null","","test","","","","","",""
"null","388825","pSARL_v2","pSARL_v2nmutjead","640b129fbdcd3bb1c4f1f7fe","freq","img/orange_2bandit_b2.png","null","70","test","0","66","66","3","",""
"null","388996","pSARL_v2","pSARL_v2nmutjead","640b129fbdcd3bb1c4f1f7fe","fixation","img/fixation.png","null","","test","","","","","",""
"14","389016","pSARL_v2","pSARL_v2nmutjead","640b129fbdcd3bb1c4f1f7fe","freq","img/orange_2bandit_b2.png","70","70","test","1","67","67","3","",""
"null","389809","pSARL_v2","pSARL_v2nmutjead","640b129fbdcd3bb1c4f1f7fe","freq_resp","img/orange_2bandit_b.png","70","70","test","","","","3","",""
"null","389966","pSARL_v2","pSARL_v2nmutjead","640b129fbdcd3bb1c4f1f7fe","fixation","img/fixation.png","null","","test","","","","","",""
"543","390518","pSARL_v2","pSARL_v2nmutjead","640b129fbdcd3bb1c4f1f7fe","freq","img/orange_2bandit_b2.png","70","70","test","1","68","68","3","",""
"null","390789","pSARL_v2","pSARL_v2nmutjead","640b129fbdcd3bb1c4f1f7fe","freq_resp","img/orange_2bandit_b.png","70","70","test","","","","3","",""
"null","390959","pSARL_v2","pSARL_v2nmutjead","640b129fbdcd3bb1c4f1f7fe","fixation","img/fixation.png","null","","test","","","","","",""
"366.5999999977648","391336","pSARL_v2","pSARL_v2nmutjead","640b129fbdcd3bb1c4f1f7fe","freq","img/orange_2bandit_b2.png","70","70","test","1","69","69","3","",""
"null","391782","pSARL_v2","pSARL_v2nmutjead","640b129fbdcd3bb1c4f1f7fe","freq_resp","img/orange_2bandit_b.png","70","70","test","","","","3","",""
"null","391952","pSARL_v2","pSARL_v2nmutjead","640b129fbdcd3bb1c4f1f7fe","fixation","img/fixation.png","null","","test","","","","","",""
"376.5","392338","pSARL_v2","pSARL_v2nmutjead","640b129fbdcd3bb1c4f1f7fe","freq","img/orange_2bandit_b2.png","70","70","test","1","70","70","3","",""
"null","392772","pSARL_v2","pSARL_v2nmutjead","640b129fbdcd3bb1c4f1f7fe","freq_resp","img/orange_2bandit_b.png","70","70","test","","","","3","",""
"null","392943","pSARL_v2","pSARL_v2nmutjead","640b129fbdcd3bb1c4f1f7fe","fixation","img/fixation.png","null","","test","","","","","",""
"451.9000000022352","393404","pSARL_v2","pSARL_v2nmutjead","640b129fbdcd3bb1c4f1f7fe","freq","img/orange_2bandit_b2.png","70","70","test","1","71","71","3","",""
"null","393767","pSARL_v2","pSARL_v2nmutjead","640b129fbdcd3bb1c4f1f7fe","freq_resp","img/orange_2bandit_b.png","70","70","test","","","","3","",""
"null","393942","pSARL_v2","pSARL_v2nmutjead","640b129fbdcd3bb1c4f1f7fe","fixation","img/fixation.png","null","","test","","","","","",""
"576.5999999977648","394527","pSARL_v2","pSARL_v2nmutjead","640b129fbdcd3bb1c4f1f7fe","reward","img/slot.png","74","","test","","","","","",""
"null","395288","pSARL_v2","pSARL_v2nmutjead","640b129fbdcd3bb1c4f1f7fe","points","<div class=""verylowPoints""> -7 </div>","null","na","test","","","","3","-7","2"
"784.3999999985099","396082","pSARL_v2","pSARL_v2nmutjead","640b129fbdcd3bb1c4f1f7fe","freq","img/orange_2bandit_b2.png","70","70","test","1","72","72","4","",""
"null","396107","pSARL_v2","pSARL_v2nmutjead","640b129fbdcd3bb1c4f1f7fe","freq_resp","img/orange_2bandit_b.png","70","70","test","","","","4","",""
"null","396283","pSARL_v2","pSARL_v2nmutjead","640b129fbdcd3bb1c4f1f7fe","fixation","img/fixation.png","null","","test","","","","","",""
"665.6000000014901","396960","pSARL_v2","pSARL_v2nmutjead","640b129fbdcd3bb1c4f1f7fe","freq","img/orange_2bandit_b2.png","70","70","test","1","73","73","4","",""
"null","397116","pSARL_v2","pSARL_v2nmutjead","640b129fbdcd3bb1c4f1f7fe","freq_resp","img/orange_2bandit_b.png","70","70","test","","","","4","",""
"null","397286","pSARL_v2","pSARL_v2nmutjead","640b129fbdcd3bb1c4f1f7fe","fixation","img/fixation.png","null","","test","","","","","",""
"null","398108","pSARL_v2","pSARL_v2nmutjead","640b129fbdcd3bb1c4f1f7fe","freq","img/orange_2bandit_b2.png","null","70","test","0","74","74","4","",""
"null","398278","pSARL_v2","pSARL_v2nmutjead","640b129fbdcd3bb1c4f1f7fe","fixation","img/fixation.png","null","","test","","","","","",""
"null","399098","pSARL_v2","pSARL_v2nmutjead","640b129fbdcd3bb1c4f1f7fe","freq","img/orange_2bandit_b2.png","null","70","test","0","75","75","4","",""
"null","399268","pSARL_v2","pSARL_v2nmutjead","640b129fbdcd3bb1c4f1f7fe","fixation","img/fixation.png","null","","test","","","","","",""
"199.40000000223517","399476","pSARL_v2","pSARL_v2nmutjead","640b129fbdcd3bb1c4f1f7fe","freq","img/orange_2bandit_b2.png","70","70","test","1","76","76","4","",""
"null","400091","pSARL_v2","pSARL_v2nmutjead","640b129fbdcd3bb1c4f1f7fe","freq_resp","img/orange_2bandit_b.png","70","70","test","","","","4","",""
"null","400261","pSARL_v2","pSARL_v2nmutjead","640b129fbdcd3bb1c4f1f7fe","fixation","img/fixation.png","null","","test","","","","","",""
"187.09999999776483","400457","pSARL_v2","pSARL_v2nmutjead","640b129fbdcd3bb1c4f1f7fe","freq","img/orange_2bandit_b2.png","70","70","test","1","77","77","4","",""
"null","401084","pSARL_v2","pSARL_v2nmutjead","640b129fbdcd3bb1c4f1f7fe","freq_resp","img/orange_2bandit_b.png","70","70","test","","","","4","",""
"null","401256","pSARL_v2","pSARL_v2nmutjead","640b129fbdcd3bb1c4f1f7fe","fixation","img/fixation.png","null","","test","","","","","",""
"316.5","401582","pSARL_v2","pSARL_v2nmutjead","640b129fbdcd3bb1c4f1f7fe","freq","img/orange_2bandit_b2.png","70","70","test","1","78","78","4","",""
"null","402081","pSARL_v2","pSARL_v2nmutjead","640b129fbdcd3bb1c4f1f7fe","freq_resp","img/orange_2bandit_b.png","70","70","test","","","","4","",""
"null","402251","pSARL_v2","pSARL_v2nmutjead","640b129fbdcd3bb1c4f1f7fe","fixation","img/fixation.png","null","","test","","","","","",""
"366.8999999985099","402628","pSARL_v2","pSARL_v2nmutjead","640b129fbdcd3bb1c4f1f7fe","freq","img/orange_2bandit_b2.png","70","70","test","1","79","79","4","",""
"null","403071","pSARL_v2","pSARL_v2nmutjead","640b129fbdcd3bb1c4f1f7fe","freq_resp","img/orange_2bandit_b.png","70","70","test","","","","4","",""
"null","403241","pSARL_v2","pSARL_v2nmutjead","640b129fbdcd3bb1c4f1f7fe","fixation","img/fixation.png","null","","test","","","","","",""
"null","404062","pSARL_v2","pSARL_v2nmutjead","640b129fbdcd3bb1c4f1f7fe","infreq","img/green_2bandit_b2.png","null","68","test","0","80","80","4","",""
"null","404233","pSARL_v2","pSARL_v2nmutjead","640b129fbdcd3bb1c4f1f7fe","fixation","img/fixation.png","null","","test","","","","","",""
"749.3000000007451","404990","pSARL_v2","pSARL_v2nmutjead","640b129fbdcd3bb1c4f1f7fe","freq","img/orange_2bandit_b2.png","70","70","test","1","81","81","4","",""
"null","405057","pSARL_v2","pSARL_v2nmutjead","640b129fbdcd3bb1c4f1f7fe","freq_resp","img/orange_2bandit_b.png","70","70","test","","","","4","",""
"null","405228","pSARL_v2","pSARL_v2nmutjead","640b129fbdcd3bb1c4f1f7fe","fixation","img/fixation.png","null","","test","","","","","",""
"null","406049","pSARL_v2","pSARL_v2nmutjead","640b129fbdcd3bb1c4f1f7fe","freq","img/orange_2bandit_b2.png","null","70","test","0","82","82","4","",""
"null","406220","pSARL_v2","pSARL_v2nmutjead","640b129fbdcd3bb1c4f1f7fe","fixation","img/fixation.png","null","","test","","","","","",""
"null","407043","pSARL_v2","pSARL_v2nmutjead","640b129fbdcd3bb1c4f1f7fe","freq","img/orange_2bandit_b2.png","null","70","test","0","83","83","4","",""
"null","407213","pSARL_v2","pSARL_v2nmutjead","640b129fbdcd3bb1c4f1f7fe","fixation","img/fixation.png","null","","test","","","","","",""
"732.1999999992549","407955","pSARL_v2","pSARL_v2nmutjead","640b129fbdcd3bb1c4f1f7fe","freq","img/orange_2bandit_b2.png","70","70","test","1","84","84","4","",""
"null","408033","pSARL_v2","pSARL_v2nmutjead","640b129fbdcd3bb1c4f1f7fe","freq_resp","img/orange_2bandit_b.png","70","70","test","","","","4","",""
"null","408205","pSARL_v2","pSARL_v2nmutjead","640b129fbdcd3bb1c4f1f7fe","fixation","img/fixation.png","null","","test","","","","","",""
"478.9000000022352","408693","pSARL_v2","pSARL_v2nmutjead","640b129fbdcd3bb1c4f1f7fe","freq","img/orange_2bandit_b2.png","70","70","test","1","85","85","4","",""
"null","409027","pSARL_v2","pSARL_v2nmutjead","640b129fbdcd3bb1c4f1f7fe","freq_resp","img/orange_2bandit_b.png","70","70","test","","","","4","",""
"null","409198","pSARL_v2","pSARL_v2nmutjead","640b129fbdcd3bb1c4f1f7fe","fixation","img/fixation.png","null","","test","","","","","",""
"449.5999999977648","409657","pSARL_v2","pSARL_v2nmutjead","640b129fbdcd3bb1c4f1f7fe","freq","img/orange_2bandit_b2.png","70","70","test","1","86","86","4","",""
"null","410021","pSARL_v2","pSARL_v2nmutjead","640b129fbdcd3bb1c4f1f7fe","freq_resp","img/orange_2bandit_b.png","70","70","test","","","","4","",""
"null","410193","pSARL_v2","pSARL_v2nmutjead","640b129fbdcd3bb1c4f1f7fe","fixation","img/fixation.png","null","","test","","","","","",""
"546.8999999985099","410750","pSARL_v2","pSARL_v2nmutjead","640b129fbdcd3bb1c4f1f7fe","infreq","img/green_2bandit_b2.png","68","68","test","1","87","87","4","",""
"null","411014","pSARL_v2","pSARL_v2nmutjead","640b129fbdcd3bb1c4f1f7fe","infreq_resp","img/green_2bandit_b.png","68","68","test","","","","4","",""
"null","411185","pSARL_v2","pSARL_v2nmutjead","640b129fbdcd3bb1c4f1f7fe","fixation","img/fixation.png","null","","test","","","","","",""
"623.0999999977648","411817","pSARL_v2","pSARL_v2nmutjead","640b129fbdcd3bb1c4f1f7fe","freq","img/orange_2bandit_b2.png","70","70","test","1","88","88","4","",""
"null","412007","pSARL_v2","pSARL_v2nmutjead","640b129fbdcd3bb1c4f1f7fe","freq_resp","img/orange_2bandit_b.png","70","70","test","","","","4","",""
"null","412178","pSARL_v2","pSARL_v2nmutjead","640b129fbdcd3bb1c4f1f7fe","fixation","img/fixation.png","null","","test","","","","","",""
"646.1999999992549","412834","pSARL_v2","pSARL_v2nmutjead","640b129fbdcd3bb1c4f1f7fe","freq","img/orange_2bandit_b2.png","70","70","test","1","89","89","4","",""
"null","412998","pSARL_v2","pSARL_v2nmutjead","640b129fbdcd3bb1c4f1f7fe","freq_resp","img/orange_2bandit_b.png","70","70","test","","","","4","",""
"null","413169","pSARL_v2","pSARL_v2nmutjead","640b129fbdcd3bb1c4f1f7fe","fixation","img/fixation.png","null","","test","","","","","",""
"675.6999999992549","413850","pSARL_v2","pSARL_v2nmutjead","640b129fbdcd3bb1c4f1f7fe","freq","img/orange_2bandit_b2.png","70","70","test","1","90","90","4","",""
"null","413996","pSARL_v2","pSARL_v2nmutjead","640b129fbdcd3bb1c4f1f7fe","freq_resp","img/orange_2bandit_b.png","70","70","test","","","","4","",""
"null","414167","pSARL_v2","pSARL_v2nmutjead","640b129fbdcd3bb1c4f1f7fe","fixation","img/fixation.png","null","","test","","","","","",""
"394.79999999701977","414571","pSARL_v2","pSARL_v2nmutjead","640b129fbdcd3bb1c4f1f7fe","reward","img/slot.png","74","","test","","","","","",""
"null","415331","pSARL_v2","pSARL_v2nmutjead","640b129fbdcd3bb1c4f1f7fe","points","<div class=""verylowPoints""> -3 </div>","null","na","test","","","","4","-3","3"
"784.2000000029802","416124","pSARL_v2","pSARL_v2nmutjead","640b129fbdcd3bb1c4f1f7fe","freq","img/orange_2bandit_b2.png","70","70","test","1","91","91","5","",""
"null","416145","pSARL_v2","pSARL_v2nmutjead","640b129fbdcd3bb1c4f1f7fe","freq_resp","img/orange_2bandit_b.png","70","70","test","","","","5","",""
"null","416305","pSARL_v2","pSARL_v2nmutjead","640b129fbdcd3bb1c4f1f7fe","fixation","img/fixation.png","null","","test","","","","","",""
"null","417128","pSARL_v2","pSARL_v2nmutjead","640b129fbdcd3bb1c4f1f7fe","freq","img/orange_2bandit_b2.png","null","70","test","0","92","92","5","",""
"null","417298","pSARL_v2","pSARL_v2nmutjead","640b129fbdcd3bb1c4f1f7fe","fixation","img/fixation.png","null","","test","","","","","",""
"223","417530","pSARL_v2","pSARL_v2nmutjead","640b129fbdcd3bb1c4f1f7fe","freq","img/orange_2bandit_b2.png","70","70","test","1","93","93","5","",""
"null","418121","pSARL_v2","pSARL_v2nmutjead","640b129fbdcd3bb1c4f1f7fe","freq_resp","img/orange_2bandit_b.png","70","70","test","","","","5","",""
"null","418295","pSARL_v2","pSARL_v2nmutjead","640b129fbdcd3bb1c4f1f7fe","fixation","img/fixation.png","null","","test","","","","","",""
"273","418577","pSARL_v2","pSARL_v2nmutjead","640b129fbdcd3bb1c4f1f7fe","freq","img/orange_2bandit_b2.png","70","70","test","1","94","94","5","",""
"null","419118","pSARL_v2","pSARL_v2nmutjead","640b129fbdcd3bb1c4f1f7fe","freq_resp","img/orange_2bandit_b.png","70","70","test","","","","5","",""
"null","419286","pSARL_v2","pSARL_v2nmutjead","640b129fbdcd3bb1c4f1f7fe","fixation","img/fixation.png","null","","test","","","","","",""
"376.1000000014901","419672","pSARL_v2","pSARL_v2nmutjead","640b129fbdcd3bb1c4f1f7fe","freq","img/orange_2bandit_b2.png","70","70","test","1","95","95","5","",""
"null","420108","pSARL_v2","pSARL_v2nmutjead","640b129fbdcd3bb1c4f1f7fe","freq_resp","img/orange_2bandit_b.png","70","70","test","","","","5","",""
"null","420278","pSARL_v2","pSARL_v2nmutjead","640b129fbdcd3bb1c4f1f7fe","fixation","img/fixation.png","null","","test","","","","","",""
"287.4000000022352","420575","pSARL_v2","pSARL_v2nmutjead","640b129fbdcd3bb1c4f1f7fe","freq","img/orange_2bandit_b2.png","70","70","test","1","96","96","5","",""
"null","421100","pSARL_v2","pSARL_v2nmutjead","640b129fbdcd3bb1c4f1f7fe","freq_resp","img/orange_2bandit_b.png","70","70","test","","","","5","",""
"null","421272","pSARL_v2","pSARL_v2nmutjead","640b129fbdcd3bb1c4f1f7fe","fixation","img/fixation.png","null","","test","","","","","",""
"421.8999999985099","421704","pSARL_v2","pSARL_v2nmutjead","640b129fbdcd3bb1c4f1f7fe","freq","img/orange_2bandit_b2.png","70","70","test","1","97","97","5","",""
"null","422097","pSARL_v2","pSARL_v2nmutjead","640b129fbdcd3bb1c4f1f7fe","freq_resp","img/orange_2bandit_b.png","70","70","test","","","","5","",""
"null","422267","pSARL_v2","pSARL_v2nmutjead","640b129fbdcd3bb1c4f1f7fe","fixation","img/fixation.png","null","","test","","","","","",""
"445.0999999977648","422722","pSARL_v2","pSARL_v2nmutjead","640b129fbdcd3bb1c4f1f7fe","freq","img/orange_2bandit_b2.png","70","70","test","1","98","98","5","",""
"null","423085","pSARL_v2","pSARL_v2nmutjead","640b129fbdcd3bb1c4f1f7fe","freq_resp","img/orange_2bandit_b.png","70","70","test","","","","5","",""
"null","423256","pSARL_v2","pSARL_v2nmutjead","640b129fbdcd3bb1c4f1f7fe","fixation","img/fixation.png","null","","test","","","","","",""
"399.20000000298023","423664","pSARL_v2","pSARL_v2nmutjead","640b129fbdcd3bb1c4f1f7fe","freq","img/orange_2bandit_b2.png","70","70","test","1","99","99","5","",""
"null","424077","pSARL_v2","pSARL_v2nmutjead","640b129fbdcd3bb1c4f1f7fe","freq_resp","img/orange_2bandit_b.png","70","70","test","","","","5","",""
"null","424249","pSARL_v2","pSARL_v2nmutjead","640b129fbdcd3bb1c4f1f7fe","fixation","img/fixation.png","null","","test","","","","","",""
"472","424731","pSARL_v2","pSARL_v2nmutjead","640b129fbdcd3bb1c4f1f7fe","freq","img/orange_2bandit_b2.png","70","70","test","1","100","100","5","",""
"null","425069","pSARL_v2","pSARL_v2nmutjead","640b129fbdcd3bb1c4f1f7fe","freq_resp","img/orange_2bandit_b.png","70","70","test","","","","5","",""
"null","425241","pSARL_v2","pSARL_v2nmutjead","640b129fbdcd3bb1c4f1f7fe","fixation","img/fixation.png","null","","test","","","","","",""
"431","425682","pSARL_v2","pSARL_v2nmutjead","640b129fbdcd3bb1c4f1f7fe","freq","img/orange_2bandit_b2.png","70","70","test","1","101","101","5","",""
"null","426061","pSARL_v2","pSARL_v2nmutjead","640b129fbdcd3bb1c4f1f7fe","freq_resp","img/orange_2bandit_b.png","70","70","test","","","","5","",""
"null","426231","pSARL_v2","pSARL_v2nmutjead","640b129fbdcd3bb1c4f1f7fe","fixation","img/fixation.png","null","","test","","","","","",""
"493.30000000074506","426734","pSARL_v2","pSARL_v2nmutjead","640b129fbdcd3bb1c4f1f7fe","freq","img/orange_2bandit_b2.png","70","70","test","1","102","102","5","",""
"null","427050","pSARL_v2","pSARL_v2nmutjead","640b129fbdcd3bb1c4f1f7fe","freq_resp","img/orange_2bandit_b.png","70","70","test","","","","5","",""
"null","427209","pSARL_v2","pSARL_v2nmutjead","640b129fbdcd3bb1c4f1f7fe","fixation","img/fixation.png","null","","test","","","","","",""
"506.19999999925494","427725","pSARL_v2","pSARL_v2nmutjead","640b129fbdcd3bb1c4f1f7fe","infreq","img/green_2bandit_b2.png","68","68","test","1","103","103","5","",""
"null","428028","pSARL_v2","pSARL_v2nmutjead","640b129fbdcd3bb1c4f1f7fe","infreq_resp","img/green_2bandit_b.png","68","68","test","","","","5","",""
"null","428199","pSARL_v2","pSARL_v2nmutjead","640b129fbdcd3bb1c4f1f7fe","fixation","img/fixation.png","null","","test","","","","","",""
"611.5","428820","pSARL_v2","pSARL_v2nmutjead","640b129fbdcd3bb1c4f1f7fe","freq","img/orange_2bandit_b2.png","70","70","test","1","104","104","5","",""
"null","429020","pSARL_v2","pSARL_v2nmutjead","640b129fbdcd3bb1c4f1f7fe","freq_resp","img/orange_2bandit_b.png","70","70","test","","","","5","",""
"null","429192","pSARL_v2","pSARL_v2nmutjead","640b129fbdcd3bb1c4f1f7fe","fixation","img/fixation.png","null","","test","","","","","",""
"531","429734","pSARL_v2","pSARL_v2nmutjead","640b129fbdcd3bb1c4f1f7fe","freq","img/orange_2bandit_b2.png","70","70","test","1","105","105","5","",""
"null","430016","pSARL_v2","pSARL_v2nmutjead","640b129fbdcd3bb1c4f1f7fe","freq_resp","img/orange_2bandit_b.png","70","70","test","","","","5","",""
"null","430185","pSARL_v2","pSARL_v2nmutjead","640b129fbdcd3bb1c4f1f7fe","fixation","img/fixation.png","null","","test","","","","","",""
"594","430788","pSARL_v2","pSARL_v2nmutjead","640b129fbdcd3bb1c4f1f7fe","freq","img/orange_2bandit_b2.png","70","70","test","1","106","106","5","",""
"null","431009","pSARL_v2","pSARL_v2nmutjead","640b129fbdcd3bb1c4f1f7fe","freq_resp","img/orange_2bandit_b.png","70","70","test","","","","5","",""
"null","431180","pSARL_v2","pSARL_v2nmutjead","640b129fbdcd3bb1c4f1f7fe","fixation","img/fixation.png","null","","test","","","","","",""
"670.1999999992549","431860","pSARL_v2","pSARL_v2nmutjead","640b129fbdcd3bb1c4f1f7fe","freq","img/orange_2bandit_b2.png","70","70","test","1","107","107","5","",""
"null","432003","pSARL_v2","pSARL_v2nmutjead","640b129fbdcd3bb1c4f1f7fe","freq_resp","img/orange_2bandit_b.png","70","70","test","","","","5","",""
"null","432174","pSARL_v2","pSARL_v2nmutjead","640b129fbdcd3bb1c4f1f7fe","fixation","img/fixation.png","null","","test","","","","","",""
"717.6999999992549","432902","pSARL_v2","pSARL_v2nmutjead","640b129fbdcd3bb1c4f1f7fe","freq","img/orange_2bandit_b2.png","70","70","test","1","108","108","5","",""
"null","432995","pSARL_v2","pSARL_v2nmutjead","640b129fbdcd3bb1c4f1f7fe","freq_resp","img/orange_2bandit_b.png","70","70","test","","","","5","",""
"null","433167","pSARL_v2","pSARL_v2nmutjead","640b129fbdcd3bb1c4f1f7fe","fixation","img/fixation.png","null","","test","","","","","",""
"724.1000000014901","433901","pSARL_v2","pSARL_v2nmutjead","640b129fbdcd3bb1c4f1f7fe","freq","img/orange_2bandit_b2.png","70","70","test","1","109","109","5","",""
"null","434001","pSARL_v2","pSARL_v2nmutjead","640b129fbdcd3bb1c4f1f7fe","freq_resp","img/orange_2bandit_b.png","70","70","test","","","","5","",""
"null","434172","pSARL_v2","pSARL_v2nmutjead","640b129fbdcd3bb1c4f1f7fe","fixation","img/fixation.png","null","","test","","","","","",""
"780.8000000007451","434962","pSARL_v2","pSARL_v2nmutjead","640b129fbdcd3bb1c4f1f7fe","freq","img/orange_2bandit_b2.png","70","70","test","1","110","110","5","",""
"null","434993","pSARL_v2","pSARL_v2nmutjead","640b129fbdcd3bb1c4f1f7fe","freq_resp","img/orange_2bandit_b.png","70","70","test","","","","5","",""
"null","435165","pSARL_v2","pSARL_v2nmutjead","640b129fbdcd3bb1c4f1f7fe","fixation","img/fixation.png","null","","test","","","","","",""
"571.9000000022352","435747","pSARL_v2","pSARL_v2nmutjead","640b129fbdcd3bb1c4f1f7fe","infreq","img/green_2bandit_b2.png","68","68","test","1","111","111","5","",""
"null","435986","pSARL_v2","pSARL_v2nmutjead","640b129fbdcd3bb1c4f1f7fe","infreq_resp","img/green_2bandit_b.png","68","68","test","","","","5","",""
"null","436157","pSARL_v2","pSARL_v2nmutjead","640b129fbdcd3bb1c4f1f7fe","fixation","img/fixation.png","null","","test","","","","","",""
"526.1000000014901","436693","pSARL_v2","pSARL_v2nmutjead","640b129fbdcd3bb1c4f1f7fe","freq","img/orange_2bandit_b2.png","70","70","test","1","112","112","5","",""
"null","436978","pSARL_v2","pSARL_v2nmutjead","640b129fbdcd3bb1c4f1f7fe","freq_resp","img/orange_2bandit_b.png","70","70","test","","","","5","",""
"null","437149","pSARL_v2","pSARL_v2nmutjead","640b129fbdcd3bb1c4f1f7fe","fixation","img/fixation.png","null","","test","","","","","",""
"576.5","437736","pSARL_v2","pSARL_v2nmutjead","640b129fbdcd3bb1c4f1f7fe","freq","img/orange_2bandit_b2.png","70","70","test","1","113","113","5","",""
"null","437971","pSARL_v2","pSARL_v2nmutjead","640b129fbdcd3bb1c4f1f7fe","freq_resp","img/orange_2bandit_b.png","70","70","test","","","","5","",""
"null","438141","pSARL_v2","pSARL_v2nmutjead","640b129fbdcd3bb1c4f1f7fe","fixation","img/fixation.png","null","","test","","","","","",""
"637.6999999992549","438788","pSARL_v2","pSARL_v2nmutjead","640b129fbdcd3bb1c4f1f7fe","freq","img/orange_2bandit_b2.png","70","70","test","1","114","114","5","",""
"null","438963","pSARL_v2","pSARL_v2nmutjead","640b129fbdcd3bb1c4f1f7fe","freq_resp","img/orange_2bandit_b.png","70","70","test","","","","5","",""
"null","439132","pSARL_v2","pSARL_v2nmutjead","640b129fbdcd3bb1c4f1f7fe","fixation","img/fixation.png","null","","test","","","","","",""
"599.5","439738","pSARL_v2","pSARL_v2nmutjead","640b129fbdcd3bb1c4f1f7fe","freq","img/orange_2bandit_b2.png","70","70","test","1","115","115","5","",""
"null","439952","pSARL_v2","pSARL_v2nmutjead","640b129fbdcd3bb1c4f1f7fe","freq_resp","img/orange_2bandit_b.png","70","70","test","","","","5","",""
"null","440127","pSARL_v2","pSARL_v2nmutjead","640b129fbdcd3bb1c4f1f7fe","fixation","img/fixation.png","null","","test","","","","","",""
"537.7000000029802","440674","pSARL_v2","pSARL_v2nmutjead","640b129fbdcd3bb1c4f1f7fe","reward","img/slot.png","74","","test","","","","","",""
"null","441442","pSARL_v2","pSARL_v2nmutjead","640b129fbdcd3bb1c4f1f7fe","points","<div class=""veryhighPoints""> +1 </div>","null","na","test","","","","5","1","4"
"571.5999999977648","442024","pSARL_v2","pSARL_v2nmutjead","640b129fbdcd3bb1c4f1f7fe","freq","img/orange_2bandit_b2.png","70","70","test","1","116","116","6","",""
"null","442262","pSARL_v2","pSARL_v2nmutjead","640b129fbdcd3bb1c4f1f7fe","freq_resp","img/orange_2bandit_b.png","70","70","test","","","","6","",""
"null","442433","pSARL_v2","pSARL_v2nmutjead","640b129fbdcd3bb1c4f1f7fe","fixation","img/fixation.png","null","","test","","","","","",""
"636.5999999977648","443079","pSARL_v2","pSARL_v2nmutjead","640b129fbdcd3bb1c4f1f7fe","freq","img/orange_2bandit_b2.png","70","70","test","1","117","117","6","",""
"null","443254","pSARL_v2","pSARL_v2nmutjead","640b129fbdcd3bb1c4f1f7fe","freq_resp","img/orange_2bandit_b.png","70","70","test","","","","6","",""
"null","443424","pSARL_v2","pSARL_v2nmutjead","640b129fbdcd3bb1c4f1f7fe","fixation","img/fixation.png","null","","test","","","","","",""
"null","444245","pSARL_v2","pSARL_v2nmutjead","640b129fbdcd3bb1c4f1f7fe","freq","img/orange_2bandit_b2.png","null","70","test","0","118","118","6","",""
"null","444417","pSARL_v2","pSARL_v2nmutjead","640b129fbdcd3bb1c4f1f7fe","fixation","img/fixation.png","null","","test","","","","","",""
"12","444441","pSARL_v2","pSARL_v2nmutjead","640b129fbdcd3bb1c4f1f7fe","freq","img/orange_2bandit_b2.png","70","70","test","1","119","119","6","",""
"null","445240","pSARL_v2","pSARL_v2nmutjead","640b129fbdcd3bb1c4f1f7fe","freq_resp","img/orange_2bandit_b.png","70","70","test","","","","6","",""
"null","445412","pSARL_v2","pSARL_v2nmutjead","640b129fbdcd3bb1c4f1f7fe","fixation","img/fixation.png","null","","test","","","","","",""
"465.29999999701977","445887","pSARL_v2","pSARL_v2nmutjead","640b129fbdcd3bb1c4f1f7fe","freq","img/orange_2bandit_b2.png","70","70","test","1","120","120","6","",""
"null","446246","pSARL_v2","pSARL_v2nmutjead","640b129fbdcd3bb1c4f1f7fe","freq_resp","img/orange_2bandit_b.png","70","70","test","","","","6","",""
"null","446414","pSARL_v2","pSARL_v2nmutjead","640b129fbdcd3bb1c4f1f7fe","fixation","img/fixation.png","null","","test","","","","","",""
"464.9000000022352","446888","pSARL_v2","pSARL_v2nmutjead","640b129fbdcd3bb1c4f1f7fe","freq","img/orange_2bandit_b2.png","70","70","test","1","121","121","6","",""
"null","447236","pSARL_v2","pSARL_v2nmutjead","640b129fbdcd3bb1c4f1f7fe","freq_resp","img/orange_2bandit_b.png","70","70","test","","","","6","",""
"null","447406","pSARL_v2","pSARL_v2nmutjead","640b129fbdcd3bb1c4f1f7fe","fixation","img/fixation.png","null","","test","","","","","",""
"515.1999999992549","447932","pSARL_v2","pSARL_v2nmutjead","640b129fbdcd3bb1c4f1f7fe","freq","img/orange_2bandit_b2.png","70","70","test","1","122","122","6","",""
"null","448229","pSARL_v2","pSARL_v2nmutjead","640b129fbdcd3bb1c4f1f7fe","freq_resp","img/orange_2bandit_b.png","70","70","test","","","","6","",""
"null","448400","pSARL_v2","pSARL_v2nmutjead","640b129fbdcd3bb1c4f1f7fe","fixation","img/fixation.png","null","","test","","","","","",""
"496.19999999925494","448905","pSARL_v2","pSARL_v2nmutjead","640b129fbdcd3bb1c4f1f7fe","freq","img/orange_2bandit_b2.png","70","70","test","1","123","123","6","",""
"null","449221","pSARL_v2","pSARL_v2nmutjead","640b129fbdcd3bb1c4f1f7fe","freq_resp","img/orange_2bandit_b.png","70","70","test","","","","6","",""
"null","449393","pSARL_v2","pSARL_v2nmutjead","640b129fbdcd3bb1c4f1f7fe","fixation","img/fixation.png","null","","test","","","","","",""
"584.6000000014901","449987","pSARL_v2","pSARL_v2nmutjead","640b129fbdcd3bb1c4f1f7fe","freq","img/orange_2bandit_b2.png","70","70","test","1","124","124","6","",""
"null","450219","pSARL_v2","pSARL_v2nmutjead","640b129fbdcd3bb1c4f1f7fe","freq_resp","img/orange_2bandit_b.png","70","70","test","","","","6","",""
"null","450389","pSARL_v2","pSARL_v2nmutjead","640b129fbdcd3bb1c4f1f7fe","fixation","img/fixation.png","null","","test","","","","","",""
"577.5999999977648","450977","pSARL_v2","pSARL_v2nmutjead","640b129fbdcd3bb1c4f1f7fe","freq","img/orange_2bandit_b2.png","70","70","test","1","125","125","6","",""
"null","451210","pSARL_v2","pSARL_v2nmutjead","640b129fbdcd3bb1c4f1f7fe","freq_resp","img/orange_2bandit_b.png","70","70","test","","","","6","",""
"null","451381","pSARL_v2","pSARL_v2nmutjead","640b129fbdcd3bb1c4f1f7fe","fixation","img/fixation.png","null","","test","","","","","",""
"621.1999999992549","452012","pSARL_v2","pSARL_v2nmutjead","640b129fbdcd3bb1c4f1f7fe","freq","img/orange_2bandit_b2.png","70","70","test","1","126","126","6","",""
"null","452212","pSARL_v2","pSARL_v2nmutjead","640b129fbdcd3bb1c4f1f7fe","freq_resp","img/orange_2bandit_b.png","70","70","test","","","","6","",""
"null","452386","pSARL_v2","pSARL_v2nmutjead","640b129fbdcd3bb1c4f1f7fe","fixation","img/fixation.png","null","","test","","","","","",""
"717.1999999992549","453113","pSARL_v2","pSARL_v2nmutjead","640b129fbdcd3bb1c4f1f7fe","freq","img/orange_2bandit_b2.png","70","70","test","1","127","127","6","",""
"null","453207","pSARL_v2","pSARL_v2nmutjead","640b129fbdcd3bb1c4f1f7fe","freq_resp","img/orange_2bandit_b.png","70","70","test","","","","6","",""
"null","453379","pSARL_v2","pSARL_v2nmutjead","640b129fbdcd3bb1c4f1f7fe","fixation","img/fixation.png","null","","test","","","","","",""
"594.3000000007451","453983","pSARL_v2","pSARL_v2nmutjead","640b129fbdcd3bb1c4f1f7fe","freq","img/orange_2bandit_b2.png","70","70","test","1","128","128","6","",""
"null","454201","pSARL_v2","pSARL_v2nmutjead","640b129fbdcd3bb1c4f1f7fe","freq_resp","img/orange_2bandit_b.png","70","70","test","","","","6","",""
"null","454372","pSARL_v2","pSARL_v2nmutjead","640b129fbdcd3bb1c4f1f7fe","fixation","img/fixation.png","null","","test","","","","","",""
"543.3999999985099","454927","pSARL_v2","pSARL_v2nmutjead","640b129fbdcd3bb1c4f1f7fe","freq","img/orange_2bandit_b2.png","70","70","test","1","129","129","6","",""
"null","455193","pSARL_v2","pSARL_v2nmutjead","640b129fbdcd3bb1c4f1f7fe","freq_resp","img/orange_2bandit_b.png","70","70","test","","","","6","",""
"null","455365","pSARL_v2","pSARL_v2nmutjead","640b129fbdcd3bb1c4f1f7fe","fixation","img/fixation.png","null","","test","","","","","",""
"415.5","455791","pSARL_v2","pSARL_v2nmutjead","640b129fbdcd3bb1c4f1f7fe","infreq","img/green_2bandit_b2.png","68","68","test","1","130","130","6","",""
"null","456199","pSARL_v2","pSARL_v2nmutjead","640b129fbdcd3bb1c4f1f7fe","infreq_resp","img/green_2bandit_b.png","68","68","test","","","","6","",""
"null","456369","pSARL_v2","pSARL_v2nmutjead","640b129fbdcd3bb1c4f1f7fe","fixation","img/fixation.png","null","","test","","","","","",""
"562.6999999992549","456942","pSARL_v2","pSARL_v2nmutjead","640b129fbdcd3bb1c4f1f7fe","freq","img/orange_2bandit_b2.png","70","70","test","1","131","131","6","",""
"null","457193","pSARL_v2","pSARL_v2nmutjead","640b129fbdcd3bb1c4f1f7fe","freq_resp","img/orange_2bandit_b.png","70","70","test","","","","6","",""
"null","457365","pSARL_v2","pSARL_v2nmutjead","640b129fbdcd3bb1c4f1f7fe","fixation","img/fixation.png","null","","test","","","","","",""
"452.5999999977648","457827","pSARL_v2","pSARL_v2nmutjead","640b129fbdcd3bb1c4f1f7fe","freq","img/orange_2bandit_b2.png","70","70","test","1","132","132","6","",""
"null","458198","pSARL_v2","pSARL_v2nmutjead","640b129fbdcd3bb1c4f1f7fe","freq_resp","img/orange_2bandit_b.png","70","70","test","","","","6","",""
"null","458368","pSARL_v2","pSARL_v2nmutjead","640b129fbdcd3bb1c4f1f7fe","fixation","img/fixation.png","null","","test","","","","","",""
"571.1999999992549","458949","pSARL_v2","pSARL_v2nmutjead","640b129fbdcd3bb1c4f1f7fe","infreq","img/green_2bandit_b2.png","68","68","test","1","133","133","6","",""
"null","459188","pSARL_v2","pSARL_v2nmutjead","640b129fbdcd3bb1c4f1f7fe","infreq_resp","img/green_2bandit_b.png","68","68","test","","","","6","",""
"null","459359","pSARL_v2","pSARL_v2nmutjead","640b129fbdcd3bb1c4f1f7fe","fixation","img/fixation.png","null","","test","","","","","",""
"503.3999999985099","459872","pSARL_v2","pSARL_v2nmutjead","640b129fbdcd3bb1c4f1f7fe","freq","img/orange_2bandit_b2.png","70","70","test","1","134","134","6","",""
"null","460178","pSARL_v2","pSARL_v2nmutjead","640b129fbdcd3bb1c4f1f7fe","freq_resp","img/orange_2bandit_b.png","70","70","test","","","","6","",""
"null","460350","pSARL_v2","pSARL_v2nmutjead","640b129fbdcd3bb1c4f1f7fe","fixation","img/fixation.png","null","","test","","","","","",""
"593.1000000014901","460953","pSARL_v2","pSARL_v2nmutjead","640b129fbdcd3bb1c4f1f7fe","freq","img/orange_2bandit_b2.png","70","70","test","1","135","135","6","",""
"null","461173","pSARL_v2","pSARL_v2nmutjead","640b129fbdcd3bb1c4f1f7fe","freq_resp","img/orange_2bandit_b.png","70","70","test","","","","6","",""
"null","461345","pSARL_v2","pSARL_v2nmutjead","640b129fbdcd3bb1c4f1f7fe","fixation","img/fixation.png","null","","test","","","","","",""
"427.8999999985099","461779","pSARL_v2","pSARL_v2nmutjead","640b129fbdcd3bb1c4f1f7fe","reward","img/slot.png","74","","test","","","","","",""
"null","462537","pSARL_v2","pSARL_v2nmutjead","640b129fbdcd3bb1c4f1f7fe","points","<div class=""verylowPoints""> -7 </div>","null","na","test","","","","6","-7","5"
"598.1000000014901","463145","pSARL_v2","pSARL_v2nmutjead","640b129fbdcd3bb1c4f1f7fe","freq","img/orange_2bandit_b2.png","70","70","test","1","136","136","7","",""
"null","463358","pSARL_v2","pSARL_v2nmutjead","640b129fbdcd3bb1c4f1f7fe","freq_resp","img/orange_2bandit_b.png","70","70","test","","","","7","",""
"null","463529","pSARL_v2","pSARL_v2nmutjead","640b129fbdcd3bb1c4f1f7fe","fixation","img/fixation.png","null","","test","","","","","",""
"650.8999999985099","464189","pSARL_v2","pSARL_v2nmutjead","640b129fbdcd3bb1c4f1f7fe","infreq","img/green_2bandit_b2.png","68","68","test","1","137","137","7","",""
"null","464348","pSARL_v2","pSARL_v2nmutjead","640b129fbdcd3bb1c4f1f7fe","infreq_resp","img/green_2bandit_b.png","68","68","test","","","","7","",""
"null","464520","pSARL_v2","pSARL_v2nmutjead","640b129fbdcd3bb1c4f1f7fe","fixation","img/fixation.png","null","","test","","","","","",""
"441.5","464971","pSARL_v2","pSARL_v2nmutjead","640b129fbdcd3bb1c4f1f7fe","freq","img/orange_2bandit_b2.png","70","70","test","1","138","138","7","",""
"null","465340","pSARL_v2","pSARL_v2nmutjead","640b129fbdcd3bb1c4f1f7fe","freq_resp","img/orange_2bandit_b.png","70","70","test","","","","7","",""
"null","465510","pSARL_v2","pSARL_v2nmutjead","640b129fbdcd3bb1c4f1f7fe","fixation","img/fixation.png","null","","test","","","","","",""
"589.1000000014901","466109","pSARL_v2","pSARL_v2nmutjead","640b129fbdcd3bb1c4f1f7fe","infreq","img/green_2bandit_b2.png","68","68","test","1","139","139","7","",""
"null","466332","pSARL_v2","pSARL_v2nmutjead","640b129fbdcd3bb1c4f1f7fe","infreq_resp","img/green_2bandit_b.png","68","68","test","","","","7","",""
"null","466503","pSARL_v2","pSARL_v2nmutjead","640b129fbdcd3bb1c4f1f7fe","fixation","img/fixation.png","null","","test","","","","","",""
"483.5","466996","pSARL_v2","pSARL_v2nmutjead","640b129fbdcd3bb1c4f1f7fe","freq","img/orange_2bandit_b2.png","70","70","test","1","140","140","7","",""
"null","467325","pSARL_v2","pSARL_v2nmutjead","640b129fbdcd3bb1c4f1f7fe","freq_resp","img/orange_2bandit_b.png","70","70","test","","","","7","",""
"null","467498","pSARL_v2","pSARL_v2nmutjead","640b129fbdcd3bb1c4f1f7fe","fixation","img/fixation.png","null","","test","","","","","",""
"557","468065","pSARL_v2","pSARL_v2nmutjead","640b129fbdcd3bb1c4f1f7fe","freq","img/orange_2bandit_b2.png","70","70","test","1","141","141","7","",""
"null","468320","pSARL_v2","pSARL_v2nmutjead","640b129fbdcd3bb1c4f1f7fe","freq_resp","img/orange_2bandit_b.png","70","70","test","","","","7","",""
"null","468490","pSARL_v2","pSARL_v2nmutjead","640b129fbdcd3bb1c4f1f7fe","fixation","img/fixation.png","null","","test","","","","","",""
"null","469312","pSARL_v2","pSARL_v2nmutjead","640b129fbdcd3bb1c4f1f7fe","freq","img/orange_2bandit_b2.png","null","70","test","0","142","142","7","",""
"null","469481","pSARL_v2","pSARL_v2nmutjead","640b129fbdcd3bb1c4f1f7fe","fixation","img/fixation.png","null","","test","","","","","",""
"549.6999999992549","470041","pSARL_v2","pSARL_v2nmutjead","640b129fbdcd3bb1c4f1f7fe","freq","img/orange_2bandit_b2.png","70","70","test","1","143","143","7","",""
"null","470305","pSARL_v2","pSARL_v2nmutjead","640b129fbdcd3bb1c4f1f7fe","freq_resp","img/orange_2bandit_b.png","70","70","test","","","","7","",""
"null","470476","pSARL_v2","pSARL_v2nmutjead","640b129fbdcd3bb1c4f1f7fe","fixation","img/fixation.png","null","","test","","","","","",""
"551.5","471038","pSARL_v2","pSARL_v2nmutjead","640b129fbdcd3bb1c4f1f7fe","freq","img/orange_2bandit_b2.png","70","70","test","1","144","144","7","",""
"null","471298","pSARL_v2","pSARL_v2nmutjead","640b129fbdcd3bb1c4f1f7fe","freq_resp","img/orange_2bandit_b.png","70","70","test","","","","7","",""
"null","471468","pSARL_v2","pSARL_v2nmutjead","640b129fbdcd3bb1c4f1f7fe","fixation","img/fixation.png","null","","test","","","","","",""
"554.1000000014901","472032","pSARL_v2","pSARL_v2nmutjead","640b129fbdcd3bb1c4f1f7fe","freq","img/orange_2bandit_b2.png","70","70","test","1","145","145","7","",""
"null","472288","pSARL_v2","pSARL_v2nmutjead","640b129fbdcd3bb1c4f1f7fe","freq_resp","img/orange_2bandit_b.png","70","70","test","","","","7","",""
"null","472460","pSARL_v2","pSARL_v2nmutjead","640b129fbdcd3bb1c4f1f7fe","fixation","img/fixation.png","null","","test","","","","","",""
"439.3999999985099","472909","pSARL_v2","pSARL_v2nmutjead","640b129fbdcd3bb1c4f1f7fe","freq","img/orange_2bandit_b2.png","70","70","test","1","146","146","7","",""
"null","473280","pSARL_v2","pSARL_v2nmutjead","640b129fbdcd3bb1c4f1f7fe","freq_resp","img/orange_2bandit_b.png","70","70","test","","","","7","",""
"null","473451","pSARL_v2","pSARL_v2nmutjead","640b129fbdcd3bb1c4f1f7fe","fixation","img/fixation.png","null","","test","","","","","",""
"488.30000000074506","473946","pSARL_v2","pSARL_v2nmutjead","640b129fbdcd3bb1c4f1f7fe","freq","img/orange_2bandit_b2.png","70","70","test","1","147","147","7","",""
"null","474277","pSARL_v2","pSARL_v2nmutjead","640b129fbdcd3bb1c4f1f7fe","freq_resp","img/orange_2bandit_b.png","70","70","test","","","","7","",""
"null","474434","pSARL_v2","pSARL_v2nmutjead","640b129fbdcd3bb1c4f1f7fe","fixation","img/fixation.png","null","","test","","","","","",""
"553.8999999985099","474994","pSARL_v2","pSARL_v2nmutjead","640b129fbdcd3bb1c4f1f7fe","freq","img/orange_2bandit_b2.png","70","70","test","1","148","148","7","",""
"null","475248","pSARL_v2","pSARL_v2nmutjead","640b129fbdcd3bb1c4f1f7fe","freq_resp","img/orange_2bandit_b.png","70","70","test","","","","7","",""
"null","475404","pSARL_v2","pSARL_v2nmutjead","640b129fbdcd3bb1c4f1f7fe","fixation","img/fixation.png","null","","test","","","","","",""
"510","475922","pSARL_v2","pSARL_v2nmutjead","640b129fbdcd3bb1c4f1f7fe","freq","img/orange_2bandit_b2.png","70","70","test","1","149","149","7","",""
"null","476235","pSARL_v2","pSARL_v2nmutjead","640b129fbdcd3bb1c4f1f7fe","freq_resp","img/orange_2bandit_b.png","70","70","test","","","","7","",""
"null","476407","pSARL_v2","pSARL_v2nmutjead","640b129fbdcd3bb1c4f1f7fe","fixation","img/fixation.png","null","","test","","","","","",""
"521","476934","pSARL_v2","pSARL_v2nmutjead","640b129fbdcd3bb1c4f1f7fe","freq","img/orange_2bandit_b2.png","70","70","test","1","150","150","7","",""
"null","477222","pSARL_v2","pSARL_v2nmutjead","640b129fbdcd3bb1c4f1f7fe","freq_resp","img/orange_2bandit_b.png","70","70","test","","","","7","",""
"null","477391","pSARL_v2","pSARL_v2nmutjead","640b129fbdcd3bb1c4f1f7fe","fixation","img/fixation.png","null","","test","","","","","",""
"544.3000000007451","477940","pSARL_v2","pSARL_v2nmutjead","640b129fbdcd3bb1c4f1f7fe","freq","img/orange_2bandit_b2.png","70","70","test","1","151","151","7","",""
"null","478204","pSARL_v2","pSARL_v2nmutjead","640b129fbdcd3bb1c4f1f7fe","freq_resp","img/orange_2bandit_b.png","70","70","test","","","","7","",""
"null","478374","pSARL_v2","pSARL_v2nmutjead","640b129fbdcd3bb1c4f1f7fe","fixation","img/fixation.png","null","","test","","","","","",""
"503.6000000014901","478882","pSARL_v2","pSARL_v2nmutjead","640b129fbdcd3bb1c4f1f7fe","freq","img/orange_2bandit_b2.png","70","70","test","1","152","152","7","",""
"null","479188","pSARL_v2","pSARL_v2nmutjead","640b129fbdcd3bb1c4f1f7fe","freq_resp","img/orange_2bandit_b.png","70","70","test","","","","7","",""
"null","479346","pSARL_v2","pSARL_v2nmutjead","640b129fbdcd3bb1c4f1f7fe","fixation","img/fixation.png","null","","test","","","","","",""
"504.19999999925494","479857","pSARL_v2","pSARL_v2nmutjead","640b129fbdcd3bb1c4f1f7fe","freq","img/orange_2bandit_b2.png","70","70","test","1","153","153","7","",""
"null","480159","pSARL_v2","pSARL_v2nmutjead","640b129fbdcd3bb1c4f1f7fe","freq_resp","img/orange_2bandit_b.png","70","70","test","","","","7","",""
"null","480317","pSARL_v2","pSARL_v2nmutjead","640b129fbdcd3bb1c4f1f7fe","fixation","img/fixation.png","null","","test","","","","","",""
"457.20000000298023","480779","pSARL_v2","pSARL_v2nmutjead","640b129fbdcd3bb1c4f1f7fe","freq","img/orange_2bandit_b2.png","70","70","test","1","154","154","7","",""
"null","481130","pSARL_v2","pSARL_v2nmutjead","640b129fbdcd3bb1c4f1f7fe","freq_resp","img/orange_2bandit_b.png","70","70","test","","","","7","",""
"null","481285","pSARL_v2","pSARL_v2nmutjead","640b129fbdcd3bb1c4f1f7fe","fixation","img/fixation.png","null","","test","","","","","",""
"547.3999999985099","481837","pSARL_v2","pSARL_v2nmutjead","640b129fbdcd3bb1c4f1f7fe","freq","img/orange_2bandit_b2.png","70","70","test","1","155","155","7","",""
"null","482098","pSARL_v2","pSARL_v2nmutjead","640b129fbdcd3bb1c4f1f7fe","freq_resp","img/orange_2bandit_b.png","70","70","test","","","","7","",""
"null","482255","pSARL_v2","pSARL_v2nmutjead","640b129fbdcd3bb1c4f1f7fe","fixation","img/fixation.png","null","","test","","","","","",""
"507.4000000022352","482767","pSARL_v2","pSARL_v2nmutjead","640b129fbdcd3bb1c4f1f7fe","reward","img/slot.png","74","","test","","","","","",""
"null","483523","pSARL_v2","pSARL_v2nmutjead","640b129fbdcd3bb1c4f1f7fe","points","<div class=""verylowPoints""> -6 </div>","null","na","test","","","","7","-6","6"
"572","484100","pSARL_v2","pSARL_v2nmutjead","640b129fbdcd3bb1c4f1f7fe","freq","img/orange_2bandit_b2.png","70","70","test","1","156","156","8","",""
"null","484339","pSARL_v2","pSARL_v2nmutjead","640b129fbdcd3bb1c4f1f7fe","freq_resp","img/orange_2bandit_b.png","70","70","test","","","","8","",""
"null","484509","pSARL_v2","pSARL_v2nmutjead","640b129fbdcd3bb1c4f1f7fe","fixation","img/fixation.png","null","","test","","","","","",""
"663.6999999992549","485178","pSARL_v2","pSARL_v2nmutjead","640b129fbdcd3bb1c4f1f7fe","freq","img/orange_2bandit_b2.png","70","70","test","1","157","157","8","",""
"null","485324","pSARL_v2","pSARL_v2nmutjead","640b129fbdcd3bb1c4f1f7fe","freq_resp","img/orange_2bandit_b.png","70","70","test","","","","8","",""
"null","485481","pSARL_v2","pSARL_v2nmutjead","640b129fbdcd3bb1c4f1f7fe","fixation","img/fixation.png","null","","test","","","","","",""
"770.8000000007451","486256","pSARL_v2","pSARL_v2nmutjead","640b129fbdcd3bb1c4f1f7fe","freq","img/orange_2bandit_b2.png","70","70","test","1","158","158","8","",""
"null","486291","pSARL_v2","pSARL_v2nmutjead","640b129fbdcd3bb1c4f1f7fe","freq_resp","img/orange_2bandit_b.png","70","70","test","","","","8","",""
"null","486453","pSARL_v2","pSARL_v2nmutjead","640b129fbdcd3bb1c4f1f7fe","fixation","img/fixation.png","null","","test","","","","","",""
"707","487166","pSARL_v2","pSARL_v2nmutjead","640b129fbdcd3bb1c4f1f7fe","freq","img/orange_2bandit_b2.png","70","70","test","1","159","159","8","",""
"null","487279","pSARL_v2","pSARL_v2nmutjead","640b129fbdcd3bb1c4f1f7fe","freq_resp","img/orange_2bandit_b.png","70","70","test","","","","8","",""
"null","487435","pSARL_v2","pSARL_v2nmutjead","640b129fbdcd3bb1c4f1f7fe","fixation","img/fixation.png","null","","test","","","","","",""
"602.8000000007451","488043","pSARL_v2","pSARL_v2nmutjead","640b129fbdcd3bb1c4f1f7fe","freq","img/orange_2bandit_b2.png","70","70","test","1","160","160","8","",""
"null","488252","pSARL_v2","pSARL_v2nmutjead","640b129fbdcd3bb1c4f1f7fe","freq_resp","img/orange_2bandit_b.png","70","70","test","","","","8","",""
"null","488422","pSARL_v2","pSARL_v2nmutjead","640b129fbdcd3bb1c4f1f7fe","fixation","img/fixation.png","null","","test","","","","","",""
"548.8000000007451","488977","pSARL_v2","pSARL_v2nmutjead","640b129fbdcd3bb1c4f1f7fe","freq","img/orange_2bandit_b2.png","70","70","test","1","161","161","8","",""
"null","489235","pSARL_v2","pSARL_v2nmutjead","640b129fbdcd3bb1c4f1f7fe","freq_resp","img/orange_2bandit_b.png","70","70","test","","","","8","",""
"null","489393","pSARL_v2","pSARL_v2nmutjead","640b129fbdcd3bb1c4f1f7fe","fixation","img/fixation.png","null","","test","","","","","",""
"604.8000000007451","490004","pSARL_v2","pSARL_v2nmutjead","640b129fbdcd3bb1c4f1f7fe","infreq","img/green_2bandit_b2.png","70","68","test","0","162","162","8","",""
"null","490220","pSARL_v2","pSARL_v2nmutjead","640b129fbdcd3bb1c4f1f7fe","infreq_resp","img/green_2bandit_b.png","70","68","test","","","","8","",""
"null","490377","pSARL_v2","pSARL_v2nmutjead","640b129fbdcd3bb1c4f1f7fe","fixation","img/fixation.png","null","","test","","","","","",""
"557.9000000022352","490940","pSARL_v2","pSARL_v2nmutjead","640b129fbdcd3bb1c4f1f7fe","freq","img/orange_2bandit_b2.png","70","70","test","1","163","163","8","",""
"null","491189","pSARL_v2","pSARL_v2nmutjead","640b129fbdcd3bb1c4f1f7fe","freq_resp","img/orange_2bandit_b.png","70","70","test","","","","8","",""
"null","491360","pSARL_v2","pSARL_v2nmutjead","640b129fbdcd3bb1c4f1f7fe","fixation","img/fixation.png","null","","test","","","","","",""
"584.6999999992549","491950","pSARL_v2","pSARL_v2nmutjead","640b129fbdcd3bb1c4f1f7fe","freq","img/orange_2bandit_b2.png","70","70","test","1","164","164","8","",""
"null","492181","pSARL_v2","pSARL_v2nmutjead","640b129fbdcd3bb1c4f1f7fe","freq_resp","img/orange_2bandit_b.png","70","70","test","","","","8","",""
"null","492340","pSARL_v2","pSARL_v2nmutjead","640b129fbdcd3bb1c4f1f7fe","fixation","img/fixation.png","null","","test","","","","","",""
"575.7999999970198","492920","pSARL_v2","pSARL_v2nmutjead","640b129fbdcd3bb1c4f1f7fe","freq","img/orange_2bandit_b2.png","70","70","test","1","165","165","8","",""
"null","493153","pSARL_v2","pSARL_v2nmutjead","640b129fbdcd3bb1c4f1f7fe","freq_resp","img/orange_2bandit_b.png","70","70","test","","","","8","",""
"null","493312","pSARL_v2","pSARL_v2nmutjead","640b129fbdcd3bb1c4f1f7fe","fixation","img/fixation.png","null","","test","","","","","",""
"null","494125","pSARL_v2","pSARL_v2nmutjead","640b129fbdcd3bb1c4f1f7fe","infreq","img/green_2bandit_b2.png","null","68","test","0","166","166","8","",""
"null","494287","pSARL_v2","pSARL_v2nmutjead","640b129fbdcd3bb1c4f1f7fe","fixation","img/fixation.png","null","","test","","","","","",""
"null","495100","pSARL_v2","pSARL_v2nmutjead","640b129fbdcd3bb1c4f1f7fe","freq","img/orange_2bandit_b2.png","null","70","test","0","167","167","8","",""
"null","495261","pSARL_v2","pSARL_v2nmutjead","640b129fbdcd3bb1c4f1f7fe","fixation","img/fixation.png","null","","test","","","","","",""
"null","496073","pSARL_v2","pSARL_v2nmutjead","640b129fbdcd3bb1c4f1f7fe","freq","img/orange_2bandit_b2.png","null","70","test","0","168","168","8","",""
"null","496234","pSARL_v2","pSARL_v2nmutjead","640b129fbdcd3bb1c4f1f7fe","fixation","img/fixation.png","null","","test","","","","","",""
"null","497045","pSARL_v2","pSARL_v2nmutjead","640b129fbdcd3bb1c4f1f7fe","freq","img/orange_2bandit_b2.png","null","70","test","0","169","169","8","",""
"null","497204","pSARL_v2","pSARL_v2nmutjead","640b129fbdcd3bb1c4f1f7fe","fixation","img/fixation.png","null","","test","","","","","",""
"null","498015","pSARL_v2","pSARL_v2nmutjead","640b129fbdcd3bb1c4f1f7fe","freq","img/orange_2bandit_b2.png","null","70","test","0","170","170","8","",""
"null","498173","pSARL_v2","pSARL_v2nmutjead","640b129fbdcd3bb1c4f1f7fe","fixation","img/fixation.png","null","","test","","","","","",""
"null","498992","pSARL_v2","pSARL_v2nmutjead","640b129fbdcd3bb1c4f1f7fe","freq","img/orange_2bandit_b2.png","null","70","test","0","171","171","8","",""
"null","499164","pSARL_v2","pSARL_v2nmutjead","640b129fbdcd3bb1c4f1f7fe","fixation","img/fixation.png","null","","test","","","","","",""
"183.59999999776483","499354","pSARL_v2","pSARL_v2nmutjead","640b129fbdcd3bb1c4f1f7fe","freq","img/orange_2bandit_b2.png","68","70","test","0","172","172","8","",""
"null","499977","pSARL_v2","pSARL_v2nmutjead","640b129fbdcd3bb1c4f1f7fe","freq_resp","img/orange_2bandit_b.png","68","70","test","","","","8","",""
"null","500135","pSARL_v2","pSARL_v2nmutjead","640b129fbdcd3bb1c4f1f7fe","fixation","img/fixation.png","null","","test","","","","","",""
"null","500949","pSARL_v2","pSARL_v2nmutjead","640b129fbdcd3bb1c4f1f7fe","freq","img/orange_2bandit_b2.png","null","70","test","0","173","173","8","",""
"null","501104","pSARL_v2","pSARL_v2nmutjead","640b129fbdcd3bb1c4f1f7fe","fixation","img/fixation.png","null","","test","","","","","",""
"467.80000000074506","501577","pSARL_v2","pSARL_v2nmutjead","640b129fbdcd3bb1c4f1f7fe","freq","img/orange_2bandit_b2.png","70","70","test","1","174","174","8","",""
"null","501918","pSARL_v2","pSARL_v2nmutjead","640b129fbdcd3bb1c4f1f7fe","freq_resp","img/orange_2bandit_b.png","70","70","test","","","","8","",""
"null","502077","pSARL_v2","pSARL_v2nmutjead","640b129fbdcd3bb1c4f1f7fe","fixation","img/fixation.png","null","","test","","","","","",""
"693","502775","pSARL_v2","pSARL_v2nmutjead","640b129fbdcd3bb1c4f1f7fe","reward","img/slot.png","74","","test","","","","","",""
"null","503531","pSARL_v2","pSARL_v2nmutjead","640b129fbdcd3bb1c4f1f7fe","points","<div class=""verylowPoints""> -4 </div>","null","na","test","","","","8","-4","7"
"591.0999999977648","504127","pSARL_v2","pSARL_v2nmutjead","640b129fbdcd3bb1c4f1f7fe","freq","img/orange_2bandit_b2.png","70","70","test","1","175","175","9","",""
"null","504345","pSARL_v2","pSARL_v2nmutjead","640b129fbdcd3bb1c4f1f7fe","freq_resp","img/orange_2bandit_b.png","70","70","test","","","","9","",""
"null","504515","pSARL_v2","pSARL_v2nmutjead","640b129fbdcd3bb1c4f1f7fe","fixation","img/fixation.png","null","","test","","","","","",""
"618.5999999977648","505139","pSARL_v2","pSARL_v2nmutjead","640b129fbdcd3bb1c4f1f7fe","infreq","img/green_2bandit_b2.png","68","68","test","1","176","176","9","",""
"null","505329","pSARL_v2","pSARL_v2nmutjead","640b129fbdcd3bb1c4f1f7fe","infreq_resp","img/green_2bandit_b.png","68","68","test","","","","9","",""
"null","505501","pSARL_v2","pSARL_v2nmutjead","640b129fbdcd3bb1c4f1f7fe","fixation","img/fixation.png","null","","test","","","","","",""
"null","506316","pSARL_v2","pSARL_v2nmutjead","640b129fbdcd3bb1c4f1f7fe","freq","img/orange_2bandit_b2.png","null","70","test","0","177","177","9","",""
"null","506485","pSARL_v2","pSARL_v2nmutjead","640b129fbdcd3bb1c4f1f7fe","fixation","img/fixation.png","null","","test","","","","","",""
"603.8999999985099","507094","pSARL_v2","pSARL_v2nmutjead","640b129fbdcd3bb1c4f1f7fe","freq","img/orange_2bandit_b2.png","70","70","test","1","178","178","9","",""
"null","507299","pSARL_v2","pSARL_v2nmutjead","640b129fbdcd3bb1c4f1f7fe","freq_resp","img/orange_2bandit_b.png","70","70","test","","","","9","",""
"null","507455","pSARL_v2","pSARL_v2nmutjead","640b129fbdcd3bb1c4f1f7fe","fixation","img/fixation.png","null","","test","","","","","",""
"466.5","507926","pSARL_v2","pSARL_v2nmutjead","640b129fbdcd3bb1c4f1f7fe","freq","img/orange_2bandit_b2.png","70","70","test","1","179","179","9","",""
"null","508268","pSARL_v2","pSARL_v2nmutjead","640b129fbdcd3bb1c4f1f7fe","freq_resp","img/orange_2bandit_b.png","70","70","test","","","","9","",""
"null","508440","pSARL_v2","pSARL_v2nmutjead","640b129fbdcd3bb1c4f1f7fe","fixation","img/fixation.png","null","","test","","","","","",""
"592.7999999970198","509039","pSARL_v2","pSARL_v2nmutjead","640b129fbdcd3bb1c4f1f7fe","freq","img/orange_2bandit_b2.png","70","70","test","1","180","180","9","",""
"null","509267","pSARL_v2","pSARL_v2nmutjead","640b129fbdcd3bb1c4f1f7fe","freq_resp","img/orange_2bandit_b.png","70","70","test","","","","9","",""
"null","509423","pSARL_v2","pSARL_v2nmutjead","640b129fbdcd3bb1c4f1f7fe","fixation","img/fixation.png","null","","test","","","","","",""
"657.8000000007451","510086","pSARL_v2","pSARL_v2nmutjead","640b129fbdcd3bb1c4f1f7fe","freq","img/orange_2bandit_b2.png","70","70","test","1","181","181","9","",""
"null","510236","pSARL_v2","pSARL_v2nmutjead","640b129fbdcd3bb1c4f1f7fe","freq_resp","img/orange_2bandit_b.png","70","70","test","","","","9","",""
"null","510393","pSARL_v2","pSARL_v2nmutjead","640b129fbdcd3bb1c4f1f7fe","fixation","img/fixation.png","null","","test","","","","","",""
"575.2999999970198","510973","pSARL_v2","pSARL_v2nmutjead","640b129fbdcd3bb1c4f1f7fe","freq","img/orange_2bandit_b2.png","70","70","test","1","182","182","9","",""
"null","511207","pSARL_v2","pSARL_v2nmutjead","640b129fbdcd3bb1c4f1f7fe","freq_resp","img/orange_2bandit_b.png","70","70","test","","","","9","",""
"null","511363","pSARL_v2","pSARL_v2nmutjead","640b129fbdcd3bb1c4f1f7fe","fixation","img/fixation.png","null","","test","","","","","",""
"527","511897","pSARL_v2","pSARL_v2nmutjead","640b129fbdcd3bb1c4f1f7fe","freq","img/orange_2bandit_b2.png","70","70","test","1","183","183","9","",""
"null","512178","pSARL_v2","pSARL_v2nmutjead","640b129fbdcd3bb1c4f1f7fe","freq_resp","img/orange_2bandit_b.png","70","70","test","","","","9","",""
"null","512349","pSARL_v2","pSARL_v2nmutjead","640b129fbdcd3bb1c4f1f7fe","fixation","img/fixation.png","null","","test","","","","","",""
"625.9000000022352","512979","pSARL_v2","pSARL_v2nmutjead","640b129fbdcd3bb1c4f1f7fe","freq","img/orange_2bandit_b2.png","70","70","test","1","184","184","9","",""
"null","513163","pSARL_v2","pSARL_v2nmutjead","640b129fbdcd3bb1c4f1f7fe","freq_resp","img/orange_2bandit_b.png","70","70","test","","","","9","",""
"null","513320","pSARL_v2","pSARL_v2nmutjead","640b129fbdcd3bb1c4f1f7fe","fixation","img/fixation.png","null","","test","","","","","",""
"486.19999999925494","513813","pSARL_v2","pSARL_v2nmutjead","640b129fbdcd3bb1c4f1f7fe","freq","img/orange_2bandit_b2.png","70","70","test","1","185","185","9","",""
"null","514135","pSARL_v2","pSARL_v2nmutjead","640b129fbdcd3bb1c4f1f7fe","freq_resp","img/orange_2bandit_b.png","70","70","test","","","","9","",""
"null","514292","pSARL_v2","pSARL_v2nmutjead","640b129fbdcd3bb1c4f1f7fe","fixation","img/fixation.png","null","","test","","","","","",""
"500","514798","pSARL_v2","pSARL_v2nmutjead","640b129fbdcd3bb1c4f1f7fe","freq","img/orange_2bandit_b2.png","70","70","test","1","186","186","9","",""
"null","515119","pSARL_v2","pSARL_v2nmutjead","640b129fbdcd3bb1c4f1f7fe","freq_resp","img/orange_2bandit_b.png","70","70","test","","","","9","",""
"null","515277","pSARL_v2","pSARL_v2nmutjead","640b129fbdcd3bb1c4f1f7fe","fixation","img/fixation.png","null","","test","","","","","",""
"508.8999999985099","515792","pSARL_v2","pSARL_v2nmutjead","640b129fbdcd3bb1c4f1f7fe","freq","img/orange_2bandit_b2.png","70","70","test","1","187","187","9","",""
"null","516090","pSARL_v2","pSARL_v2nmutjead","640b129fbdcd3bb1c4f1f7fe","freq_resp","img/orange_2bandit_b.png","70","70","test","","","","9","",""
"null","516262","pSARL_v2","pSARL_v2nmutjead","640b129fbdcd3bb1c4f1f7fe","fixation","img/fixation.png","null","","test","","","","","",""
"495.0999999977648","516762","pSARL_v2","pSARL_v2nmutjead","640b129fbdcd3bb1c4f1f7fe","freq","img/orange_2bandit_b2.png","70","70","test","1","188","188","9","",""
"null","517075","pSARL_v2","pSARL_v2nmutjead","640b129fbdcd3bb1c4f1f7fe","freq_resp","img/orange_2bandit_b.png","70","70","test","","","","9","",""
"null","517246","pSARL_v2","pSARL_v2nmutjead","640b129fbdcd3bb1c4f1f7fe","fixation","img/fixation.png","null","","test","","","","","",""
"527.6000000014901","517778","pSARL_v2","pSARL_v2nmutjead","640b129fbdcd3bb1c4f1f7fe","infreq","img/green_2bandit_b2.png","68","68","test","1","189","189","9","",""
"null","518060","pSARL_v2","pSARL_v2nmutjead","640b129fbdcd3bb1c4f1f7fe","infreq_resp","img/green_2bandit_b.png","68","68","test","","","","9","",""
"null","518230","pSARL_v2","pSARL_v2nmutjead","640b129fbdcd3bb1c4f1f7fe","fixation","img/fixation.png","null","","test","","","","","",""
"482.5","518719","pSARL_v2","pSARL_v2nmutjead","640b129fbdcd3bb1c4f1f7fe","freq","img/orange_2bandit_b2.png","70","70","test","1","190","190","9","",""
"null","519044","pSARL_v2","pSARL_v2nmutjead","640b129fbdcd3bb1c4f1f7fe","freq_resp","img/orange_2bandit_b.png","70","70","test","","","","9","",""
"null","519201","pSARL_v2","pSARL_v2nmutjead","640b129fbdcd3bb1c4f1f7fe","fixation","img/fixation.png","null","","test","","","","","",""
"602.3000000007451","519809","pSARL_v2","pSARL_v2nmutjead","640b129fbdcd3bb1c4f1f7fe","freq","img/orange_2bandit_b2.png","70","70","test","1","191","191","9","",""
"null","520014","pSARL_v2","pSARL_v2nmutjead","640b129fbdcd3bb1c4f1f7fe","freq_resp","img/orange_2bandit_b.png","70","70","test","","","","9","",""
"null","520172","pSARL_v2","pSARL_v2nmutjead","640b129fbdcd3bb1c4f1f7fe","fixation","img/fixation.png","null","","test","","","","","",""
"456.69999999925494","520635","pSARL_v2","pSARL_v2nmutjead","640b129fbdcd3bb1c4f1f7fe","freq","img/orange_2bandit_b2.png","70","70","test","1","192","192","9","",""
"null","520998","pSARL_v2","pSARL_v2nmutjead","640b129fbdcd3bb1c4f1f7fe","freq_resp","img/orange_2bandit_b.png","70","70","test","","","","9","",""
"null","521154","pSARL_v2","pSARL_v2nmutjead","640b129fbdcd3bb1c4f1f7fe","fixation","img/fixation.png","null","","test","","","","","",""
"372.0999999977648","521532","pSARL_v2","pSARL_v2nmutjead","640b129fbdcd3bb1c4f1f7fe","freq","img/orange_2bandit_b2.png","70","70","test","1","193","193","9","",""
"null","521969","pSARL_v2","pSARL_v2nmutjead","640b129fbdcd3bb1c4f1f7fe","freq_resp","img/orange_2bandit_b.png","70","70","test","","","","9","",""
"null","522126","pSARL_v2","pSARL_v2nmutjead","640b129fbdcd3bb1c4f1f7fe","fixation","img/fixation.png","null","","test","","","","","",""
"385","522516","pSARL_v2","pSARL_v2nmutjead","640b129fbdcd3bb1c4f1f7fe","freq","img/orange_2bandit_b2.png","70","70","test","1","194","194","9","",""
"null","522941","pSARL_v2","pSARL_v2nmutjead","640b129fbdcd3bb1c4f1f7fe","freq_resp","img/orange_2bandit_b.png","70","70","test","","","","9","",""
"null","523111","pSARL_v2","pSARL_v2nmutjead","640b129fbdcd3bb1c4f1f7fe","fixation","img/fixation.png","null","","test","","","","","",""
"329.19999999925494","523447","pSARL_v2","pSARL_v2nmutjead","640b129fbdcd3bb1c4f1f7fe","freq","img/orange_2bandit_b2.png","70","70","test","1","195","195","9","",""
"null","523926","pSARL_v2","pSARL_v2nmutjead","640b129fbdcd3bb1c4f1f7fe","freq_resp","img/orange_2bandit_b.png","70","70","test","","","","9","",""
"null","524082","pSARL_v2","pSARL_v2nmutjead","640b129fbdcd3bb1c4f1f7fe","fixation","img/fixation.png","null","","test","","","","","",""
"249.10000000149012","524338","pSARL_v2","pSARL_v2nmutjead","640b129fbdcd3bb1c4f1f7fe","freq","img/orange_2bandit_b2.png","70","70","test","1","196","196","9","",""
"null","524897","pSARL_v2","pSARL_v2nmutjead","640b129fbdcd3bb1c4f1f7fe","freq_resp","img/orange_2bandit_b.png","70","70","test","","","","9","",""
"null","525067","pSARL_v2","pSARL_v2nmutjead","640b129fbdcd3bb1c4f1f7fe","fixation","img/fixation.png","null","","test","","","","","",""
"303.5","525376","pSARL_v2","pSARL_v2nmutjead","640b129fbdcd3bb1c4f1f7fe","freq","img/orange_2bandit_b2.png","70","70","test","1","197","197","9","",""
"null","525880","pSARL_v2","pSARL_v2nmutjead","640b129fbdcd3bb1c4f1f7fe","freq_resp","img/orange_2bandit_b.png","70","70","test","","","","9","",""
"null","526038","pSARL_v2","pSARL_v2nmutjead","640b129fbdcd3bb1c4f1f7fe","fixation","img/fixation.png","null","","test","","","","","",""
"239.69999999925494","526282","pSARL_v2","pSARL_v2nmutjead","640b129fbdcd3bb1c4f1f7fe","freq","img/orange_2bandit_b2.png","70","70","test","1","198","198","9","",""
"null","526850","pSARL_v2","pSARL_v2nmutjead","640b129fbdcd3bb1c4f1f7fe","freq_resp","img/orange_2bandit_b.png","70","70","test","","","","9","",""
"null","527007","pSARL_v2","pSARL_v2nmutjead","640b129fbdcd3bb1c4f1f7fe","fixation","img/fixation.png","null","","test","","","","","",""
"190.80000000074506","527202","pSARL_v2","pSARL_v2nmutjead","640b129fbdcd3bb1c4f1f7fe","freq","img/orange_2bandit_b2.png","70","70","test","1","199","199","9","",""
"null","527818","pSARL_v2","pSARL_v2nmutjead","640b129fbdcd3bb1c4f1f7fe","freq_resp","img/orange_2bandit_b.png","70","70","test","","","","9","",""
"null","527975","pSARL_v2","pSARL_v2nmutjead","640b129fbdcd3bb1c4f1f7fe","fixation","img/fixation.png","null","","test","","","","","",""
"421.19999999925494","528401","pSARL_v2","pSARL_v2nmutjead","640b129fbdcd3bb1c4f1f7fe","reward","img/slot.png","74","","test","","","","","",""
"null","529164","pSARL_v2","pSARL_v2nmutjead","640b129fbdcd3bb1c4f1f7fe","points","<div class=""verylowPoints""> -3 </div>","null","na","test","","","","9","-3","8"
"734","529903","pSARL_v2","pSARL_v2nmutjead","640b129fbdcd3bb1c4f1f7fe","freq","img/orange_2bandit_b2.png","70","70","test","1","200","200","10","",""
"null","529979","pSARL_v2","pSARL_v2nmutjead","640b129fbdcd3bb1c4f1f7fe","freq_resp","img/orange_2bandit_b.png","70","70","test","","","","10","",""
"null","530150","pSARL_v2","pSARL_v2nmutjead","640b129fbdcd3bb1c4f1f7fe","fixation","img/fixation.png","null","","test","","","","","",""
"664.3999999985099","530821","pSARL_v2","pSARL_v2nmutjead","640b129fbdcd3bb1c4f1f7fe","infreq","img/green_2bandit_b2.png","70","68","test","0","201","201","10","",""
"null","530971","pSARL_v2","pSARL_v2nmutjead","640b129fbdcd3bb1c4f1f7fe","infreq_resp","img/green_2bandit_b.png","70","68","test","","","","10","",""
"null","531134","pSARL_v2","pSARL_v2nmutjead","640b129fbdcd3bb1c4f1f7fe","fixation","img/fixation.png","null","","test","","","","","",""
"533.8000000007451","531673","pSARL_v2","pSARL_v2nmutjead","640b129fbdcd3bb1c4f1f7fe","infreq","img/green_2bandit_b2.png","68","68","test","1","202","202","10","",""
"null","531946","pSARL_v2","pSARL_v2nmutjead","640b129fbdcd3bb1c4f1f7fe","infreq_resp","img/green_2bandit_b.png","68","68","test","","","","10","",""
"null","532103","pSARL_v2","pSARL_v2nmutjead","640b129fbdcd3bb1c4f1f7fe","fixation","img/fixation.png","null","","test","","","","","",""
"442.8999999985099","532550","pSARL_v2","pSARL_v2nmutjead","640b129fbdcd3bb1c4f1f7fe","freq","img/orange_2bandit_b2.png","70","70","test","1","203","203","10","",""
"null","532916","pSARL_v2","pSARL_v2nmutjead","640b129fbdcd3bb1c4f1f7fe","freq_resp","img/orange_2bandit_b.png","70","70","test","","","","10","",""
"null","533072","pSARL_v2","pSARL_v2nmutjead","640b129fbdcd3bb1c4f1f7fe","fixation","img/fixation.png","null","","test","","","","","",""
"443.19999999925494","533520","pSARL_v2","pSARL_v2nmutjead","640b129fbdcd3bb1c4f1f7fe","freq","img/orange_2bandit_b2.png","70","70","test","1","204","204","10","",""
"null","533886","pSARL_v2","pSARL_v2nmutjead","640b129fbdcd3bb1c4f1f7fe","freq_resp","img/orange_2bandit_b.png","70","70","test","","","","10","",""
"null","534044","pSARL_v2","pSARL_v2nmutjead","640b129fbdcd3bb1c4f1f7fe","fixation","img/fixation.png","null","","test","","","","","",""
"489.5999999977648","534539","pSARL_v2","pSARL_v2nmutjead","640b129fbdcd3bb1c4f1f7fe","freq","img/orange_2bandit_b2.png","70","70","test","1","205","205","10","",""
"null","534856","pSARL_v2","pSARL_v2nmutjead","640b129fbdcd3bb1c4f1f7fe","freq_resp","img/orange_2bandit_b.png","70","70","test","","","","10","",""
"null","535013","pSARL_v2","pSARL_v2nmutjead","640b129fbdcd3bb1c4f1f7fe","fixation","img/fixation.png","null","","test","","","","","",""
"368.5","535387","pSARL_v2","pSARL_v2nmutjead","640b129fbdcd3bb1c4f1f7fe","freq","img/orange_2bandit_b2.png","70","70","test","1","206","206","10","",""
"null","535828","pSARL_v2","pSARL_v2nmutjead","640b129fbdcd3bb1c4f1f7fe","freq_resp","img/orange_2bandit_b.png","70","70","test","","","","10","",""
"null","535984","pSARL_v2","pSARL_v2nmutjead","640b129fbdcd3bb1c4f1f7fe","fixation","img/fixation.png","null","","test","","","","","",""
"556","536545","pSARL_v2","pSARL_v2nmutjead","640b129fbdcd3bb1c4f1f7fe","freq","img/orange_2bandit_b2.png","70","70","test","1","207","207","10","",""
"null","536797","pSARL_v2","pSARL_v2nmutjead","640b129fbdcd3bb1c4f1f7fe","freq_resp","img/orange_2bandit_b.png","70","70","test","","","","10","",""
"null","536954","pSARL_v2","pSARL_v2nmutjead","640b129fbdcd3bb1c4f1f7fe","fixation","img/fixation.png","null","","test","","","","","",""
"416.5999999977648","537376","pSARL_v2","pSARL_v2nmutjead","640b129fbdcd3bb1c4f1f7fe","freq","img/orange_2bandit_b2.png","70","70","test","1","208","208","10","",""
"null","537767","pSARL_v2","pSARL_v2nmutjead","640b129fbdcd3bb1c4f1f7fe","freq_resp","img/orange_2bandit_b.png","70","70","test","","","","10","",""
"null","537926","pSARL_v2","pSARL_v2nmutjead","640b129fbdcd3bb1c4f1f7fe","fixation","img/fixation.png","null","","test","","","","","",""
"455.69999999925494","538386","pSARL_v2","pSARL_v2nmutjead","640b129fbdcd3bb1c4f1f7fe","freq","img/orange_2bandit_b2.png","70","70","test","1","209","209","10","",""
"null","538739","pSARL_v2","pSARL_v2nmutjead","640b129fbdcd3bb1c4f1f7fe","freq_resp","img/orange_2bandit_b.png","70","70","test","","","","10","",""
"null","538896","pSARL_v2","pSARL_v2nmutjead","640b129fbdcd3bb1c4f1f7fe","fixation","img/fixation.png","null","","test","","","","","",""
"446.6000000014901","539348","pSARL_v2","pSARL_v2nmutjead","640b129fbdcd3bb1c4f1f7fe","freq","img/orange_2bandit_b2.png","70","70","test","1","210","210","10","",""
"null","539710","pSARL_v2","pSARL_v2nmutjead","640b129fbdcd3bb1c4f1f7fe","freq_resp","img/orange_2bandit_b.png","70","70","test","","","","10","",""
"null","539880","pSARL_v2","pSARL_v2nmutjead","640b129fbdcd3bb1c4f1f7fe","fixation","img/fixation.png","null","","test","","","","","",""
"355.69999999925494","540241","pSARL_v2","pSARL_v2nmutjead","640b129fbdcd3bb1c4f1f7fe","freq","img/orange_2bandit_b2.png","70","70","test","1","211","211","10","",""
"null","540695","pSARL_v2","pSARL_v2nmutjead","640b129fbdcd3bb1c4f1f7fe","freq_resp","img/orange_2bandit_b.png","70","70","test","","","","10","",""
"null","540866","pSARL_v2","pSARL_v2nmutjead","640b129fbdcd3bb1c4f1f7fe","fixation","img/fixation.png","null","","test","","","","","",""
"416.3999999985099","541287","pSARL_v2","pSARL_v2nmutjead","640b129fbdcd3bb1c4f1f7fe","freq","img/orange_2bandit_b2.png","70","70","test","1","212","212","10","",""
"null","541680","pSARL_v2","pSARL_v2nmutjead","640b129fbdcd3bb1c4f1f7fe","freq_resp","img/orange_2bandit_b.png","70","70","test","","","","10","",""
"null","541837","pSARL_v2","pSARL_v2nmutjead","640b129fbdcd3bb1c4f1f7fe","fixation","img/fixation.png","null","","test","","","","","",""
"425.1000000014901","542267","pSARL_v2","pSARL_v2nmutjead","640b129fbdcd3bb1c4f1f7fe","freq","img/orange_2bandit_b2.png","70","70","test","1","213","213","10","",""
"null","542649","pSARL_v2","pSARL_v2nmutjead","640b129fbdcd3bb1c4f1f7fe","freq_resp","img/orange_2bandit_b.png","70","70","test","","","","10","",""
"null","542806","pSARL_v2","pSARL_v2nmutjead","640b129fbdcd3bb1c4f1f7fe","fixation","img/fixation.png","null","","test","","","","","",""
"492.8999999985099","543304","pSARL_v2","pSARL_v2nmutjead","640b129fbdcd3bb1c4f1f7fe","freq","img/orange_2bandit_b2.png","70","70","test","1","214","214","10","",""
"null","543622","pSARL_v2","pSARL_v2nmutjead","640b129fbdcd3bb1c4f1f7fe","freq_resp","img/orange_2bandit_b.png","70","70","test","","","","10","",""
"null","543794","pSARL_v2","pSARL_v2nmutjead","640b129fbdcd3bb1c4f1f7fe","fixation","img/fixation.png","null","","test","","","","","",""
"436.0999999977648","544236","pSARL_v2","pSARL_v2nmutjead","640b129fbdcd3bb1c4f1f7fe","freq","img/orange_2bandit_b2.png","70","70","test","1","215","215","10","",""
