"rt","time_elapsed","expId","subject","prolificID","trialType","stimulus","key_press","corrresp","phase","corr","trialNum","attentionRunNum","blockNum","points","rlNum"
"5985.199999809265","5991","pSARL_v2","pSARL_v2pcobu9j1","612e6569f68929afb886fb5c","","","","","","","","","","",""
"","8567","pSARL_v2","pSARL_v2pcobu9j1","612e6569f68929afb886fb5c","fullscreen","","","","","","","","","",""
"47386.300000190735","55957","pSARL_v2","pSARL_v2pcobu9j1","612e6569f68929afb886fb5c","","","","","","","","","","",""
"342.19999980926514","56303","pSARL_v2","pSARL_v2pcobu9j1","612e6569f68929afb886fb5c","freqPrac","img/green_2bandit_a2.png","70","70","prac","1","","","","",""
"342.19999980926514","56774","pSARL_v2","pSARL_v2pcobu9j1","612e6569f68929afb886fb5c","freqPrac_resp","img/green_2bandit_a.png","70","70","prac","","","","","",""
"null","56941","pSARL_v2","pSARL_v2pcobu9j1","612e6569f68929afb886fb5c","fixation","img/fixation.png","null","","prac","","","","","",""
"366.5","57313","pSARL_v2","pSARL_v2pcobu9j1","612e6569f68929afb886fb5c","infreqPrac","img/orange_2bandit_a2.png","68","68","prac","1","","","","",""
"366.5","57761","pSARL_v2","pSARL_v2pcobu9j1","612e6569f68929afb886fb5c","infreqPrac_resp","img/orange_2bandit_a.png","68","68","prac","","","","","",""
"null","57927","pSARL_v2","pSARL_v2pcobu9j1","612e6569f68929afb886fb5c","fixation","img/fixation.png","null","","prac","","","","","",""
"353.59999990463257","58285","pSARL_v2","pSARL_v2pcobu9j1","612e6569f68929afb886fb5c","freqPrac","img/green_2bandit_a2.png","70","70","prac","1","","","","",""
"353.59999990463257","58734","pSARL_v2","pSARL_v2pcobu9j1","612e6569f68929afb886fb5c","freqPrac_resp","img/green_2bandit_a.png","70","70","prac","","","","","",""
"null","58906","pSARL_v2","pSARL_v2pcobu9j1","612e6569f68929afb886fb5c","fixation","img/fixation.png","null","","prac","","","","","",""
"321.90000009536743","59232","pSARL_v2","pSARL_v2pcobu9j1","612e6569f68929afb886fb5c","infreqPrac","img/orange_2bandit_a2.png","68","68","prac","1","","","","",""
"321.90000009536743","59724","pSARL_v2","pSARL_v2pcobu9j1","612e6569f68929afb886fb5c","infreqPrac_resp","img/orange_2bandit_a.png","68","68","prac","","","","","",""
"null","59890","pSARL_v2","pSARL_v2pcobu9j1","612e6569f68929afb886fb5c","fixation","img/fixation.png","null","","prac","","","","","",""
"347","60241","pSARL_v2","pSARL_v2pcobu9j1","612e6569f68929afb886fb5c","infreqPrac","img/orange_2bandit_a2.png","68","68","prac","1","","","","",""
"347","60713","pSARL_v2","pSARL_v2pcobu9j1","612e6569f68929afb886fb5c","infreqPrac_resp","img/orange_2bandit_a.png","68","68","prac","","","","","",""
"null","60880","pSARL_v2","pSARL_v2pcobu9j1","612e6569f68929afb886fb5c","fixation","img/fixation.png","null","","prac","","","","","",""
"303.30000019073486","61187","pSARL_v2","pSARL_v2pcobu9j1","612e6569f68929afb886fb5c","infreqPrac","img/orange_2bandit_a2.png","68","68","prac","1","","","","",""
"303.30000019073486","61698","pSARL_v2","pSARL_v2pcobu9j1","612e6569f68929afb886fb5c","infreqPrac_resp","img/orange_2bandit_a.png","68","68","prac","","","","","",""
"null","61865","pSARL_v2","pSARL_v2pcobu9j1","612e6569f68929afb886fb5c","fixation","img/fixation.png","null","","prac","","","","","",""
"301.19999980926514","62169","pSARL_v2","pSARL_v2pcobu9j1","612e6569f68929afb886fb5c","freqPrac","img/green_2bandit_a2.png","70","70","prac","1","","","","",""
"301.19999980926514","62674","pSARL_v2","pSARL_v2pcobu9j1","612e6569f68929afb886fb5c","freqPrac_resp","img/green_2bandit_a.png","70","70","prac","","","","","",""
"null","62829","pSARL_v2","pSARL_v2pcobu9j1","612e6569f68929afb886fb5c","fixation","img/fixation.png","null","","prac","","","","","",""
"363.30000019073486","63195","pSARL_v2","pSARL_v2pcobu9j1","612e6569f68929afb886fb5c","infreqPrac","img/orange_2bandit_a2.png","68","68","prac","1","","","","",""
"363.30000019073486","63636","pSARL_v2","pSARL_v2pcobu9j1","612e6569f68929afb886fb5c","infreqPrac_resp","img/orange_2bandit_a.png","68","68","prac","","","","","",""
"null","63803","pSARL_v2","pSARL_v2pcobu9j1","612e6569f68929afb886fb5c","fixation","img/fixation.png","null","","prac","","","","","",""
"349.7999997138977","64156","pSARL_v2","pSARL_v2pcobu9j1","612e6569f68929afb886fb5c","freqPrac","img/green_2bandit_a2.png","70","70","prac","1","","","","",""
"349.7999997138977","64610","pSARL_v2","pSARL_v2pcobu9j1","612e6569f68929afb886fb5c","freqPrac_resp","img/green_2bandit_a.png","70","70","prac","","","","","",""
"null","64778","pSARL_v2","pSARL_v2pcobu9j1","612e6569f68929afb886fb5c","fixation","img/fixation.png","null","","prac","","","","","",""
"324.90000009536743","65106","pSARL_v2","pSARL_v2pcobu9j1","612e6569f68929afb886fb5c","freqPrac","img/green_2bandit_a2.png","70","70","prac","1","","","","",""
"324.90000009536743","65597","pSARL_v2","pSARL_v2pcobu9j1","612e6569f68929afb886fb5c","freqPrac_resp","img/green_2bandit_a.png","70","70","prac","","","","","",""
"null","65765","pSARL_v2","pSARL_v2pcobu9j1","612e6569f68929afb886fb5c","fixation","img/fixation.png","null","","prac","","","","","",""
"18120.599999904633","83888","pSARL_v2","pSARL_v2pcobu9j1","612e6569f68929afb886fb5c","","","","","prac","","","","","",""
"551.7000002861023","84443","pSARL_v2","pSARL_v2pcobu9j1","612e6569f68929afb886fb5c","rewardPractice","img/slot.png","74","","prac","","","","","",""
"null","85209","pSARL_v2","pSARL_v2pcobu9j1","612e6569f68929afb886fb5c","feedback","<div class=""veryhighPoints""> +15 </div>","null","na","prac","","","","","",""
"null","85375","pSARL_v2","pSARL_v2pcobu9j1","612e6569f68929afb886fb5c","fixation","img/fixation.png","null","","prac","","","","","",""
"15695.800000190735","101074","pSARL_v2","pSARL_v2pcobu9j1","612e6569f68929afb886fb5c","","","","","prac","","","","","",""
"376.59999990463257","101454","pSARL_v2","pSARL_v2pcobu9j1","612e6569f68929afb886fb5c","freq","img/green_2bandit_a2.png","70","70","test","1","1","1","1","",""
"null","101886","pSARL_v2","pSARL_v2pcobu9j1","612e6569f68929afb886fb5c","freq_resp","img/green_2bandit_a.png","70","70","test","","","","1","",""
"null","102054","pSARL_v2","pSARL_v2pcobu9j1","612e6569f68929afb886fb5c","fixation","img/fixation.png","null","","test","","","","","",""
"307.5","102366","pSARL_v2","pSARL_v2pcobu9j1","612e6569f68929afb886fb5c","freq","img/green_2bandit_a2.png","70","70","test","1","2","2","1","",""
"null","102869","pSARL_v2","pSARL_v2pcobu9j1","612e6569f68929afb886fb5c","freq_resp","img/green_2bandit_a.png","70","70","test","","","","1","",""
"null","103035","pSARL_v2","pSARL_v2pcobu9j1","612e6569f68929afb886fb5c","fixation","img/fixation.png","null","","test","","","","","",""
"273.30000019073486","103312","pSARL_v2","pSARL_v2pcobu9j1","612e6569f68929afb886fb5c","freq","img/green_2bandit_a2.png","70","70","test","1","3","3","1","",""
"null","103848","pSARL_v2","pSARL_v2pcobu9j1","612e6569f68929afb886fb5c","freq_resp","img/green_2bandit_a.png","70","70","test","","","","1","",""
"null","104014","pSARL_v2","pSARL_v2pcobu9j1","612e6569f68929afb886fb5c","fixation","img/fixation.png","null","","test","","","","","",""
"368.59999990463257","104387","pSARL_v2","pSARL_v2pcobu9j1","612e6569f68929afb886fb5c","freq","img/green_2bandit_a2.png","70","70","test","1","4","4","1","",""
"null","104822","pSARL_v2","pSARL_v2pcobu9j1","612e6569f68929afb886fb5c","freq_resp","img/green_2bandit_a.png","70","70","test","","","","1","",""
"null","104987","pSARL_v2","pSARL_v2pcobu9j1","612e6569f68929afb886fb5c","fixation","img/fixation.png","null","","test","","","","","",""
"461.8999996185303","105453","pSARL_v2","pSARL_v2pcobu9j1","612e6569f68929afb886fb5c","freq","img/green_2bandit_a2.png","70","70","test","1","5","5","1","",""
"null","105796","pSARL_v2","pSARL_v2pcobu9j1","612e6569f68929afb886fb5c","freq_resp","img/green_2bandit_a.png","70","70","test","","","","1","",""
"null","105961","pSARL_v2","pSARL_v2pcobu9j1","612e6569f68929afb886fb5c","fixation","img/fixation.png","null","","test","","","","","",""
"353.5","106318","pSARL_v2","pSARL_v2pcobu9j1","612e6569f68929afb886fb5c","freq","img/green_2bandit_a2.png","70","70","test","1","6","6","1","",""
"null","106777","pSARL_v2","pSARL_v2pcobu9j1","612e6569f68929afb886fb5c","freq_resp","img/green_2bandit_a.png","70","70","test","","","","1","",""
"null","106931","pSARL_v2","pSARL_v2pcobu9j1","612e6569f68929afb886fb5c","fixation","img/fixation.png","null","","test","","","","","",""
"350.30000019073486","107284","pSARL_v2","pSARL_v2pcobu9j1","612e6569f68929afb886fb5c","freq","img/green_2bandit_a2.png","70","70","test","1","7","7","1","",""
"null","107741","pSARL_v2","pSARL_v2pcobu9j1","612e6569f68929afb886fb5c","freq_resp","img/green_2bandit_a.png","70","70","test","","","","1","",""
"null","107909","pSARL_v2","pSARL_v2pcobu9j1","612e6569f68929afb886fb5c","fixation","img/fixation.png","null","","test","","","","","",""
"443.7000002861023","108356","pSARL_v2","pSARL_v2pcobu9j1","612e6569f68929afb886fb5c","freq","img/green_2bandit_a2.png","70","70","test","1","8","8","1","",""
"null","108729","pSARL_v2","pSARL_v2pcobu9j1","612e6569f68929afb886fb5c","freq_resp","img/green_2bandit_a.png","70","70","test","","","","1","",""
"null","108896","pSARL_v2","pSARL_v2pcobu9j1","612e6569f68929afb886fb5c","fixation","img/fixation.png","null","","test","","","","","",""
"397.59999990463257","109297","pSARL_v2","pSARL_v2pcobu9j1","612e6569f68929afb886fb5c","freq","img/green_2bandit_a2.png","70","70","test","1","9","9","1","",""
"null","109708","pSARL_v2","pSARL_v2pcobu9j1","612e6569f68929afb886fb5c","freq_resp","img/green_2bandit_a.png","70","70","test","","","","1","",""
"null","109861","pSARL_v2","pSARL_v2pcobu9j1","612e6569f68929afb886fb5c","fixation","img/fixation.png","null","","test","","","","","",""
"304.59999990463257","110169","pSARL_v2","pSARL_v2pcobu9j1","612e6569f68929afb886fb5c","freq","img/green_2bandit_a2.png","70","70","test","1","10","10","1","",""
"null","110667","pSARL_v2","pSARL_v2pcobu9j1","612e6569f68929afb886fb5c","freq_resp","img/green_2bandit_a.png","70","70","test","","","","1","",""
"null","110831","pSARL_v2","pSARL_v2pcobu9j1","612e6569f68929afb886fb5c","fixation","img/fixation.png","null","","test","","","","","",""
"314.30000019073486","111149","pSARL_v2","pSARL_v2pcobu9j1","612e6569f68929afb886fb5c","freq","img/green_2bandit_a2.png","70","70","test","1","11","11","1","",""
"null","111655","pSARL_v2","pSARL_v2pcobu9j1","612e6569f68929afb886fb5c","freq_resp","img/green_2bandit_a.png","70","70","test","","","","1","",""
"null","111817","pSARL_v2","pSARL_v2pcobu9j1","612e6569f68929afb886fb5c","fixation","img/fixation.png","null","","test","","","","","",""
"317.09999990463257","112136","pSARL_v2","pSARL_v2pcobu9j1","612e6569f68929afb886fb5c","freq","img/green_2bandit_a2.png","70","70","test","1","12","12","1","",""
"null","112631","pSARL_v2","pSARL_v2pcobu9j1","612e6569f68929afb886fb5c","freq_resp","img/green_2bandit_a.png","70","70","test","","","","1","",""
"null","112797","pSARL_v2","pSARL_v2pcobu9j1","612e6569f68929afb886fb5c","fixation","img/fixation.png","null","","test","","","","","",""
"319.69999980926514","113121","pSARL_v2","pSARL_v2pcobu9j1","612e6569f68929afb886fb5c","freq","img/green_2bandit_a2.png","70","70","test","1","13","13","1","",""
"null","113608","pSARL_v2","pSARL_v2pcobu9j1","612e6569f68929afb886fb5c","freq_resp","img/green_2bandit_a.png","70","70","test","","","","1","",""
"null","113777","pSARL_v2","pSARL_v2pcobu9j1","612e6569f68929afb886fb5c","fixation","img/fixation.png","null","","test","","","","","",""
"317.69999980926514","114098","pSARL_v2","pSARL_v2pcobu9j1","612e6569f68929afb886fb5c","freq","img/green_2bandit_a2.png","70","70","test","1","14","14","1","",""
"null","114589","pSARL_v2","pSARL_v2pcobu9j1","612e6569f68929afb886fb5c","freq_resp","img/green_2bandit_a.png","70","70","test","","","","1","",""
"null","114756","pSARL_v2","pSARL_v2pcobu9j1","612e6569f68929afb886fb5c","fixation","img/fixation.png","null","","test","","","","","",""
"308.5","115071","pSARL_v2","pSARL_v2pcobu9j1","612e6569f68929afb886fb5c","freq","img/green_2bandit_a2.png","70","70","test","1","15","15","1","",""
"null","115579","pSARL_v2","pSARL_v2pcobu9j1","612e6569f68929afb886fb5c","freq_resp","img/green_2bandit_a.png","70","70","test","","","","1","",""
"null","115745","pSARL_v2","pSARL_v2pcobu9j1","612e6569f68929afb886fb5c","fixation","img/fixation.png","null","","test","","","","","",""
"600.5","116349","pSARL_v2","pSARL_v2pcobu9j1","612e6569f68929afb886fb5c","freq","img/green_2bandit_a2.png","70","70","test","1","16","16","1","",""
"null","116561","pSARL_v2","pSARL_v2pcobu9j1","612e6569f68929afb886fb5c","freq_resp","img/green_2bandit_a.png","70","70","test","","","","1","",""
"null","116727","pSARL_v2","pSARL_v2pcobu9j1","612e6569f68929afb886fb5c","fixation","img/fixation.png","null","","test","","","","","",""
"512.1000003814697","117242","pSARL_v2","pSARL_v2pcobu9j1","612e6569f68929afb886fb5c","infreq","img/orange_2bandit_a2.png","68","68","test","1","17","17","1","",""
"null","117534","pSARL_v2","pSARL_v2pcobu9j1","612e6569f68929afb886fb5c","infreq_resp","img/orange_2bandit_a.png","68","68","test","","","","1","",""
"null","117699","pSARL_v2","pSARL_v2pcobu9j1","612e6569f68929afb886fb5c","fixation","img/fixation.png","null","","test","","","","","",""
"407.5","118110","pSARL_v2","pSARL_v2pcobu9j1","612e6569f68929afb886fb5c","infreq","img/orange_2bandit_a2.png","68","68","test","1","18","18","1","",""
"null","118516","pSARL_v2","pSARL_v2pcobu9j1","612e6569f68929afb886fb5c","infreq_resp","img/orange_2bandit_a.png","68","68","test","","","","1","",""
"null","118671","pSARL_v2","pSARL_v2pcobu9j1","612e6569f68929afb886fb5c","fixation","img/fixation.png","null","","test","","","","","",""
"428.2999997138977","119102","pSARL_v2","pSARL_v2pcobu9j1","612e6569f68929afb886fb5c","freq","img/green_2bandit_a2.png","70","70","test","1","19","19","1","",""
"null","119488","pSARL_v2","pSARL_v2pcobu9j1","612e6569f68929afb886fb5c","freq_resp","img/green_2bandit_a.png","70","70","test","","","","1","",""
"null","119657","pSARL_v2","pSARL_v2pcobu9j1","612e6569f68929afb886fb5c","fixation","img/fixation.png","null","","test","","","","","",""
"559.3999996185303","120220","pSARL_v2","pSARL_v2pcobu9j1","612e6569f68929afb886fb5c","reward","img/slot.png","74","","test","","","","","",""
"null","120975","pSARL_v2","pSARL_v2pcobu9j1","612e6569f68929afb886fb5c","points","<div class=""verylowPoints""> -6 </div>","null","na","test","","","","1","-6","0"
"476.80000019073486","121454","pSARL_v2","pSARL_v2pcobu9j1","612e6569f68929afb886fb5c","freq","img/green_2bandit_a2.png","70","70","test","1","20","20","2","",""
"null","121787","pSARL_v2","pSARL_v2pcobu9j1","612e6569f68929afb886fb5c","freq_resp","img/green_2bandit_a.png","70","70","test","","","","2","",""
"null","121955","pSARL_v2","pSARL_v2pcobu9j1","612e6569f68929afb886fb5c","fixation","img/fixation.png","null","","test","","","","","",""
"285","122243","pSARL_v2","pSARL_v2pcobu9j1","612e6569f68929afb886fb5c","freq","img/green_2bandit_a2.png","70","70","test","1","21","21","2","",""
"null","122774","pSARL_v2","pSARL_v2pcobu9j1","612e6569f68929afb886fb5c","freq_resp","img/green_2bandit_a.png","70","70","test","","","","2","",""
"null","122941","pSARL_v2","pSARL_v2pcobu9j1","612e6569f68929afb886fb5c","fixation","img/fixation.png","null","","test","","","","","",""
"253.09999990463257","123197","pSARL_v2","pSARL_v2pcobu9j1","612e6569f68929afb886fb5c","freq","img/green_2bandit_a2.png","70","70","test","1","22","22","2","",""
"null","123751","pSARL_v2","pSARL_v2pcobu9j1","612e6569f68929afb886fb5c","freq_resp","img/green_2bandit_a.png","70","70","test","","","","2","",""
"null","123919","pSARL_v2","pSARL_v2pcobu9j1","612e6569f68929afb886fb5c","fixation","img/fixation.png","null","","test","","","","","",""
"253.59999990463257","124176","pSARL_v2","pSARL_v2pcobu9j1","612e6569f68929afb886fb5c","freq","img/green_2bandit_a2.png","70","70","test","1","23","23","2","",""
"null","124739","pSARL_v2","pSARL_v2pcobu9j1","612e6569f68929afb886fb5c","freq_resp","img/green_2bandit_a.png","70","70","test","","","","2","",""
"null","124892","pSARL_v2","pSARL_v2pcobu9j1","612e6569f68929afb886fb5c","fixation","img/fixation.png","null","","test","","","","","",""
"231.69999980926514","125127","pSARL_v2","pSARL_v2pcobu9j1","612e6569f68929afb886fb5c","freq","img/green_2bandit_a2.png","70","70","test","1","24","24","2","",""
"null","125699","pSARL_v2","pSARL_v2pcobu9j1","612e6569f68929afb886fb5c","freq_resp","img/green_2bandit_a.png","70","70","test","","","","2","",""
"null","125864","pSARL_v2","pSARL_v2pcobu9j1","612e6569f68929afb886fb5c","fixation","img/fixation.png","null","","test","","","","","",""
"265.09999990463257","126132","pSARL_v2","pSARL_v2pcobu9j1","612e6569f68929afb886fb5c","freq","img/green_2bandit_a2.png","70","70","test","1","25","25","2","",""
"null","126672","pSARL_v2","pSARL_v2pcobu9j1","612e6569f68929afb886fb5c","freq_resp","img/green_2bandit_a.png","70","70","test","","","","2","",""
"null","126837","pSARL_v2","pSARL_v2pcobu9j1","612e6569f68929afb886fb5c","fixation","img/fixation.png","null","","test","","","","","",""
"252.90000009536743","127092","pSARL_v2","pSARL_v2pcobu9j1","612e6569f68929afb886fb5c","freq","img/green_2bandit_a2.png","70","70","test","1","26","26","2","",""
"null","127648","pSARL_v2","pSARL_v2pcobu9j1","612e6569f68929afb886fb5c","freq_resp","img/green_2bandit_a.png","70","70","test","","","","2","",""
"null","127815","pSARL_v2","pSARL_v2pcobu9j1","612e6569f68929afb886fb5c","fixation","img/fixation.png","null","","test","","","","","",""
"296.40000009536743","128114","pSARL_v2","pSARL_v2pcobu9j1","612e6569f68929afb886fb5c","freq","img/green_2bandit_a2.png","70","70","test","1","27","27","2","",""
"null","128626","pSARL_v2","pSARL_v2pcobu9j1","612e6569f68929afb886fb5c","freq_resp","img/green_2bandit_a.png","70","70","test","","","","2","",""
"null","128793","pSARL_v2","pSARL_v2pcobu9j1","612e6569f68929afb886fb5c","fixation","img/fixation.png","null","","test","","","","","",""
"246.59999990463257","129042","pSARL_v2","pSARL_v2pcobu9j1","612e6569f68929afb886fb5c","freq","img/green_2bandit_a2.png","70","70","test","1","28","28","2","",""
"null","129601","pSARL_v2","pSARL_v2pcobu9j1","612e6569f68929afb886fb5c","freq_resp","img/green_2bandit_a.png","70","70","test","","","","2","",""
"null","129755","pSARL_v2","pSARL_v2pcobu9j1","612e6569f68929afb886fb5c","fixation","img/fixation.png","null","","test","","","","","",""
"363.2999997138977","130122","pSARL_v2","pSARL_v2pcobu9j1","612e6569f68929afb886fb5c","infreq","img/orange_2bandit_a2.png","70","68","test","0","29","29","2","",""
"null","130576","pSARL_v2","pSARL_v2pcobu9j1","612e6569f68929afb886fb5c","infreq_resp","img/orange_2bandit_a.png","70","68","test","","","","2","",""
"null","130742","pSARL_v2","pSARL_v2pcobu9j1","612e6569f68929afb886fb5c","fixation","img/fixation.png","null","","test","","","","","",""
"375.7000002861023","131120","pSARL_v2","pSARL_v2pcobu9j1","612e6569f68929afb886fb5c","infreq","img/orange_2bandit_a2.png","68","68","test","1","30","30","2","",""
"null","131549","pSARL_v2","pSARL_v2pcobu9j1","612e6569f68929afb886fb5c","infreq_resp","img/orange_2bandit_a.png","68","68","test","","","","2","",""
"null","131716","pSARL_v2","pSARL_v2pcobu9j1","612e6569f68929afb886fb5c","fixation","img/fixation.png","null","","test","","","","","",""
"426","132149","pSARL_v2","pSARL_v2pcobu9j1","612e6569f68929afb886fb5c","freq","img/green_2bandit_a2.png","70","70","test","1","31","31","2","",""
"null","132539","pSARL_v2","pSARL_v2pcobu9j1","612e6569f68929afb886fb5c","freq_resp","img/green_2bandit_a.png","70","70","test","","","","2","",""
"null","132705","pSARL_v2","pSARL_v2pcobu9j1","612e6569f68929afb886fb5c","fixation","img/fixation.png","null","","test","","","","","",""
"289.59999990463257","132998","pSARL_v2","pSARL_v2pcobu9j1","612e6569f68929afb886fb5c","freq","img/green_2bandit_a2.png","70","70","test","1","32","32","2","",""
"null","133512","pSARL_v2","pSARL_v2pcobu9j1","612e6569f68929afb886fb5c","freq_resp","img/green_2bandit_a.png","70","70","test","","","","2","",""
"null","133677","pSARL_v2","pSARL_v2pcobu9j1","612e6569f68929afb886fb5c","fixation","img/fixation.png","null","","test","","","","","",""
"243","133924","pSARL_v2","pSARL_v2pcobu9j1","612e6569f68929afb886fb5c","freq","img/green_2bandit_a2.png","70","70","test","1","33","33","2","",""
"null","134498","pSARL_v2","pSARL_v2pcobu9j1","612e6569f68929afb886fb5c","freq_resp","img/green_2bandit_a.png","70","70","test","","","","2","",""
"null","134665","pSARL_v2","pSARL_v2pcobu9j1","612e6569f68929afb886fb5c","fixation","img/fixation.png","null","","test","","","","","",""
"240.5","134909","pSARL_v2","pSARL_v2pcobu9j1","612e6569f68929afb886fb5c","infreq","img/orange_2bandit_a2.png","70","68","test","0","34","34","2","",""
"null","135481","pSARL_v2","pSARL_v2pcobu9j1","612e6569f68929afb886fb5c","infreq_resp","img/orange_2bandit_a.png","70","68","test","","","","2","",""
"null","135635","pSARL_v2","pSARL_v2pcobu9j1","612e6569f68929afb886fb5c","fixation","img/fixation.png","null","","test","","","","","",""
"377.90000009536743","136019","pSARL_v2","pSARL_v2pcobu9j1","612e6569f68929afb886fb5c","freq","img/green_2bandit_a2.png","70","70","test","1","35","35","2","",""
"null","136462","pSARL_v2","pSARL_v2pcobu9j1","612e6569f68929afb886fb5c","freq_resp","img/green_2bandit_a.png","70","70","test","","","","2","",""
"null","136625","pSARL_v2","pSARL_v2pcobu9j1","612e6569f68929afb886fb5c","fixation","img/fixation.png","null","","test","","","","","",""
"277.19999980926514","136905","pSARL_v2","pSARL_v2pcobu9j1","612e6569f68929afb886fb5c","freq","img/green_2bandit_a2.png","70","70","test","1","36","36","2","",""
"null","137444","pSARL_v2","pSARL_v2pcobu9j1","612e6569f68929afb886fb5c","freq_resp","img/green_2bandit_a.png","70","70","test","","","","2","",""
"null","137608","pSARL_v2","pSARL_v2pcobu9j1","612e6569f68929afb886fb5c","fixation","img/fixation.png","null","","test","","","","","",""
"261.5","137872","pSARL_v2","pSARL_v2pcobu9j1","612e6569f68929afb886fb5c","freq","img/green_2bandit_a2.png","70","70","test","1","37","37","2","",""
"null","138430","pSARL_v2","pSARL_v2pcobu9j1","612e6569f68929afb886fb5c","freq_resp","img/green_2bandit_a.png","70","70","test","","","","2","",""
"null","138595","pSARL_v2","pSARL_v2pcobu9j1","612e6569f68929afb886fb5c","fixation","img/fixation.png","null","","test","","","","","",""
"255.09999990463257","138853","pSARL_v2","pSARL_v2pcobu9j1","612e6569f68929afb886fb5c","freq","img/green_2bandit_a2.png","70","70","test","1","38","38","2","",""
"null","139414","pSARL_v2","pSARL_v2pcobu9j1","612e6569f68929afb886fb5c","freq_resp","img/green_2bandit_a.png","70","70","test","","","","2","",""
"null","139581","pSARL_v2","pSARL_v2pcobu9j1","612e6569f68929afb886fb5c","fixation","img/fixation.png","null","","test","","","","","",""
"330.2999997138977","139915","pSARL_v2","pSARL_v2pcobu9j1","612e6569f68929afb886fb5c","freq","img/green_2bandit_a2.png","70","70","test","1","39","39","2","",""
"null","140388","pSARL_v2","pSARL_v2pcobu9j1","612e6569f68929afb886fb5c","freq_resp","img/green_2bandit_a.png","70","70","test","","","","2","",""
"null","140543","pSARL_v2","pSARL_v2pcobu9j1","612e6569f68929afb886fb5c","fixation","img/fixation.png","null","","test","","","","","",""
"303.90000009536743","140850","pSARL_v2","pSARL_v2pcobu9j1","612e6569f68929afb886fb5c","freq","img/green_2bandit_a2.png","70","70","test","1","40","40","2","",""
"null","141360","pSARL_v2","pSARL_v2pcobu9j1","612e6569f68929afb886fb5c","freq_resp","img/green_2bandit_a.png","70","70","test","","","","2","",""
"null","141529","pSARL_v2","pSARL_v2pcobu9j1","612e6569f68929afb886fb5c","fixation","img/fixation.png","null","","test","","","","","",""
"248.80000019073486","141782","pSARL_v2","pSARL_v2pcobu9j1","612e6569f68929afb886fb5c","freq","img/green_2bandit_a2.png","70","70","test","1","41","41","2","",""
"null","142351","pSARL_v2","pSARL_v2pcobu9j1","612e6569f68929afb886fb5c","freq_resp","img/green_2bandit_a.png","70","70","test","","","","2","",""
"null","142517","pSARL_v2","pSARL_v2pcobu9j1","612e6569f68929afb886fb5c","fixation","img/fixation.png","null","","test","","","","","",""
"540","143060","pSARL_v2","pSARL_v2pcobu9j1","612e6569f68929afb886fb5c","reward","img/slot.png","74","","test","","","","","",""
"null","143827","pSARL_v2","pSARL_v2pcobu9j1","612e6569f68929afb886fb5c","points","<div class=""verylowPoints""> -11 </div>","null","na","test","","","","2","-11","1"
"389","144219","pSARL_v2","pSARL_v2pcobu9j1","612e6569f68929afb886fb5c","freq","img/green_2bandit_a2.png","70","70","test","1","42","42","3","",""
"null","144636","pSARL_v2","pSARL_v2pcobu9j1","612e6569f68929afb886fb5c","freq_resp","img/green_2bandit_a.png","70","70","test","","","","3","",""
"null","144804","pSARL_v2","pSARL_v2pcobu9j1","612e6569f68929afb886fb5c","fixation","img/fixation.png","null","","test","","","","","",""
"291.5","145098","pSARL_v2","pSARL_v2pcobu9j1","612e6569f68929afb886fb5c","freq","img/green_2bandit_a2.png","70","70","test","1","43","43","3","",""
"null","145612","pSARL_v2","pSARL_v2pcobu9j1","612e6569f68929afb886fb5c","freq_resp","img/green_2bandit_a.png","70","70","test","","","","3","",""
"null","145779","pSARL_v2","pSARL_v2pcobu9j1","612e6569f68929afb886fb5c","fixation","img/fixation.png","null","","test","","","","","",""
"303.09999990463257","146085","pSARL_v2","pSARL_v2pcobu9j1","612e6569f68929afb886fb5c","freq","img/green_2bandit_a2.png","70","70","test","1","44","44","3","",""
"null","146587","pSARL_v2","pSARL_v2pcobu9j1","612e6569f68929afb886fb5c","freq_resp","img/green_2bandit_a.png","70","70","test","","","","3","",""
"null","146744","pSARL_v2","pSARL_v2pcobu9j1","612e6569f68929afb886fb5c","fixation","img/fixation.png","null","","test","","","","","",""
"241.80000019073486","146990","pSARL_v2","pSARL_v2pcobu9j1","612e6569f68929afb886fb5c","freq","img/green_2bandit_a2.png","70","70","test","1","45","45","3","",""
"null","147565","pSARL_v2","pSARL_v2pcobu9j1","612e6569f68929afb886fb5c","freq_resp","img/green_2bandit_a.png","70","70","test","","","","3","",""
"null","147732","pSARL_v2","pSARL_v2pcobu9j1","612e6569f68929afb886fb5c","fixation","img/fixation.png","null","","test","","","","","",""
"245.60000038146973","147982","pSARL_v2","pSARL_v2pcobu9j1","612e6569f68929afb886fb5c","freq","img/green_2bandit_a2.png","70","70","test","1","46","46","3","",""
"null","148553","pSARL_v2","pSARL_v2pcobu9j1","612e6569f68929afb886fb5c","freq_resp","img/green_2bandit_a.png","70","70","test","","","","3","",""
"null","148719","pSARL_v2","pSARL_v2pcobu9j1","612e6569f68929afb886fb5c","fixation","img/fixation.png","null","","test","","","","","",""
"276.5","148998","pSARL_v2","pSARL_v2pcobu9j1","612e6569f68929afb886fb5c","freq","img/green_2bandit_a2.png","70","70","test","1","47","47","3","",""
"null","149531","pSARL_v2","pSARL_v2pcobu9j1","612e6569f68929afb886fb5c","freq_resp","img/green_2bandit_a.png","70","70","test","","","","3","",""
"null","149698","pSARL_v2","pSARL_v2pcobu9j1","612e6569f68929afb886fb5c","fixation","img/fixation.png","null","","test","","","","","",""
"277.09999990463257","149978","pSARL_v2","pSARL_v2pcobu9j1","612e6569f68929afb886fb5c","freq","img/green_2bandit_a2.png","70","70","test","1","48","48","3","",""
"null","150520","pSARL_v2","pSARL_v2pcobu9j1","612e6569f68929afb886fb5c","freq_resp","img/green_2bandit_a.png","70","70","test","","","","3","",""
"null","150684","pSARL_v2","pSARL_v2pcobu9j1","612e6569f68929afb886fb5c","fixation","img/fixation.png","null","","test","","","","","",""
"363","151050","pSARL_v2","pSARL_v2pcobu9j1","612e6569f68929afb886fb5c","freq","img/green_2bandit_a2.png","70","70","test","1","49","49","3","",""
"null","151495","pSARL_v2","pSARL_v2pcobu9j1","612e6569f68929afb886fb5c","freq_resp","img/green_2bandit_a.png","70","70","test","","","","3","",""
"null","151664","pSARL_v2","pSARL_v2pcobu9j1","612e6569f68929afb886fb5c","fixation","img/fixation.png","null","","test","","","","","",""
"288.80000019073486","151956","pSARL_v2","pSARL_v2pcobu9j1","612e6569f68929afb886fb5c","freq","img/green_2bandit_a2.png","70","70","test","1","50","50","3","",""
"null","152474","pSARL_v2","pSARL_v2pcobu9j1","612e6569f68929afb886fb5c","freq_resp","img/green_2bandit_a.png","70","70","test","","","","3","",""
"null","152628","pSARL_v2","pSARL_v2pcobu9j1","612e6569f68929afb886fb5c","fixation","img/fixation.png","null","","test","","","","","",""
"361.40000009536743","152994","pSARL_v2","pSARL_v2pcobu9j1","612e6569f68929afb886fb5c","freq","img/green_2bandit_a2.png","70","70","test","1","51","51","3","",""
"null","153438","pSARL_v2","pSARL_v2pcobu9j1","612e6569f68929afb886fb5c","freq_resp","img/green_2bandit_a.png","70","70","test","","","","3","",""
"null","153604","pSARL_v2","pSARL_v2pcobu9j1","612e6569f68929afb886fb5c","fixation","img/fixation.png","null","","test","","","","","",""
"293.5","153902","pSARL_v2","pSARL_v2pcobu9j1","612e6569f68929afb886fb5c","freq","img/green_2bandit_a2.png","70","70","test","1","52","52","3","",""
"null","154425","pSARL_v2","pSARL_v2pcobu9j1","612e6569f68929afb886fb5c","freq_resp","img/green_2bandit_a.png","70","70","test","","","","3","",""
"null","154594","pSARL_v2","pSARL_v2pcobu9j1","612e6569f68929afb886fb5c","fixation","img/fixation.png","null","","test","","","","","",""
"281.09999990463257","154878","pSARL_v2","pSARL_v2pcobu9j1","612e6569f68929afb886fb5c","freq","img/green_2bandit_a2.png","70","70","test","1","53","53","3","",""
"null","155412","pSARL_v2","pSARL_v2pcobu9j1","612e6569f68929afb886fb5c","freq_resp","img/green_2bandit_a.png","70","70","test","","","","3","",""
"null","155568","pSARL_v2","pSARL_v2pcobu9j1","612e6569f68929afb886fb5c","fixation","img/fixation.png","null","","test","","","","","",""
"328.19999980926514","155899","pSARL_v2","pSARL_v2pcobu9j1","612e6569f68929afb886fb5c","infreq","img/orange_2bandit_a2.png","68","68","test","1","54","54","3","",""
"null","156374","pSARL_v2","pSARL_v2pcobu9j1","612e6569f68929afb886fb5c","infreq_resp","img/orange_2bandit_a.png","68","68","test","","","","3","",""
"null","156540","pSARL_v2","pSARL_v2pcobu9j1","612e6569f68929afb886fb5c","fixation","img/fixation.png","null","","test","","","","","",""
"311.40000009536743","156854","pSARL_v2","pSARL_v2pcobu9j1","612e6569f68929afb886fb5c","infreq","img/orange_2bandit_a2.png","68","68","test","1","55","55","3","",""
"null","157358","pSARL_v2","pSARL_v2pcobu9j1","612e6569f68929afb886fb5c","infreq_resp","img/orange_2bandit_a.png","68","68","test","","","","3","",""
"null","157526","pSARL_v2","pSARL_v2pcobu9j1","612e6569f68929afb886fb5c","fixation","img/fixation.png","null","","test","","","","","",""
"331.2000002861023","157860","pSARL_v2","pSARL_v2pcobu9j1","612e6569f68929afb886fb5c","freq","img/green_2bandit_a2.png","70","70","test","1","56","56","3","",""
"null","158345","pSARL_v2","pSARL_v2pcobu9j1","612e6569f68929afb886fb5c","freq_resp","img/green_2bandit_a.png","70","70","test","","","","3","",""
"null","158512","pSARL_v2","pSARL_v2pcobu9j1","612e6569f68929afb886fb5c","fixation","img/fixation.png","null","","test","","","","","",""
"265.59999990463257","158780","pSARL_v2","pSARL_v2pcobu9j1","612e6569f68929afb886fb5c","freq","img/green_2bandit_a2.png","70","70","test","1","57","57","3","",""
"null","159333","pSARL_v2","pSARL_v2pcobu9j1","612e6569f68929afb886fb5c","freq_resp","img/green_2bandit_a.png","70","70","test","","","","3","",""
"null","159499","pSARL_v2","pSARL_v2pcobu9j1","612e6569f68929afb886fb5c","fixation","img/fixation.png","null","","test","","","","","",""
"248.69999980926514","159751","pSARL_v2","pSARL_v2pcobu9j1","612e6569f68929afb886fb5c","infreq","img/orange_2bandit_a2.png","70","68","test","0","58","58","3","",""
"null","160320","pSARL_v2","pSARL_v2pcobu9j1","612e6569f68929afb886fb5c","infreq_resp","img/orange_2bandit_a.png","70","68","test","","","","3","",""
"null","160488","pSARL_v2","pSARL_v2pcobu9j1","612e6569f68929afb886fb5c","fixation","img/fixation.png","null","","test","","","","","",""
"296.30000019073486","160788","pSARL_v2","pSARL_v2pcobu9j1","612e6569f68929afb886fb5c","freq","img/green_2bandit_a2.png","70","70","test","1","59","59","3","",""
"null","161310","pSARL_v2","pSARL_v2pcobu9j1","612e6569f68929afb886fb5c","freq_resp","img/green_2bandit_a.png","70","70","test","","","","3","",""
"null","161478","pSARL_v2","pSARL_v2pcobu9j1","612e6569f68929afb886fb5c","fixation","img/fixation.png","null","","test","","","","","",""
"327.2999997138977","161809","pSARL_v2","pSARL_v2pcobu9j1","612e6569f68929afb886fb5c","freq","img/green_2bandit_a2.png","70","70","test","1","60","60","3","",""
"null","162297","pSARL_v2","pSARL_v2pcobu9j1","612e6569f68929afb886fb5c","freq_resp","img/green_2bandit_a.png","70","70","test","","","","3","",""
"null","162461","pSARL_v2","pSARL_v2pcobu9j1","612e6569f68929afb886fb5c","fixation","img/fixation.png","null","","test","","","","","",""
"282.59999990463257","162747","pSARL_v2","pSARL_v2pcobu9j1","612e6569f68929afb886fb5c","freq","img/green_2bandit_a2.png","70","70","test","1","61","61","3","",""
"null","163268","pSARL_v2","pSARL_v2pcobu9j1","612e6569f68929afb886fb5c","freq_resp","img/green_2bandit_a.png","70","70","test","","","","3","",""
"null","163436","pSARL_v2","pSARL_v2pcobu9j1","612e6569f68929afb886fb5c","fixation","img/fixation.png","null","","test","","","","","",""
"293.59999990463257","163732","pSARL_v2","pSARL_v2pcobu9j1","612e6569f68929afb886fb5c","freq","img/green_2bandit_a2.png","70","70","test","1","62","62","3","",""
"null","164247","pSARL_v2","pSARL_v2pcobu9j1","612e6569f68929afb886fb5c","freq_resp","img/green_2bandit_a.png","70","70","test","","","","3","",""
"null","164405","pSARL_v2","pSARL_v2pcobu9j1","612e6569f68929afb886fb5c","fixation","img/fixation.png","null","","test","","","","","",""
"508.8999996185303","164916","pSARL_v2","pSARL_v2pcobu9j1","612e6569f68929afb886fb5c","reward","img/slot.png","74","","test","","","","","",""
"null","165673","pSARL_v2","pSARL_v2pcobu9j1","612e6569f68929afb886fb5c","points","<div class=""verylowPoints""> -7 </div>","null","na","test","","","","3","-7","2"
"341.90000009536743","166018","pSARL_v2","pSARL_v2pcobu9j1","612e6569f68929afb886fb5c","freq","img/green_2bandit_a2.png","70","70","test","1","63","63","4","",""
"null","166484","pSARL_v2","pSARL_v2pcobu9j1","612e6569f68929afb886fb5c","freq_resp","img/green_2bandit_a.png","70","70","test","","","","4","",""
"null","166652","pSARL_v2","pSARL_v2pcobu9j1","612e6569f68929afb886fb5c","fixation","img/fixation.png","null","","test","","","","","",""
"288.6000003814697","166944","pSARL_v2","pSARL_v2pcobu9j1","612e6569f68929afb886fb5c","freq","img/green_2bandit_a2.png","70","70","test","1","64","64","4","",""
"null","167462","pSARL_v2","pSARL_v2pcobu9j1","612e6569f68929afb886fb5c","freq_resp","img/green_2bandit_a.png","70","70","test","","","","4","",""
"null","167628","pSARL_v2","pSARL_v2pcobu9j1","612e6569f68929afb886fb5c","fixation","img/fixation.png","null","","test","","","","","",""
"248.59999990463257","167879","pSARL_v2","pSARL_v2pcobu9j1","612e6569f68929afb886fb5c","freq","img/green_2bandit_a2.png","70","70","test","1","65","65","4","",""
"null","168449","pSARL_v2","pSARL_v2pcobu9j1","612e6569f68929afb886fb5c","freq_resp","img/green_2bandit_a.png","70","70","test","","","","4","",""
"null","168617","pSARL_v2","pSARL_v2pcobu9j1","612e6569f68929afb886fb5c","fixation","img/fixation.png","null","","test","","","","","",""
"250.7000002861023","168870","pSARL_v2","pSARL_v2pcobu9j1","612e6569f68929afb886fb5c","freq","img/green_2bandit_a2.png","70","70","test","1","66","66","4","",""
"null","169429","pSARL_v2","pSARL_v2pcobu9j1","612e6569f68929afb886fb5c","freq_resp","img/green_2bandit_a.png","70","70","test","","","","4","",""
"null","169596","pSARL_v2","pSARL_v2pcobu9j1","612e6569f68929afb886fb5c","fixation","img/fixation.png","null","","test","","","","","",""
"267.5","169868","pSARL_v2","pSARL_v2pcobu9j1","612e6569f68929afb886fb5c","freq","img/green_2bandit_a2.png","70","70","test","1","67","67","4","",""
"null","170417","pSARL_v2","pSARL_v2pcobu9j1","612e6569f68929afb886fb5c","freq_resp","img/green_2bandit_a.png","70","70","test","","","","4","",""
"null","170584","pSARL_v2","pSARL_v2pcobu9j1","612e6569f68929afb886fb5c","fixation","img/fixation.png","null","","test","","","","","",""
"265.7999997138977","170854","pSARL_v2","pSARL_v2pcobu9j1","612e6569f68929afb886fb5c","freq","img/green_2bandit_a2.png","70","70","test","1","68","68","4","",""
"null","171405","pSARL_v2","pSARL_v2pcobu9j1","612e6569f68929afb886fb5c","freq_resp","img/green_2bandit_a.png","70","70","test","","","","4","",""
"null","171571","pSARL_v2","pSARL_v2pcobu9j1","612e6569f68929afb886fb5c","fixation","img/fixation.png","null","","test","","","","","",""
"395","171968","pSARL_v2","pSARL_v2pcobu9j1","612e6569f68929afb886fb5c","infreq","img/orange_2bandit_a2.png","68","68","test","1","69","69","4","",""
"null","172385","pSARL_v2","pSARL_v2pcobu9j1","612e6569f68929afb886fb5c","infreq_resp","img/orange_2bandit_a.png","68","68","test","","","","4","",""
"null","172549","pSARL_v2","pSARL_v2pcobu9j1","612e6569f68929afb886fb5c","fixation","img/fixation.png","null","","test","","","","","",""
"282.30000019073486","172834","pSARL_v2","pSARL_v2pcobu9j1","612e6569f68929afb886fb5c","freq","img/green_2bandit_a2.png","70","70","test","1","70","70","4","",""
"null","173369","pSARL_v2","pSARL_v2pcobu9j1","612e6569f68929afb886fb5c","freq_resp","img/green_2bandit_a.png","70","70","test","","","","4","",""
"null","173537","pSARL_v2","pSARL_v2pcobu9j1","612e6569f68929afb886fb5c","fixation","img/fixation.png","null","","test","","","","","",""
"333.2000002861023","173874","pSARL_v2","pSARL_v2pcobu9j1","612e6569f68929afb886fb5c","infreq","img/orange_2bandit_a2.png","68","68","test","1","71","71","4","",""
"null","174356","pSARL_v2","pSARL_v2pcobu9j1","612e6569f68929afb886fb5c","infreq_resp","img/orange_2bandit_a.png","68","68","test","","","","4","",""
"null","174525","pSARL_v2","pSARL_v2pcobu9j1","612e6569f68929afb886fb5c","fixation","img/fixation.png","null","","test","","","","","",""
"363.40000009536743","174891","pSARL_v2","pSARL_v2pcobu9j1","612e6569f68929afb886fb5c","freq","img/green_2bandit_a2.png","70","70","test","1","72","72","4","",""
"null","175332","pSARL_v2","pSARL_v2pcobu9j1","612e6569f68929afb886fb5c","freq_resp","img/green_2bandit_a.png","70","70","test","","","","4","",""
"null","175486","pSARL_v2","pSARL_v2pcobu9j1","612e6569f68929afb886fb5c","fixation","img/fixation.png","null","","test","","","","","",""
"303.2000002861023","175792","pSARL_v2","pSARL_v2pcobu9j1","612e6569f68929afb886fb5c","freq","img/green_2bandit_a2.png","70","70","test","1","73","73","4","",""
"null","176309","pSARL_v2","pSARL_v2pcobu9j1","612e6569f68929afb886fb5c","freq_resp","img/green_2bandit_a.png","70","70","test","","","","4","",""
"null","176473","pSARL_v2","pSARL_v2pcobu9j1","612e6569f68929afb886fb5c","fixation","img/fixation.png","null","","test","","","","","",""
"303.19999980926514","176780","pSARL_v2","pSARL_v2pcobu9j1","612e6569f68929afb886fb5c","freq","img/green_2bandit_a2.png","70","70","test","1","74","74","4","",""
"null","177280","pSARL_v2","pSARL_v2pcobu9j1","612e6569f68929afb886fb5c","freq_resp","img/green_2bandit_a.png","70","70","test","","","","4","",""
"null","177447","pSARL_v2","pSARL_v2pcobu9j1","612e6569f68929afb886fb5c","fixation","img/fixation.png","null","","test","","","","","",""
"252.89999961853027","177703","pSARL_v2","pSARL_v2pcobu9j1","612e6569f68929afb886fb5c","freq","img/green_2bandit_a2.png","70","70","test","1","75","75","4","",""
"null","178267","pSARL_v2","pSARL_v2pcobu9j1","612e6569f68929afb886fb5c","freq_resp","img/green_2bandit_a.png","70","70","test","","","","4","",""
"null","178435","pSARL_v2","pSARL_v2pcobu9j1","612e6569f68929afb886fb5c","fixation","img/fixation.png","null","","test","","","","","",""
"306.30000019073486","178746","pSARL_v2","pSARL_v2pcobu9j1","612e6569f68929afb886fb5c","freq","img/green_2bandit_a2.png","70","70","test","1","76","76","4","",""
"null","179254","pSARL_v2","pSARL_v2pcobu9j1","612e6569f68929afb886fb5c","freq_resp","img/green_2bandit_a.png","70","70","test","","","","4","",""
"null","179419","pSARL_v2","pSARL_v2pcobu9j1","612e6569f68929afb886fb5c","fixation","img/fixation.png","null","","test","","","","","",""
"273.2999997138977","179696","pSARL_v2","pSARL_v2pcobu9j1","612e6569f68929afb886fb5c","freq","img/green_2bandit_a2.png","70","70","test","1","77","77","4","",""
"null","180238","pSARL_v2","pSARL_v2pcobu9j1","612e6569f68929afb886fb5c","freq_resp","img/green_2bandit_a.png","70","70","test","","","","4","",""
"null","180405","pSARL_v2","pSARL_v2pcobu9j1","612e6569f68929afb886fb5c","fixation","img/fixation.png","null","","test","","","","","",""
"278.5","180686","pSARL_v2","pSARL_v2pcobu9j1","612e6569f68929afb886fb5c","freq","img/green_2bandit_a2.png","70","70","test","1","78","78","4","",""
"null","181226","pSARL_v2","pSARL_v2pcobu9j1","612e6569f68929afb886fb5c","freq_resp","img/green_2bandit_a.png","70","70","test","","","","4","",""
"null","181395","pSARL_v2","pSARL_v2pcobu9j1","612e6569f68929afb886fb5c","fixation","img/fixation.png","null","","test","","","","","",""
"283.59999990463257","181682","pSARL_v2","pSARL_v2pcobu9j1","612e6569f68929afb886fb5c","freq","img/green_2bandit_a2.png","70","70","test","1","79","79","4","",""
"null","182203","pSARL_v2","pSARL_v2pcobu9j1","612e6569f68929afb886fb5c","freq_resp","img/green_2bandit_a.png","70","70","test","","","","4","",""
"null","182359","pSARL_v2","pSARL_v2pcobu9j1","612e6569f68929afb886fb5c","fixation","img/fixation.png","null","","test","","","","","",""
"288.69999980926514","182651","pSARL_v2","pSARL_v2pcobu9j1","612e6569f68929afb886fb5c","freq","img/green_2bandit_a2.png","70","70","test","1","80","80","4","",""
"null","183167","pSARL_v2","pSARL_v2pcobu9j1","612e6569f68929afb886fb5c","freq_resp","img/green_2bandit_a.png","70","70","test","","","","4","",""
"null","183335","pSARL_v2","pSARL_v2pcobu9j1","612e6569f68929afb886fb5c","fixation","img/fixation.png","null","","test","","","","","",""
"267.1000003814697","183607","pSARL_v2","pSARL_v2pcobu9j1","612e6569f68929afb886fb5c","freq","img/green_2bandit_a2.png","70","70","test","1","81","81","4","",""
"null","184144","pSARL_v2","pSARL_v2pcobu9j1","612e6569f68929afb886fb5c","freq_resp","img/green_2bandit_a.png","70","70","test","","","","4","",""
"null","184309","pSARL_v2","pSARL_v2pcobu9j1","612e6569f68929afb886fb5c","fixation","img/fixation.png","null","","test","","","","","",""
"351","184662","pSARL_v2","pSARL_v2pcobu9j1","612e6569f68929afb886fb5c","freq","img/green_2bandit_a2.png","70","70","test","1","82","82","4","",""
"null","185131","pSARL_v2","pSARL_v2pcobu9j1","612e6569f68929afb886fb5c","freq_resp","img/green_2bandit_a.png","70","70","test","","","","4","",""
"null","185298","pSARL_v2","pSARL_v2pcobu9j1","612e6569f68929afb886fb5c","fixation","img/fixation.png","null","","test","","","","","",""
"384.2000002861023","185686","pSARL_v2","pSARL_v2pcobu9j1","612e6569f68929afb886fb5c","freq","img/green_2bandit_a2.png","70","70","test","1","83","83","4","",""
"null","186115","pSARL_v2","pSARL_v2pcobu9j1","612e6569f68929afb886fb5c","freq_resp","img/green_2bandit_a.png","70","70","test","","","","4","",""
"null","186284","pSARL_v2","pSARL_v2pcobu9j1","612e6569f68929afb886fb5c","fixation","img/fixation.png","null","","test","","","","","",""
"337.09999990463257","186625","pSARL_v2","pSARL_v2pcobu9j1","612e6569f68929afb886fb5c","infreq","img/orange_2bandit_a2.png","68","68","test","1","84","84","4","",""
"null","187101","pSARL_v2","pSARL_v2pcobu9j1","612e6569f68929afb886fb5c","infreq_resp","img/orange_2bandit_a.png","68","68","test","","","","4","",""
"null","187267","pSARL_v2","pSARL_v2pcobu9j1","612e6569f68929afb886fb5c","fixation","img/fixation.png","null","","test","","","","","",""
"274.6000003814697","187545","pSARL_v2","pSARL_v2pcobu9j1","612e6569f68929afb886fb5c","freq","img/green_2bandit_a2.png","70","70","test","1","85","85","4","",""
"null","188088","pSARL_v2","pSARL_v2pcobu9j1","612e6569f68929afb886fb5c","freq_resp","img/green_2bandit_a.png","70","70","test","","","","4","",""
"null","188255","pSARL_v2","pSARL_v2pcobu9j1","612e6569f68929afb886fb5c","fixation","img/fixation.png","null","","test","","","","","",""
"391.6000003814697","188649","pSARL_v2","pSARL_v2pcobu9j1","612e6569f68929afb886fb5c","freq","img/green_2bandit_a2.png","70","70","test","1","86","86","4","",""
"null","189065","pSARL_v2","pSARL_v2pcobu9j1","612e6569f68929afb886fb5c","freq_resp","img/green_2bandit_a.png","70","70","test","","","","4","",""
"null","189230","pSARL_v2","pSARL_v2pcobu9j1","612e6569f68929afb886fb5c","fixation","img/fixation.png","null","","test","","","","","",""
"304.5","189540","pSARL_v2","pSARL_v2pcobu9j1","612e6569f68929afb886fb5c","freq","img/green_2bandit_a2.png","70","70","test","1","87","87","4","",""
"null","190052","pSARL_v2","pSARL_v2pcobu9j1","612e6569f68929afb886fb5c","freq_resp","img/green_2bandit_a.png","70","70","test","","","","4","",""
"null","190221","pSARL_v2","pSARL_v2pcobu9j1","612e6569f68929afb886fb5c","fixation","img/fixation.png","null","","test","","","","","",""
"280.5","190505","pSARL_v2","pSARL_v2pcobu9j1","612e6569f68929afb886fb5c","freq","img/green_2bandit_a2.png","70","70","test","1","88","88","4","",""
"null","191038","pSARL_v2","pSARL_v2pcobu9j1","612e6569f68929afb886fb5c","freq_resp","img/green_2bandit_a.png","70","70","test","","","","4","",""
"null","191203","pSARL_v2","pSARL_v2pcobu9j1","612e6569f68929afb886fb5c","fixation","img/fixation.png","null","","test","","","","","",""
"260.90000009536743","191466","pSARL_v2","pSARL_v2pcobu9j1","612e6569f68929afb886fb5c","freq","img/green_2bandit_a2.png","70","70","test","1","89","89","4","",""
"null","192013","pSARL_v2","pSARL_v2pcobu9j1","612e6569f68929afb886fb5c","freq_resp","img/green_2bandit_a.png","70","70","test","","","","4","",""
"null","192168","pSARL_v2","pSARL_v2pcobu9j1","612e6569f68929afb886fb5c","fixation","img/fixation.png","null","","test","","","","","",""
"503","192675","pSARL_v2","pSARL_v2pcobu9j1","612e6569f68929afb886fb5c","reward","img/slot.png","74","","test","","","","","",""
"null","193439","pSARL_v2","pSARL_v2pcobu9j1","612e6569f68929afb886fb5c","points","<div class=""verylowPoints""> -3 </div>","null","na","test","","","","4","-3","3"
"374.5","193817","pSARL_v2","pSARL_v2pcobu9j1","612e6569f68929afb886fb5c","freq","img/green_2bandit_a2.png","70","70","test","1","90","90","5","",""
"null","194247","pSARL_v2","pSARL_v2pcobu9j1","612e6569f68929afb886fb5c","freq_resp","img/green_2bandit_a.png","70","70","test","","","","5","",""
"null","194413","pSARL_v2","pSARL_v2pcobu9j1","612e6569f68929afb886fb5c","fixation","img/fixation.png","null","","test","","","","","",""
"359.5","194775","pSARL_v2","pSARL_v2pcobu9j1","612e6569f68929afb886fb5c","freq","img/green_2bandit_a2.png","70","70","test","1","91","91","5","",""
"null","195224","pSARL_v2","pSARL_v2pcobu9j1","612e6569f68929afb886fb5c","freq_resp","img/green_2bandit_a.png","70","70","test","","","","5","",""
"null","195393","pSARL_v2","pSARL_v2pcobu9j1","612e6569f68929afb886fb5c","fixation","img/fixation.png","null","","test","","","","","",""
"292.3999996185303","195690","pSARL_v2","pSARL_v2pcobu9j1","612e6569f68929afb886fb5c","freq","img/green_2bandit_a2.png","70","70","test","1","92","92","5","",""
"null","196211","pSARL_v2","pSARL_v2pcobu9j1","612e6569f68929afb886fb5c","freq_resp","img/green_2bandit_a.png","70","70","test","","","","5","",""
"null","196377","pSARL_v2","pSARL_v2pcobu9j1","612e6569f68929afb886fb5c","fixation","img/fixation.png","null","","test","","","","","",""
"263.5","196644","pSARL_v2","pSARL_v2pcobu9j1","612e6569f68929afb886fb5c","freq","img/green_2bandit_a2.png","70","70","test","1","93","93","5","",""
"null","197184","pSARL_v2","pSARL_v2pcobu9j1","612e6569f68929afb886fb5c","freq_resp","img/green_2bandit_a.png","70","70","test","","","","5","",""
"null","197350","pSARL_v2","pSARL_v2pcobu9j1","612e6569f68929afb886fb5c","fixation","img/fixation.png","null","","test","","","","","",""
"255.69999980926514","197609","pSARL_v2","pSARL_v2pcobu9j1","612e6569f68929afb886fb5c","freq","img/green_2bandit_a2.png","70","70","test","1","94","94","5","",""
"null","198164","pSARL_v2","pSARL_v2pcobu9j1","612e6569f68929afb886fb5c","freq_resp","img/green_2bandit_a.png","70","70","test","","","","5","",""
"null","198331","pSARL_v2","pSARL_v2pcobu9j1","612e6569f68929afb886fb5c","fixation","img/fixation.png","null","","test","","","","","",""
"331.59999990463257","198665","pSARL_v2","pSARL_v2pcobu9j1","612e6569f68929afb886fb5c","infreq","img/orange_2bandit_a2.png","68","68","test","1","95","95","5","",""
"null","199138","pSARL_v2","pSARL_v2pcobu9j1","612e6569f68929afb886fb5c","infreq_resp","img/orange_2bandit_a.png","68","68","test","","","","5","",""
"null","199304","pSARL_v2","pSARL_v2pcobu9j1","612e6569f68929afb886fb5c","fixation","img/fixation.png","null","","test","","","","","",""
"347.2999997138977","199654","pSARL_v2","pSARL_v2pcobu9j1","612e6569f68929afb886fb5c","freq","img/green_2bandit_a2.png","70","70","test","1","96","96","5","",""
"null","200125","pSARL_v2","pSARL_v2pcobu9j1","612e6569f68929afb886fb5c","freq_resp","img/green_2bandit_a.png","70","70","test","","","","5","",""
"null","200291","pSARL_v2","pSARL_v2pcobu9j1","612e6569f68929afb886fb5c","fixation","img/fixation.png","null","","test","","","","","",""
"351.90000009536743","200646","pSARL_v2","pSARL_v2pcobu9j1","612e6569f68929afb886fb5c","freq","img/green_2bandit_a2.png","70","70","test","1","97","97","5","",""
"null","201112","pSARL_v2","pSARL_v2pcobu9j1","612e6569f68929afb886fb5c","freq_resp","img/green_2bandit_a.png","70","70","test","","","","5","",""
"null","201279","pSARL_v2","pSARL_v2pcobu9j1","612e6569f68929afb886fb5c","fixation","img/fixation.png","null","","test","","","","","",""
"288.80000019073486","201571","pSARL_v2","pSARL_v2pcobu9j1","612e6569f68929afb886fb5c","freq","img/green_2bandit_a2.png","70","70","test","1","98","98","5","",""
"null","202097","pSARL_v2","pSARL_v2pcobu9j1","612e6569f68929afb886fb5c","freq_resp","img/green_2bandit_a.png","70","70","test","","","","5","",""
"null","202263","pSARL_v2","pSARL_v2pcobu9j1","612e6569f68929afb886fb5c","fixation","img/fixation.png","null","","test","","","","","",""
"246.09999990463257","202512","pSARL_v2","pSARL_v2pcobu9j1","612e6569f68929afb886fb5c","freq","img/green_2bandit_a2.png","70","70","test","1","99","99","5","",""
"null","203083","pSARL_v2","pSARL_v2pcobu9j1","612e6569f68929afb886fb5c","freq_resp","img/green_2bandit_a.png","70","70","test","","","","5","",""
"null","203238","pSARL_v2","pSARL_v2pcobu9j1","612e6569f68929afb886fb5c","fixation","img/fixation.png","null","","test","","","","","",""
"268.19999980926514","203511","pSARL_v2","pSARL_v2pcobu9j1","612e6569f68929afb886fb5c","freq","img/green_2bandit_a2.png","70","70","test","1","100","100","5","",""
"null","204058","pSARL_v2","pSARL_v2pcobu9j1","612e6569f68929afb886fb5c","freq_resp","img/green_2bandit_a.png","70","70","test","","","","5","",""
"null","204226","pSARL_v2","pSARL_v2pcobu9j1","612e6569f68929afb886fb5c","fixation","img/fixation.png","null","","test","","","","","",""
"281.09999990463257","204510","pSARL_v2","pSARL_v2pcobu9j1","612e6569f68929afb886fb5c","freq","img/green_2bandit_a2.png","70","70","test","1","101","101","5","",""
"null","205045","pSARL_v2","pSARL_v2pcobu9j1","612e6569f68929afb886fb5c","freq_resp","img/green_2bandit_a.png","70","70","test","","","","5","",""
"null","205212","pSARL_v2","pSARL_v2pcobu9j1","612e6569f68929afb886fb5c","fixation","img/fixation.png","null","","test","","","","","",""
"249.5","205465","pSARL_v2","pSARL_v2pcobu9j1","612e6569f68929afb886fb5c","freq","img/green_2bandit_a2.png","70","70","test","1","102","102","5","",""
"null","206018","pSARL_v2","pSARL_v2pcobu9j1","612e6569f68929afb886fb5c","freq_resp","img/green_2bandit_a.png","70","70","test","","","","5","",""
"null","206185","pSARL_v2","pSARL_v2pcobu9j1","612e6569f68929afb886fb5c","fixation","img/fixation.png","null","","test","","","","","",""
"322.40000009536743","206511","pSARL_v2","pSARL_v2pcobu9j1","612e6569f68929afb886fb5c","infreq","img/orange_2bandit_a2.png","68","68","test","1","103","103","5","",""
"null","206997","pSARL_v2","pSARL_v2pcobu9j1","612e6569f68929afb886fb5c","infreq_resp","img/orange_2bandit_a.png","68","68","test","","","","5","",""
"null","207167","pSARL_v2","pSARL_v2pcobu9j1","612e6569f68929afb886fb5c","fixation","img/fixation.png","null","","test","","","","","",""
"342.5","207514","pSARL_v2","pSARL_v2pcobu9j1","612e6569f68929afb886fb5c","freq","img/green_2bandit_a2.png","70","70","test","1","104","104","5","",""
"null","207979","pSARL_v2","pSARL_v2pcobu9j1","612e6569f68929afb886fb5c","freq_resp","img/green_2bandit_a.png","70","70","test","","","","5","",""
"null","208147","pSARL_v2","pSARL_v2pcobu9j1","612e6569f68929afb886fb5c","fixation","img/fixation.png","null","","test","","","","","",""
"241.7999997138977","208391","pSARL_v2","pSARL_v2pcobu9j1","612e6569f68929afb886fb5c","freq","img/green_2bandit_a2.png","70","70","test","1","105","105","5","",""
"null","208958","pSARL_v2","pSARL_v2pcobu9j1","612e6569f68929afb886fb5c","freq_resp","img/green_2bandit_a.png","70","70","test","","","","5","",""
"null","209126","pSARL_v2","pSARL_v2pcobu9j1","612e6569f68929afb886fb5c","fixation","img/fixation.png","null","","test","","","","","",""
"250.30000019073486","209381","pSARL_v2","pSARL_v2pcobu9j1","612e6569f68929afb886fb5c","freq","img/green_2bandit_a2.png","70","70","test","1","106","106","5","",""
"null","209939","pSARL_v2","pSARL_v2pcobu9j1","612e6569f68929afb886fb5c","freq_resp","img/green_2bandit_a.png","70","70","test","","","","5","",""
"null","210107","pSARL_v2","pSARL_v2pcobu9j1","612e6569f68929afb886fb5c","fixation","img/fixation.png","null","","test","","","","","",""
"259.5","210369","pSARL_v2","pSARL_v2pcobu9j1","612e6569f68929afb886fb5c","freq","img/green_2bandit_a2.png","70","70","test","1","107","107","5","",""
"null","210928","pSARL_v2","pSARL_v2pcobu9j1","612e6569f68929afb886fb5c","freq_resp","img/green_2bandit_a.png","70","70","test","","","","5","",""
"null","211095","pSARL_v2","pSARL_v2pcobu9j1","612e6569f68929afb886fb5c","fixation","img/fixation.png","null","","test","","","","","",""
"362.80000019073486","211461","pSARL_v2","pSARL_v2pcobu9j1","612e6569f68929afb886fb5c","freq","img/green_2bandit_a2.png","70","70","test","1","108","108","5","",""
"null","211903","pSARL_v2","pSARL_v2pcobu9j1","612e6569f68929afb886fb5c","freq_resp","img/green_2bandit_a.png","70","70","test","","","","5","",""
"null","212070","pSARL_v2","pSARL_v2pcobu9j1","612e6569f68929afb886fb5c","fixation","img/fixation.png","null","","test","","","","","",""
"262.80000019073486","212336","pSARL_v2","pSARL_v2pcobu9j1","612e6569f68929afb886fb5c","freq","img/green_2bandit_a2.png","70","70","test","1","109","109","5","",""
"null","212892","pSARL_v2","pSARL_v2pcobu9j1","612e6569f68929afb886fb5c","freq_resp","img/green_2bandit_a.png","70","70","test","","","","5","",""
"null","213060","pSARL_v2","pSARL_v2pcobu9j1","612e6569f68929afb886fb5c","fixation","img/fixation.png","null","","test","","","","","",""
"238.59999990463257","213302","pSARL_v2","pSARL_v2pcobu9j1","612e6569f68929afb886fb5c","freq","img/green_2bandit_a2.png","70","70","test","1","110","110","5","",""
"null","213867","pSARL_v2","pSARL_v2pcobu9j1","612e6569f68929afb886fb5c","freq_resp","img/green_2bandit_a.png","70","70","test","","","","5","",""
"null","214034","pSARL_v2","pSARL_v2pcobu9j1","612e6569f68929afb886fb5c","fixation","img/fixation.png","null","","test","","","","","",""
"236.2999997138977","214273","pSARL_v2","pSARL_v2pcobu9j1","612e6569f68929afb886fb5c","freq","img/green_2bandit_a2.png","70","70","test","1","111","111","5","",""
"null","214840","pSARL_v2","pSARL_v2pcobu9j1","612e6569f68929afb886fb5c","freq_resp","img/green_2bandit_a.png","70","70","test","","","","5","",""
"null","215008","pSARL_v2","pSARL_v2pcobu9j1","612e6569f68929afb886fb5c","fixation","img/fixation.png","null","","test","","","","","",""
"244.10000038146973","215257","pSARL_v2","pSARL_v2pcobu9j1","612e6569f68929afb886fb5c","freq","img/green_2bandit_a2.png","70","70","test","1","112","112","5","",""
"null","215828","pSARL_v2","pSARL_v2pcobu9j1","612e6569f68929afb886fb5c","freq_resp","img/green_2bandit_a.png","70","70","test","","","","5","",""
"null","215982","pSARL_v2","pSARL_v2pcobu9j1","612e6569f68929afb886fb5c","fixation","img/fixation.png","null","","test","","","","","",""
"276.2999997138977","216262","pSARL_v2","pSARL_v2pcobu9j1","612e6569f68929afb886fb5c","freq","img/green_2bandit_a2.png","70","70","test","1","113","113","5","",""
"null","216790","pSARL_v2","pSARL_v2pcobu9j1","612e6569f68929afb886fb5c","freq_resp","img/green_2bandit_a.png","70","70","test","","","","5","",""
"null","216959","pSARL_v2","pSARL_v2pcobu9j1","612e6569f68929afb886fb5c","fixation","img/fixation.png","null","","test","","","","","",""
"249","217211","pSARL_v2","pSARL_v2pcobu9j1","612e6569f68929afb886fb5c","freq","img/green_2bandit_a2.png","70","70","test","1","114","114","5","",""
"null","217768","pSARL_v2","pSARL_v2pcobu9j1","612e6569f68929afb886fb5c","freq_resp","img/green_2bandit_a.png","70","70","test","","","","5","",""
"null","217937","pSARL_v2","pSARL_v2pcobu9j1","612e6569f68929afb886fb5c","fixation","img/fixation.png","null","","test","","","","","",""
"246.59999990463257","218187","pSARL_v2","pSARL_v2pcobu9j1","612e6569f68929afb886fb5c","freq","img/green_2bandit_a2.png","70","70","test","1","115","115","5","",""
"null","218759","pSARL_v2","pSARL_v2pcobu9j1","612e6569f68929afb886fb5c","freq_resp","img/green_2bandit_a.png","70","70","test","","","","5","",""
"null","218926","pSARL_v2","pSARL_v2pcobu9j1","612e6569f68929afb886fb5c","fixation","img/fixation.png","null","","test","","","","","",""
"349.30000019073486","219278","pSARL_v2","pSARL_v2pcobu9j1","612e6569f68929afb886fb5c","reward","img/slot.png","74","","test","","","","","",""
"null","220039","pSARL_v2","pSARL_v2pcobu9j1","612e6569f68929afb886fb5c","points","<div class=""veryhighPoints""> +1 </div>","null","na","test","","","","5","1","4"
"247.10000038146973","220289","pSARL_v2","pSARL_v2pcobu9j1","612e6569f68929afb886fb5c","freq","img/green_2bandit_a2.png","70","70","test","1","116","116","6","",""
"null","220856","pSARL_v2","pSARL_v2pcobu9j1","612e6569f68929afb886fb5c","freq_resp","img/green_2bandit_a.png","70","70","test","","","","6","",""
"null","221024","pSARL_v2","pSARL_v2pcobu9j1","612e6569f68929afb886fb5c","fixation","img/fixation.png","null","","test","","","","","",""
"243.7000002861023","221272","pSARL_v2","pSARL_v2pcobu9j1","612e6569f68929afb886fb5c","freq","img/green_2bandit_a2.png","70","70","test","1","117","117","6","",""
"null","221843","pSARL_v2","pSARL_v2pcobu9j1","612e6569f68929afb886fb5c","freq_resp","img/green_2bandit_a.png","70","70","test","","","","6","",""
"null","222008","pSARL_v2","pSARL_v2pcobu9j1","612e6569f68929afb886fb5c","fixation","img/fixation.png","null","","test","","","","","",""
"361.5","222372","pSARL_v2","pSARL_v2pcobu9j1","612e6569f68929afb886fb5c","infreq","img/orange_2bandit_a2.png","68","68","test","1","118","118","6","",""
"null","222820","pSARL_v2","pSARL_v2pcobu9j1","612e6569f68929afb886fb5c","infreq_resp","img/orange_2bandit_a.png","68","68","test","","","","6","",""
"null","222987","pSARL_v2","pSARL_v2pcobu9j1","612e6569f68929afb886fb5c","fixation","img/fixation.png","null","","test","","","","","",""
"378.90000009536743","223368","pSARL_v2","pSARL_v2pcobu9j1","612e6569f68929afb886fb5c","freq","img/green_2bandit_a2.png","70","70","test","1","119","119","6","",""
"null","223794","pSARL_v2","pSARL_v2pcobu9j1","612e6569f68929afb886fb5c","freq_resp","img/green_2bandit_a.png","70","70","test","","","","6","",""
"null","223959","pSARL_v2","pSARL_v2pcobu9j1","612e6569f68929afb886fb5c","fixation","img/fixation.png","null","","test","","","","","",""
"277.1000003814697","224240","pSARL_v2","pSARL_v2pcobu9j1","612e6569f68929afb886fb5c","freq","img/green_2bandit_a2.png","70","70","test","1","120","120","6","",""
"null","224778","pSARL_v2","pSARL_v2pcobu9j1","612e6569f68929afb886fb5c","freq_resp","img/green_2bandit_a.png","70","70","test","","","","6","",""
"null","224947","pSARL_v2","pSARL_v2pcobu9j1","612e6569f68929afb886fb5c","fixation","img/fixation.png","null","","test","","","","","",""
"249.7000002861023","225201","pSARL_v2","pSARL_v2pcobu9j1","612e6569f68929afb886fb5c","freq","img/green_2bandit_a2.png","70","70","test","1","121","121","6","",""
"null","225765","pSARL_v2","pSARL_v2pcobu9j1","612e6569f68929afb886fb5c","freq_resp","img/green_2bandit_a.png","70","70","test","","","","6","",""
"null","225930","pSARL_v2","pSARL_v2pcobu9j1","612e6569f68929afb886fb5c","fixation","img/fixation.png","null","","test","","","","","",""
"252.30000019073486","226185","pSARL_v2","pSARL_v2pcobu9j1","612e6569f68929afb886fb5c","freq","img/green_2bandit_a2.png","70","70","test","1","122","122","6","",""
"null","226752","pSARL_v2","pSARL_v2pcobu9j1","612e6569f68929afb886fb5c","freq_resp","img/green_2bandit_a.png","70","70","test","","","","6","",""
"null","226918","pSARL_v2","pSARL_v2pcobu9j1","612e6569f68929afb886fb5c","fixation","img/fixation.png","null","","test","","","","","",""
"230.09999990463257","227151","pSARL_v2","pSARL_v2pcobu9j1","612e6569f68929afb886fb5c","freq","img/green_2bandit_a2.png","70","70","test","1","123","123","6","",""
"null","227736","pSARL_v2","pSARL_v2pcobu9j1","612e6569f68929afb886fb5c","freq_resp","img/green_2bandit_a.png","70","70","test","","","","6","",""
"null","227904","pSARL_v2","pSARL_v2pcobu9j1","612e6569f68929afb886fb5c","fixation","img/fixation.png","null","","test","","","","","",""
"300.5","228207","pSARL_v2","pSARL_v2pcobu9j1","612e6569f68929afb886fb5c","infreq","img/orange_2bandit_a2.png","68","68","test","1","124","124","6","",""
"null","228721","pSARL_v2","pSARL_v2pcobu9j1","612e6569f68929afb886fb5c","infreq_resp","img/orange_2bandit_a.png","68","68","test","","","","6","",""
"null","228890","pSARL_v2","pSARL_v2pcobu9j1","612e6569f68929afb886fb5c","fixation","img/fixation.png","null","","test","","","","","",""
"389.1000003814697","229282","pSARL_v2","pSARL_v2pcobu9j1","612e6569f68929afb886fb5c","freq","img/green_2bandit_a2.png","70","70","test","1","125","125","6","",""
"null","229710","pSARL_v2","pSARL_v2pcobu9j1","612e6569f68929afb886fb5c","freq_resp","img/green_2bandit_a.png","70","70","test","","","","6","",""
"null","229876","pSARL_v2","pSARL_v2pcobu9j1","612e6569f68929afb886fb5c","fixation","img/fixation.png","null","","test","","","","","",""
"334.40000009536743","230215","pSARL_v2","pSARL_v2pcobu9j1","612e6569f68929afb886fb5c","freq","img/green_2bandit_a2.png","70","70","test","1","126","126","6","",""
"null","230695","pSARL_v2","pSARL_v2pcobu9j1","612e6569f68929afb886fb5c","freq_resp","img/green_2bandit_a.png","70","70","test","","","","6","",""
"null","230851","pSARL_v2","pSARL_v2pcobu9j1","612e6569f68929afb886fb5c","fixation","img/fixation.png","null","","test","","","","","",""
"325.5","231179","pSARL_v2","pSARL_v2pcobu9j1","612e6569f68929afb886fb5c","freq","img/green_2bandit_a2.png","70","70","test","1","127","127","6","",""
"null","231666","pSARL_v2","pSARL_v2pcobu9j1","612e6569f68929afb886fb5c","freq_resp","img/green_2bandit_a.png","70","70","test","","","","6","",""
"null","231834","pSARL_v2","pSARL_v2pcobu9j1","612e6569f68929afb886fb5c","fixation","img/fixation.png","null","","test","","","","","",""
"227.30000019073486","232064","pSARL_v2","pSARL_v2pcobu9j1","612e6569f68929afb886fb5c","freq","img/green_2bandit_a2.png","70","70","test","1","128","128","6","",""
"null","232643","pSARL_v2","pSARL_v2pcobu9j1","612e6569f68929afb886fb5c","freq_resp","img/green_2bandit_a.png","70","70","test","","","","6","",""
"null","232808","pSARL_v2","pSARL_v2pcobu9j1","612e6569f68929afb886fb5c","fixation","img/fixation.png","null","","test","","","","","",""
"240.30000019073486","233053","pSARL_v2","pSARL_v2pcobu9j1","612e6569f68929afb886fb5c","freq","img/green_2bandit_a2.png","70","70","test","1","129","129","6","",""
"null","233623","pSARL_v2","pSARL_v2pcobu9j1","612e6569f68929afb886fb5c","freq_resp","img/green_2bandit_a.png","70","70","test","","","","6","",""
"null","233792","pSARL_v2","pSARL_v2pcobu9j1","612e6569f68929afb886fb5c","fixation","img/fixation.png","null","","test","","","","","",""
"298","234094","pSARL_v2","pSARL_v2pcobu9j1","612e6569f68929afb886fb5c","freq","img/green_2bandit_a2.png","70","70","test","1","130","130","6","",""
"null","234609","pSARL_v2","pSARL_v2pcobu9j1","612e6569f68929afb886fb5c","freq_resp","img/green_2bandit_a.png","70","70","test","","","","6","",""
"null","234776","pSARL_v2","pSARL_v2pcobu9j1","612e6569f68929afb886fb5c","fixation","img/fixation.png","null","","test","","","","","",""
"270","235049","pSARL_v2","pSARL_v2pcobu9j1","612e6569f68929afb886fb5c","freq","img/green_2bandit_a2.png","70","70","test","1","131","131","6","",""
"null","235598","pSARL_v2","pSARL_v2pcobu9j1","612e6569f68929afb886fb5c","freq_resp","img/green_2bandit_a.png","70","70","test","","","","6","",""
"null","235765","pSARL_v2","pSARL_v2pcobu9j1","612e6569f68929afb886fb5c","fixation","img/fixation.png","null","","test","","","","","",""
"260.90000009536743","236029","pSARL_v2","pSARL_v2pcobu9j1","612e6569f68929afb886fb5c","freq","img/green_2bandit_a2.png","70","70","test","1","132","132","6","",""
"null","236582","pSARL_v2","pSARL_v2pcobu9j1","612e6569f68929afb886fb5c","freq_resp","img/green_2bandit_a.png","70","70","test","","","","6","",""
"null","236751","pSARL_v2","pSARL_v2pcobu9j1","612e6569f68929afb886fb5c","fixation","img/fixation.png","null","","test","","","","","",""
"274.80000019073486","237030","pSARL_v2","pSARL_v2pcobu9j1","612e6569f68929afb886fb5c","freq","img/green_2bandit_a2.png","70","70","test","1","133","133","6","",""
"null","237563","pSARL_v2","pSARL_v2pcobu9j1","612e6569f68929afb886fb5c","freq_resp","img/green_2bandit_a.png","70","70","test","","","","6","",""
"null","237731","pSARL_v2","pSARL_v2pcobu9j1","612e6569f68929afb886fb5c","fixation","img/fixation.png","null","","test","","","","","",""
"249.39999961853027","237985","pSARL_v2","pSARL_v2pcobu9j1","612e6569f68929afb886fb5c","freq","img/green_2bandit_a2.png","70","70","test","1","134","134","6","",""
"null","238553","pSARL_v2","pSARL_v2pcobu9j1","612e6569f68929afb886fb5c","freq_resp","img/green_2bandit_a.png","70","70","test","","","","6","",""
"null","238722","pSARL_v2","pSARL_v2pcobu9j1","612e6569f68929afb886fb5c","fixation","img/fixation.png","null","","test","","","","","",""
"326.1000003814697","239051","pSARL_v2","pSARL_v2pcobu9j1","612e6569f68929afb886fb5c","freq","img/green_2bandit_a2.png","70","70","test","1","135","135","6","",""
"null","239531","pSARL_v2","pSARL_v2pcobu9j1","612e6569f68929afb886fb5c","freq_resp","img/green_2bandit_a.png","70","70","test","","","","6","",""
"null","239698","pSARL_v2","pSARL_v2pcobu9j1","612e6569f68929afb886fb5c","fixation","img/fixation.png","null","","test","","","","","",""
"241.2000002861023","239942","pSARL_v2","pSARL_v2pcobu9j1","612e6569f68929afb886fb5c","freq","img/green_2bandit_a2.png","70","70","test","1","136","136","6","",""
"null","240506","pSARL_v2","pSARL_v2pcobu9j1","612e6569f68929afb886fb5c","freq_resp","img/green_2bandit_a.png","70","70","test","","","","6","",""
"null","240673","pSARL_v2","pSARL_v2pcobu9j1","612e6569f68929afb886fb5c","fixation","img/fixation.png","null","","test","","","","","",""
"254.60000038146973","240931","pSARL_v2","pSARL_v2pcobu9j1","612e6569f68929afb886fb5c","freq","img/green_2bandit_a2.png","70","70","test","1","137","137","6","",""
"null","241494","pSARL_v2","pSARL_v2pcobu9j1","612e6569f68929afb886fb5c","freq_resp","img/green_2bandit_a.png","70","70","test","","","","6","",""
"null","241663","pSARL_v2","pSARL_v2pcobu9j1","612e6569f68929afb886fb5c","fixation","img/fixation.png","null","","test","","","","","",""
"258.7999997138977","241925","pSARL_v2","pSARL_v2pcobu9j1","612e6569f68929afb886fb5c","freq","img/green_2bandit_a2.png","70","70","test","1","138","138","6","",""
"null","242484","pSARL_v2","pSARL_v2pcobu9j1","612e6569f68929afb886fb5c","freq_resp","img/green_2bandit_a.png","70","70","test","","","","6","",""
"null","242652","pSARL_v2","pSARL_v2pcobu9j1","612e6569f68929afb886fb5c","fixation","img/fixation.png","null","","test","","","","","",""
"235.7999997138977","242893","pSARL_v2","pSARL_v2pcobu9j1","612e6569f68929afb886fb5c","freq","img/green_2bandit_a2.png","70","70","test","1","139","139","6","",""
"null","243462","pSARL_v2","pSARL_v2pcobu9j1","612e6569f68929afb886fb5c","freq_resp","img/green_2bandit_a.png","70","70","test","","","","6","",""
"null","243619","pSARL_v2","pSARL_v2pcobu9j1","612e6569f68929afb886fb5c","fixation","img/fixation.png","null","","test","","","","","",""
"473.1000003814697","244095","pSARL_v2","pSARL_v2pcobu9j1","612e6569f68929afb886fb5c","reward","img/slot.png","74","","test","","","","","",""
"null","244851","pSARL_v2","pSARL_v2pcobu9j1","612e6569f68929afb886fb5c","points","<div class=""verylowPoints""> -7 </div>","null","na","test","","","","6","-7","5"
"375.5","245229","pSARL_v2","pSARL_v2pcobu9j1","612e6569f68929afb886fb5c","freq","img/green_2bandit_a2.png","70","70","test","1","140","140","7","",""
"null","245671","pSARL_v2","pSARL_v2pcobu9j1","612e6569f68929afb886fb5c","freq_resp","img/green_2bandit_a.png","70","70","test","","","","7","",""
"null","245827","pSARL_v2","pSARL_v2pcobu9j1","612e6569f68929afb886fb5c","fixation","img/fixation.png","null","","test","","","","","",""
"253.30000019073486","246087","pSARL_v2","pSARL_v2pcobu9j1","612e6569f68929afb886fb5c","freq","img/green_2bandit_a2.png","70","70","test","1","141","141","7","",""
"null","246649","pSARL_v2","pSARL_v2pcobu9j1","612e6569f68929afb886fb5c","freq_resp","img/green_2bandit_a.png","70","70","test","","","","7","",""
"null","246812","pSARL_v2","pSARL_v2pcobu9j1","612e6569f68929afb886fb5c","fixation","img/fixation.png","null","","test","","","","","",""
"224.7000002861023","247043","pSARL_v2","pSARL_v2pcobu9j1","612e6569f68929afb886fb5c","freq","img/green_2bandit_a2.png","70","70","test","1","142","142","7","",""
"null","247622","pSARL_v2","pSARL_v2pcobu9j1","612e6569f68929afb886fb5c","freq_resp","img/green_2bandit_a.png","70","70","test","","","","7","",""
"null","247791","pSARL_v2","pSARL_v2pcobu9j1","612e6569f68929afb886fb5c","fixation","img/fixation.png","null","","test","","","","","",""
"326.40000009536743","248120","pSARL_v2","pSARL_v2pcobu9j1","612e6569f68929afb886fb5c","infreq","img/orange_2bandit_a2.png","68","68","test","1","143","143","7","",""
"null","248607","pSARL_v2","pSARL_v2pcobu9j1","612e6569f68929afb886fb5c","infreq_resp","img/orange_2bandit_a.png","68","68","test","","","","7","",""
"null","248762","pSARL_v2","pSARL_v2pcobu9j1","612e6569f68929afb886fb5c","fixation","img/fixation.png","null","","test","","","","","",""
"310.19999980926514","249076","pSARL_v2","pSARL_v2pcobu9j1","612e6569f68929afb886fb5c","freq","img/green_2bandit_a2.png","70","70","test","1","144","144","7","",""
"null","249571","pSARL_v2","pSARL_v2pcobu9j1","612e6569f68929afb886fb5c","freq_resp","img/green_2bandit_a.png","70","70","test","","","","7","",""
"null","249739","pSARL_v2","pSARL_v2pcobu9j1","612e6569f68929afb886fb5c","fixation","img/fixation.png","null","","test","","","","","",""
"237","249983","pSARL_v2","pSARL_v2pcobu9j1","612e6569f68929afb886fb5c","freq","img/green_2bandit_a2.png","70","70","test","1","145","145","7","",""
"null","250560","pSARL_v2","pSARL_v2pcobu9j1","612e6569f68929afb886fb5c","freq_resp","img/green_2bandit_a.png","70","70","test","","","","7","",""
"null","250727","pSARL_v2","pSARL_v2pcobu9j1","612e6569f68929afb886fb5c","fixation","img/fixation.png","null","","test","","","","","",""
"212.09999990463257","250942","pSARL_v2","pSARL_v2pcobu9j1","612e6569f68929afb886fb5c","freq","img/green_2bandit_a2.png","70","70","test","1","146","146","7","",""
"null","251547","pSARL_v2","pSARL_v2pcobu9j1","612e6569f68929afb886fb5c","freq_resp","img/green_2bandit_a.png","70","70","test","","","","7","",""
"null","251703","pSARL_v2","pSARL_v2pcobu9j1","612e6569f68929afb886fb5c","fixation","img/fixation.png","null","","test","","","","","",""
"357.40000009536743","252064","pSARL_v2","pSARL_v2pcobu9j1","612e6569f68929afb886fb5c","infreq","img/orange_2bandit_a2.png","68","68","test","1","147","147","7","",""
"null","252523","pSARL_v2","pSARL_v2pcobu9j1","612e6569f68929afb886fb5c","infreq_resp","img/orange_2bandit_a.png","68","68","test","","","","7","",""
"null","252678","pSARL_v2","pSARL_v2pcobu9j1","612e6569f68929afb886fb5c","fixation","img/fixation.png","null","","test","","","","","",""
"343.6000003814697","253026","pSARL_v2","pSARL_v2pcobu9j1","612e6569f68929afb886fb5c","freq","img/green_2bandit_a2.png","70","70","test","1","148","148","7","",""
"null","253498","pSARL_v2","pSARL_v2pcobu9j1","612e6569f68929afb886fb5c","freq_resp","img/green_2bandit_a.png","70","70","test","","","","7","",""
"null","253665","pSARL_v2","pSARL_v2pcobu9j1","612e6569f68929afb886fb5c","fixation","img/fixation.png","null","","test","","","","","",""
"272.5","253942","pSARL_v2","pSARL_v2pcobu9j1","612e6569f68929afb886fb5c","freq","img/green_2bandit_a2.png","70","70","test","1","149","149","7","",""
"null","254478","pSARL_v2","pSARL_v2pcobu9j1","612e6569f68929afb886fb5c","freq_resp","img/green_2bandit_a.png","70","70","test","","","","7","",""
"null","254647","pSARL_v2","pSARL_v2pcobu9j1","612e6569f68929afb886fb5c","fixation","img/fixation.png","null","","test","","","","","",""
"265.2000002861023","254915","pSARL_v2","pSARL_v2pcobu9j1","612e6569f68929afb886fb5c","freq","img/green_2bandit_a2.png","70","70","test","1","150","150","7","",""
"null","255455","pSARL_v2","pSARL_v2pcobu9j1","612e6569f68929afb886fb5c","freq_resp","img/green_2bandit_a.png","70","70","test","","","","7","",""
"null","255624","pSARL_v2","pSARL_v2pcobu9j1","612e6569f68929afb886fb5c","fixation","img/fixation.png","null","","test","","","","","",""
"269.19999980926514","255896","pSARL_v2","pSARL_v2pcobu9j1","612e6569f68929afb886fb5c","freq","img/green_2bandit_a2.png","70","70","test","1","151","151","7","",""
"null","256430","pSARL_v2","pSARL_v2pcobu9j1","612e6569f68929afb886fb5c","freq_resp","img/green_2bandit_a.png","70","70","test","","","","7","",""
"null","256597","pSARL_v2","pSARL_v2pcobu9j1","612e6569f68929afb886fb5c","fixation","img/fixation.png","null","","test","","","","","",""
"322.09999990463257","256922","pSARL_v2","pSARL_v2pcobu9j1","612e6569f68929afb886fb5c","freq","img/green_2bandit_a2.png","70","70","test","1","152","152","7","",""
"null","257408","pSARL_v2","pSARL_v2pcobu9j1","612e6569f68929afb886fb5c","freq_resp","img/green_2bandit_a.png","70","70","test","","","","7","",""
"null","257571","pSARL_v2","pSARL_v2pcobu9j1","612e6569f68929afb886fb5c","fixation","img/fixation.png","null","","test","","","","","",""
"269","257843","pSARL_v2","pSARL_v2pcobu9j1","612e6569f68929afb886fb5c","freq","img/green_2bandit_a2.png","70","70","test","1","153","153","7","",""
"null","258384","pSARL_v2","pSARL_v2pcobu9j1","612e6569f68929afb886fb5c","freq_resp","img/green_2bandit_a.png","70","70","test","","","","7","",""
"null","258538","pSARL_v2","pSARL_v2pcobu9j1","612e6569f68929afb886fb5c","fixation","img/fixation.png","null","","test","","","","","",""
"490","259031","pSARL_v2","pSARL_v2pcobu9j1","612e6569f68929afb886fb5c","freq","img/green_2bandit_a2.png","70","70","test","1","154","154","7","",""
"null","259362","pSARL_v2","pSARL_v2pcobu9j1","612e6569f68929afb886fb5c","freq_resp","img/green_2bandit_a.png","70","70","test","","","","7","",""
"null","259528","pSARL_v2","pSARL_v2pcobu9j1","612e6569f68929afb886fb5c","fixation","img/fixation.png","null","","test","","","","","",""
"289","259821","pSARL_v2","pSARL_v2pcobu9j1","612e6569f68929afb886fb5c","freq","img/green_2bandit_a2.png","70","70","test","1","155","155","7","",""
"null","260346","pSARL_v2","pSARL_v2pcobu9j1","612e6569f68929afb886fb5c","freq_resp","img/green_2bandit_a.png","70","70","test","","","","7","",""
"null","260502","pSARL_v2","pSARL_v2pcobu9j1","612e6569f68929afb886fb5c","fixation","img/fixation.png","null","","test","","","","","",""
"285.59999990463257","260791","pSARL_v2","pSARL_v2pcobu9j1","612e6569f68929afb886fb5c","freq","img/green_2bandit_a2.png","70","70","test","1","156","156","7","",""
"null","261318","pSARL_v2","pSARL_v2pcobu9j1","612e6569f68929afb886fb5c","freq_resp","img/green_2bandit_a.png","70","70","test","","","","7","",""
"null","261473","pSARL_v2","pSARL_v2pcobu9j1","612e6569f68929afb886fb5c","fixation","img/fixation.png","null","","test","","","","","",""
"265.2999997138977","261742","pSARL_v2","pSARL_v2pcobu9j1","612e6569f68929afb886fb5c","freq","img/green_2bandit_a2.png","70","70","test","1","157","157","7","",""
"null","262294","pSARL_v2","pSARL_v2pcobu9j1","612e6569f68929afb886fb5c","freq_resp","img/green_2bandit_a.png","70","70","test","","","","7","",""
"null","262462","pSARL_v2","pSARL_v2pcobu9j1","612e6569f68929afb886fb5c","fixation","img/fixation.png","null","","test","","","","","",""
"430.69999980926514","262895","pSARL_v2","pSARL_v2pcobu9j1","612e6569f68929afb886fb5c","infreq","img/orange_2bandit_a2.png","68","68","test","1","158","158","7","",""
"null","263270","pSARL_v2","pSARL_v2pcobu9j1","612e6569f68929afb886fb5c","infreq_resp","img/orange_2bandit_a.png","68","68","test","","","","7","",""
"null","263436","pSARL_v2","pSARL_v2pcobu9j1","612e6569f68929afb886fb5c","fixation","img/fixation.png","null","","test","","","","","",""
"340.90000009536743","263780","pSARL_v2","pSARL_v2pcobu9j1","612e6569f68929afb886fb5c","freq","img/green_2bandit_a2.png","70","70","test","1","159","159","7","",""
"null","264247","pSARL_v2","pSARL_v2pcobu9j1","612e6569f68929afb886fb5c","freq_resp","img/green_2bandit_a.png","70","70","test","","","","7","",""
"null","264412","pSARL_v2","pSARL_v2pcobu9j1","612e6569f68929afb886fb5c","fixation","img/fixation.png","null","","test","","","","","",""
"290.40000009536743","264706","pSARL_v2","pSARL_v2pcobu9j1","612e6569f68929afb886fb5c","freq","img/green_2bandit_a2.png","70","70","test","1","160","160","7","",""
"null","265230","pSARL_v2","pSARL_v2pcobu9j1","612e6569f68929afb886fb5c","freq_resp","img/green_2bandit_a.png","70","70","test","","","","7","",""
"null","265397","pSARL_v2","pSARL_v2pcobu9j1","612e6569f68929afb886fb5c","fixation","img/fixation.png","null","","test","","","","","",""
"285.6000003814697","265686","pSARL_v2","pSARL_v2pcobu9j1","612e6569f68929afb886fb5c","freq","img/green_2bandit_a2.png","70","70","test","1","161","161","7","",""
"null","266216","pSARL_v2","pSARL_v2pcobu9j1","612e6569f68929afb886fb5c","freq_resp","img/green_2bandit_a.png","70","70","test","","","","7","",""
"null","266385","pSARL_v2","pSARL_v2pcobu9j1","612e6569f68929afb886fb5c","fixation","img/fixation.png","null","","test","","","","","",""
"273.19999980926514","266661","pSARL_v2","pSARL_v2pcobu9j1","612e6569f68929afb886fb5c","freq","img/green_2bandit_a2.png","70","70","test","1","162","162","7","",""
"null","267195","pSARL_v2","pSARL_v2pcobu9j1","612e6569f68929afb886fb5c","freq_resp","img/green_2bandit_a.png","70","70","test","","","","7","",""
"null","267365","pSARL_v2","pSARL_v2pcobu9j1","612e6569f68929afb886fb5c","fixation","img/fixation.png","null","","test","","","","","",""
"451.8999996185303","267821","pSARL_v2","pSARL_v2pcobu9j1","612e6569f68929afb886fb5c","reward","img/slot.png","74","","test","","","","","",""
"null","268580","pSARL_v2","pSARL_v2pcobu9j1","612e6569f68929afb886fb5c","points","<div class=""verylowPoints""> -6 </div>","null","na","test","","","","7","-6","6"
"302.59999990463257","268886","pSARL_v2","pSARL_v2pcobu9j1","612e6569f68929afb886fb5c","freq","img/green_2bandit_a2.png","70","70","test","1","163","163","8","",""
"null","269401","pSARL_v2","pSARL_v2pcobu9j1","612e6569f68929afb886fb5c","freq_resp","img/green_2bandit_a.png","70","70","test","","","","8","",""
"null","269567","pSARL_v2","pSARL_v2pcobu9j1","612e6569f68929afb886fb5c","fixation","img/fixation.png","null","","test","","","","","",""
"247.40000009536743","269818","pSARL_v2","pSARL_v2pcobu9j1","612e6569f68929afb886fb5c","freq","img/green_2bandit_a2.png","70","70","test","1","164","164","8","",""
"null","270387","pSARL_v2","pSARL_v2pcobu9j1","612e6569f68929afb886fb5c","freq_resp","img/green_2bandit_a.png","70","70","test","","","","8","",""
"null","270555","pSARL_v2","pSARL_v2pcobu9j1","612e6569f68929afb886fb5c","fixation","img/fixation.png","null","","test","","","","","",""
"245","270803","pSARL_v2","pSARL_v2pcobu9j1","612e6569f68929afb886fb5c","freq","img/green_2bandit_a2.png","70","70","test","1","165","165","8","",""
"null","271373","pSARL_v2","pSARL_v2pcobu9j1","612e6569f68929afb886fb5c","freq_resp","img/green_2bandit_a.png","70","70","test","","","","8","",""
"null","271539","pSARL_v2","pSARL_v2pcobu9j1","612e6569f68929afb886fb5c","fixation","img/fixation.png","null","","test","","","","","",""
"224.2999997138977","271767","pSARL_v2","pSARL_v2pcobu9j1","612e6569f68929afb886fb5c","freq","img/green_2bandit_a2.png","70","70","test","1","166","166","8","",""
"null","272348","pSARL_v2","pSARL_v2pcobu9j1","612e6569f68929afb886fb5c","freq_resp","img/green_2bandit_a.png","70","70","test","","","","8","",""
"null","272514","pSARL_v2","pSARL_v2pcobu9j1","612e6569f68929afb886fb5c","fixation","img/fixation.png","null","","test","","","","","",""
"383","272901","pSARL_v2","pSARL_v2pcobu9j1","612e6569f68929afb886fb5c","freq","img/green_2bandit_a2.png","70","70","test","1","167","167","8","",""
"null","273333","pSARL_v2","pSARL_v2pcobu9j1","612e6569f68929afb886fb5c","freq_resp","img/green_2bandit_a.png","70","70","test","","","","8","",""
"null","273501","pSARL_v2","pSARL_v2pcobu9j1","612e6569f68929afb886fb5c","fixation","img/fixation.png","null","","test","","","","","",""
"285.7999997138977","273794","pSARL_v2","pSARL_v2pcobu9j1","612e6569f68929afb886fb5c","freq","img/green_2bandit_a2.png","70","70","test","1","168","168","8","",""
"null","274330","pSARL_v2","pSARL_v2pcobu9j1","612e6569f68929afb886fb5c","freq_resp","img/green_2bandit_a.png","70","70","test","","","","8","",""
"null","274498","pSARL_v2","pSARL_v2pcobu9j1","612e6569f68929afb886fb5c","fixation","img/fixation.png","null","","test","","","","","",""
"240.2999997138977","274742","pSARL_v2","pSARL_v2pcobu9j1","612e6569f68929afb886fb5c","freq","img/green_2bandit_a2.png","70","70","test","1","169","169","8","",""
"null","275306","pSARL_v2","pSARL_v2pcobu9j1","612e6569f68929afb886fb5c","freq_resp","img/green_2bandit_a.png","70","70","test","","","","8","",""
"null","275472","pSARL_v2","pSARL_v2pcobu9j1","612e6569f68929afb886fb5c","fixation","img/fixation.png","null","","test","","","","","",""
"263.40000009536743","275742","pSARL_v2","pSARL_v2pcobu9j1","612e6569f68929afb886fb5c","freq","img/green_2bandit_a2.png","70","70","test","1","170","170","8","",""
"null","276290","pSARL_v2","pSARL_v2pcobu9j1","612e6569f68929afb886fb5c","freq_resp","img/green_2bandit_a.png","70","70","test","","","","8","",""
"null","276457","pSARL_v2","pSARL_v2pcobu9j1","612e6569f68929afb886fb5c","fixation","img/fixation.png","null","","test","","","","","",""
"241.90000009536743","276702","pSARL_v2","pSARL_v2pcobu9j1","612e6569f68929afb886fb5c","freq","img/green_2bandit_a2.png","70","70","test","1","171","171","8","",""
"null","277274","pSARL_v2","pSARL_v2pcobu9j1","612e6569f68929afb886fb5c","freq_resp","img/green_2bandit_a.png","70","70","test","","","","8","",""
"null","277442","pSARL_v2","pSARL_v2pcobu9j1","612e6569f68929afb886fb5c","fixation","img/fixation.png","null","","test","","","","","",""
"272.90000009536743","277718","pSARL_v2","pSARL_v2pcobu9j1","612e6569f68929afb886fb5c","freq","img/green_2bandit_a2.png","70","70","test","1","172","172","8","",""
"null","278250","pSARL_v2","pSARL_v2pcobu9j1","612e6569f68929afb886fb5c","freq_resp","img/green_2bandit_a.png","70","70","test","","","","8","",""
"null","278418","pSARL_v2","pSARL_v2pcobu9j1","612e6569f68929afb886fb5c","fixation","img/fixation.png","null","","test","","","","","",""
"422.7000002861023","278844","pSARL_v2","pSARL_v2pcobu9j1","612e6569f68929afb886fb5c","infreq","img/orange_2bandit_a2.png","68","68","test","1","173","173","8","",""
"null","279238","pSARL_v2","pSARL_v2pcobu9j1","612e6569f68929afb886fb5c","infreq_resp","img/orange_2bandit_a.png","68","68","test","","","","8","",""
"null","279402","pSARL_v2","pSARL_v2pcobu9j1","612e6569f68929afb886fb5c","fixation","img/fixation.png","null","","test","","","","","",""
"364.8999996185303","279771","pSARL_v2","pSARL_v2pcobu9j1","612e6569f68929afb886fb5c","freq","img/green_2bandit_a2.png","70","70","test","1","174","174","8","",""
"null","280221","pSARL_v2","pSARL_v2pcobu9j1","612e6569f68929afb886fb5c","freq_resp","img/green_2bandit_a.png","70","70","test","","","","8","",""
"null","280387","pSARL_v2","pSARL_v2pcobu9j1","612e6569f68929afb886fb5c","fixation","img/fixation.png","null","","test","","","","","",""
"239.90000009536743","280631","pSARL_v2","pSARL_v2pcobu9j1","612e6569f68929afb886fb5c","freq","img/green_2bandit_a2.png","70","70","test","1","175","175","8","",""
"null","281209","pSARL_v2","pSARL_v2pcobu9j1","612e6569f68929afb886fb5c","freq_resp","img/green_2bandit_a.png","70","70","test","","","","8","",""
"null","281374","pSARL_v2","pSARL_v2pcobu9j1","612e6569f68929afb886fb5c","fixation","img/fixation.png","null","","test","","","","","",""
"230.40000009536743","281607","pSARL_v2","pSARL_v2pcobu9j1","612e6569f68929afb886fb5c","freq","img/green_2bandit_a2.png","70","70","test","1","176","176","8","",""
"null","282181","pSARL_v2","pSARL_v2pcobu9j1","612e6569f68929afb886fb5c","freq_resp","img/green_2bandit_a.png","70","70","test","","","","8","",""
"null","282347","pSARL_v2","pSARL_v2pcobu9j1","612e6569f68929afb886fb5c","fixation","img/fixation.png","null","","test","","","","","",""
"242.90000009536743","282592","pSARL_v2","pSARL_v2pcobu9j1","612e6569f68929afb886fb5c","freq","img/green_2bandit_a2.png","70","70","test","1","177","177","8","",""
"null","283157","pSARL_v2","pSARL_v2pcobu9j1","612e6569f68929afb886fb5c","freq_resp","img/green_2bandit_a.png","70","70","test","","","","8","",""
"null","283323","pSARL_v2","pSARL_v2pcobu9j1","612e6569f68929afb886fb5c","fixation","img/fixation.png","null","","test","","","","","",""
"367.59999990463257","283693","pSARL_v2","pSARL_v2pcobu9j1","612e6569f68929afb886fb5c","infreq","img/orange_2bandit_a2.png","68","68","test","1","178","178","8","",""
"null","284135","pSARL_v2","pSARL_v2pcobu9j1","612e6569f68929afb886fb5c","infreq_resp","img/orange_2bandit_a.png","68","68","test","","","","8","",""
"null","284301","pSARL_v2","pSARL_v2pcobu9j1","612e6569f68929afb886fb5c","fixation","img/fixation.png","null","","test","","","","","",""
"351.2999997138977","284655","pSARL_v2","pSARL_v2pcobu9j1","612e6569f68929afb886fb5c","freq","img/green_2bandit_a2.png","70","70","test","1","179","179","8","",""
"null","285120","pSARL_v2","pSARL_v2pcobu9j1","612e6569f68929afb886fb5c","freq_resp","img/green_2bandit_a.png","70","70","test","","","","8","",""
"null","285287","pSARL_v2","pSARL_v2pcobu9j1","612e6569f68929afb886fb5c","fixation","img/fixation.png","null","","test","","","","","",""
"275.09999990463257","285565","pSARL_v2","pSARL_v2pcobu9j1","612e6569f68929afb886fb5c","freq","img/green_2bandit_a2.png","70","70","test","1","180","180","8","",""
"null","286108","pSARL_v2","pSARL_v2pcobu9j1","612e6569f68929afb886fb5c","freq_resp","img/green_2bandit_a.png","70","70","test","","","","8","",""
"null","286276","pSARL_v2","pSARL_v2pcobu9j1","612e6569f68929afb886fb5c","fixation","img/fixation.png","null","","test","","","","","",""
"232.09999990463257","286511","pSARL_v2","pSARL_v2pcobu9j1","612e6569f68929afb886fb5c","freq","img/green_2bandit_a2.png","70","70","test","1","181","181","8","",""
"null","287086","pSARL_v2","pSARL_v2pcobu9j1","612e6569f68929afb886fb5c","freq_resp","img/green_2bandit_a.png","70","70","test","","","","8","",""
"null","287251","pSARL_v2","pSARL_v2pcobu9j1","612e6569f68929afb886fb5c","fixation","img/fixation.png","null","","test","","","","","",""
"258","287513","pSARL_v2","pSARL_v2pcobu9j1","612e6569f68929afb886fb5c","freq","img/green_2bandit_a2.png","70","70","test","1","182","182","8","",""
"null","288062","pSARL_v2","pSARL_v2pcobu9j1","612e6569f68929afb886fb5c","freq_resp","img/green_2bandit_a.png","70","70","test","","","","8","",""
"null","288228","pSARL_v2","pSARL_v2pcobu9j1","612e6569f68929afb886fb5c","fixation","img/fixation.png","null","","test","","","","","",""
"301.19999980926514","288533","pSARL_v2","pSARL_v2pcobu9j1","612e6569f68929afb886fb5c","freq","img/green_2bandit_a2.png","70","70","test","1","183","183","8","",""
"null","289046","pSARL_v2","pSARL_v2pcobu9j1","612e6569f68929afb886fb5c","freq_resp","img/green_2bandit_a.png","70","70","test","","","","8","",""
"null","289213","pSARL_v2","pSARL_v2pcobu9j1","612e6569f68929afb886fb5c","fixation","img/fixation.png","null","","test","","","","","",""
"312.7000002861023","289529","pSARL_v2","pSARL_v2pcobu9j1","612e6569f68929afb886fb5c","freq","img/green_2bandit_a2.png","70","70","test","1","184","184","8","",""
"null","290030","pSARL_v2","pSARL_v2pcobu9j1","612e6569f68929afb886fb5c","freq_resp","img/green_2bandit_a.png","70","70","test","","","","8","",""
"null","290196","pSARL_v2","pSARL_v2pcobu9j1","612e6569f68929afb886fb5c","fixation","img/fixation.png","null","","test","","","","","",""
"286","290486","pSARL_v2","pSARL_v2pcobu9j1","612e6569f68929afb886fb5c","freq","img/green_2bandit_a2.png","70","70","test","1","185","185","8","",""
"null","291018","pSARL_v2","pSARL_v2pcobu9j1","612e6569f68929afb886fb5c","freq_resp","img/green_2bandit_a.png","70","70","test","","","","8","",""
"null","291188","pSARL_v2","pSARL_v2pcobu9j1","612e6569f68929afb886fb5c","fixation","img/fixation.png","null","","test","","","","","",""
"262.7000002861023","291455","pSARL_v2","pSARL_v2pcobu9j1","612e6569f68929afb886fb5c","freq","img/green_2bandit_a2.png","70","70","test","1","186","186","8","",""
"null","291999","pSARL_v2","pSARL_v2pcobu9j1","612e6569f68929afb886fb5c","freq_resp","img/green_2bandit_a.png","70","70","test","","","","8","",""
"null","292166","pSARL_v2","pSARL_v2pcobu9j1","612e6569f68929afb886fb5c","fixation","img/fixation.png","null","","test","","","","","",""
"252.5","292423","pSARL_v2","pSARL_v2pcobu9j1","612e6569f68929afb886fb5c","freq","img/green_2bandit_a2.png","70","70","test","1","187","187","8","",""
"null","292986","pSARL_v2","pSARL_v2pcobu9j1","612e6569f68929afb886fb5c","freq_resp","img/green_2bandit_a.png","70","70","test","","","","8","",""
"null","293152","pSARL_v2","pSARL_v2pcobu9j1","612e6569f68929afb886fb5c","fixation","img/fixation.png","null","","test","","","","","",""
"359.5","293518","pSARL_v2","pSARL_v2pcobu9j1","612e6569f68929afb886fb5c","reward","img/slot.png","74","","test","","","","","",""
"null","294282","pSARL_v2","pSARL_v2pcobu9j1","612e6569f68929afb886fb5c","points","<div class=""verylowPoints""> -4 </div>","null","na","test","","","","8","-4","7"
"248.59999990463257","294533","pSARL_v2","pSARL_v2pcobu9j1","612e6569f68929afb886fb5c","freq","img/green_2bandit_a2.png","70","70","test","1","188","188","9","",""
"null","295103","pSARL_v2","pSARL_v2pcobu9j1","612e6569f68929afb886fb5c","freq_resp","img/green_2bandit_a.png","70","70","test","","","","9","",""
"null","295257","pSARL_v2","pSARL_v2pcobu9j1","612e6569f68929afb886fb5c","fixation","img/fixation.png","null","","test","","","","","",""
"390.8999996185303","295651","pSARL_v2","pSARL_v2pcobu9j1","612e6569f68929afb886fb5c","freq","img/green_2bandit_a2.png","70","70","test","1","189","189","9","",""
"null","296066","pSARL_v2","pSARL_v2pcobu9j1","612e6569f68929afb886fb5c","freq_resp","img/green_2bandit_a.png","70","70","test","","","","9","",""
"null","296233","pSARL_v2","pSARL_v2pcobu9j1","612e6569f68929afb886fb5c","fixation","img/fixation.png","null","","test","","","","","",""
"263.2000002861023","296500","pSARL_v2","pSARL_v2pcobu9j1","612e6569f68929afb886fb5c","freq","img/green_2bandit_a2.png","70","70","test","1","190","190","9","",""
"null","297049","pSARL_v2","pSARL_v2pcobu9j1","612e6569f68929afb886fb5c","freq_resp","img/green_2bandit_a.png","70","70","test","","","","9","",""
"null","297214","pSARL_v2","pSARL_v2pcobu9j1","612e6569f68929afb886fb5c","fixation","img/fixation.png","null","","test","","","","","",""
"233.5","297450","pSARL_v2","pSARL_v2pcobu9j1","612e6569f68929afb886fb5c","freq","img/green_2bandit_a2.png","70","70","test","1","191","191","9","",""
"null","298033","pSARL_v2","pSARL_v2pcobu9j1","612e6569f68929afb886fb5c","freq_resp","img/green_2bandit_a.png","70","70","test","","","","9","",""
"null","298188","pSARL_v2","pSARL_v2pcobu9j1","612e6569f68929afb886fb5c","fixation","img/fixation.png","null","","test","","","","","",""
"255.59999990463257","298447","pSARL_v2","pSARL_v2pcobu9j1","612e6569f68929afb886fb5c","freq","img/green_2bandit_a2.png","70","70","test","1","192","192","9","",""
"null","299000","pSARL_v2","pSARL_v2pcobu9j1","612e6569f68929afb886fb5c","freq_resp","img/green_2bandit_a.png","70","70","test","","","","9","",""
"null","299166","pSARL_v2","pSARL_v2pcobu9j1","612e6569f68929afb886fb5c","fixation","img/fixation.png","null","","test","","","","","",""
"263.80000019073486","299434","pSARL_v2","pSARL_v2pcobu9j1","612e6569f68929afb886fb5c","freq","img/green_2bandit_a2.png","70","70","test","1","193","193","9","",""
"null","299978","pSARL_v2","pSARL_v2pcobu9j1","612e6569f68929afb886fb5c","freq_resp","img/green_2bandit_a.png","70","70","test","","","","9","",""
"null","300144","pSARL_v2","pSARL_v2pcobu9j1","612e6569f68929afb886fb5c","fixation","img/fixation.png","null","","test","","","","","",""
"96.2000002861023","300245","pSARL_v2","pSARL_v2pcobu9j1","612e6569f68929afb886fb5c","freq","img/green_2bandit_a2.png","70","70","test","1","194","194","9","",""
"null","300960","pSARL_v2","pSARL_v2pcobu9j1","612e6569f68929afb886fb5c","freq_resp","img/green_2bandit_a.png","70","70","test","","","","9","",""
"null","301113","pSARL_v2","pSARL_v2pcobu9j1","612e6569f68929afb886fb5c","fixation","img/fixation.png","null","","test","","","","","",""
"250.19999980926514","301366","pSARL_v2","pSARL_v2pcobu9j1","612e6569f68929afb886fb5c","freq","img/green_2bandit_a2.png","70","70","test","1","195","195","9","",""
"null","301934","pSARL_v2","pSARL_v2pcobu9j1","612e6569f68929afb886fb5c","freq_resp","img/green_2bandit_a.png","70","70","test","","","","9","",""
"null","302103","pSARL_v2","pSARL_v2pcobu9j1","612e6569f68929afb886fb5c","fixation","img/fixation.png","null","","test","","","","","",""
"249.19999980926514","302356","pSARL_v2","pSARL_v2pcobu9j1","612e6569f68929afb886fb5c","freq","img/green_2bandit_a2.png","70","70","test","1","196","196","9","",""
"null","302915","pSARL_v2","pSARL_v2pcobu9j1","612e6569f68929afb886fb5c","freq_resp","img/green_2bandit_a.png","70","70","test","","","","9","",""
"null","303082","pSARL_v2","pSARL_v2pcobu9j1","612e6569f68929afb886fb5c","fixation","img/fixation.png","null","","test","","","","","",""
"272.19999980926514","303357","pSARL_v2","pSARL_v2pcobu9j1","612e6569f68929afb886fb5c","freq","img/green_2bandit_a2.png","70","70","test","1","197","197","9","",""
"null","303889","pSARL_v2","pSARL_v2pcobu9j1","612e6569f68929afb886fb5c","freq_resp","img/green_2bandit_a.png","70","70","test","","","","9","",""
"null","304043","pSARL_v2","pSARL_v2pcobu9j1","612e6569f68929afb886fb5c","fixation","img/fixation.png","null","","test","","","","","",""
"321.09999990463257","304368","pSARL_v2","pSARL_v2pcobu9j1","612e6569f68929afb886fb5c","freq","img/green_2bandit_a2.png","70","70","test","1","198","198","9","",""
"null","304859","pSARL_v2","pSARL_v2pcobu9j1","612e6569f68929afb886fb5c","freq_resp","img/green_2bandit_a.png","70","70","test","","","","9","",""
"null","305026","pSARL_v2","pSARL_v2pcobu9j1","612e6569f68929afb886fb5c","fixation","img/fixation.png","null","","test","","","","","",""
"349.5","305378","pSARL_v2","pSARL_v2pcobu9j1","612e6569f68929afb886fb5c","infreq","img/orange_2bandit_a2.png","68","68","test","1","199","199","9","",""
"null","305835","pSARL_v2","pSARL_v2pcobu9j1","612e6569f68929afb886fb5c","infreq_resp","img/orange_2bandit_a.png","68","68","test","","","","9","",""
"null","306002","pSARL_v2","pSARL_v2pcobu9j1","612e6569f68929afb886fb5c","fixation","img/fixation.png","null","","test","","","","","",""
"128.5","306135","pSARL_v2","pSARL_v2pcobu9j1","612e6569f68929afb886fb5c","freq","img/green_2bandit_a2.png","70","70","test","1","200","200","9","",""
"null","306824","pSARL_v2","pSARL_v2pcobu9j1","612e6569f68929afb886fb5c","freq_resp","img/green_2bandit_a.png","70","70","test","","","","9","",""
"null","306994","pSARL_v2","pSARL_v2pcobu9j1","612e6569f68929afb886fb5c","fixation","img/fixation.png","null","","test","","","","","",""
"353.30000019073486","307350","pSARL_v2","pSARL_v2pcobu9j1","612e6569f68929afb886fb5c","freq","img/green_2bandit_a2.png","70","70","test","1","201","201","9","",""
"null","307800","pSARL_v2","pSARL_v2pcobu9j1","612e6569f68929afb886fb5c","freq_resp","img/green_2bandit_a.png","70","70","test","","","","9","",""
"null","307965","pSARL_v2","pSARL_v2pcobu9j1","612e6569f68929afb886fb5c","fixation","img/fixation.png","null","","test","","","","","",""
"242.09999990463257","308211","pSARL_v2","pSARL_v2pcobu9j1","612e6569f68929afb886fb5c","freq","img/green_2bandit_a2.png","70","70","test","1","202","202","9","",""
"null","308784","pSARL_v2","pSARL_v2pcobu9j1","612e6569f68929afb886fb5c","freq_resp","img/green_2bandit_a.png","70","70","test","","","","9","",""
"null","308952","pSARL_v2","pSARL_v2pcobu9j1","612e6569f68929afb886fb5c","fixation","img/fixation.png","null","","test","","","","","",""
"266.5","309224","pSARL_v2","pSARL_v2pcobu9j1","612e6569f68929afb886fb5c","freq","img/green_2bandit_a2.png","70","70","test","1","203","203","9","",""
"null","309768","pSARL_v2","pSARL_v2pcobu9j1","612e6569f68929afb886fb5c","freq_resp","img/green_2bandit_a.png","70","70","test","","","","9","",""
"null","309936","pSARL_v2","pSARL_v2pcobu9j1","612e6569f68929afb886fb5c","fixation","img/fixation.png","null","","test","","","","","",""
"264.7999997138977","310205","pSARL_v2","pSARL_v2pcobu9j1","612e6569f68929afb886fb5c","freq","img/green_2bandit_a2.png","70","70","test","1","204","204","9","",""
"null","310750","pSARL_v2","pSARL_v2pcobu9j1","612e6569f68929afb886fb5c","freq_resp","img/green_2bandit_a.png","70","70","test","","","","9","",""
"null","310907","pSARL_v2","pSARL_v2pcobu9j1","612e6569f68929afb886fb5c","fixation","img/fixation.png","null","","test","","","","","",""
"344.59999990463257","311255","pSARL_v2","pSARL_v2pcobu9j1","612e6569f68929afb886fb5c","infreq","img/orange_2bandit_a2.png","68","68","test","1","205","205","9","",""
"null","311715","pSARL_v2","pSARL_v2pcobu9j1","612e6569f68929afb886fb5c","infreq_resp","img/orange_2bandit_a.png","68","68","test","","","","9","",""
"null","311882","pSARL_v2","pSARL_v2pcobu9j1","612e6569f68929afb886fb5c","fixation","img/fixation.png","null","","test","","","","","",""
"314.80000019073486","312199","pSARL_v2","pSARL_v2pcobu9j1","612e6569f68929afb886fb5c","freq","img/green_2bandit_a2.png","70","70","test","1","206","206","9","",""
"null","312689","pSARL_v2","pSARL_v2pcobu9j1","612e6569f68929afb886fb5c","freq_resp","img/green_2bandit_a.png","70","70","test","","","","9","",""
"null","312855","pSARL_v2","pSARL_v2pcobu9j1","612e6569f68929afb886fb5c","fixation","img/fixation.png","null","","test","","","","","",""
