"rt","time_elapsed","expId","subject","prolificID","trialType","stimulus","key_press","corrresp","phase","corr","trialNum","attentionRunNum","blockNum","points","rlNum"
"1226.1000000238419","1235","pSARL_v2","pSARL_v2t0ds7sqk","600dcdff34fef66077146d8e","","","","","","","","","","",""
"","3002","pSARL_v2","pSARL_v2t0ds7sqk","600dcdff34fef66077146d8e","fullscreen","","","","","","","","","",""
"67688.59999996424","70703","pSARL_v2","pSARL_v2t0ds7sqk","600dcdff34fef66077146d8e","","","","","","","","","","",""
"null","71514","pSARL_v2","pSARL_v2t0ds7sqk","600dcdff34fef66077146d8e","freqPrac","img/green_2bandit_a2.png","null","70","prac","0","","","","",""
"null","72538","pSARL_v2","pSARL_v2t0ds7sqk","600dcdff34fef66077146d8e","feedback","img/tooSlow.png","null","na","prac","","","","","",""
"null","72709","pSARL_v2","pSARL_v2t0ds7sqk","600dcdff34fef66077146d8e","fixation","img/fixation.png","null","","prac","","","","","",""
"459.10000002384186","73174","pSARL_v2","pSARL_v2t0ds7sqk","600dcdff34fef66077146d8e","infreqPrac","img/orange_2bandit_a2.png","68","68","prac","1","","","","",""
"459.10000002384186","73533","pSARL_v2","pSARL_v2t0ds7sqk","600dcdff34fef66077146d8e","infreqPrac_resp","img/orange_2bandit_a.png","68","68","prac","","","","","",""
"null","73689","pSARL_v2","pSARL_v2t0ds7sqk","600dcdff34fef66077146d8e","fixation","img/fixation.png","null","","prac","","","","","",""
"510.30000001192093","74206","pSARL_v2","pSARL_v2t0ds7sqk","600dcdff34fef66077146d8e","freqPrac","img/green_2bandit_a2.png","70","70","prac","1","","","","",""
"510.30000001192093","74508","pSARL_v2","pSARL_v2t0ds7sqk","600dcdff34fef66077146d8e","freqPrac_resp","img/green_2bandit_a.png","70","70","prac","","","","","",""
"null","74686","pSARL_v2","pSARL_v2t0ds7sqk","600dcdff34fef66077146d8e","fixation","img/fixation.png","null","","prac","","","","","",""
"497.19999998807907","75190","pSARL_v2","pSARL_v2t0ds7sqk","600dcdff34fef66077146d8e","infreqPrac","img/orange_2bandit_a2.png","68","68","prac","1","","","","",""
"497.19999998807907","75506","pSARL_v2","pSARL_v2t0ds7sqk","600dcdff34fef66077146d8e","infreqPrac_resp","img/orange_2bandit_a.png","68","68","prac","","","","","",""
"null","75677","pSARL_v2","pSARL_v2t0ds7sqk","600dcdff34fef66077146d8e","fixation","img/fixation.png","null","","prac","","","","","",""
"418","76107","pSARL_v2","pSARL_v2t0ds7sqk","600dcdff34fef66077146d8e","infreqPrac","img/orange_2bandit_a2.png","68","68","prac","1","","","","",""
"418","76502","pSARL_v2","pSARL_v2t0ds7sqk","600dcdff34fef66077146d8e","infreqPrac_resp","img/orange_2bandit_a.png","68","68","prac","","","","","",""
"null","76660","pSARL_v2","pSARL_v2t0ds7sqk","600dcdff34fef66077146d8e","fixation","img/fixation.png","null","","prac","","","","","",""
"315","76986","pSARL_v2","pSARL_v2t0ds7sqk","600dcdff34fef66077146d8e","infreqPrac","img/orange_2bandit_a2.png","68","68","prac","1","","","","",""
"315","77483","pSARL_v2","pSARL_v2t0ds7sqk","600dcdff34fef66077146d8e","infreqPrac_resp","img/orange_2bandit_a.png","68","68","prac","","","","","",""
"null","77642","pSARL_v2","pSARL_v2t0ds7sqk","600dcdff34fef66077146d8e","fixation","img/fixation.png","null","","prac","","","","","",""
"325.30000001192093","77973","pSARL_v2","pSARL_v2t0ds7sqk","600dcdff34fef66077146d8e","freqPrac","img/green_2bandit_a2.png","68","70","prac","0","","","","",""
"325.30000001192093","78461","pSARL_v2","pSARL_v2t0ds7sqk","600dcdff34fef66077146d8e","freqPrac_resp","img/green_2bandit_a.png","68","70","prac","","","","","",""
"null","79480","pSARL_v2","pSARL_v2t0ds7sqk","600dcdff34fef66077146d8e","feedback","img/wrongKey.png","null","na","prac","","","","","",""
"null","79650","pSARL_v2","pSARL_v2t0ds7sqk","600dcdff34fef66077146d8e","fixation","img/fixation.png","null","","prac","","","","","",""
"724.1999999880791","80382","pSARL_v2","pSARL_v2t0ds7sqk","600dcdff34fef66077146d8e","infreqPrac","img/orange_2bandit_a2.png","68","68","prac","1","","","","",""
"724.1999999880791","80471","pSARL_v2","pSARL_v2t0ds7sqk","600dcdff34fef66077146d8e","infreqPrac_resp","img/orange_2bandit_a.png","68","68","prac","","","","","",""
"null","80629","pSARL_v2","pSARL_v2t0ds7sqk","600dcdff34fef66077146d8e","fixation","img/fixation.png","null","","prac","","","","","",""
"490.5","81126","pSARL_v2","pSARL_v2t0ds7sqk","600dcdff34fef66077146d8e","freqPrac","img/green_2bandit_a2.png","70","70","prac","1","","","","",""
"490.5","81451","pSARL_v2","pSARL_v2t0ds7sqk","600dcdff34fef66077146d8e","freqPrac_resp","img/green_2bandit_a.png","70","70","prac","","","","","",""
"null","81609","pSARL_v2","pSARL_v2t0ds7sqk","600dcdff34fef66077146d8e","fixation","img/fixation.png","null","","prac","","","","","",""
"406.10000002384186","82022","pSARL_v2","pSARL_v2t0ds7sqk","600dcdff34fef66077146d8e","freqPrac","img/green_2bandit_a2.png","70","70","prac","1","","","","",""
"406.10000002384186","82433","pSARL_v2","pSARL_v2t0ds7sqk","600dcdff34fef66077146d8e","freqPrac_resp","img/green_2bandit_a.png","70","70","prac","","","","","",""
"null","82605","pSARL_v2","pSARL_v2t0ds7sqk","600dcdff34fef66077146d8e","fixation","img/fixation.png","null","","prac","","","","","",""
"9984.5","92601","pSARL_v2","pSARL_v2t0ds7sqk","600dcdff34fef66077146d8e","","","","","prac","","","","","",""
"1422.1000000238419","94030","pSARL_v2","pSARL_v2t0ds7sqk","600dcdff34fef66077146d8e","rewardPractice","img/slot.png","74","","prac","","","","","",""
"null","94799","pSARL_v2","pSARL_v2t0ds7sqk","600dcdff34fef66077146d8e","feedback","<div class=""veryhighPoints""> +15 </div>","null","na","prac","","","","","",""
"null","94967","pSARL_v2","pSARL_v2t0ds7sqk","600dcdff34fef66077146d8e","fixation","img/fixation.png","null","","prac","","","","","",""
"3561.2999999523163","98534","pSARL_v2","pSARL_v2t0ds7sqk","600dcdff34fef66077146d8e","","","","","prac","","","","","",""
"null","99349","pSARL_v2","pSARL_v2t0ds7sqk","600dcdff34fef66077146d8e","freq","img/green_2bandit_a2.png","null","70","test","0","1","1","1","",""
"null","99509","pSARL_v2","pSARL_v2t0ds7sqk","600dcdff34fef66077146d8e","fixation","img/fixation.png","null","","test","","","","","",""
"418.19999998807907","99938","pSARL_v2","pSARL_v2t0ds7sqk","600dcdff34fef66077146d8e","freq","img/green_2bandit_a2.png","70","70","test","1","2","2","1","",""
"null","100331","pSARL_v2","pSARL_v2t0ds7sqk","600dcdff34fef66077146d8e","freq_resp","img/green_2bandit_a.png","70","70","test","","","","1","",""
"null","100489","pSARL_v2","pSARL_v2t0ds7sqk","600dcdff34fef66077146d8e","fixation","img/fixation.png","null","","test","","","","","",""
"452.60000002384186","100950","pSARL_v2","pSARL_v2t0ds7sqk","600dcdff34fef66077146d8e","infreq","img/orange_2bandit_a2.png","68","68","test","1","3","3","1","",""
"null","101312","pSARL_v2","pSARL_v2t0ds7sqk","600dcdff34fef66077146d8e","infreq_resp","img/orange_2bandit_a.png","68","68","test","","","","1","",""
"null","101474","pSARL_v2","pSARL_v2t0ds7sqk","600dcdff34fef66077146d8e","fixation","img/fixation.png","null","","test","","","","","",""
"445.4000000357628","101926","pSARL_v2","pSARL_v2t0ds7sqk","600dcdff34fef66077146d8e","freq","img/green_2bandit_a2.png","70","70","test","1","4","4","1","",""
"null","102291","pSARL_v2","pSARL_v2t0ds7sqk","600dcdff34fef66077146d8e","freq_resp","img/green_2bandit_a.png","70","70","test","","","","1","",""
"null","102455","pSARL_v2","pSARL_v2t0ds7sqk","600dcdff34fef66077146d8e","fixation","img/fixation.png","null","","test","","","","","",""
"464.60000002384186","102926","pSARL_v2","pSARL_v2t0ds7sqk","600dcdff34fef66077146d8e","freq","img/green_2bandit_a2.png","70","70","test","1","5","5","1","",""
"null","103271","pSARL_v2","pSARL_v2t0ds7sqk","600dcdff34fef66077146d8e","freq_resp","img/green_2bandit_a.png","70","70","test","","","","1","",""
"null","103432","pSARL_v2","pSARL_v2t0ds7sqk","600dcdff34fef66077146d8e","fixation","img/fixation.png","null","","test","","","","","",""
"311.19999998807907","103750","pSARL_v2","pSARL_v2t0ds7sqk","600dcdff34fef66077146d8e","freq","img/green_2bandit_a2.png","70","70","test","1","6","6","1","",""
"null","104247","pSARL_v2","pSARL_v2t0ds7sqk","600dcdff34fef66077146d8e","freq_resp","img/green_2bandit_a.png","70","70","test","","","","1","",""
"null","104418","pSARL_v2","pSARL_v2t0ds7sqk","600dcdff34fef66077146d8e","fixation","img/fixation.png","null","","test","","","","","",""
"421.30000001192093","104846","pSARL_v2","pSARL_v2t0ds7sqk","600dcdff34fef66077146d8e","freq","img/green_2bandit_a2.png","70","70","test","1","7","7","1","",""
"null","105239","pSARL_v2","pSARL_v2t0ds7sqk","600dcdff34fef66077146d8e","freq_resp","img/green_2bandit_a.png","70","70","test","","","","1","",""
"null","105397","pSARL_v2","pSARL_v2t0ds7sqk","600dcdff34fef66077146d8e","fixation","img/fixation.png","null","","test","","","","","",""
"346.19999998807907","105750","pSARL_v2","pSARL_v2t0ds7sqk","600dcdff34fef66077146d8e","freq","img/green_2bandit_a2.png","70","70","test","1","8","8","1","",""
"null","106226","pSARL_v2","pSARL_v2t0ds7sqk","600dcdff34fef66077146d8e","freq_resp","img/green_2bandit_a.png","70","70","test","","","","1","",""
"null","106397","pSARL_v2","pSARL_v2t0ds7sqk","600dcdff34fef66077146d8e","fixation","img/fixation.png","null","","test","","","","","",""
"386.19999998807907","106790","pSARL_v2","pSARL_v2t0ds7sqk","600dcdff34fef66077146d8e","freq","img/green_2bandit_a2.png","70","70","test","1","9","9","1","",""
"null","107213","pSARL_v2","pSARL_v2t0ds7sqk","600dcdff34fef66077146d8e","freq_resp","img/green_2bandit_a.png","70","70","test","","","","1","",""
"null","107371","pSARL_v2","pSARL_v2t0ds7sqk","600dcdff34fef66077146d8e","fixation","img/fixation.png","null","","test","","","","","",""
"389.4000000357628","107767","pSARL_v2","pSARL_v2t0ds7sqk","600dcdff34fef66077146d8e","freq","img/green_2bandit_a2.png","70","70","test","1","10","10","1","",""
"null","108190","pSARL_v2","pSARL_v2t0ds7sqk","600dcdff34fef66077146d8e","freq_resp","img/green_2bandit_a.png","70","70","test","","","","1","",""
"null","108349","pSARL_v2","pSARL_v2t0ds7sqk","600dcdff34fef66077146d8e","fixation","img/fixation.png","null","","test","","","","","",""
"370.19999998807907","108727","pSARL_v2","pSARL_v2t0ds7sqk","600dcdff34fef66077146d8e","freq","img/green_2bandit_a2.png","70","70","test","1","11","11","1","",""
"null","109179","pSARL_v2","pSARL_v2t0ds7sqk","600dcdff34fef66077146d8e","freq_resp","img/green_2bandit_a.png","70","70","test","","","","1","",""
"null","109351","pSARL_v2","pSARL_v2t0ds7sqk","600dcdff34fef66077146d8e","fixation","img/fixation.png","null","","test","","","","","",""
"385","109742","pSARL_v2","pSARL_v2t0ds7sqk","600dcdff34fef66077146d8e","freq","img/green_2bandit_a2.png","70","70","test","1","12","12","1","",""
"null","110174","pSARL_v2","pSARL_v2t0ds7sqk","600dcdff34fef66077146d8e","freq_resp","img/green_2bandit_a.png","70","70","test","","","","1","",""
"null","110345","pSARL_v2","pSARL_v2t0ds7sqk","600dcdff34fef66077146d8e","fixation","img/fixation.png","null","","test","","","","","",""
"510.19999998807907","110862","pSARL_v2","pSARL_v2t0ds7sqk","600dcdff34fef66077146d8e","infreq","img/orange_2bandit_a2.png","68","68","test","1","13","13","1","",""
"null","111170","pSARL_v2","pSARL_v2t0ds7sqk","600dcdff34fef66077146d8e","infreq_resp","img/orange_2bandit_a.png","68","68","test","","","","1","",""
"null","111327","pSARL_v2","pSARL_v2t0ds7sqk","600dcdff34fef66077146d8e","fixation","img/fixation.png","null","","test","","","","","",""
"510.4000000357628","111844","pSARL_v2","pSARL_v2t0ds7sqk","600dcdff34fef66077146d8e","freq","img/green_2bandit_a2.png","70","70","test","1","14","14","1","",""
"null","112151","pSARL_v2","pSARL_v2t0ds7sqk","600dcdff34fef66077146d8e","freq_resp","img/green_2bandit_a.png","70","70","test","","","","1","",""
"null","112322","pSARL_v2","pSARL_v2t0ds7sqk","600dcdff34fef66077146d8e","fixation","img/fixation.png","null","","test","","","","","",""
"437.19999998807907","112771","pSARL_v2","pSARL_v2t0ds7sqk","600dcdff34fef66077146d8e","freq","img/green_2bandit_a2.png","70","70","test","1","15","15","1","",""
"null","113161","pSARL_v2","pSARL_v2t0ds7sqk","600dcdff34fef66077146d8e","freq_resp","img/green_2bandit_a.png","70","70","test","","","","1","",""
"null","113328","pSARL_v2","pSARL_v2t0ds7sqk","600dcdff34fef66077146d8e","fixation","img/fixation.png","null","","test","","","","","",""
"335.30000001192093","113670","pSARL_v2","pSARL_v2t0ds7sqk","600dcdff34fef66077146d8e","freq","img/green_2bandit_a2.png","70","70","test","1","16","16","1","",""
"null","114151","pSARL_v2","pSARL_v2t0ds7sqk","600dcdff34fef66077146d8e","freq_resp","img/green_2bandit_a.png","70","70","test","","","","1","",""
"null","114327","pSARL_v2","pSARL_v2t0ds7sqk","600dcdff34fef66077146d8e","fixation","img/fixation.png","null","","test","","","","","",""
"336.30000001192093","114675","pSARL_v2","pSARL_v2t0ds7sqk","600dcdff34fef66077146d8e","freq","img/green_2bandit_a2.png","70","70","test","1","17","17","1","",""
"null","115149","pSARL_v2","pSARL_v2t0ds7sqk","600dcdff34fef66077146d8e","freq_resp","img/green_2bandit_a.png","70","70","test","","","","1","",""
"null","115318","pSARL_v2","pSARL_v2t0ds7sqk","600dcdff34fef66077146d8e","fixation","img/fixation.png","null","","test","","","","","",""
"320.89999997615814","115647","pSARL_v2","pSARL_v2t0ds7sqk","600dcdff34fef66077146d8e","freq","img/green_2bandit_a2.png","70","70","test","1","18","18","1","",""
"null","116135","pSARL_v2","pSARL_v2t0ds7sqk","600dcdff34fef66077146d8e","freq_resp","img/green_2bandit_a.png","70","70","test","","","","1","",""
"null","116304","pSARL_v2","pSARL_v2t0ds7sqk","600dcdff34fef66077146d8e","fixation","img/fixation.png","null","","test","","","","","",""
"279","116590","pSARL_v2","pSARL_v2t0ds7sqk","600dcdff34fef66077146d8e","freq","img/green_2bandit_a2.png","70","70","test","1","19","19","1","",""
"null","117131","pSARL_v2","pSARL_v2t0ds7sqk","600dcdff34fef66077146d8e","freq_resp","img/green_2bandit_a.png","70","70","test","","","","1","",""
"null","117289","pSARL_v2","pSARL_v2t0ds7sqk","600dcdff34fef66077146d8e","fixation","img/fixation.png","null","","test","","","","","",""
"983.1999999880791","118279","pSARL_v2","pSARL_v2t0ds7sqk","600dcdff34fef66077146d8e","reward","img/slot.png","74","","test","","","","","",""
"null","119043","pSARL_v2","pSARL_v2t0ds7sqk","600dcdff34fef66077146d8e","points","<div class=""verylowPoints""> -6 </div>","null","na","test","","","","1","-6","0"
"588.4000000357628","119643","pSARL_v2","pSARL_v2t0ds7sqk","600dcdff34fef66077146d8e","freq","img/green_2bandit_a2.png","70","70","test","1","20","20","2","",""
"null","119867","pSARL_v2","pSARL_v2t0ds7sqk","600dcdff34fef66077146d8e","freq_resp","img/green_2bandit_a.png","70","70","test","","","","2","",""
"null","120025","pSARL_v2","pSARL_v2t0ds7sqk","600dcdff34fef66077146d8e","fixation","img/fixation.png","null","","test","","","","","",""
"358.10000002384186","120389","pSARL_v2","pSARL_v2t0ds7sqk","600dcdff34fef66077146d8e","freq","img/green_2bandit_a2.png","70","70","test","1","21","21","2","",""
"null","120846","pSARL_v2","pSARL_v2t0ds7sqk","600dcdff34fef66077146d8e","freq_resp","img/green_2bandit_a.png","70","70","test","","","","2","",""
"null","121016","pSARL_v2","pSARL_v2t0ds7sqk","600dcdff34fef66077146d8e","fixation","img/fixation.png","null","","test","","","","","",""
"358.39999997615814","121381","pSARL_v2","pSARL_v2t0ds7sqk","600dcdff34fef66077146d8e","freq","img/green_2bandit_a2.png","70","70","test","1","22","22","2","",""
"null","121831","pSARL_v2","pSARL_v2t0ds7sqk","600dcdff34fef66077146d8e","freq_resp","img/green_2bandit_a.png","70","70","test","","","","2","",""
"null","122008","pSARL_v2","pSARL_v2t0ds7sqk","600dcdff34fef66077146d8e","fixation","img/fixation.png","null","","test","","","","","",""
"341.10000002384186","122361","pSARL_v2","pSARL_v2t0ds7sqk","600dcdff34fef66077146d8e","freq","img/green_2bandit_a2.png","68","70","test","0","23","23","2","",""
"null","122827","pSARL_v2","pSARL_v2t0ds7sqk","600dcdff34fef66077146d8e","freq_resp","img/green_2bandit_a.png","68","70","test","","","","2","",""
"null","122998","pSARL_v2","pSARL_v2t0ds7sqk","600dcdff34fef66077146d8e","fixation","img/fixation.png","null","","test","","","","","",""
"464.19999998807907","123469","pSARL_v2","pSARL_v2t0ds7sqk","600dcdff34fef66077146d8e","freq","img/green_2bandit_a2.png","70","70","test","1","24","24","2","",""
"null","123826","pSARL_v2","pSARL_v2t0ds7sqk","600dcdff34fef66077146d8e","freq_resp","img/green_2bandit_a.png","70","70","test","","","","2","",""
"null","123984","pSARL_v2","pSARL_v2t0ds7sqk","600dcdff34fef66077146d8e","fixation","img/fixation.png","null","","test","","","","","",""
"366.89999997615814","124360","pSARL_v2","pSARL_v2t0ds7sqk","600dcdff34fef66077146d8e","freq","img/green_2bandit_a2.png","70","70","test","1","25","25","2","",""
"null","124806","pSARL_v2","pSARL_v2t0ds7sqk","600dcdff34fef66077146d8e","freq_resp","img/green_2bandit_a.png","70","70","test","","","","2","",""
"null","124977","pSARL_v2","pSARL_v2t0ds7sqk","600dcdff34fef66077146d8e","fixation","img/fixation.png","null","","test","","","","","",""
"326.39999997615814","125310","pSARL_v2","pSARL_v2t0ds7sqk","600dcdff34fef66077146d8e","freq","img/green_2bandit_a2.png","70","70","test","1","26","26","2","",""
"null","125809","pSARL_v2","pSARL_v2t0ds7sqk","600dcdff34fef66077146d8e","freq_resp","img/green_2bandit_a.png","70","70","test","","","","2","",""
"null","125976","pSARL_v2","pSARL_v2t0ds7sqk","600dcdff34fef66077146d8e","fixation","img/fixation.png","null","","test","","","","","",""
"390.89999997615814","126396","pSARL_v2","pSARL_v2t0ds7sqk","600dcdff34fef66077146d8e","freq","img/green_2bandit_a2.png","70","70","test","1","27","27","2","",""
"null","126821","pSARL_v2","pSARL_v2t0ds7sqk","600dcdff34fef66077146d8e","freq_resp","img/green_2bandit_a.png","70","70","test","","","","2","",""
"null","126985","pSARL_v2","pSARL_v2t0ds7sqk","600dcdff34fef66077146d8e","fixation","img/fixation.png","null","","test","","","","","",""
"469.5","127466","pSARL_v2","pSARL_v2t0ds7sqk","600dcdff34fef66077146d8e","freq","img/green_2bandit_a2.png","70","70","test","1","28","28","2","",""
"null","127819","pSARL_v2","pSARL_v2t0ds7sqk","600dcdff34fef66077146d8e","freq_resp","img/green_2bandit_a.png","70","70","test","","","","2","",""
"null","127976","pSARL_v2","pSARL_v2t0ds7sqk","600dcdff34fef66077146d8e","fixation","img/fixation.png","null","","test","","","","","",""
"376.39999997615814","128359","pSARL_v2","pSARL_v2t0ds7sqk","600dcdff34fef66077146d8e","freq","img/green_2bandit_a2.png","70","70","test","1","29","29","2","",""
"null","128797","pSARL_v2","pSARL_v2t0ds7sqk","600dcdff34fef66077146d8e","freq_resp","img/green_2bandit_a.png","70","70","test","","","","2","",""
"null","128971","pSARL_v2","pSARL_v2t0ds7sqk","600dcdff34fef66077146d8e","fixation","img/fixation.png","null","","test","","","","","",""
"411.30000001192093","129389","pSARL_v2","pSARL_v2t0ds7sqk","600dcdff34fef66077146d8e","freq","img/green_2bandit_a2.png","70","70","test","1","30","30","2","",""
"null","129790","pSARL_v2","pSARL_v2t0ds7sqk","600dcdff34fef66077146d8e","freq_resp","img/green_2bandit_a.png","70","70","test","","","","2","",""
"null","129949","pSARL_v2","pSARL_v2t0ds7sqk","600dcdff34fef66077146d8e","fixation","img/fixation.png","null","","test","","","","","",""
"386","130346","pSARL_v2","pSARL_v2t0ds7sqk","600dcdff34fef66077146d8e","freq","img/green_2bandit_a2.png","70","70","test","1","31","31","2","",""
"null","130778","pSARL_v2","pSARL_v2t0ds7sqk","600dcdff34fef66077146d8e","freq_resp","img/green_2bandit_a.png","70","70","test","","","","2","",""
"null","130936","pSARL_v2","pSARL_v2t0ds7sqk","600dcdff34fef66077146d8e","fixation","img/fixation.png","null","","test","","","","","",""
"398.5","131342","pSARL_v2","pSARL_v2t0ds7sqk","600dcdff34fef66077146d8e","freq","img/green_2bandit_a2.png","70","70","test","1","32","32","2","",""
"null","131756","pSARL_v2","pSARL_v2t0ds7sqk","600dcdff34fef66077146d8e","freq_resp","img/green_2bandit_a.png","70","70","test","","","","2","",""
"null","131915","pSARL_v2","pSARL_v2t0ds7sqk","600dcdff34fef66077146d8e","fixation","img/fixation.png","null","","test","","","","","",""
"300","132226","pSARL_v2","pSARL_v2t0ds7sqk","600dcdff34fef66077146d8e","infreq","img/orange_2bandit_a2.png","70","68","test","0","33","33","2","",""
"null","132746","pSARL_v2","pSARL_v2t0ds7sqk","600dcdff34fef66077146d8e","infreq_resp","img/orange_2bandit_a.png","70","68","test","","","","2","",""
"null","132903","pSARL_v2","pSARL_v2t0ds7sqk","600dcdff34fef66077146d8e","fixation","img/fixation.png","null","","test","","","","","",""
"535.4000000357628","133445","pSARL_v2","pSARL_v2t0ds7sqk","600dcdff34fef66077146d8e","freq","img/green_2bandit_a2.png","70","70","test","1","34","34","2","",""
"null","133720","pSARL_v2","pSARL_v2t0ds7sqk","600dcdff34fef66077146d8e","freq_resp","img/green_2bandit_a.png","70","70","test","","","","2","",""
"null","133877","pSARL_v2","pSARL_v2t0ds7sqk","600dcdff34fef66077146d8e","fixation","img/fixation.png","null","","test","","","","","",""
"433.0999999642372","134317","pSARL_v2","pSARL_v2t0ds7sqk","600dcdff34fef66077146d8e","freq","img/green_2bandit_a2.png","70","70","test","1","35","35","2","",""
"null","134697","pSARL_v2","pSARL_v2t0ds7sqk","600dcdff34fef66077146d8e","freq_resp","img/green_2bandit_a.png","70","70","test","","","","2","",""
"null","134856","pSARL_v2","pSARL_v2t0ds7sqk","600dcdff34fef66077146d8e","fixation","img/fixation.png","null","","test","","","","","",""
"399.2000000476837","135261","pSARL_v2","pSARL_v2t0ds7sqk","600dcdff34fef66077146d8e","freq","img/green_2bandit_a2.png","70","70","test","1","36","36","2","",""
"null","135682","pSARL_v2","pSARL_v2t0ds7sqk","600dcdff34fef66077146d8e","freq_resp","img/green_2bandit_a.png","70","70","test","","","","2","",""
"null","135847","pSARL_v2","pSARL_v2t0ds7sqk","600dcdff34fef66077146d8e","fixation","img/fixation.png","null","","test","","","","","",""
"383.19999998807907","136238","pSARL_v2","pSARL_v2t0ds7sqk","600dcdff34fef66077146d8e","freq","img/green_2bandit_a2.png","70","70","test","1","37","37","2","",""
"null","136676","pSARL_v2","pSARL_v2t0ds7sqk","600dcdff34fef66077146d8e","freq_resp","img/green_2bandit_a.png","70","70","test","","","","2","",""
"null","136847","pSARL_v2","pSARL_v2t0ds7sqk","600dcdff34fef66077146d8e","fixation","img/fixation.png","null","","test","","","","","",""
"431.60000002384186","137286","pSARL_v2","pSARL_v2t0ds7sqk","600dcdff34fef66077146d8e","infreq","img/orange_2bandit_a2.png","68","68","test","1","38","38","2","",""
"null","137661","pSARL_v2","pSARL_v2t0ds7sqk","600dcdff34fef66077146d8e","infreq_resp","img/orange_2bandit_a.png","68","68","test","","","","2","",""
"null","137819","pSARL_v2","pSARL_v2t0ds7sqk","600dcdff34fef66077146d8e","fixation","img/fixation.png","null","","test","","","","","",""
"387.19999998807907","138213","pSARL_v2","pSARL_v2t0ds7sqk","600dcdff34fef66077146d8e","freq","img/green_2bandit_a2.png","70","70","test","1","39","39","2","",""
"null","138646","pSARL_v2","pSARL_v2t0ds7sqk","600dcdff34fef66077146d8e","freq_resp","img/green_2bandit_a.png","70","70","test","","","","2","",""
"null","138804","pSARL_v2","pSARL_v2t0ds7sqk","600dcdff34fef66077146d8e","fixation","img/fixation.png","null","","test","","","","","",""
"331.10000002384186","139141","pSARL_v2","pSARL_v2t0ds7sqk","600dcdff34fef66077146d8e","freq","img/green_2bandit_a2.png","70","70","test","1","40","40","2","",""
"null","139627","pSARL_v2","pSARL_v2t0ds7sqk","600dcdff34fef66077146d8e","freq_resp","img/green_2bandit_a.png","70","70","test","","","","2","",""
"null","139785","pSARL_v2","pSARL_v2t0ds7sqk","600dcdff34fef66077146d8e","fixation","img/fixation.png","null","","test","","","","","",""
"413.30000001192093","140205","pSARL_v2","pSARL_v2t0ds7sqk","600dcdff34fef66077146d8e","freq","img/green_2bandit_a2.png","70","70","test","1","41","41","2","",""
"null","140603","pSARL_v2","pSARL_v2t0ds7sqk","600dcdff34fef66077146d8e","freq_resp","img/green_2bandit_a.png","70","70","test","","","","2","",""
"null","140761","pSARL_v2","pSARL_v2t0ds7sqk","600dcdff34fef66077146d8e","fixation","img/fixation.png","null","","test","","","","","",""
"301.5","141069","pSARL_v2","pSARL_v2t0ds7sqk","600dcdff34fef66077146d8e","freq","img/green_2bandit_a2.png","70","70","test","1","42","42","2","",""
"null","141583","pSARL_v2","pSARL_v2t0ds7sqk","600dcdff34fef66077146d8e","freq_resp","img/green_2bandit_a.png","70","70","test","","","","2","",""
"null","141755","pSARL_v2","pSARL_v2t0ds7sqk","600dcdff34fef66077146d8e","fixation","img/fixation.png","null","","test","","","","","",""
"363.89999997615814","142126","pSARL_v2","pSARL_v2t0ds7sqk","600dcdff34fef66077146d8e","freq","img/green_2bandit_a2.png","70","70","test","1","43","43","2","",""
"null","142581","pSARL_v2","pSARL_v2t0ds7sqk","600dcdff34fef66077146d8e","freq_resp","img/green_2bandit_a.png","70","70","test","","","","2","",""
"null","142752","pSARL_v2","pSARL_v2t0ds7sqk","600dcdff34fef66077146d8e","fixation","img/fixation.png","null","","test","","","","","",""
"292.89999997615814","143052","pSARL_v2","pSARL_v2t0ds7sqk","600dcdff34fef66077146d8e","freq","img/green_2bandit_a2.png","70","70","test","1","44","44","2","",""
"null","143580","pSARL_v2","pSARL_v2t0ds7sqk","600dcdff34fef66077146d8e","freq_resp","img/green_2bandit_a.png","70","70","test","","","","2","",""
"null","143751","pSARL_v2","pSARL_v2t0ds7sqk","600dcdff34fef66077146d8e","fixation","img/fixation.png","null","","test","","","","","",""
"311.19999998807907","144074","pSARL_v2","pSARL_v2t0ds7sqk","600dcdff34fef66077146d8e","freq","img/green_2bandit_a2.png","70","70","test","1","45","45","2","",""
"null","144578","pSARL_v2","pSARL_v2t0ds7sqk","600dcdff34fef66077146d8e","freq_resp","img/green_2bandit_a.png","70","70","test","","","","2","",""
"null","144736","pSARL_v2","pSARL_v2t0ds7sqk","600dcdff34fef66077146d8e","fixation","img/fixation.png","null","","test","","","","","",""
"718.3000000119209","145461","pSARL_v2","pSARL_v2t0ds7sqk","600dcdff34fef66077146d8e","reward","img/slot.png","74","","test","","","","","",""
"null","146228","pSARL_v2","pSARL_v2t0ds7sqk","600dcdff34fef66077146d8e","points","<div class=""verylowPoints""> -11 </div>","null","na","test","","","","2","-11","1"
"490.30000001192093","146725","pSARL_v2","pSARL_v2t0ds7sqk","600dcdff34fef66077146d8e","freq","img/green_2bandit_a2.png","70","70","test","1","46","46","3","",""
"null","147054","pSARL_v2","pSARL_v2t0ds7sqk","600dcdff34fef66077146d8e","freq_resp","img/green_2bandit_a.png","70","70","test","","","","3","",""
"null","147221","pSARL_v2","pSARL_v2t0ds7sqk","600dcdff34fef66077146d8e","fixation","img/fixation.png","null","","test","","","","","",""
"362.0999999642372","147589","pSARL_v2","pSARL_v2t0ds7sqk","600dcdff34fef66077146d8e","freq","img/green_2bandit_a2.png","70","70","test","1","47","47","3","",""
"null","148043","pSARL_v2","pSARL_v2t0ds7sqk","600dcdff34fef66077146d8e","freq_resp","img/green_2bandit_a.png","70","70","test","","","","3","",""
"null","148218","pSARL_v2","pSARL_v2t0ds7sqk","600dcdff34fef66077146d8e","fixation","img/fixation.png","null","","test","","","","","",""
"292.7999999523163","148522","pSARL_v2","pSARL_v2t0ds7sqk","600dcdff34fef66077146d8e","freq","img/green_2bandit_a2.png","70","70","test","1","48","48","3","",""
"null","149051","pSARL_v2","pSARL_v2t0ds7sqk","600dcdff34fef66077146d8e","freq_resp","img/green_2bandit_a.png","70","70","test","","","","3","",""
"null","149224","pSARL_v2","pSARL_v2t0ds7sqk","600dcdff34fef66077146d8e","fixation","img/fixation.png","null","","test","","","","","",""
"118.90000003576279","149355","pSARL_v2","pSARL_v2t0ds7sqk","600dcdff34fef66077146d8e","freq","img/green_2bandit_a2.png","70","70","test","1","49","49","3","",""
"null","150049","pSARL_v2","pSARL_v2t0ds7sqk","600dcdff34fef66077146d8e","freq_resp","img/green_2bandit_a.png","70","70","test","","","","3","",""
"null","150208","pSARL_v2","pSARL_v2t0ds7sqk","600dcdff34fef66077146d8e","fixation","img/fixation.png","null","","test","","","","","",""
"398.89999997615814","150613","pSARL_v2","pSARL_v2t0ds7sqk","600dcdff34fef66077146d8e","freq","img/green_2bandit_a2.png","70","70","test","1","50","50","3","",""
"null","151031","pSARL_v2","pSARL_v2t0ds7sqk","600dcdff34fef66077146d8e","freq_resp","img/green_2bandit_a.png","70","70","test","","","","3","",""
"null","151190","pSARL_v2","pSARL_v2t0ds7sqk","600dcdff34fef66077146d8e","fixation","img/fixation.png","null","","test","","","","","",""
"448.2999999523163","151646","pSARL_v2","pSARL_v2t0ds7sqk","600dcdff34fef66077146d8e","infreq","img/orange_2bandit_a2.png","68","68","test","1","51","51","3","",""
"null","152011","pSARL_v2","pSARL_v2t0ds7sqk","600dcdff34fef66077146d8e","infreq_resp","img/orange_2bandit_a.png","68","68","test","","","","3","",""
"null","152183","pSARL_v2","pSARL_v2t0ds7sqk","600dcdff34fef66077146d8e","fixation","img/fixation.png","null","","test","","","","","",""
"527.6999999880791","152721","pSARL_v2","pSARL_v2t0ds7sqk","600dcdff34fef66077146d8e","freq","img/green_2bandit_a2.png","70","70","test","1","52","52","3","",""
"null","153011","pSARL_v2","pSARL_v2t0ds7sqk","600dcdff34fef66077146d8e","freq_resp","img/green_2bandit_a.png","70","70","test","","","","3","",""
"null","153176","pSARL_v2","pSARL_v2t0ds7sqk","600dcdff34fef66077146d8e","fixation","img/fixation.png","null","","test","","","","","",""
"349.5","153533","pSARL_v2","pSARL_v2t0ds7sqk","600dcdff34fef66077146d8e","freq","img/green_2bandit_a2.png","70","70","test","1","53","53","3","",""
"null","154010","pSARL_v2","pSARL_v2t0ds7sqk","600dcdff34fef66077146d8e","freq_resp","img/green_2bandit_a.png","70","70","test","","","","3","",""
"null","154177","pSARL_v2","pSARL_v2t0ds7sqk","600dcdff34fef66077146d8e","fixation","img/fixation.png","null","","test","","","","","",""
"349.2999999523163","154534","pSARL_v2","pSARL_v2t0ds7sqk","600dcdff34fef66077146d8e","freq","img/green_2bandit_a2.png","70","70","test","1","54","54","3","",""
"null","155003","pSARL_v2","pSARL_v2t0ds7sqk","600dcdff34fef66077146d8e","freq_resp","img/green_2bandit_a.png","70","70","test","","","","3","",""
"null","155175","pSARL_v2","pSARL_v2t0ds7sqk","600dcdff34fef66077146d8e","fixation","img/fixation.png","null","","test","","","","","",""
"208","155391","pSARL_v2","pSARL_v2t0ds7sqk","600dcdff34fef66077146d8e","freq","img/green_2bandit_a2.png","70","70","test","1","55","55","3","",""
"null","155991","pSARL_v2","pSARL_v2t0ds7sqk","600dcdff34fef66077146d8e","freq_resp","img/green_2bandit_a.png","70","70","test","","","","3","",""
"null","156151","pSARL_v2","pSARL_v2t0ds7sqk","600dcdff34fef66077146d8e","fixation","img/fixation.png","null","","test","","","","","",""
"247.39999997615814","156405","pSARL_v2","pSARL_v2t0ds7sqk","600dcdff34fef66077146d8e","freq","img/green_2bandit_a2.png","70","70","test","1","56","56","3","",""
"null","156970","pSARL_v2","pSARL_v2t0ds7sqk","600dcdff34fef66077146d8e","freq_resp","img/green_2bandit_a.png","70","70","test","","","","3","",""
"null","157148","pSARL_v2","pSARL_v2t0ds7sqk","600dcdff34fef66077146d8e","fixation","img/fixation.png","null","","test","","","","","",""
"298.5999999642372","157454","pSARL_v2","pSARL_v2t0ds7sqk","600dcdff34fef66077146d8e","freq","img/green_2bandit_a2.png","70","70","test","1","57","57","3","",""
"null","157976","pSARL_v2","pSARL_v2t0ds7sqk","600dcdff34fef66077146d8e","freq_resp","img/green_2bandit_a.png","70","70","test","","","","3","",""
"null","158146","pSARL_v2","pSARL_v2t0ds7sqk","600dcdff34fef66077146d8e","fixation","img/fixation.png","null","","test","","","","","",""
"235.89999997615814","158389","pSARL_v2","pSARL_v2t0ds7sqk","600dcdff34fef66077146d8e","freq","img/green_2bandit_a2.png","70","70","test","1","58","58","3","",""
"null","158963","pSARL_v2","pSARL_v2t0ds7sqk","600dcdff34fef66077146d8e","freq_resp","img/green_2bandit_a.png","70","70","test","","","","3","",""
"null","159122","pSARL_v2","pSARL_v2t0ds7sqk","600dcdff34fef66077146d8e","fixation","img/fixation.png","null","","test","","","","","",""
"132.30000001192093","159261","pSARL_v2","pSARL_v2t0ds7sqk","600dcdff34fef66077146d8e","freq","img/green_2bandit_a2.png","70","70","test","1","59","59","3","",""
"null","159936","pSARL_v2","pSARL_v2t0ds7sqk","600dcdff34fef66077146d8e","freq_resp","img/green_2bandit_a.png","70","70","test","","","","3","",""
"null","160094","pSARL_v2","pSARL_v2t0ds7sqk","600dcdff34fef66077146d8e","fixation","img/fixation.png","null","","test","","","","","",""
"320.19999998807907","160421","pSARL_v2","pSARL_v2t0ds7sqk","600dcdff34fef66077146d8e","freq","img/green_2bandit_a2.png","70","70","test","1","60","60","3","",""
"null","160915","pSARL_v2","pSARL_v2t0ds7sqk","600dcdff34fef66077146d8e","freq_resp","img/green_2bandit_a.png","70","70","test","","","","3","",""
"null","161072","pSARL_v2","pSARL_v2t0ds7sqk","600dcdff34fef66077146d8e","fixation","img/fixation.png","null","","test","","","","","",""
"182.19999998807907","161261","pSARL_v2","pSARL_v2t0ds7sqk","600dcdff34fef66077146d8e","infreq","img/orange_2bandit_a2.png","70","68","test","0","61","61","3","",""
"null","161893","pSARL_v2","pSARL_v2t0ds7sqk","600dcdff34fef66077146d8e","infreq_resp","img/orange_2bandit_a.png","70","68","test","","","","3","",""
"null","162070","pSARL_v2","pSARL_v2t0ds7sqk","600dcdff34fef66077146d8e","fixation","img/fixation.png","null","","test","","","","","",""
"496.7999999523163","162579","pSARL_v2","pSARL_v2t0ds7sqk","600dcdff34fef66077146d8e","freq","img/green_2bandit_a2.png","70","70","test","1","62","62","3","",""
"null","162900","pSARL_v2","pSARL_v2t0ds7sqk","600dcdff34fef66077146d8e","freq_resp","img/green_2bandit_a.png","70","70","test","","","","3","",""
"null","163072","pSARL_v2","pSARL_v2t0ds7sqk","600dcdff34fef66077146d8e","fixation","img/fixation.png","null","","test","","","","","",""
"350","163429","pSARL_v2","pSARL_v2t0ds7sqk","600dcdff34fef66077146d8e","freq","img/green_2bandit_a2.png","70","70","test","1","63","63","3","",""
"null","163898","pSARL_v2","pSARL_v2t0ds7sqk","600dcdff34fef66077146d8e","freq_resp","img/green_2bandit_a.png","70","70","test","","","","3","",""
"null","164070","pSARL_v2","pSARL_v2t0ds7sqk","600dcdff34fef66077146d8e","fixation","img/fixation.png","null","","test","","","","","",""
"423.19999998807907","164501","pSARL_v2","pSARL_v2t0ds7sqk","600dcdff34fef66077146d8e","freq","img/green_2bandit_a2.png","70","70","test","1","64","64","3","",""
"null","164886","pSARL_v2","pSARL_v2t0ds7sqk","600dcdff34fef66077146d8e","freq_resp","img/green_2bandit_a.png","70","70","test","","","","3","",""
"null","165043","pSARL_v2","pSARL_v2t0ds7sqk","600dcdff34fef66077146d8e","fixation","img/fixation.png","null","","test","","","","","",""
"267.30000001192093","165317","pSARL_v2","pSARL_v2t0ds7sqk","600dcdff34fef66077146d8e","freq","img/green_2bandit_a2.png","70","70","test","1","65","65","3","",""
"null","165871","pSARL_v2","pSARL_v2t0ds7sqk","600dcdff34fef66077146d8e","freq_resp","img/green_2bandit_a.png","70","70","test","","","","3","",""
"null","166036","pSARL_v2","pSARL_v2t0ds7sqk","600dcdff34fef66077146d8e","fixation","img/fixation.png","null","","test","","","","","",""
"258.4000000357628","166302","pSARL_v2","pSARL_v2t0ds7sqk","600dcdff34fef66077146d8e","freq","img/green_2bandit_a2.png","70","70","test","1","66","66","3","",""
"null","166861","pSARL_v2","pSARL_v2t0ds7sqk","600dcdff34fef66077146d8e","freq_resp","img/green_2bandit_a.png","70","70","test","","","","3","",""
"null","167027","pSARL_v2","pSARL_v2t0ds7sqk","600dcdff34fef66077146d8e","fixation","img/fixation.png","null","","test","","","","","",""
"419.0999999642372","167453","pSARL_v2","pSARL_v2t0ds7sqk","600dcdff34fef66077146d8e","reward","img/slot.png","74","","test","","","","","",""
"null","168213","pSARL_v2","pSARL_v2t0ds7sqk","600dcdff34fef66077146d8e","points","<div class=""verylowPoints""> -7 </div>","null","na","test","","","","3","-7","2"
"537.4000000357628","168763","pSARL_v2","pSARL_v2t0ds7sqk","600dcdff34fef66077146d8e","freq","img/green_2bandit_a2.png","70","70","test","1","67","67","4","",""
"null","169037","pSARL_v2","pSARL_v2t0ds7sqk","600dcdff34fef66077146d8e","freq_resp","img/green_2bandit_a.png","70","70","test","","","","4","",""
"null","169214","pSARL_v2","pSARL_v2t0ds7sqk","600dcdff34fef66077146d8e","fixation","img/fixation.png","null","","test","","","","","",""
"288.19999998807907","169509","pSARL_v2","pSARL_v2t0ds7sqk","600dcdff34fef66077146d8e","freq","img/green_2bandit_a2.png","70","70","test","1","68","68","4","",""
"null","170029","pSARL_v2","pSARL_v2t0ds7sqk","600dcdff34fef66077146d8e","freq_resp","img/green_2bandit_a.png","70","70","test","","","","4","",""
"null","170200","pSARL_v2","pSARL_v2t0ds7sqk","600dcdff34fef66077146d8e","fixation","img/fixation.png","null","","test","","","","","",""
"294.19999998807907","170501","pSARL_v2","pSARL_v2t0ds7sqk","600dcdff34fef66077146d8e","freq","img/green_2bandit_a2.png","70","70","test","1","69","69","4","",""
"null","171023","pSARL_v2","pSARL_v2t0ds7sqk","600dcdff34fef66077146d8e","freq_resp","img/green_2bandit_a.png","70","70","test","","","","4","",""
"null","171195","pSARL_v2","pSARL_v2t0ds7sqk","600dcdff34fef66077146d8e","fixation","img/fixation.png","null","","test","","","","","",""
"339.0999999642372","171542","pSARL_v2","pSARL_v2t0ds7sqk","600dcdff34fef66077146d8e","freq","img/green_2bandit_a2.png","70","70","test","1","70","70","4","",""
"null","172015","pSARL_v2","pSARL_v2t0ds7sqk","600dcdff34fef66077146d8e","freq_resp","img/green_2bandit_a.png","70","70","test","","","","4","",""
"null","172174","pSARL_v2","pSARL_v2t0ds7sqk","600dcdff34fef66077146d8e","fixation","img/fixation.png","null","","test","","","","","",""
"288.60000002384186","172471","pSARL_v2","pSARL_v2t0ds7sqk","600dcdff34fef66077146d8e","freq","img/green_2bandit_a2.png","70","70","test","1","71","71","4","",""
"null","173011","pSARL_v2","pSARL_v2t0ds7sqk","600dcdff34fef66077146d8e","freq_resp","img/green_2bandit_a.png","70","70","test","","","","4","",""
"null","173182","pSARL_v2","pSARL_v2t0ds7sqk","600dcdff34fef66077146d8e","fixation","img/fixation.png","null","","test","","","","","",""
"328.5","173517","pSARL_v2","pSARL_v2t0ds7sqk","600dcdff34fef66077146d8e","freq","img/green_2bandit_a2.png","70","70","test","1","72","72","4","",""
"null","174005","pSARL_v2","pSARL_v2t0ds7sqk","600dcdff34fef66077146d8e","freq_resp","img/green_2bandit_a.png","70","70","test","","","","4","",""
"null","174163","pSARL_v2","pSARL_v2t0ds7sqk","600dcdff34fef66077146d8e","fixation","img/fixation.png","null","","test","","","","","",""
"323.10000002384186","174497","pSARL_v2","pSARL_v2t0ds7sqk","600dcdff34fef66077146d8e","freq","img/green_2bandit_a2.png","70","70","test","1","73","73","4","",""
"null","174986","pSARL_v2","pSARL_v2t0ds7sqk","600dcdff34fef66077146d8e","freq_resp","img/green_2bandit_a.png","70","70","test","","","","4","",""
"null","175145","pSARL_v2","pSARL_v2t0ds7sqk","600dcdff34fef66077146d8e","fixation","img/fixation.png","null","","test","","","","","",""
"340.5","175492","pSARL_v2","pSARL_v2t0ds7sqk","600dcdff34fef66077146d8e","freq","img/green_2bandit_a2.png","70","70","test","1","74","74","4","",""
"null","175970","pSARL_v2","pSARL_v2t0ds7sqk","600dcdff34fef66077146d8e","freq_resp","img/green_2bandit_a.png","70","70","test","","","","4","",""
"null","176141","pSARL_v2","pSARL_v2t0ds7sqk","600dcdff34fef66077146d8e","fixation","img/fixation.png","null","","test","","","","","",""
"249.19999998807907","176397","pSARL_v2","pSARL_v2t0ds7sqk","600dcdff34fef66077146d8e","freq","img/green_2bandit_a2.png","70","70","test","1","75","75","4","",""
"null","176964","pSARL_v2","pSARL_v2t0ds7sqk","600dcdff34fef66077146d8e","freq_resp","img/green_2bandit_a.png","70","70","test","","","","4","",""
"null","177122","pSARL_v2","pSARL_v2t0ds7sqk","600dcdff34fef66077146d8e","fixation","img/fixation.png","null","","test","","","","","",""
"324.2999999523163","177458","pSARL_v2","pSARL_v2t0ds7sqk","600dcdff34fef66077146d8e","infreq","img/orange_2bandit_a2.png","70","68","test","0","76","76","4","",""
"null","177952","pSARL_v2","pSARL_v2t0ds7sqk","600dcdff34fef66077146d8e","infreq_resp","img/orange_2bandit_a.png","70","68","test","","","","4","",""
"null","178119","pSARL_v2","pSARL_v2t0ds7sqk","600dcdff34fef66077146d8e","fixation","img/fixation.png","null","","test","","","","","",""
"431.2999999523163","178557","pSARL_v2","pSARL_v2t0ds7sqk","600dcdff34fef66077146d8e","freq","img/green_2bandit_a2.png","70","70","test","1","77","77","4","",""
"null","178944","pSARL_v2","pSARL_v2t0ds7sqk","600dcdff34fef66077146d8e","freq_resp","img/green_2bandit_a.png","70","70","test","","","","4","",""
"null","179103","pSARL_v2","pSARL_v2t0ds7sqk","600dcdff34fef66077146d8e","fixation","img/fixation.png","null","","test","","","","","",""
"455.19999998807907","179565","pSARL_v2","pSARL_v2t0ds7sqk","600dcdff34fef66077146d8e","infreq","img/orange_2bandit_a2.png","68","68","test","1","78","78","4","",""
"null","179918","pSARL_v2","pSARL_v2t0ds7sqk","600dcdff34fef66077146d8e","infreq_resp","img/orange_2bandit_a.png","68","68","test","","","","4","",""
"null","180089","pSARL_v2","pSARL_v2t0ds7sqk","600dcdff34fef66077146d8e","fixation","img/fixation.png","null","","test","","","","","",""
"621.5","180717","pSARL_v2","pSARL_v2t0ds7sqk","600dcdff34fef66077146d8e","freq","img/green_2bandit_a2.png","70","70","test","1","79","79","4","",""
"null","180908","pSARL_v2","pSARL_v2t0ds7sqk","600dcdff34fef66077146d8e","freq_resp","img/green_2bandit_a.png","70","70","test","","","","4","",""
"null","181078","pSARL_v2","pSARL_v2t0ds7sqk","600dcdff34fef66077146d8e","fixation","img/fixation.png","null","","test","","","","","",""
"377.19999998807907","181462","pSARL_v2","pSARL_v2t0ds7sqk","600dcdff34fef66077146d8e","freq","img/green_2bandit_a2.png","70","70","test","1","80","80","4","",""
"null","181896","pSARL_v2","pSARL_v2t0ds7sqk","600dcdff34fef66077146d8e","freq_resp","img/green_2bandit_a.png","70","70","test","","","","4","",""
"null","182055","pSARL_v2","pSARL_v2t0ds7sqk","600dcdff34fef66077146d8e","fixation","img/fixation.png","null","","test","","","","","",""
"360.4000000357628","182422","pSARL_v2","pSARL_v2t0ds7sqk","600dcdff34fef66077146d8e","freq","img/green_2bandit_a2.png","70","70","test","1","81","81","4","",""
"null","182876","pSARL_v2","pSARL_v2t0ds7sqk","600dcdff34fef66077146d8e","freq_resp","img/green_2bandit_a.png","70","70","test","","","","4","",""
"null","183034","pSARL_v2","pSARL_v2t0ds7sqk","600dcdff34fef66077146d8e","fixation","img/fixation.png","null","","test","","","","","",""
"397.5","183439","pSARL_v2","pSARL_v2t0ds7sqk","600dcdff34fef66077146d8e","freq","img/green_2bandit_a2.png","70","70","test","1","82","82","4","",""
"null","183858","pSARL_v2","pSARL_v2t0ds7sqk","600dcdff34fef66077146d8e","freq_resp","img/green_2bandit_a.png","70","70","test","","","","4","",""
"null","184030","pSARL_v2","pSARL_v2t0ds7sqk","600dcdff34fef66077146d8e","fixation","img/fixation.png","null","","test","","","","","",""
"345.4000000357628","184382","pSARL_v2","pSARL_v2t0ds7sqk","600dcdff34fef66077146d8e","freq","img/green_2bandit_a2.png","70","70","test","1","83","83","4","",""
"null","184848","pSARL_v2","pSARL_v2t0ds7sqk","600dcdff34fef66077146d8e","freq_resp","img/green_2bandit_a.png","70","70","test","","","","4","",""
"null","185019","pSARL_v2","pSARL_v2t0ds7sqk","600dcdff34fef66077146d8e","fixation","img/fixation.png","null","","test","","","","","",""
"332","185358","pSARL_v2","pSARL_v2t0ds7sqk","600dcdff34fef66077146d8e","freq","img/green_2bandit_a2.png","70","70","test","1","84","84","4","",""
"null","185847","pSARL_v2","pSARL_v2t0ds7sqk","600dcdff34fef66077146d8e","freq_resp","img/green_2bandit_a.png","70","70","test","","","","4","",""
"null","186019","pSARL_v2","pSARL_v2t0ds7sqk","600dcdff34fef66077146d8e","fixation","img/fixation.png","null","","test","","","","","",""
"379","186405","pSARL_v2","pSARL_v2t0ds7sqk","600dcdff34fef66077146d8e","freq","img/green_2bandit_a2.png","70","70","test","1","85","85","4","",""
"null","186843","pSARL_v2","pSARL_v2t0ds7sqk","600dcdff34fef66077146d8e","freq_resp","img/green_2bandit_a.png","70","70","test","","","","4","",""
"null","187001","pSARL_v2","pSARL_v2t0ds7sqk","600dcdff34fef66077146d8e","fixation","img/fixation.png","null","","test","","","","","",""
"366.10000002384186","187374","pSARL_v2","pSARL_v2t0ds7sqk","600dcdff34fef66077146d8e","freq","img/green_2bandit_a2.png","70","70","test","1","86","86","4","",""
"null","187819","pSARL_v2","pSARL_v2t0ds7sqk","600dcdff34fef66077146d8e","freq_resp","img/green_2bandit_a.png","70","70","test","","","","4","",""
"null","187991","pSARL_v2","pSARL_v2t0ds7sqk","600dcdff34fef66077146d8e","fixation","img/fixation.png","null","","test","","","","","",""
"496.10000002384186","188494","pSARL_v2","pSARL_v2t0ds7sqk","600dcdff34fef66077146d8e","infreq","img/orange_2bandit_a2.png","68","68","test","1","87","87","4","",""
"null","188808","pSARL_v2","pSARL_v2t0ds7sqk","600dcdff34fef66077146d8e","infreq_resp","img/orange_2bandit_a.png","68","68","test","","","","4","",""
"null","188986","pSARL_v2","pSARL_v2t0ds7sqk","600dcdff34fef66077146d8e","fixation","img/fixation.png","null","","test","","","","","",""
"421.5","189414","pSARL_v2","pSARL_v2t0ds7sqk","600dcdff34fef66077146d8e","freq","img/green_2bandit_a2.png","70","70","test","1","88","88","4","",""
"null","189803","pSARL_v2","pSARL_v2t0ds7sqk","600dcdff34fef66077146d8e","freq_resp","img/green_2bandit_a.png","70","70","test","","","","4","",""
"null","189974","pSARL_v2","pSARL_v2t0ds7sqk","600dcdff34fef66077146d8e","fixation","img/fixation.png","null","","test","","","","","",""
"329.69999998807907","190316","pSARL_v2","pSARL_v2t0ds7sqk","600dcdff34fef66077146d8e","freq","img/green_2bandit_a2.png","70","70","test","1","89","89","4","",""
"null","190813","pSARL_v2","pSARL_v2t0ds7sqk","600dcdff34fef66077146d8e","freq_resp","img/green_2bandit_a.png","70","70","test","","","","4","",""
"null","190980","pSARL_v2","pSARL_v2t0ds7sqk","600dcdff34fef66077146d8e","fixation","img/fixation.png","null","","test","","","","","",""
"547.7000000476837","191540","pSARL_v2","pSARL_v2t0ds7sqk","600dcdff34fef66077146d8e","reward","img/slot.png","74","","test","","","","","",""
"null","192302","pSARL_v2","pSARL_v2t0ds7sqk","600dcdff34fef66077146d8e","points","<div class=""verylowPoints""> -3 </div>","null","na","test","","","","4","-3","3"
"729.3000000119209","193038","pSARL_v2","pSARL_v2t0ds7sqk","600dcdff34fef66077146d8e","freq","img/green_2bandit_a2.png","70","70","test","1","90","90","5","",""
"null","193127","pSARL_v2","pSARL_v2t0ds7sqk","600dcdff34fef66077146d8e","freq_resp","img/green_2bandit_a.png","70","70","test","","","","5","",""
"null","193294","pSARL_v2","pSARL_v2t0ds7sqk","600dcdff34fef66077146d8e","fixation","img/fixation.png","null","","test","","","","","",""
"441.39999997615814","193742","pSARL_v2","pSARL_v2t0ds7sqk","600dcdff34fef66077146d8e","freq","img/green_2bandit_a2.png","70","70","test","1","91","91","5","",""
"null","194119","pSARL_v2","pSARL_v2t0ds7sqk","600dcdff34fef66077146d8e","freq_resp","img/green_2bandit_a.png","70","70","test","","","","5","",""
"null","194293","pSARL_v2","pSARL_v2t0ds7sqk","600dcdff34fef66077146d8e","fixation","img/fixation.png","null","","test","","","","","",""
"290.19999998807907","194596","pSARL_v2","pSARL_v2t0ds7sqk","600dcdff34fef66077146d8e","freq","img/green_2bandit_a2.png","70","70","test","1","92","92","5","",""
"null","195122","pSARL_v2","pSARL_v2t0ds7sqk","600dcdff34fef66077146d8e","freq_resp","img/green_2bandit_a.png","70","70","test","","","","5","",""
"null","195284","pSARL_v2","pSARL_v2t0ds7sqk","600dcdff34fef66077146d8e","fixation","img/fixation.png","null","","test","","","","","",""
"179.5999999642372","195470","pSARL_v2","pSARL_v2t0ds7sqk","600dcdff34fef66077146d8e","freq","img/green_2bandit_a2.png","70","70","test","1","93","93","5","",""
"null","196102","pSARL_v2","pSARL_v2t0ds7sqk","600dcdff34fef66077146d8e","freq_resp","img/green_2bandit_a.png","70","70","test","","","","5","",""
"null","196261","pSARL_v2","pSARL_v2t0ds7sqk","600dcdff34fef66077146d8e","fixation","img/fixation.png","null","","test","","","","","",""
"409.30000001192093","196678","pSARL_v2","pSARL_v2t0ds7sqk","600dcdff34fef66077146d8e","freq","img/green_2bandit_a2.png","70","70","test","1","94","94","5","",""
"null","197091","pSARL_v2","pSARL_v2t0ds7sqk","600dcdff34fef66077146d8e","freq_resp","img/green_2bandit_a.png","70","70","test","","","","5","",""
"null","197262","pSARL_v2","pSARL_v2t0ds7sqk","600dcdff34fef66077146d8e","fixation","img/fixation.png","null","","test","","","","","",""
"225.5999999642372","197494","pSARL_v2","pSARL_v2t0ds7sqk","600dcdff34fef66077146d8e","freq","img/green_2bandit_a2.png","70","70","test","1","95","95","5","",""
"null","198080","pSARL_v2","pSARL_v2t0ds7sqk","600dcdff34fef66077146d8e","freq_resp","img/green_2bandit_a.png","70","70","test","","","","5","",""
"null","198258","pSARL_v2","pSARL_v2t0ds7sqk","600dcdff34fef66077146d8e","fixation","img/fixation.png","null","","test","","","","","",""
"525.5","198790","pSARL_v2","pSARL_v2t0ds7sqk","600dcdff34fef66077146d8e","freq","img/green_2bandit_a2.png","70","70","test","1","96","96","5","",""
"null","199075","pSARL_v2","pSARL_v2t0ds7sqk","600dcdff34fef66077146d8e","freq_resp","img/green_2bandit_a.png","70","70","test","","","","5","",""
"null","199250","pSARL_v2","pSARL_v2t0ds7sqk","600dcdff34fef66077146d8e","fixation","img/fixation.png","null","","test","","","","","",""
"421.60000002384186","199678","pSARL_v2","pSARL_v2t0ds7sqk","600dcdff34fef66077146d8e","freq","img/green_2bandit_a2.png","70","70","test","1","97","97","5","",""
"null","200069","pSARL_v2","pSARL_v2t0ds7sqk","600dcdff34fef66077146d8e","freq_resp","img/green_2bandit_a.png","70","70","test","","","","5","",""
"null","200244","pSARL_v2","pSARL_v2t0ds7sqk","600dcdff34fef66077146d8e","fixation","img/fixation.png","null","","test","","","","","",""
"245.20000004768372","200497","pSARL_v2","pSARL_v2t0ds7sqk","600dcdff34fef66077146d8e","freq","img/green_2bandit_a2.png","70","70","test","1","98","98","5","",""
"null","201058","pSARL_v2","pSARL_v2t0ds7sqk","600dcdff34fef66077146d8e","freq_resp","img/green_2bandit_a.png","70","70","test","","","","5","",""
"null","201215","pSARL_v2","pSARL_v2t0ds7sqk","600dcdff34fef66077146d8e","fixation","img/fixation.png","null","","test","","","","","",""
"320","201542","pSARL_v2","pSARL_v2t0ds7sqk","600dcdff34fef66077146d8e","freq","img/green_2bandit_a2.png","70","70","test","1","99","99","5","",""
"null","202032","pSARL_v2","pSARL_v2t0ds7sqk","600dcdff34fef66077146d8e","freq_resp","img/green_2bandit_a.png","70","70","test","","","","5","",""
"null","202204","pSARL_v2","pSARL_v2t0ds7sqk","600dcdff34fef66077146d8e","fixation","img/fixation.png","null","","test","","","","","",""
"227.29999995231628","202438","pSARL_v2","pSARL_v2t0ds7sqk","600dcdff34fef66077146d8e","freq","img/green_2bandit_a2.png","70","70","test","1","100","100","5","",""
"null","203030","pSARL_v2","pSARL_v2t0ds7sqk","600dcdff34fef66077146d8e","freq_resp","img/green_2bandit_a.png","70","70","test","","","","5","",""
"null","203202","pSARL_v2","pSARL_v2t0ds7sqk","600dcdff34fef66077146d8e","fixation","img/fixation.png","null","","test","","","","","",""
"214.30000001192093","203424","pSARL_v2","pSARL_v2t0ds7sqk","600dcdff34fef66077146d8e","freq","img/green_2bandit_a2.png","70","70","test","1","101","101","5","",""
"null","204019","pSARL_v2","pSARL_v2t0ds7sqk","600dcdff34fef66077146d8e","freq_resp","img/green_2bandit_a.png","70","70","test","","","","5","",""
"null","204190","pSARL_v2","pSARL_v2t0ds7sqk","600dcdff34fef66077146d8e","fixation","img/fixation.png","null","","test","","","","","",""
"449.0999999642372","204646","pSARL_v2","pSARL_v2t0ds7sqk","600dcdff34fef66077146d8e","infreq","img/orange_2bandit_a2.png","68","68","test","1","102","102","5","",""
"null","205018","pSARL_v2","pSARL_v2t0ds7sqk","600dcdff34fef66077146d8e","infreq_resp","img/orange_2bandit_a.png","68","68","test","","","","5","",""
"null","205187","pSARL_v2","pSARL_v2t0ds7sqk","600dcdff34fef66077146d8e","fixation","img/fixation.png","null","","test","","","","","",""
"396.2999999523163","205592","pSARL_v2","pSARL_v2t0ds7sqk","600dcdff34fef66077146d8e","freq","img/green_2bandit_a2.png","70","70","test","1","103","103","5","",""
"null","206011","pSARL_v2","pSARL_v2t0ds7sqk","600dcdff34fef66077146d8e","freq_resp","img/green_2bandit_a.png","70","70","test","","","","5","",""
"null","206175","pSARL_v2","pSARL_v2t0ds7sqk","600dcdff34fef66077146d8e","fixation","img/fixation.png","null","","test","","","","","",""
"201.39999997615814","206383","pSARL_v2","pSARL_v2t0ds7sqk","600dcdff34fef66077146d8e","freq","img/green_2bandit_a2.png","70","70","test","1","104","104","5","",""
"null","206991","pSARL_v2","pSARL_v2t0ds7sqk","600dcdff34fef66077146d8e","freq_resp","img/green_2bandit_a.png","70","70","test","","","","5","",""
"null","207151","pSARL_v2","pSARL_v2t0ds7sqk","600dcdff34fef66077146d8e","fixation","img/fixation.png","null","","test","","","","","",""
"271","207430","pSARL_v2","pSARL_v2t0ds7sqk","600dcdff34fef66077146d8e","freq","img/green_2bandit_a2.png","70","70","test","1","105","105","5","",""
"null","207970","pSARL_v2","pSARL_v2t0ds7sqk","600dcdff34fef66077146d8e","freq_resp","img/green_2bandit_a.png","70","70","test","","","","5","",""
"null","208141","pSARL_v2","pSARL_v2t0ds7sqk","600dcdff34fef66077146d8e","fixation","img/fixation.png","null","","test","","","","","",""
"266.10000002384186","208414","pSARL_v2","pSARL_v2t0ds7sqk","600dcdff34fef66077146d8e","freq","img/green_2bandit_a2.png","70","70","test","1","106","106","5","",""
"null","208971","pSARL_v2","pSARL_v2t0ds7sqk","600dcdff34fef66077146d8e","freq_resp","img/green_2bandit_a.png","70","70","test","","","","5","",""
"null","209138","pSARL_v2","pSARL_v2t0ds7sqk","600dcdff34fef66077146d8e","fixation","img/fixation.png","null","","test","","","","","",""
"237.19999998807907","209384","pSARL_v2","pSARL_v2t0ds7sqk","600dcdff34fef66077146d8e","freq","img/green_2bandit_a2.png","70","70","test","1","107","107","5","",""
"null","209960","pSARL_v2","pSARL_v2t0ds7sqk","600dcdff34fef66077146d8e","freq_resp","img/green_2bandit_a.png","70","70","test","","","","5","",""
"null","210138","pSARL_v2","pSARL_v2t0ds7sqk","600dcdff34fef66077146d8e","fixation","img/fixation.png","null","","test","","","","","",""
"198.10000002384186","210342","pSARL_v2","pSARL_v2t0ds7sqk","600dcdff34fef66077146d8e","freq","img/green_2bandit_a2.png","70","70","test","1","108","108","5","",""
"null","210953","pSARL_v2","pSARL_v2t0ds7sqk","600dcdff34fef66077146d8e","freq_resp","img/green_2bandit_a.png","70","70","test","","","","5","",""
"null","211125","pSARL_v2","pSARL_v2t0ds7sqk","600dcdff34fef66077146d8e","fixation","img/fixation.png","null","","test","","","","","",""
"186.29999995231628","211318","pSARL_v2","pSARL_v2t0ds7sqk","600dcdff34fef66077146d8e","freq","img/green_2bandit_a2.png","70","70","test","1","109","109","5","",""
"null","211940","pSARL_v2","pSARL_v2t0ds7sqk","600dcdff34fef66077146d8e","freq_resp","img/green_2bandit_a.png","70","70","test","","","","5","",""
"null","212099","pSARL_v2","pSARL_v2t0ds7sqk","600dcdff34fef66077146d8e","fixation","img/fixation.png","null","","test","","","","","",""
"228.79999995231628","212334","pSARL_v2","pSARL_v2t0ds7sqk","600dcdff34fef66077146d8e","freq","img/green_2bandit_a2.png","70","70","test","1","110","110","5","",""
"null","212918","pSARL_v2","pSARL_v2t0ds7sqk","600dcdff34fef66077146d8e","freq_resp","img/green_2bandit_a.png","70","70","test","","","","5","",""
"null","213091","pSARL_v2","pSARL_v2t0ds7sqk","600dcdff34fef66077146d8e","fixation","img/fixation.png","null","","test","","","","","",""
"236.69999998807907","213334","pSARL_v2","pSARL_v2t0ds7sqk","600dcdff34fef66077146d8e","freq","img/green_2bandit_a2.png","70","70","test","1","111","111","5","",""
"null","213909","pSARL_v2","pSARL_v2t0ds7sqk","600dcdff34fef66077146d8e","freq_resp","img/green_2bandit_a.png","70","70","test","","","","5","",""
"null","214066","pSARL_v2","pSARL_v2t0ds7sqk","600dcdff34fef66077146d8e","fixation","img/fixation.png","null","","test","","","","","",""
"164.69999998807907","214238","pSARL_v2","pSARL_v2t0ds7sqk","600dcdff34fef66077146d8e","freq","img/green_2bandit_a2.png","70","70","test","1","112","112","5","",""
"null","214892","pSARL_v2","pSARL_v2t0ds7sqk","600dcdff34fef66077146d8e","freq_resp","img/green_2bandit_a.png","70","70","test","","","","5","",""
"null","215051","pSARL_v2","pSARL_v2t0ds7sqk","600dcdff34fef66077146d8e","fixation","img/fixation.png","null","","test","","","","","",""
"68.90000003576279","215126","pSARL_v2","pSARL_v2t0ds7sqk","600dcdff34fef66077146d8e","infreq","img/orange_2bandit_a2.png","70","68","test","0","113","113","5","",""
"null","215872","pSARL_v2","pSARL_v2t0ds7sqk","600dcdff34fef66077146d8e","infreq_resp","img/orange_2bandit_a.png","70","68","test","","","","5","",""
"null","216049","pSARL_v2","pSARL_v2t0ds7sqk","600dcdff34fef66077146d8e","fixation","img/fixation.png","null","","test","","","","","",""
"494.2999999523163","216550","pSARL_v2","pSARL_v2t0ds7sqk","600dcdff34fef66077146d8e","freq","img/green_2bandit_a2.png","70","70","test","1","114","114","5","",""
"null","216863","pSARL_v2","pSARL_v2t0ds7sqk","600dcdff34fef66077146d8e","freq_resp","img/green_2bandit_a.png","70","70","test","","","","5","",""
"null","217033","pSARL_v2","pSARL_v2t0ds7sqk","600dcdff34fef66077146d8e","fixation","img/fixation.png","null","","test","","","","","",""
"549.5","217589","pSARL_v2","pSARL_v2t0ds7sqk","600dcdff34fef66077146d8e","reward","img/slot.png","74","","test","","","","","",""
"null","218350","pSARL_v2","pSARL_v2t0ds7sqk","600dcdff34fef66077146d8e","points","<div class=""veryhighPoints""> +1 </div>","null","na","test","","","","5","1","4"
"432.89999997615814","218795","pSARL_v2","pSARL_v2t0ds7sqk","600dcdff34fef66077146d8e","freq","img/green_2bandit_a2.png","70","70","test","1","115","115","6","",""
"null","219176","pSARL_v2","pSARL_v2t0ds7sqk","600dcdff34fef66077146d8e","freq_resp","img/green_2bandit_a.png","70","70","test","","","","6","",""
"null","219352","pSARL_v2","pSARL_v2t0ds7sqk","600dcdff34fef66077146d8e","fixation","img/fixation.png","null","","test","","","","","",""
"215.19999998807907","219574","pSARL_v2","pSARL_v2t0ds7sqk","600dcdff34fef66077146d8e","infreq","img/orange_2bandit_a2.png","70","68","test","0","116","116","6","",""
"null","220169","pSARL_v2","pSARL_v2t0ds7sqk","600dcdff34fef66077146d8e","infreq_resp","img/orange_2bandit_a.png","70","68","test","","","","6","",""
"null","220327","pSARL_v2","pSARL_v2t0ds7sqk","600dcdff34fef66077146d8e","fixation","img/fixation.png","null","","test","","","","","",""
"352.10000002384186","220686","pSARL_v2","pSARL_v2t0ds7sqk","600dcdff34fef66077146d8e","freq","img/green_2bandit_a2.png","70","70","test","1","117","117","6","",""
"null","221149","pSARL_v2","pSARL_v2t0ds7sqk","600dcdff34fef66077146d8e","freq_resp","img/green_2bandit_a.png","70","70","test","","","","6","",""
"null","221308","pSARL_v2","pSARL_v2t0ds7sqk","600dcdff34fef66077146d8e","fixation","img/fixation.png","null","","test","","","","","",""
"283.5","221598","pSARL_v2","pSARL_v2t0ds7sqk","600dcdff34fef66077146d8e","freq","img/green_2bandit_a2.png","70","70","test","1","118","118","6","",""
"null","222131","pSARL_v2","pSARL_v2t0ds7sqk","600dcdff34fef66077146d8e","freq_resp","img/green_2bandit_a.png","70","70","test","","","","6","",""
"null","222303","pSARL_v2","pSARL_v2t0ds7sqk","600dcdff34fef66077146d8e","fixation","img/fixation.png","null","","test","","","","","",""
"249.5","222561","pSARL_v2","pSARL_v2t0ds7sqk","600dcdff34fef66077146d8e","freq","img/green_2bandit_a2.png","70","70","test","1","119","119","6","",""
"null","223129","pSARL_v2","pSARL_v2t0ds7sqk","600dcdff34fef66077146d8e","freq_resp","img/green_2bandit_a.png","70","70","test","","","","6","",""
"null","223302","pSARL_v2","pSARL_v2t0ds7sqk","600dcdff34fef66077146d8e","fixation","img/fixation.png","null","","test","","","","","",""
"281.69999998807907","223590","pSARL_v2","pSARL_v2t0ds7sqk","600dcdff34fef66077146d8e","freq","img/green_2bandit_a2.png","70","70","test","1","120","120","6","",""
"null","224121","pSARL_v2","pSARL_v2t0ds7sqk","600dcdff34fef66077146d8e","freq_resp","img/green_2bandit_a.png","70","70","test","","","","6","",""
"null","224294","pSARL_v2","pSARL_v2t0ds7sqk","600dcdff34fef66077146d8e","fixation","img/fixation.png","null","","test","","","","","",""
"329.89999997615814","224630","pSARL_v2","pSARL_v2t0ds7sqk","600dcdff34fef66077146d8e","freq","img/green_2bandit_a2.png","70","70","test","1","121","121","6","",""
"null","225109","pSARL_v2","pSARL_v2t0ds7sqk","600dcdff34fef66077146d8e","freq_resp","img/green_2bandit_a.png","70","70","test","","","","6","",""
"null","225267","pSARL_v2","pSARL_v2t0ds7sqk","600dcdff34fef66077146d8e","fixation","img/fixation.png","null","","test","","","","","",""
"340.19999998807907","225620","pSARL_v2","pSARL_v2t0ds7sqk","600dcdff34fef66077146d8e","freq","img/green_2bandit_a2.png","70","70","test","1","122","122","6","",""
"null","226091","pSARL_v2","pSARL_v2t0ds7sqk","600dcdff34fef66077146d8e","freq_resp","img/green_2bandit_a.png","70","70","test","","","","6","",""
"null","226249","pSARL_v2","pSARL_v2t0ds7sqk","600dcdff34fef66077146d8e","fixation","img/fixation.png","null","","test","","","","","",""
"327","226583","pSARL_v2","pSARL_v2t0ds7sqk","600dcdff34fef66077146d8e","freq","img/green_2bandit_a2.png","70","70","test","1","123","123","6","",""
"null","227080","pSARL_v2","pSARL_v2t0ds7sqk","600dcdff34fef66077146d8e","freq_resp","img/green_2bandit_a.png","70","70","test","","","","6","",""
"null","227249","pSARL_v2","pSARL_v2t0ds7sqk","600dcdff34fef66077146d8e","fixation","img/fixation.png","null","","test","","","","","",""
"279.19999998807907","227535","pSARL_v2","pSARL_v2t0ds7sqk","600dcdff34fef66077146d8e","freq","img/green_2bandit_a2.png","70","70","test","1","124","124","6","",""
"null","228064","pSARL_v2","pSARL_v2t0ds7sqk","600dcdff34fef66077146d8e","freq_resp","img/green_2bandit_a.png","70","70","test","","","","6","",""
"null","228233","pSARL_v2","pSARL_v2t0ds7sqk","600dcdff34fef66077146d8e","fixation","img/fixation.png","null","","test","","","","","",""
"324.60000002384186","228566","pSARL_v2","pSARL_v2t0ds7sqk","600dcdff34fef66077146d8e","infreq","img/orange_2bandit_a2.png","70","68","test","0","125","125","6","",""
"null","229056","pSARL_v2","pSARL_v2t0ds7sqk","600dcdff34fef66077146d8e","infreq_resp","img/orange_2bandit_a.png","70","68","test","","","","6","",""
"null","229227","pSARL_v2","pSARL_v2t0ds7sqk","600dcdff34fef66077146d8e","fixation","img/fixation.png","null","","test","","","","","",""
"428.10000002384186","229663","pSARL_v2","pSARL_v2t0ds7sqk","600dcdff34fef66077146d8e","freq","img/green_2bandit_a2.png","70","70","test","1","126","126","6","",""
"null","230045","pSARL_v2","pSARL_v2t0ds7sqk","600dcdff34fef66077146d8e","freq_resp","img/green_2bandit_a.png","70","70","test","","","","6","",""
"null","230217","pSARL_v2","pSARL_v2t0ds7sqk","600dcdff34fef66077146d8e","fixation","img/fixation.png","null","","test","","","","","",""
"238.10000002384186","230462","pSARL_v2","pSARL_v2t0ds7sqk","600dcdff34fef66077146d8e","infreq","img/orange_2bandit_a2.png","70","68","test","0","127","127","6","",""
"null","231035","pSARL_v2","pSARL_v2t0ds7sqk","600dcdff34fef66077146d8e","infreq_resp","img/orange_2bandit_a.png","70","68","test","","","","6","",""
"null","231207","pSARL_v2","pSARL_v2t0ds7sqk","600dcdff34fef66077146d8e","fixation","img/fixation.png","null","","test","","","","","",""
"441.30000001192093","231661","pSARL_v2","pSARL_v2t0ds7sqk","600dcdff34fef66077146d8e","freq","img/green_2bandit_a2.png","70","70","test","1","128","128","6","",""
"null","232031","pSARL_v2","pSARL_v2t0ds7sqk","600dcdff34fef66077146d8e","freq_resp","img/green_2bandit_a.png","70","70","test","","","","6","",""
"null","232189","pSARL_v2","pSARL_v2t0ds7sqk","600dcdff34fef66077146d8e","fixation","img/fixation.png","null","","test","","","","","",""
"378.19999998807907","232574","pSARL_v2","pSARL_v2t0ds7sqk","600dcdff34fef66077146d8e","freq","img/green_2bandit_a2.png","70","70","test","1","129","129","6","",""
"null","233008","pSARL_v2","pSARL_v2t0ds7sqk","600dcdff34fef66077146d8e","freq_resp","img/green_2bandit_a.png","70","70","test","","","","6","",""
"null","233181","pSARL_v2","pSARL_v2t0ds7sqk","600dcdff34fef66077146d8e","fixation","img/fixation.png","null","","test","","","","","",""
"243.89999997615814","233433","pSARL_v2","pSARL_v2t0ds7sqk","600dcdff34fef66077146d8e","freq","img/green_2bandit_a2.png","70","70","test","1","130","130","6","",""
"null","233996","pSARL_v2","pSARL_v2t0ds7sqk","600dcdff34fef66077146d8e","freq_resp","img/green_2bandit_a.png","70","70","test","","","","6","",""
"null","234169","pSARL_v2","pSARL_v2t0ds7sqk","600dcdff34fef66077146d8e","fixation","img/fixation.png","null","","test","","","","","",""
"158.80000001192093","234334","pSARL_v2","pSARL_v2t0ds7sqk","600dcdff34fef66077146d8e","freq","img/green_2bandit_a2.png","70","70","test","1","131","131","6","",""
"null","234986","pSARL_v2","pSARL_v2t0ds7sqk","600dcdff34fef66077146d8e","freq_resp","img/green_2bandit_a.png","70","70","test","","","","6","",""
"null","235146","pSARL_v2","pSARL_v2t0ds7sqk","600dcdff34fef66077146d8e","fixation","img/fixation.png","null","","test","","","","","",""
"165.10000002384186","235320","pSARL_v2","pSARL_v2t0ds7sqk","600dcdff34fef66077146d8e","freq","img/green_2bandit_a2.png","70","70","test","1","132","132","6","",""
"null","235968","pSARL_v2","pSARL_v2t0ds7sqk","600dcdff34fef66077146d8e","freq_resp","img/green_2bandit_a.png","70","70","test","","","","6","",""
"null","236129","pSARL_v2","pSARL_v2t0ds7sqk","600dcdff34fef66077146d8e","fixation","img/fixation.png","null","","test","","","","","",""
"78.80000001192093","236214","pSARL_v2","pSARL_v2t0ds7sqk","600dcdff34fef66077146d8e","freq","img/green_2bandit_a2.png","70","70","test","1","133","133","6","",""
"null","236957","pSARL_v2","pSARL_v2t0ds7sqk","600dcdff34fef66077146d8e","freq_resp","img/green_2bandit_a.png","70","70","test","","","","6","",""
"null","237123","pSARL_v2","pSARL_v2t0ds7sqk","600dcdff34fef66077146d8e","fixation","img/fixation.png","null","","test","","","","","",""
"75.90000003576279","237206","pSARL_v2","pSARL_v2t0ds7sqk","600dcdff34fef66077146d8e","freq","img/green_2bandit_a2.png","70","70","test","1","134","134","6","",""
"null","237948","pSARL_v2","pSARL_v2t0ds7sqk","600dcdff34fef66077146d8e","freq_resp","img/green_2bandit_a.png","70","70","test","","","","6","",""
"null","238119","pSARL_v2","pSARL_v2t0ds7sqk","600dcdff34fef66077146d8e","fixation","img/fixation.png","null","","test","","","","","",""
"96.30000001192093","238223","pSARL_v2","pSARL_v2t0ds7sqk","600dcdff34fef66077146d8e","freq","img/green_2bandit_a2.png","70","70","test","1","135","135","6","",""
"null","238945","pSARL_v2","pSARL_v2t0ds7sqk","600dcdff34fef66077146d8e","freq_resp","img/green_2bandit_a.png","70","70","test","","","","6","",""
"null","239116","pSARL_v2","pSARL_v2t0ds7sqk","600dcdff34fef66077146d8e","fixation","img/fixation.png","null","","test","","","","","",""
"65.80000001192093","239191","pSARL_v2","pSARL_v2t0ds7sqk","600dcdff34fef66077146d8e","freq","img/green_2bandit_a2.png","70","70","test","1","136","136","6","",""
"null","239944","pSARL_v2","pSARL_v2t0ds7sqk","600dcdff34fef66077146d8e","freq_resp","img/green_2bandit_a.png","70","70","test","","","","6","",""
"null","240115","pSARL_v2","pSARL_v2t0ds7sqk","600dcdff34fef66077146d8e","fixation","img/fixation.png","null","","test","","","","","",""
"76.10000002384186","240198","pSARL_v2","pSARL_v2t0ds7sqk","600dcdff34fef66077146d8e","freq","img/green_2bandit_a2.png","70","70","test","1","137","137","6","",""
"null","240936","pSARL_v2","pSARL_v2t0ds7sqk","600dcdff34fef66077146d8e","freq_resp","img/green_2bandit_a.png","70","70","test","","","","6","",""
"null","241094","pSARL_v2","pSARL_v2t0ds7sqk","600dcdff34fef66077146d8e","fixation","img/fixation.png","null","","test","","","","","",""
"89.59999996423721","241190","pSARL_v2","pSARL_v2t0ds7sqk","600dcdff34fef66077146d8e","freq","img/green_2bandit_a2.png","70","70","test","1","138","138","6","",""
"null","241918","pSARL_v2","pSARL_v2t0ds7sqk","600dcdff34fef66077146d8e","freq_resp","img/green_2bandit_a.png","70","70","test","","","","6","",""
"null","242090","pSARL_v2","pSARL_v2t0ds7sqk","600dcdff34fef66077146d8e","fixation","img/fixation.png","null","","test","","","","","",""
"549.3000000119209","242646","pSARL_v2","pSARL_v2t0ds7sqk","600dcdff34fef66077146d8e","reward","img/slot.png","74","","test","","","","","",""
"null","243419","pSARL_v2","pSARL_v2t0ds7sqk","600dcdff34fef66077146d8e","points","<div class=""verylowPoints""> -7 </div>","null","na","test","","","","6","-7","5"
"419.69999998807907","243847","pSARL_v2","pSARL_v2t0ds7sqk","600dcdff34fef66077146d8e","freq","img/green_2bandit_a2.png","70","70","test","1","139","139","7","",""
"null","244240","pSARL_v2","pSARL_v2t0ds7sqk","600dcdff34fef66077146d8e","freq_resp","img/green_2bandit_a.png","70","70","test","","","","7","",""
"null","244410","pSARL_v2","pSARL_v2t0ds7sqk","600dcdff34fef66077146d8e","fixation","img/fixation.png","null","","test","","","","","",""
"214.19999998807907","244631","pSARL_v2","pSARL_v2t0ds7sqk","600dcdff34fef66077146d8e","freq","img/green_2bandit_a2.png","70","70","test","1","140","140","7","",""
"null","245235","pSARL_v2","pSARL_v2t0ds7sqk","600dcdff34fef66077146d8e","freq_resp","img/green_2bandit_a.png","70","70","test","","","","7","",""
"null","245408","pSARL_v2","pSARL_v2t0ds7sqk","600dcdff34fef66077146d8e","fixation","img/fixation.png","null","","test","","","","","",""
"63.19999998807907","245478","pSARL_v2","pSARL_v2t0ds7sqk","600dcdff34fef66077146d8e","infreq","img/orange_2bandit_a2.png","70","68","test","0","141","141","7","",""
"null","246238","pSARL_v2","pSARL_v2t0ds7sqk","600dcdff34fef66077146d8e","infreq_resp","img/orange_2bandit_a.png","70","68","test","","","","7","",""
"null","246410","pSARL_v2","pSARL_v2t0ds7sqk","600dcdff34fef66077146d8e","fixation","img/fixation.png","null","","test","","","","","",""
"366.5","246784","pSARL_v2","pSARL_v2t0ds7sqk","600dcdff34fef66077146d8e","freq","img/green_2bandit_a2.png","70","70","test","1","142","142","7","",""
"null","247225","pSARL_v2","pSARL_v2t0ds7sqk","600dcdff34fef66077146d8e","freq_resp","img/green_2bandit_a.png","70","70","test","","","","7","",""
"null","247395","pSARL_v2","pSARL_v2t0ds7sqk","600dcdff34fef66077146d8e","fixation","img/fixation.png","null","","test","","","","","",""
"372.0999999642372","247774","pSARL_v2","pSARL_v2t0ds7sqk","600dcdff34fef66077146d8e","freq","img/green_2bandit_a2.png","70","70","test","1","143","143","7","",""
"null","248224","pSARL_v2","pSARL_v2t0ds7sqk","600dcdff34fef66077146d8e","freq_resp","img/green_2bandit_a.png","70","70","test","","","","7","",""
"null","248395","pSARL_v2","pSARL_v2t0ds7sqk","600dcdff34fef66077146d8e","fixation","img/fixation.png","null","","test","","","","","",""
"212.60000002384186","248614","pSARL_v2","pSARL_v2t0ds7sqk","600dcdff34fef66077146d8e","freq","img/green_2bandit_a2.png","70","70","test","1","144","144","7","",""
"null","249228","pSARL_v2","pSARL_v2t0ds7sqk","600dcdff34fef66077146d8e","freq_resp","img/green_2bandit_a.png","70","70","test","","","","7","",""
"null","249392","pSARL_v2","pSARL_v2t0ds7sqk","600dcdff34fef66077146d8e","fixation","img/fixation.png","null","","test","","","","","",""
"142.0999999642372","249542","pSARL_v2","pSARL_v2t0ds7sqk","600dcdff34fef66077146d8e","freq","img/green_2bandit_a2.png","70","70","test","1","145","145","7","",""
"null","250221","pSARL_v2","pSARL_v2t0ds7sqk","600dcdff34fef66077146d8e","freq_resp","img/green_2bandit_a.png","70","70","test","","","","7","",""
"null","250379","pSARL_v2","pSARL_v2t0ds7sqk","600dcdff34fef66077146d8e","fixation","img/fixation.png","null","","test","","","","","",""
"0.10000002384185791","250385","pSARL_v2","pSARL_v2t0ds7sqk","600dcdff34fef66077146d8e","freq","img/green_2bandit_a2.png","70","70","test","1","146","146","7","",""
"null","251202","pSARL_v2","pSARL_v2t0ds7sqk","600dcdff34fef66077146d8e","freq_resp","img/green_2bandit_a.png","70","70","test","","","","7","",""
"null","251372","pSARL_v2","pSARL_v2t0ds7sqk","600dcdff34fef66077146d8e","fixation","img/fixation.png","null","","test","","","","","",""
"100","251479","pSARL_v2","pSARL_v2t0ds7sqk","600dcdff34fef66077146d8e","freq","img/green_2bandit_a2.png","70","70","test","1","147","147","7","",""
"null","252193","pSARL_v2","pSARL_v2t0ds7sqk","600dcdff34fef66077146d8e","freq_resp","img/green_2bandit_a.png","70","70","test","","","","7","",""
"null","252350","pSARL_v2","pSARL_v2t0ds7sqk","600dcdff34fef66077146d8e","fixation","img/fixation.png","null","","test","","","","","",""
"153","252511","pSARL_v2","pSARL_v2t0ds7sqk","600dcdff34fef66077146d8e","freq","img/green_2bandit_a2.png","70","70","test","1","148","148","7","",""
"null","253172","pSARL_v2","pSARL_v2t0ds7sqk","600dcdff34fef66077146d8e","freq_resp","img/green_2bandit_a.png","70","70","test","","","","7","",""
"null","253345","pSARL_v2","pSARL_v2t0ds7sqk","600dcdff34fef66077146d8e","fixation","img/fixation.png","null","","test","","","","","",""
"118.59999996423721","253470","pSARL_v2","pSARL_v2t0ds7sqk","600dcdff34fef66077146d8e","freq","img/green_2bandit_a2.png","70","70","test","1","149","149","7","",""
"null","254172","pSARL_v2","pSARL_v2t0ds7sqk","600dcdff34fef66077146d8e","freq_resp","img/green_2bandit_a.png","70","70","test","","","","7","",""
"null","254342","pSARL_v2","pSARL_v2t0ds7sqk","600dcdff34fef66077146d8e","fixation","img/fixation.png","null","","test","","","","","",""
"489.19999998807907","254844","pSARL_v2","pSARL_v2t0ds7sqk","600dcdff34fef66077146d8e","infreq","img/orange_2bandit_a2.png","68","68","test","1","150","150","7","",""
"null","255169","pSARL_v2","pSARL_v2t0ds7sqk","600dcdff34fef66077146d8e","infreq_resp","img/orange_2bandit_a.png","68","68","test","","","","7","",""
"null","255342","pSARL_v2","pSARL_v2t0ds7sqk","600dcdff34fef66077146d8e","fixation","img/fixation.png","null","","test","","","","","",""
"441.5","255794","pSARL_v2","pSARL_v2t0ds7sqk","600dcdff34fef66077146d8e","freq","img/green_2bandit_a2.png","70","70","test","1","151","151","7","",""
"null","256168","pSARL_v2","pSARL_v2t0ds7sqk","600dcdff34fef66077146d8e","freq_resp","img/green_2bandit_a.png","70","70","test","","","","7","",""
"null","256326","pSARL_v2","pSARL_v2t0ds7sqk","600dcdff34fef66077146d8e","fixation","img/fixation.png","null","","test","","","","","",""
"225.19999998807907","256558","pSARL_v2","pSARL_v2t0ds7sqk","600dcdff34fef66077146d8e","freq","img/green_2bandit_a2.png","70","70","test","1","152","152","7","",""
"null","257152","pSARL_v2","pSARL_v2t0ds7sqk","600dcdff34fef66077146d8e","freq_resp","img/green_2bandit_a.png","70","70","test","","","","7","",""
"null","257324","pSARL_v2","pSARL_v2t0ds7sqk","600dcdff34fef66077146d8e","fixation","img/fixation.png","null","","test","","","","","",""
"427","257758","pSARL_v2","pSARL_v2t0ds7sqk","600dcdff34fef66077146d8e","freq","img/green_2bandit_a2.png","70","70","test","1","153","153","7","",""
"null","258150","pSARL_v2","pSARL_v2t0ds7sqk","600dcdff34fef66077146d8e","freq_resp","img/green_2bandit_a.png","70","70","test","","","","7","",""
"null","258308","pSARL_v2","pSARL_v2t0ds7sqk","600dcdff34fef66077146d8e","fixation","img/fixation.png","null","","test","","","","","",""
"187.0999999642372","258502","pSARL_v2","pSARL_v2t0ds7sqk","600dcdff34fef66077146d8e","freq","img/green_2bandit_a2.png","70","70","test","1","154","154","7","",""
"null","259128","pSARL_v2","pSARL_v2t0ds7sqk","600dcdff34fef66077146d8e","freq_resp","img/green_2bandit_a.png","70","70","test","","","","7","",""
"null","259300","pSARL_v2","pSARL_v2t0ds7sqk","600dcdff34fef66077146d8e","fixation","img/fixation.png","null","","test","","","","","",""
"393.30000001192093","259701","pSARL_v2","pSARL_v2t0ds7sqk","600dcdff34fef66077146d8e","freq","img/green_2bandit_a2.png","70","70","test","1","155","155","7","",""
"null","260119","pSARL_v2","pSARL_v2t0ds7sqk","600dcdff34fef66077146d8e","freq_resp","img/green_2bandit_a.png","70","70","test","","","","7","",""
"null","260295","pSARL_v2","pSARL_v2t0ds7sqk","600dcdff34fef66077146d8e","fixation","img/fixation.png","null","","test","","","","","",""
"183.9000000357628","260488","pSARL_v2","pSARL_v2t0ds7sqk","600dcdff34fef66077146d8e","freq","img/green_2bandit_a2.png","70","70","test","1","156","156","7","",""
"null","261117","pSARL_v2","pSARL_v2t0ds7sqk","600dcdff34fef66077146d8e","freq_resp","img/green_2bandit_a.png","70","70","test","","","","7","",""
"null","261274","pSARL_v2","pSARL_v2t0ds7sqk","600dcdff34fef66077146d8e","fixation","img/fixation.png","null","","test","","","","","",""
"109.09999996423721","261390","pSARL_v2","pSARL_v2t0ds7sqk","600dcdff34fef66077146d8e","freq","img/green_2bandit_a2.png","70","70","test","1","157","157","7","",""
"null","262097","pSARL_v2","pSARL_v2t0ds7sqk","600dcdff34fef66077146d8e","freq_resp","img/green_2bandit_a.png","70","70","test","","","","7","",""
"null","262269","pSARL_v2","pSARL_v2t0ds7sqk","600dcdff34fef66077146d8e","fixation","img/fixation.png","null","","test","","","","","",""
"410","262686","pSARL_v2","pSARL_v2t0ds7sqk","600dcdff34fef66077146d8e","freq","img/green_2bandit_a2.png","70","70","test","1","158","158","7","",""
"null","263087","pSARL_v2","pSARL_v2t0ds7sqk","600dcdff34fef66077146d8e","freq_resp","img/green_2bandit_a.png","70","70","test","","","","7","",""
"null","263248","pSARL_v2","pSARL_v2t0ds7sqk","600dcdff34fef66077146d8e","fixation","img/fixation.png","null","","test","","","","","",""
"201","263461","pSARL_v2","pSARL_v2t0ds7sqk","600dcdff34fef66077146d8e","freq","img/green_2bandit_a2.png","70","70","test","1","159","159","7","",""
"null","264071","pSARL_v2","pSARL_v2t0ds7sqk","600dcdff34fef66077146d8e","freq_resp","img/green_2bandit_a.png","70","70","test","","","","7","",""
"null","264244","pSARL_v2","pSARL_v2t0ds7sqk","600dcdff34fef66077146d8e","fixation","img/fixation.png","null","","test","","","","","",""
"220.30000001192093","264471","pSARL_v2","pSARL_v2t0ds7sqk","600dcdff34fef66077146d8e","freq","img/green_2bandit_a2.png","70","70","test","1","160","160","7","",""
"null","265061","pSARL_v2","pSARL_v2t0ds7sqk","600dcdff34fef66077146d8e","freq_resp","img/green_2bandit_a.png","70","70","test","","","","7","",""
"null","265220","pSARL_v2","pSARL_v2t0ds7sqk","600dcdff34fef66077146d8e","fixation","img/fixation.png","null","","test","","","","","",""
"227","265454","pSARL_v2","pSARL_v2t0ds7sqk","600dcdff34fef66077146d8e","freq","img/green_2bandit_a2.png","70","70","test","1","161","161","7","",""
"null","266042","pSARL_v2","pSARL_v2t0ds7sqk","600dcdff34fef66077146d8e","freq_resp","img/green_2bandit_a.png","70","70","test","","","","7","",""
"null","266220","pSARL_v2","pSARL_v2t0ds7sqk","600dcdff34fef66077146d8e","fixation","img/fixation.png","null","","test","","","","","",""
"395.7999999523163","266622","pSARL_v2","pSARL_v2t0ds7sqk","600dcdff34fef66077146d8e","freq","img/green_2bandit_a2.png","70","70","test","1","162","162","7","",""
"null","267038","pSARL_v2","pSARL_v2t0ds7sqk","600dcdff34fef66077146d8e","freq_resp","img/green_2bandit_a.png","70","70","test","","","","7","",""
"null","267198","pSARL_v2","pSARL_v2t0ds7sqk","600dcdff34fef66077146d8e","fixation","img/fixation.png","null","","test","","","","","",""
"313.80000001192093","267518","pSARL_v2","pSARL_v2t0ds7sqk","600dcdff34fef66077146d8e","freq","img/green_2bandit_a2.png","70","70","test","1","163","163","7","",""
"null","268018","pSARL_v2","pSARL_v2t0ds7sqk","600dcdff34fef66077146d8e","freq_resp","img/green_2bandit_a.png","70","70","test","","","","7","",""
"null","268177","pSARL_v2","pSARL_v2t0ds7sqk","600dcdff34fef66077146d8e","fixation","img/fixation.png","null","","test","","","","","",""
"574.6999999880791","268758","pSARL_v2","pSARL_v2t0ds7sqk","600dcdff34fef66077146d8e","reward","img/slot.png","74","","test","","","","","",""
"null","269518","pSARL_v2","pSARL_v2t0ds7sqk","600dcdff34fef66077146d8e","points","<div class=""verylowPoints""> -6 </div>","null","na","test","","","","7","-6","6"
"303.30000001192093","269829","pSARL_v2","pSARL_v2t0ds7sqk","600dcdff34fef66077146d8e","freq","img/green_2bandit_a2.png","70","70","test","1","164","164","8","",""
"null","270340","pSARL_v2","pSARL_v2t0ds7sqk","600dcdff34fef66077146d8e","freq_resp","img/green_2bandit_a.png","70","70","test","","","","8","",""
"null","270500","pSARL_v2","pSARL_v2t0ds7sqk","600dcdff34fef66077146d8e","fixation","img/fixation.png","null","","test","","","","","",""
"307","270814","pSARL_v2","pSARL_v2t0ds7sqk","600dcdff34fef66077146d8e","freq","img/green_2bandit_a2.png","70","70","test","1","165","165","8","",""
"null","271323","pSARL_v2","pSARL_v2t0ds7sqk","600dcdff34fef66077146d8e","freq_resp","img/green_2bandit_a.png","70","70","test","","","","8","",""
"null","271500","pSARL_v2","pSARL_v2t0ds7sqk","600dcdff34fef66077146d8e","fixation","img/fixation.png","null","","test","","","","","",""
"371.69999998807907","271878","pSARL_v2","pSARL_v2t0ds7sqk","600dcdff34fef66077146d8e","freq","img/green_2bandit_a2.png","70","70","test","1","166","166","8","",""
"null","272329","pSARL_v2","pSARL_v2t0ds7sqk","600dcdff34fef66077146d8e","freq_resp","img/green_2bandit_a.png","70","70","test","","","","8","",""
"null","272486","pSARL_v2","pSARL_v2t0ds7sqk","600dcdff34fef66077146d8e","fixation","img/fixation.png","null","","test","","","","","",""
"256.69999998807907","272750","pSARL_v2","pSARL_v2t0ds7sqk","600dcdff34fef66077146d8e","freq","img/green_2bandit_a2.png","70","70","test","1","167","167","8","",""
"null","273310","pSARL_v2","pSARL_v2t0ds7sqk","600dcdff34fef66077146d8e","freq_resp","img/green_2bandit_a.png","70","70","test","","","","8","",""
"null","273471","pSARL_v2","pSARL_v2t0ds7sqk","600dcdff34fef66077146d8e","fixation","img/fixation.png","null","","test","","","","","",""
"297","273774","pSARL_v2","pSARL_v2t0ds7sqk","600dcdff34fef66077146d8e","freq","img/green_2bandit_a2.png","70","70","test","1","168","168","8","",""
"null","274294","pSARL_v2","pSARL_v2t0ds7sqk","600dcdff34fef66077146d8e","freq_resp","img/green_2bandit_a.png","70","70","test","","","","8","",""
"null","274465","pSARL_v2","pSARL_v2t0ds7sqk","600dcdff34fef66077146d8e","fixation","img/fixation.png","null","","test","","","","","",""
"446.0999999642372","274918","pSARL_v2","pSARL_v2t0ds7sqk","600dcdff34fef66077146d8e","freq","img/green_2bandit_a2.png","70","70","test","1","169","169","8","",""
"null","275288","pSARL_v2","pSARL_v2t0ds7sqk","600dcdff34fef66077146d8e","freq_resp","img/green_2bandit_a.png","70","70","test","","","","8","",""
"null","275447","pSARL_v2","pSARL_v2t0ds7sqk","600dcdff34fef66077146d8e","fixation","img/fixation.png","null","","test","","","","","",""
"223.89999997615814","275678","pSARL_v2","pSARL_v2t0ds7sqk","600dcdff34fef66077146d8e","freq","img/green_2bandit_a2.png","70","70","test","1","170","170","8","",""
"null","276268","pSARL_v2","pSARL_v2t0ds7sqk","600dcdff34fef66077146d8e","freq_resp","img/green_2bandit_a.png","70","70","test","","","","8","",""
"null","276440","pSARL_v2","pSARL_v2t0ds7sqk","600dcdff34fef66077146d8e","fixation","img/fixation.png","null","","test","","","","","",""
"327.0999999642372","276774","pSARL_v2","pSARL_v2t0ds7sqk","600dcdff34fef66077146d8e","freq","img/green_2bandit_a2.png","70","70","test","1","171","171","8","",""
"null","277263","pSARL_v2","pSARL_v2t0ds7sqk","600dcdff34fef66077146d8e","freq_resp","img/green_2bandit_a.png","70","70","test","","","","8","",""
"null","277431","pSARL_v2","pSARL_v2t0ds7sqk","600dcdff34fef66077146d8e","fixation","img/fixation.png","null","","test","","","","","",""
"304","277743","pSARL_v2","pSARL_v2t0ds7sqk","600dcdff34fef66077146d8e","freq","img/green_2bandit_a2.png","70","70","test","1","172","172","8","",""
"null","278258","pSARL_v2","pSARL_v2t0ds7sqk","600dcdff34fef66077146d8e","freq_resp","img/green_2bandit_a.png","70","70","test","","","","8","",""
"null","278417","pSARL_v2","pSARL_v2t0ds7sqk","600dcdff34fef66077146d8e","fixation","img/fixation.png","null","","test","","","","","",""
"342","278766","pSARL_v2","pSARL_v2t0ds7sqk","600dcdff34fef66077146d8e","freq","img/green_2bandit_a2.png","70","70","test","1","173","173","8","",""
"null","279240","pSARL_v2","pSARL_v2t0ds7sqk","600dcdff34fef66077146d8e","freq_resp","img/green_2bandit_a.png","70","70","test","","","","8","",""
"null","279408","pSARL_v2","pSARL_v2t0ds7sqk","600dcdff34fef66077146d8e","fixation","img/fixation.png","null","","test","","","","","",""
"327.0999999642372","279742","pSARL_v2","pSARL_v2t0ds7sqk","600dcdff34fef66077146d8e","infreq","img/orange_2bandit_a2.png","70","68","test","0","174","174","8","",""
"null","280224","pSARL_v2","pSARL_v2t0ds7sqk","600dcdff34fef66077146d8e","infreq_resp","img/orange_2bandit_a.png","70","68","test","","","","8","",""
"null","280388","pSARL_v2","pSARL_v2t0ds7sqk","600dcdff34fef66077146d8e","fixation","img/fixation.png","null","","test","","","","","",""
"345.39999997615814","280741","pSARL_v2","pSARL_v2t0ds7sqk","600dcdff34fef66077146d8e","freq","img/green_2bandit_a2.png","70","70","test","1","175","175","8","",""
"null","281214","pSARL_v2","pSARL_v2t0ds7sqk","600dcdff34fef66077146d8e","freq_resp","img/green_2bandit_a.png","70","70","test","","","","8","",""
"null","281385","pSARL_v2","pSARL_v2t0ds7sqk","600dcdff34fef66077146d8e","fixation","img/fixation.png","null","","test","","","","","",""
"479.69999998807907","281871","pSARL_v2","pSARL_v2t0ds7sqk","600dcdff34fef66077146d8e","freq","img/green_2bandit_a2.png","70","70","test","1","176","176","8","",""
"null","282200","pSARL_v2","pSARL_v2t0ds7sqk","600dcdff34fef66077146d8e","freq_resp","img/green_2bandit_a.png","70","70","test","","","","8","",""
"null","282358","pSARL_v2","pSARL_v2t0ds7sqk","600dcdff34fef66077146d8e","fixation","img/fixation.png","null","","test","","","","","",""
"361","282726","pSARL_v2","pSARL_v2t0ds7sqk","600dcdff34fef66077146d8e","freq","img/green_2bandit_a2.png","70","70","test","1","177","177","8","",""
"null","283175","pSARL_v2","pSARL_v2t0ds7sqk","600dcdff34fef66077146d8e","freq_resp","img/green_2bandit_a.png","70","70","test","","","","8","",""
"null","283333","pSARL_v2","pSARL_v2t0ds7sqk","600dcdff34fef66077146d8e","fixation","img/fixation.png","null","","test","","","","","",""
"202.4000000357628","283542","pSARL_v2","pSARL_v2t0ds7sqk","600dcdff34fef66077146d8e","freq","img/green_2bandit_a2.png","70","70","test","1","178","178","8","",""
"null","284150","pSARL_v2","pSARL_v2t0ds7sqk","600dcdff34fef66077146d8e","freq_resp","img/green_2bandit_a.png","70","70","test","","","","8","",""
"null","284309","pSARL_v2","pSARL_v2t0ds7sqk","600dcdff34fef66077146d8e","fixation","img/fixation.png","null","","test","","","","","",""
"122.79999995231628","284438","pSARL_v2","pSARL_v2t0ds7sqk","600dcdff34fef66077146d8e","freq","img/green_2bandit_a2.png","70","70","test","1","179","179","8","",""
"null","285128","pSARL_v2","pSARL_v2t0ds7sqk","600dcdff34fef66077146d8e","freq_resp","img/green_2bandit_a.png","70","70","test","","","","8","",""
"null","285286","pSARL_v2","pSARL_v2t0ds7sqk","600dcdff34fef66077146d8e","fixation","img/fixation.png","null","","test","","","","","",""
"264.69999998807907","285559","pSARL_v2","pSARL_v2t0ds7sqk","600dcdff34fef66077146d8e","freq","img/green_2bandit_a2.png","70","70","test","1","180","180","8","",""
"null","286106","pSARL_v2","pSARL_v2t0ds7sqk","600dcdff34fef66077146d8e","freq_resp","img/green_2bandit_a.png","70","70","test","","","","8","",""
"null","286265","pSARL_v2","pSARL_v2t0ds7sqk","600dcdff34fef66077146d8e","fixation","img/fixation.png","null","","test","","","","","",""
"214.30000001192093","286487","pSARL_v2","pSARL_v2t0ds7sqk","600dcdff34fef66077146d8e","freq","img/green_2bandit_a2.png","70","70","test","1","181","181","8","",""
"null","287088","pSARL_v2","pSARL_v2t0ds7sqk","600dcdff34fef66077146d8e","freq_resp","img/green_2bandit_a.png","70","70","test","","","","8","",""
"null","287247","pSARL_v2","pSARL_v2t0ds7sqk","600dcdff34fef66077146d8e","fixation","img/fixation.png","null","","test","","","","","",""
"192.80000001192093","287447","pSARL_v2","pSARL_v2t0ds7sqk","600dcdff34fef66077146d8e","freq","img/green_2bandit_a2.png","70","70","test","1","182","182","8","",""
"null","288080","pSARL_v2","pSARL_v2t0ds7sqk","600dcdff34fef66077146d8e","freq_resp","img/green_2bandit_a.png","70","70","test","","","","8","",""
"null","288245","pSARL_v2","pSARL_v2t0ds7sqk","600dcdff34fef66077146d8e","fixation","img/fixation.png","null","","test","","","","","",""
"282.69999998807907","288534","pSARL_v2","pSARL_v2t0ds7sqk","600dcdff34fef66077146d8e","freq","img/green_2bandit_a2.png","70","70","test","1","183","183","8","",""
"null","289058","pSARL_v2","pSARL_v2t0ds7sqk","600dcdff34fef66077146d8e","freq_resp","img/green_2bandit_a.png","70","70","test","","","","8","",""
"null","289230","pSARL_v2","pSARL_v2t0ds7sqk","600dcdff34fef66077146d8e","fixation","img/fixation.png","null","","test","","","","","",""
"259.5","289496","pSARL_v2","pSARL_v2t0ds7sqk","600dcdff34fef66077146d8e","freq","img/green_2bandit_a2.png","70","70","test","1","184","184","8","",""
"null","290049","pSARL_v2","pSARL_v2t0ds7sqk","600dcdff34fef66077146d8e","freq_resp","img/green_2bandit_a.png","70","70","test","","","","8","",""
"null","290221","pSARL_v2","pSARL_v2t0ds7sqk","600dcdff34fef66077146d8e","fixation","img/fixation.png","null","","test","","","","","",""
"193.80000001192093","290422","pSARL_v2","pSARL_v2t0ds7sqk","600dcdff34fef66077146d8e","freq","img/green_2bandit_a2.png","70","70","test","1","185","185","8","",""
"null","291046","pSARL_v2","pSARL_v2t0ds7sqk","600dcdff34fef66077146d8e","freq_resp","img/green_2bandit_a.png","70","70","test","","","","8","",""
"null","291217","pSARL_v2","pSARL_v2t0ds7sqk","600dcdff34fef66077146d8e","fixation","img/fixation.png","null","","test","","","","","",""
"173.80000001192093","291398","pSARL_v2","pSARL_v2t0ds7sqk","600dcdff34fef66077146d8e","infreq","img/orange_2bandit_a2.png","70","68","test","0","186","186","8","",""
"null","292046","pSARL_v2","pSARL_v2t0ds7sqk","600dcdff34fef66077146d8e","infreq_resp","img/orange_2bandit_a.png","70","68","test","","","","8","",""
"null","292222","pSARL_v2","pSARL_v2t0ds7sqk","600dcdff34fef66077146d8e","fixation","img/fixation.png","null","","test","","","","","",""
"297","292526","pSARL_v2","pSARL_v2t0ds7sqk","600dcdff34fef66077146d8e","freq","img/green_2bandit_a2.png","70","70","test","1","187","187","8","",""
"null","293045","pSARL_v2","pSARL_v2t0ds7sqk","600dcdff34fef66077146d8e","freq_resp","img/green_2bandit_a.png","70","70","test","","","","8","",""
"null","293215","pSARL_v2","pSARL_v2t0ds7sqk","600dcdff34fef66077146d8e","fixation","img/fixation.png","null","","test","","","","","",""
"313","293534","pSARL_v2","pSARL_v2t0ds7sqk","600dcdff34fef66077146d8e","freq","img/green_2bandit_a2.png","70","70","test","1","188","188","8","",""
"null","294033","pSARL_v2","pSARL_v2t0ds7sqk","600dcdff34fef66077146d8e","freq_resp","img/green_2bandit_a.png","70","70","test","","","","8","",""
"null","294205","pSARL_v2","pSARL_v2t0ds7sqk","600dcdff34fef66077146d8e","fixation","img/fixation.png","null","","test","","","","","",""
"282","294494","pSARL_v2","pSARL_v2t0ds7sqk","600dcdff34fef66077146d8e","freq","img/green_2bandit_a2.png","70","70","test","1","189","189","8","",""
"null","295029","pSARL_v2","pSARL_v2t0ds7sqk","600dcdff34fef66077146d8e","freq_resp","img/green_2bandit_a.png","70","70","test","","","","8","",""
"null","295198","pSARL_v2","pSARL_v2t0ds7sqk","600dcdff34fef66077146d8e","fixation","img/fixation.png","null","","test","","","","","",""
"617.3000000119209","295827","pSARL_v2","pSARL_v2t0ds7sqk","600dcdff34fef66077146d8e","reward","img/slot.png","74","","test","","","","","",""
"null","296593","pSARL_v2","pSARL_v2t0ds7sqk","600dcdff34fef66077146d8e","points","<div class=""verylowPoints""> -4 </div>","null","na","test","","","","8","-4","7"
"246","296846","pSARL_v2","pSARL_v2t0ds7sqk","600dcdff34fef66077146d8e","freq","img/green_2bandit_a2.png","70","70","test","1","190","190","9","",""
"null","297415","pSARL_v2","pSARL_v2t0ds7sqk","600dcdff34fef66077146d8e","freq_resp","img/green_2bandit_a.png","70","70","test","","","","9","",""
"null","297572","pSARL_v2","pSARL_v2t0ds7sqk","600dcdff34fef66077146d8e","fixation","img/fixation.png","null","","test","","","","","",""
"308","297887","pSARL_v2","pSARL_v2t0ds7sqk","600dcdff34fef66077146d8e","freq","img/green_2bandit_a2.png","70","70","test","1","191","191","9","",""
"null","298388","pSARL_v2","pSARL_v2t0ds7sqk","600dcdff34fef66077146d8e","freq_resp","img/green_2bandit_a.png","70","70","test","","","","9","",""
"null","298547","pSARL_v2","pSARL_v2t0ds7sqk","600dcdff34fef66077146d8e","fixation","img/fixation.png","null","","test","","","","","",""
"307.9000000357628","298862","pSARL_v2","pSARL_v2t0ds7sqk","600dcdff34fef66077146d8e","freq","img/green_2bandit_a2.png","70","70","test","1","192","192","9","",""
"null","299369","pSARL_v2","pSARL_v2t0ds7sqk","600dcdff34fef66077146d8e","freq_resp","img/green_2bandit_a.png","70","70","test","","","","9","",""
"null","299527","pSARL_v2","pSARL_v2t0ds7sqk","600dcdff34fef66077146d8e","fixation","img/fixation.png","null","","test","","","","","",""
"480","300016","pSARL_v2","pSARL_v2t0ds7sqk","600dcdff34fef66077146d8e","freq","img/green_2bandit_a2.png","70","70","test","1","193","193","9","",""
"null","300345","pSARL_v2","pSARL_v2t0ds7sqk","600dcdff34fef66077146d8e","freq_resp","img/green_2bandit_a.png","70","70","test","","","","9","",""
"null","300503","pSARL_v2","pSARL_v2t0ds7sqk","600dcdff34fef66077146d8e","fixation","img/fixation.png","null","","test","","","","","",""
"425.39999997615814","300935","pSARL_v2","pSARL_v2t0ds7sqk","600dcdff34fef66077146d8e","freq","img/green_2bandit_a2.png","70","70","test","1","194","194","9","",""
"null","301327","pSARL_v2","pSARL_v2t0ds7sqk","600dcdff34fef66077146d8e","freq_resp","img/green_2bandit_a.png","70","70","test","","","","9","",""
"null","301484","pSARL_v2","pSARL_v2t0ds7sqk","600dcdff34fef66077146d8e","fixation","img/fixation.png","null","","test","","","","","",""
"298.89999997615814","301790","pSARL_v2","pSARL_v2t0ds7sqk","600dcdff34fef66077146d8e","freq","img/green_2bandit_a2.png","70","70","test","1","195","195","9","",""
"null","302303","pSARL_v2","pSARL_v2t0ds7sqk","600dcdff34fef66077146d8e","freq_resp","img/green_2bandit_a.png","70","70","test","","","","9","",""
"null","302460","pSARL_v2","pSARL_v2t0ds7sqk","600dcdff34fef66077146d8e","fixation","img/fixation.png","null","","test","","","","","",""
"170.80000001192093","302638","pSARL_v2","pSARL_v2t0ds7sqk","600dcdff34fef66077146d8e","freq","img/green_2bandit_a2.png","70","70","test","1","196","196","9","",""
"null","303281","pSARL_v2","pSARL_v2t0ds7sqk","600dcdff34fef66077146d8e","freq_resp","img/green_2bandit_a.png","70","70","test","","","","9","",""
"null","303440","pSARL_v2","pSARL_v2t0ds7sqk","600dcdff34fef66077146d8e","fixation","img/fixation.png","null","","test","","","","","",""
"190.5999999642372","303638","pSARL_v2","pSARL_v2t0ds7sqk","600dcdff34fef66077146d8e","freq","img/green_2bandit_a2.png","70","70","test","1","197","197","9","",""
"null","304268","pSARL_v2","pSARL_v2t0ds7sqk","600dcdff34fef66077146d8e","freq_resp","img/green_2bandit_a.png","70","70","test","","","","9","",""
"null","304433","pSARL_v2","pSARL_v2t0ds7sqk","600dcdff34fef66077146d8e","fixation","img/fixation.png","null","","test","","","","","",""
"167.4000000357628","304607","pSARL_v2","pSARL_v2t0ds7sqk","600dcdff34fef66077146d8e","freq","img/green_2bandit_a2.png","70","70","test","1","198","198","9","",""
"null","305256","pSARL_v2","pSARL_v2t0ds7sqk","600dcdff34fef66077146d8e","freq_resp","img/green_2bandit_a.png","70","70","test","","","","9","",""
"null","305415","pSARL_v2","pSARL_v2t0ds7sqk","600dcdff34fef66077146d8e","fixation","img/fixation.png","null","","test","","","","","",""
"151.9000000357628","305574","pSARL_v2","pSARL_v2t0ds7sqk","600dcdff34fef66077146d8e","freq","img/green_2bandit_a2.png","70","70","test","1","199","199","9","",""
"null","306232","pSARL_v2","pSARL_v2t0ds7sqk","600dcdff34fef66077146d8e","freq_resp","img/green_2bandit_a.png","70","70","test","","","","9","",""
"null","306389","pSARL_v2","pSARL_v2t0ds7sqk","600dcdff34fef66077146d8e","fixation","img/fixation.png","null","","test","","","","","",""
"106.09999996423721","306502","pSARL_v2","pSARL_v2t0ds7sqk","600dcdff34fef66077146d8e","freq","img/green_2bandit_a2.png","70","70","test","1","200","200","9","",""
"null","307206","pSARL_v2","pSARL_v2t0ds7sqk","600dcdff34fef66077146d8e","freq_resp","img/green_2bandit_a.png","70","70","test","","","","9","",""
"null","307366","pSARL_v2","pSARL_v2t0ds7sqk","600dcdff34fef66077146d8e","fixation","img/fixation.png","null","","test","","","","","",""
"32.799999952316284","307406","pSARL_v2","pSARL_v2t0ds7sqk","600dcdff34fef66077146d8e","infreq","img/orange_2bandit_a2.png","70","68","test","0","201","201","9","",""
"null","308191","pSARL_v2","pSARL_v2t0ds7sqk","600dcdff34fef66077146d8e","infreq_resp","img/orange_2bandit_a.png","70","68","test","","","","9","",""
"null","308350","pSARL_v2","pSARL_v2t0ds7sqk","600dcdff34fef66077146d8e","fixation","img/fixation.png","null","","test","","","","","",""
"425.0999999642372","308782","pSARL_v2","pSARL_v2t0ds7sqk","600dcdff34fef66077146d8e","freq","img/green_2bandit_a2.png","70","70","test","1","202","202","9","",""
"null","309172","pSARL_v2","pSARL_v2t0ds7sqk","600dcdff34fef66077146d8e","freq_resp","img/green_2bandit_a.png","70","70","test","","","","9","",""
"null","309342","pSARL_v2","pSARL_v2t0ds7sqk","600dcdff34fef66077146d8e","fixation","img/fixation.png","null","","test","","","","","",""
"256.60000002384186","309606","pSARL_v2","pSARL_v2t0ds7sqk","600dcdff34fef66077146d8e","freq","img/green_2bandit_a2.png","70","70","test","1","203","203","9","",""
"null","310166","pSARL_v2","pSARL_v2t0ds7sqk","600dcdff34fef66077146d8e","freq_resp","img/green_2bandit_a.png","70","70","test","","","","9","",""
"null","310334","pSARL_v2","pSARL_v2t0ds7sqk","600dcdff34fef66077146d8e","fixation","img/fixation.png","null","","test","","","","","",""
"105.10000002384186","310446","pSARL_v2","pSARL_v2t0ds7sqk","600dcdff34fef66077146d8e","freq","img/green_2bandit_a2.png","70","70","test","1","204","204","9","",""
"null","311159","pSARL_v2","pSARL_v2t0ds7sqk","600dcdff34fef66077146d8e","freq_resp","img/green_2bandit_a.png","70","70","test","","","","9","",""
"null","311328","pSARL_v2","pSARL_v2t0ds7sqk","600dcdff34fef66077146d8e","fixation","img/fixation.png","null","","test","","","","","",""
"438.89999997615814","311775","pSARL_v2","pSARL_v2t0ds7sqk","600dcdff34fef66077146d8e","infreq","img/orange_2bandit_a2.png","68","68","test","1","205","205","9","",""
"null","312146","pSARL_v2","pSARL_v2t0ds7sqk","600dcdff34fef66077146d8e","infreq_resp","img/orange_2bandit_a.png","68","68","test","","","","9","",""
"null","312304","pSARL_v2","pSARL_v2t0ds7sqk","600dcdff34fef66077146d8e","fixation","img/fixation.png","null","","test","","","","","",""
"350","312661","pSARL_v2","pSARL_v2t0ds7sqk","600dcdff34fef66077146d8e","freq","img/green_2bandit_a2.png","70","70","test","1","206","206","9","",""
"null","313119","pSARL_v2","pSARL_v2t0ds7sqk","600dcdff34fef66077146d8e","freq_resp","img/green_2bandit_a.png","70","70","test","","","","9","",""
"null","313295","pSARL_v2","pSARL_v2t0ds7sqk","600dcdff34fef66077146d8e","fixation","img/fixation.png","null","","test","","","","","",""
