"rt","time_elapsed","expId","subject","prolificID","trialType","stimulus","key_press","corrresp","phase","corr","trialNum","attentionRunNum","blockNum","points","rlNum"
"8385","8392","pSARL_v2","pSARL_v21n53nhu0","650af146fe0db44909734913","","","","","","","","","","",""
"","11931","pSARL_v2","pSARL_v21n53nhu0","650af146fe0db44909734913","fullscreen","","","","","","","","","",""
"65080","77015","pSARL_v2","pSARL_v21n53nhu0","650af146fe0db44909734913","","","","","","","","","","",""
"null","77820","pSARL_v2","pSARL_v21n53nhu0","650af146fe0db44909734913","freqPrac","img/green_2bandit_b2.png","null","70","prac","0","","","","",""
"null","78832","pSARL_v2","pSARL_v21n53nhu0","650af146fe0db44909734913","feedback","img/tooSlow.png","null","na","prac","","","","","",""
"null","78986","pSARL_v2","pSARL_v21n53nhu0","650af146fe0db44909734913","fixation","img/fixation.png","null","","prac","","","","","",""
"399","79387","pSARL_v2","pSARL_v21n53nhu0","650af146fe0db44909734913","infreqPrac","img/orange_2bandit_b2.png","68","68","prac","1","","","","",""
"399","79795","pSARL_v2","pSARL_v21n53nhu0","650af146fe0db44909734913","infreqPrac_resp","img/orange_2bandit_b.png","68","68","prac","","","","","",""
"96","79951","pSARL_v2","pSARL_v21n53nhu0","650af146fe0db44909734913","fixation","img/fixation.png","68","","prac","","","","","",""
"509","80462","pSARL_v2","pSARL_v21n53nhu0","650af146fe0db44909734913","freqPrac","img/green_2bandit_b2.png","70","70","prac","1","","","","",""
"509","80761","pSARL_v2","pSARL_v21n53nhu0","650af146fe0db44909734913","freqPrac_resp","img/green_2bandit_b.png","70","70","prac","","","","","",""
"null","80916","pSARL_v2","pSARL_v21n53nhu0","650af146fe0db44909734913","fixation","img/fixation.png","null","","prac","","","","","",""
"418","81337","pSARL_v2","pSARL_v21n53nhu0","650af146fe0db44909734913","infreqPrac","img/orange_2bandit_b2.png","68","68","prac","1","","","","",""
"418","81727","pSARL_v2","pSARL_v21n53nhu0","650af146fe0db44909734913","infreqPrac_resp","img/orange_2bandit_b.png","68","68","prac","","","","","",""
"null","81881","pSARL_v2","pSARL_v21n53nhu0","650af146fe0db44909734913","fixation","img/fixation.png","null","","prac","","","","","",""
"412","82295","pSARL_v2","pSARL_v21n53nhu0","650af146fe0db44909734913","infreqPrac","img/orange_2bandit_b2.png","68","68","prac","1","","","","",""
"412","82690","pSARL_v2","pSARL_v21n53nhu0","650af146fe0db44909734913","infreqPrac_resp","img/orange_2bandit_b.png","68","68","prac","","","","","",""
"null","82845","pSARL_v2","pSARL_v21n53nhu0","650af146fe0db44909734913","fixation","img/fixation.png","null","","prac","","","","","",""
"301","83149","pSARL_v2","pSARL_v21n53nhu0","650af146fe0db44909734913","infreqPrac","img/orange_2bandit_b2.png","68","68","prac","1","","","","",""
"301","83655","pSARL_v2","pSARL_v21n53nhu0","650af146fe0db44909734913","infreqPrac_resp","img/orange_2bandit_b.png","68","68","prac","","","","","",""
"null","83810","pSARL_v2","pSARL_v21n53nhu0","650af146fe0db44909734913","fixation","img/fixation.png","null","","prac","","","","","",""
"374","84186","pSARL_v2","pSARL_v21n53nhu0","650af146fe0db44909734913","freqPrac","img/green_2bandit_b2.png","70","70","prac","1","","","","",""
"374","84618","pSARL_v2","pSARL_v21n53nhu0","650af146fe0db44909734913","freqPrac_resp","img/green_2bandit_b.png","70","70","prac","","","","","",""
"null","84774","pSARL_v2","pSARL_v21n53nhu0","650af146fe0db44909734913","fixation","img/fixation.png","null","","prac","","","","","",""
"446","85223","pSARL_v2","pSARL_v21n53nhu0","650af146fe0db44909734913","infreqPrac","img/orange_2bandit_b2.png","68","68","prac","1","","","","",""
"446","85583","pSARL_v2","pSARL_v21n53nhu0","650af146fe0db44909734913","infreqPrac_resp","img/orange_2bandit_b.png","68","68","prac","","","","","",""
"null","85739","pSARL_v2","pSARL_v21n53nhu0","650af146fe0db44909734913","fixation","img/fixation.png","null","","prac","","","","","",""
"326","86067","pSARL_v2","pSARL_v21n53nhu0","650af146fe0db44909734913","freqPrac","img/green_2bandit_b2.png","70","70","prac","1","","","","",""
"326","86548","pSARL_v2","pSARL_v21n53nhu0","650af146fe0db44909734913","freqPrac_resp","img/green_2bandit_b.png","70","70","prac","","","","","",""
"null","86703","pSARL_v2","pSARL_v21n53nhu0","650af146fe0db44909734913","fixation","img/fixation.png","null","","prac","","","","","",""
"250","86954","pSARL_v2","pSARL_v21n53nhu0","650af146fe0db44909734913","freqPrac","img/green_2bandit_b2.png","68","70","prac","0","","","","",""
"250","87512","pSARL_v2","pSARL_v21n53nhu0","650af146fe0db44909734913","freqPrac_resp","img/green_2bandit_b.png","68","70","prac","","","","","",""
"null","88523","pSARL_v2","pSARL_v21n53nhu0","650af146fe0db44909734913","feedback","img/wrongKey.png","null","na","prac","","","","","",""
"null","88681","pSARL_v2","pSARL_v21n53nhu0","650af146fe0db44909734913","fixation","img/fixation.png","null","","prac","","","","","",""
"20558","109240","pSARL_v2","pSARL_v21n53nhu0","650af146fe0db44909734913","","","","","prac","","","","","",""
"474","109717","pSARL_v2","pSARL_v21n53nhu0","650af146fe0db44909734913","rewardPractice","img/slot.png","74","","prac","","","","","",""
"null","110482","pSARL_v2","pSARL_v21n53nhu0","650af146fe0db44909734913","feedback","<div class=""veryhighPoints""> +15 </div>","null","na","prac","","","","","",""
"null","110638","pSARL_v2","pSARL_v21n53nhu0","650af146fe0db44909734913","fixation","img/fixation.png","null","","prac","","","","","",""
"10114","120753","pSARL_v2","pSARL_v21n53nhu0","650af146fe0db44909734913","","","","","prac","","","","","",""
"407","121162","pSARL_v2","pSARL_v21n53nhu0","650af146fe0db44909734913","freq","img/green_2bandit_b2.png","70","70","test","1","1","1","1","",""
"null","121567","pSARL_v2","pSARL_v21n53nhu0","650af146fe0db44909734913","freq_resp","img/green_2bandit_b.png","70","70","test","","","","1","",""
"null","121723","pSARL_v2","pSARL_v21n53nhu0","650af146fe0db44909734913","fixation","img/fixation.png","null","","test","","","","","",""
"349","122073","pSARL_v2","pSARL_v21n53nhu0","650af146fe0db44909734913","freq","img/green_2bandit_b2.png","70","70","test","1","2","2","1","",""
"null","122532","pSARL_v2","pSARL_v21n53nhu0","650af146fe0db44909734913","freq_resp","img/green_2bandit_b.png","70","70","test","","","","1","",""
"null","122687","pSARL_v2","pSARL_v21n53nhu0","650af146fe0db44909734913","fixation","img/fixation.png","null","","test","","","","","",""
"311","123000","pSARL_v2","pSARL_v21n53nhu0","650af146fe0db44909734913","infreq","img/orange_2bandit_b2.png","68","68","test","1","3","3","1","",""
"null","123496","pSARL_v2","pSARL_v21n53nhu0","650af146fe0db44909734913","infreq_resp","img/orange_2bandit_b.png","68","68","test","","","","1","",""
"null","123652","pSARL_v2","pSARL_v21n53nhu0","650af146fe0db44909734913","fixation","img/fixation.png","null","","test","","","","","",""
"390","124044","pSARL_v2","pSARL_v21n53nhu0","650af146fe0db44909734913","freq","img/green_2bandit_b2.png","70","70","test","1","4","4","1","",""
"null","124459","pSARL_v2","pSARL_v21n53nhu0","650af146fe0db44909734913","freq_resp","img/green_2bandit_b.png","70","70","test","","","","1","",""
"null","124615","pSARL_v2","pSARL_v21n53nhu0","650af146fe0db44909734913","fixation","img/fixation.png","null","","test","","","","","",""
"444","125061","pSARL_v2","pSARL_v21n53nhu0","650af146fe0db44909734913","freq","img/green_2bandit_b2.png","70","70","test","1","5","5","1","",""
"null","125423","pSARL_v2","pSARL_v21n53nhu0","650af146fe0db44909734913","freq_resp","img/green_2bandit_b.png","70","70","test","","","","1","",""
"null","125581","pSARL_v2","pSARL_v21n53nhu0","650af146fe0db44909734913","fixation","img/fixation.png","null","","test","","","","","",""
"360","125944","pSARL_v2","pSARL_v21n53nhu0","650af146fe0db44909734913","freq","img/green_2bandit_b2.png","70","70","test","1","6","6","1","",""
"null","126387","pSARL_v2","pSARL_v21n53nhu0","650af146fe0db44909734913","freq_resp","img/green_2bandit_b.png","70","70","test","","","","1","",""
"null","126543","pSARL_v2","pSARL_v21n53nhu0","650af146fe0db44909734913","fixation","img/fixation.png","null","","test","","","","","",""
"320","126866","pSARL_v2","pSARL_v21n53nhu0","650af146fe0db44909734913","freq","img/green_2bandit_b2.png","70","70","test","1","7","7","1","",""
"null","127352","pSARL_v2","pSARL_v21n53nhu0","650af146fe0db44909734913","freq_resp","img/green_2bandit_b.png","70","70","test","","","","1","",""
"null","127507","pSARL_v2","pSARL_v21n53nhu0","650af146fe0db44909734913","fixation","img/fixation.png","null","","test","","","","","",""
"269","127779","pSARL_v2","pSARL_v21n53nhu0","650af146fe0db44909734913","freq","img/green_2bandit_b2.png","70","70","test","1","8","8","1","",""
"null","128316","pSARL_v2","pSARL_v21n53nhu0","650af146fe0db44909734913","freq_resp","img/green_2bandit_b.png","70","70","test","","","","1","",""
"null","128472","pSARL_v2","pSARL_v21n53nhu0","650af146fe0db44909734913","fixation","img/fixation.png","null","","test","","","","","",""
"279","128753","pSARL_v2","pSARL_v21n53nhu0","650af146fe0db44909734913","freq","img/green_2bandit_b2.png","70","70","test","1","9","9","1","",""
"null","129282","pSARL_v2","pSARL_v21n53nhu0","650af146fe0db44909734913","freq_resp","img/green_2bandit_b.png","70","70","test","","","","1","",""
"null","129437","pSARL_v2","pSARL_v21n53nhu0","650af146fe0db44909734913","fixation","img/fixation.png","null","","test","","","","","",""
"315","129754","pSARL_v2","pSARL_v21n53nhu0","650af146fe0db44909734913","freq","img/green_2bandit_b2.png","70","70","test","1","10","10","1","",""
"null","130246","pSARL_v2","pSARL_v21n53nhu0","650af146fe0db44909734913","freq_resp","img/green_2bandit_b.png","70","70","test","","","","1","",""
"null","130401","pSARL_v2","pSARL_v21n53nhu0","650af146fe0db44909734913","fixation","img/fixation.png","null","","test","","","","","",""
"287","130690","pSARL_v2","pSARL_v21n53nhu0","650af146fe0db44909734913","freq","img/green_2bandit_b2.png","70","70","test","1","11","11","1","",""
"null","131210","pSARL_v2","pSARL_v21n53nhu0","650af146fe0db44909734913","freq_resp","img/green_2bandit_b.png","70","70","test","","","","1","",""
"null","131365","pSARL_v2","pSARL_v21n53nhu0","650af146fe0db44909734913","fixation","img/fixation.png","null","","test","","","","","",""
"308","131675","pSARL_v2","pSARL_v21n53nhu0","650af146fe0db44909734913","freq","img/green_2bandit_b2.png","70","70","test","1","12","12","1","",""
"null","132175","pSARL_v2","pSARL_v21n53nhu0","650af146fe0db44909734913","freq_resp","img/green_2bandit_b.png","70","70","test","","","","1","",""
"null","132332","pSARL_v2","pSARL_v21n53nhu0","650af146fe0db44909734913","fixation","img/fixation.png","null","","test","","","","","",""
"322","132657","pSARL_v2","pSARL_v21n53nhu0","650af146fe0db44909734913","infreq","img/orange_2bandit_b2.png","68","68","test","1","13","13","1","",""
"null","133139","pSARL_v2","pSARL_v21n53nhu0","650af146fe0db44909734913","infreq_resp","img/orange_2bandit_b.png","68","68","test","","","","1","",""
"null","133294","pSARL_v2","pSARL_v21n53nhu0","650af146fe0db44909734913","fixation","img/fixation.png","null","","test","","","","","",""
"373","133669","pSARL_v2","pSARL_v21n53nhu0","650af146fe0db44909734913","freq","img/green_2bandit_b2.png","70","70","test","1","14","14","1","",""
"null","134103","pSARL_v2","pSARL_v21n53nhu0","650af146fe0db44909734913","freq_resp","img/green_2bandit_b.png","70","70","test","","","","1","",""
"null","134259","pSARL_v2","pSARL_v21n53nhu0","650af146fe0db44909734913","fixation","img/fixation.png","null","","test","","","","","",""
"470","134732","pSARL_v2","pSARL_v21n53nhu0","650af146fe0db44909734913","freq","img/green_2bandit_b2.png","70","70","test","1","15","15","1","",""
"null","135066","pSARL_v2","pSARL_v21n53nhu0","650af146fe0db44909734913","freq_resp","img/green_2bandit_b.png","70","70","test","","","","1","",""
"null","135222","pSARL_v2","pSARL_v21n53nhu0","650af146fe0db44909734913","fixation","img/fixation.png","null","","test","","","","","",""
"374","135598","pSARL_v2","pSARL_v21n53nhu0","650af146fe0db44909734913","freq","img/green_2bandit_b2.png","70","70","test","1","16","16","1","",""
"null","136033","pSARL_v2","pSARL_v21n53nhu0","650af146fe0db44909734913","freq_resp","img/green_2bandit_b.png","70","70","test","","","","1","",""
"null","136188","pSARL_v2","pSARL_v21n53nhu0","650af146fe0db44909734913","fixation","img/fixation.png","null","","test","","","","","",""
"262","136452","pSARL_v2","pSARL_v21n53nhu0","650af146fe0db44909734913","freq","img/green_2bandit_b2.png","70","70","test","1","17","17","1","",""
"null","137030","pSARL_v2","pSARL_v21n53nhu0","650af146fe0db44909734913","freq_resp","img/green_2bandit_b.png","70","70","test","","","","1","",""
"null","137183","pSARL_v2","pSARL_v21n53nhu0","650af146fe0db44909734913","fixation","img/fixation.png","null","","test","","","","","",""
"288","137473","pSARL_v2","pSARL_v21n53nhu0","650af146fe0db44909734913","freq","img/green_2bandit_b2.png","70","70","test","1","18","18","1","",""
"null","137991","pSARL_v2","pSARL_v21n53nhu0","650af146fe0db44909734913","freq_resp","img/green_2bandit_b.png","70","70","test","","","","1","",""
"null","138147","pSARL_v2","pSARL_v21n53nhu0","650af146fe0db44909734913","fixation","img/fixation.png","null","","test","","","","","",""
"282","138431","pSARL_v2","pSARL_v21n53nhu0","650af146fe0db44909734913","freq","img/green_2bandit_b2.png","70","70","test","1","19","19","1","",""
"null","138956","pSARL_v2","pSARL_v21n53nhu0","650af146fe0db44909734913","freq_resp","img/green_2bandit_b.png","70","70","test","","","","1","",""
"null","139112","pSARL_v2","pSARL_v21n53nhu0","650af146fe0db44909734913","fixation","img/fixation.png","null","","test","","","","","",""
"411","139525","pSARL_v2","pSARL_v21n53nhu0","650af146fe0db44909734913","reward","img/slot.png","74","","test","","","","","",""
"null","140281","pSARL_v2","pSARL_v21n53nhu0","650af146fe0db44909734913","points","<div class=""verylowPoints""> -6 </div>","null","na","test","","","","1","-6","0"
"479","140762","pSARL_v2","pSARL_v21n53nhu0","650af146fe0db44909734913","freq","img/green_2bandit_b2.png","70","70","test","1","20","20","2","",""
"null","141119","pSARL_v2","pSARL_v21n53nhu0","650af146fe0db44909734913","freq_resp","img/green_2bandit_b.png","70","70","test","","","","2","",""
"null","141275","pSARL_v2","pSARL_v21n53nhu0","650af146fe0db44909734913","fixation","img/fixation.png","null","","test","","","","","",""
"425","141702","pSARL_v2","pSARL_v21n53nhu0","650af146fe0db44909734913","freq","img/green_2bandit_b2.png","70","70","test","1","21","21","2","",""
"null","142083","pSARL_v2","pSARL_v21n53nhu0","650af146fe0db44909734913","freq_resp","img/green_2bandit_b.png","70","70","test","","","","2","",""
"null","142239","pSARL_v2","pSARL_v21n53nhu0","650af146fe0db44909734913","fixation","img/fixation.png","null","","test","","","","","",""
"345","142587","pSARL_v2","pSARL_v21n53nhu0","650af146fe0db44909734913","freq","img/green_2bandit_b2.png","70","70","test","1","22","22","2","",""
"null","143047","pSARL_v2","pSARL_v21n53nhu0","650af146fe0db44909734913","freq_resp","img/green_2bandit_b.png","70","70","test","","","","2","",""
"null","143203","pSARL_v2","pSARL_v21n53nhu0","650af146fe0db44909734913","fixation","img/fixation.png","null","","test","","","","","",""
"318","143524","pSARL_v2","pSARL_v21n53nhu0","650af146fe0db44909734913","freq","img/green_2bandit_b2.png","70","70","test","1","23","23","2","",""
"null","144011","pSARL_v2","pSARL_v21n53nhu0","650af146fe0db44909734913","freq_resp","img/green_2bandit_b.png","70","70","test","","","","2","",""
"null","144166","pSARL_v2","pSARL_v21n53nhu0","650af146fe0db44909734913","fixation","img/fixation.png","null","","test","","","","","",""
"240","144408","pSARL_v2","pSARL_v21n53nhu0","650af146fe0db44909734913","freq","img/green_2bandit_b2.png","70","70","test","1","24","24","2","",""
"null","144977","pSARL_v2","pSARL_v21n53nhu0","650af146fe0db44909734913","freq_resp","img/green_2bandit_b.png","70","70","test","","","","2","",""
"null","145132","pSARL_v2","pSARL_v21n53nhu0","650af146fe0db44909734913","fixation","img/fixation.png","null","","test","","","","","",""
"304","145438","pSARL_v2","pSARL_v21n53nhu0","650af146fe0db44909734913","freq","img/green_2bandit_b2.png","70","70","test","1","25","25","2","",""
"null","145940","pSARL_v2","pSARL_v21n53nhu0","650af146fe0db44909734913","freq_resp","img/green_2bandit_b.png","70","70","test","","","","2","",""
"null","146095","pSARL_v2","pSARL_v21n53nhu0","650af146fe0db44909734913","fixation","img/fixation.png","null","","test","","","","","",""
"275","146372","pSARL_v2","pSARL_v21n53nhu0","650af146fe0db44909734913","freq","img/green_2bandit_b2.png","70","70","test","1","26","26","2","",""
"null","146903","pSARL_v2","pSARL_v21n53nhu0","650af146fe0db44909734913","freq_resp","img/green_2bandit_b.png","70","70","test","","","","2","",""
"null","147059","pSARL_v2","pSARL_v21n53nhu0","650af146fe0db44909734913","fixation","img/fixation.png","null","","test","","","","","",""
"261","147322","pSARL_v2","pSARL_v21n53nhu0","650af146fe0db44909734913","freq","img/green_2bandit_b2.png","70","70","test","1","27","27","2","",""
"null","147867","pSARL_v2","pSARL_v21n53nhu0","650af146fe0db44909734913","freq_resp","img/green_2bandit_b.png","70","70","test","","","","2","",""
"null","148023","pSARL_v2","pSARL_v21n53nhu0","650af146fe0db44909734913","fixation","img/fixation.png","null","","test","","","","","",""
"295","148319","pSARL_v2","pSARL_v21n53nhu0","650af146fe0db44909734913","freq","img/green_2bandit_b2.png","70","70","test","1","28","28","2","",""
"null","148833","pSARL_v2","pSARL_v21n53nhu0","650af146fe0db44909734913","freq_resp","img/green_2bandit_b.png","70","70","test","","","","2","",""
"null","148988","pSARL_v2","pSARL_v21n53nhu0","650af146fe0db44909734913","fixation","img/fixation.png","null","","test","","","","","",""
"287","149279","pSARL_v2","pSARL_v21n53nhu0","650af146fe0db44909734913","freq","img/green_2bandit_b2.png","70","70","test","1","29","29","2","",""
"null","149797","pSARL_v2","pSARL_v21n53nhu0","650af146fe0db44909734913","freq_resp","img/green_2bandit_b.png","70","70","test","","","","2","",""
"null","149952","pSARL_v2","pSARL_v21n53nhu0","650af146fe0db44909734913","fixation","img/fixation.png","null","","test","","","","","",""
"254","150209","pSARL_v2","pSARL_v21n53nhu0","650af146fe0db44909734913","freq","img/green_2bandit_b2.png","70","70","test","1","30","30","2","",""
"null","150760","pSARL_v2","pSARL_v21n53nhu0","650af146fe0db44909734913","freq_resp","img/green_2bandit_b.png","70","70","test","","","","2","",""
"null","150916","pSARL_v2","pSARL_v21n53nhu0","650af146fe0db44909734913","fixation","img/fixation.png","null","","test","","","","","",""
"228","151145","pSARL_v2","pSARL_v21n53nhu0","650af146fe0db44909734913","freq","img/green_2bandit_b2.png","70","70","test","1","31","31","2","",""
"null","151726","pSARL_v2","pSARL_v21n53nhu0","650af146fe0db44909734913","freq_resp","img/green_2bandit_b.png","70","70","test","","","","2","",""
"null","151882","pSARL_v2","pSARL_v21n53nhu0","650af146fe0db44909734913","fixation","img/fixation.png","null","","test","","","","","",""
"262","152147","pSARL_v2","pSARL_v21n53nhu0","650af146fe0db44909734913","freq","img/green_2bandit_b2.png","70","70","test","1","32","32","2","",""
"null","152690","pSARL_v2","pSARL_v21n53nhu0","650af146fe0db44909734913","freq_resp","img/green_2bandit_b.png","70","70","test","","","","2","",""
"null","152846","pSARL_v2","pSARL_v21n53nhu0","650af146fe0db44909734913","fixation","img/fixation.png","null","","test","","","","","",""
"395","153242","pSARL_v2","pSARL_v21n53nhu0","650af146fe0db44909734913","infreq","img/orange_2bandit_b2.png","68","68","test","1","33","33","2","",""
"null","153655","pSARL_v2","pSARL_v21n53nhu0","650af146fe0db44909734913","infreq_resp","img/orange_2bandit_b.png","68","68","test","","","","2","",""
"null","153810","pSARL_v2","pSARL_v21n53nhu0","650af146fe0db44909734913","fixation","img/fixation.png","null","","test","","","","","",""
"281","154093","pSARL_v2","pSARL_v21n53nhu0","650af146fe0db44909734913","freq","img/green_2bandit_b2.png","70","70","test","1","34","34","2","",""
"null","154618","pSARL_v2","pSARL_v21n53nhu0","650af146fe0db44909734913","freq_resp","img/green_2bandit_b.png","70","70","test","","","","2","",""
"null","154773","pSARL_v2","pSARL_v21n53nhu0","650af146fe0db44909734913","fixation","img/fixation.png","null","","test","","","","","",""
"311","155085","pSARL_v2","pSARL_v21n53nhu0","650af146fe0db44909734913","freq","img/green_2bandit_b2.png","70","70","test","1","35","35","2","",""
"null","155583","pSARL_v2","pSARL_v21n53nhu0","650af146fe0db44909734913","freq_resp","img/green_2bandit_b.png","70","70","test","","","","2","",""
"null","155738","pSARL_v2","pSARL_v21n53nhu0","650af146fe0db44909734913","fixation","img/fixation.png","null","","test","","","","","",""
"267","156006","pSARL_v2","pSARL_v21n53nhu0","650af146fe0db44909734913","freq","img/green_2bandit_b2.png","70","70","test","1","36","36","2","",""
"null","156546","pSARL_v2","pSARL_v21n53nhu0","650af146fe0db44909734913","freq_resp","img/green_2bandit_b.png","70","70","test","","","","2","",""
"null","156702","pSARL_v2","pSARL_v21n53nhu0","650af146fe0db44909734913","fixation","img/fixation.png","null","","test","","","","","",""
"245","156949","pSARL_v2","pSARL_v21n53nhu0","650af146fe0db44909734913","freq","img/green_2bandit_b2.png","70","70","test","1","37","37","2","",""
"null","157510","pSARL_v2","pSARL_v21n53nhu0","650af146fe0db44909734913","freq_resp","img/green_2bandit_b.png","70","70","test","","","","2","",""
"null","157666","pSARL_v2","pSARL_v21n53nhu0","650af146fe0db44909734913","fixation","img/fixation.png","null","","test","","","","","",""
"457","158125","pSARL_v2","pSARL_v21n53nhu0","650af146fe0db44909734913","infreq","img/orange_2bandit_b2.png","68","68","test","1","38","38","2","",""
"null","158472","pSARL_v2","pSARL_v21n53nhu0","650af146fe0db44909734913","infreq_resp","img/orange_2bandit_b.png","68","68","test","","","","2","",""
"null","158631","pSARL_v2","pSARL_v21n53nhu0","650af146fe0db44909734913","fixation","img/fixation.png","null","","test","","","","","",""
"320","158953","pSARL_v2","pSARL_v21n53nhu0","650af146fe0db44909734913","freq","img/green_2bandit_b2.png","70","70","test","1","39","39","2","",""
"null","159438","pSARL_v2","pSARL_v21n53nhu0","650af146fe0db44909734913","freq_resp","img/green_2bandit_b.png","70","70","test","","","","2","",""
"null","159593","pSARL_v2","pSARL_v21n53nhu0","650af146fe0db44909734913","fixation","img/fixation.png","null","","test","","","","","",""
"253","159848","pSARL_v2","pSARL_v21n53nhu0","650af146fe0db44909734913","freq","img/green_2bandit_b2.png","70","70","test","1","40","40","2","",""
"null","160402","pSARL_v2","pSARL_v21n53nhu0","650af146fe0db44909734913","freq_resp","img/green_2bandit_b.png","70","70","test","","","","2","",""
"null","160558","pSARL_v2","pSARL_v21n53nhu0","650af146fe0db44909734913","fixation","img/fixation.png","null","","test","","","","","",""
"246","160805","pSARL_v2","pSARL_v21n53nhu0","650af146fe0db44909734913","freq","img/green_2bandit_b2.png","70","70","test","1","41","41","2","",""
"null","161365","pSARL_v2","pSARL_v21n53nhu0","650af146fe0db44909734913","freq_resp","img/green_2bandit_b.png","70","70","test","","","","2","",""
"null","161520","pSARL_v2","pSARL_v21n53nhu0","650af146fe0db44909734913","fixation","img/fixation.png","null","","test","","","","","",""
"247","161769","pSARL_v2","pSARL_v21n53nhu0","650af146fe0db44909734913","freq","img/green_2bandit_b2.png","70","70","test","1","42","42","2","",""
"null","162330","pSARL_v2","pSARL_v21n53nhu0","650af146fe0db44909734913","freq_resp","img/green_2bandit_b.png","70","70","test","","","","2","",""
"null","162483","pSARL_v2","pSARL_v21n53nhu0","650af146fe0db44909734913","fixation","img/fixation.png","null","","test","","","","","",""
"296","162781","pSARL_v2","pSARL_v21n53nhu0","650af146fe0db44909734913","freq","img/green_2bandit_b2.png","70","70","test","1","43","43","2","",""
"null","163292","pSARL_v2","pSARL_v21n53nhu0","650af146fe0db44909734913","freq_resp","img/green_2bandit_b.png","70","70","test","","","","2","",""
"null","163447","pSARL_v2","pSARL_v21n53nhu0","650af146fe0db44909734913","fixation","img/fixation.png","null","","test","","","","","",""
"247","163696","pSARL_v2","pSARL_v21n53nhu0","650af146fe0db44909734913","freq","img/green_2bandit_b2.png","70","70","test","1","44","44","2","",""
"null","164257","pSARL_v2","pSARL_v21n53nhu0","650af146fe0db44909734913","freq_resp","img/green_2bandit_b.png","70","70","test","","","","2","",""
"null","164412","pSARL_v2","pSARL_v21n53nhu0","650af146fe0db44909734913","fixation","img/fixation.png","null","","test","","","","","",""
"236","164650","pSARL_v2","pSARL_v21n53nhu0","650af146fe0db44909734913","freq","img/green_2bandit_b2.png","70","70","test","1","45","45","2","",""
"null","165221","pSARL_v2","pSARL_v21n53nhu0","650af146fe0db44909734913","freq_resp","img/green_2bandit_b.png","70","70","test","","","","2","",""
"null","165378","pSARL_v2","pSARL_v21n53nhu0","650af146fe0db44909734913","fixation","img/fixation.png","null","","test","","","","","",""
"467","165846","pSARL_v2","pSARL_v21n53nhu0","650af146fe0db44909734913","reward","img/slot.png","74","","test","","","","","",""
"null","166604","pSARL_v2","pSARL_v21n53nhu0","650af146fe0db44909734913","points","<div class=""verylowPoints""> -11 </div>","null","na","test","","","","2","-11","1"
"542","167149","pSARL_v2","pSARL_v21n53nhu0","650af146fe0db44909734913","freq","img/green_2bandit_b2.png","70","70","test","1","46","46","3","",""
"null","167411","pSARL_v2","pSARL_v21n53nhu0","650af146fe0db44909734913","freq_resp","img/green_2bandit_b.png","70","70","test","","","","3","",""
"null","167568","pSARL_v2","pSARL_v21n53nhu0","650af146fe0db44909734913","fixation","img/fixation.png","null","","test","","","","","",""
"331","167901","pSARL_v2","pSARL_v21n53nhu0","650af146fe0db44909734913","freq","img/green_2bandit_b2.png","70","70","test","1","47","47","3","",""
"null","168378","pSARL_v2","pSARL_v21n53nhu0","650af146fe0db44909734913","freq_resp","img/green_2bandit_b.png","70","70","test","","","","3","",""
"null","168533","pSARL_v2","pSARL_v21n53nhu0","650af146fe0db44909734913","fixation","img/fixation.png","null","","test","","","","","",""
"341","168878","pSARL_v2","pSARL_v21n53nhu0","650af146fe0db44909734913","freq","img/green_2bandit_b2.png","70","70","test","1","48","48","3","",""
"null","169341","pSARL_v2","pSARL_v21n53nhu0","650af146fe0db44909734913","freq_resp","img/green_2bandit_b.png","70","70","test","","","","3","",""
"null","169496","pSARL_v2","pSARL_v21n53nhu0","650af146fe0db44909734913","fixation","img/fixation.png","null","","test","","","","","",""
"291","169789","pSARL_v2","pSARL_v21n53nhu0","650af146fe0db44909734913","freq","img/green_2bandit_b2.png","70","70","test","1","49","49","3","",""
"null","170306","pSARL_v2","pSARL_v21n53nhu0","650af146fe0db44909734913","freq_resp","img/green_2bandit_b.png","70","70","test","","","","3","",""
"null","170460","pSARL_v2","pSARL_v21n53nhu0","650af146fe0db44909734913","fixation","img/fixation.png","null","","test","","","","","",""
"244","170707","pSARL_v2","pSARL_v21n53nhu0","650af146fe0db44909734913","freq","img/green_2bandit_b2.png","70","70","test","1","50","50","3","",""
"null","171269","pSARL_v2","pSARL_v21n53nhu0","650af146fe0db44909734913","freq_resp","img/green_2bandit_b.png","70","70","test","","","","3","",""
"null","171425","pSARL_v2","pSARL_v21n53nhu0","650af146fe0db44909734913","fixation","img/fixation.png","null","","test","","","","","",""
"427","171853","pSARL_v2","pSARL_v21n53nhu0","650af146fe0db44909734913","infreq","img/orange_2bandit_b2.png","68","68","test","1","51","51","3","",""
"null","172233","pSARL_v2","pSARL_v21n53nhu0","650af146fe0db44909734913","infreq_resp","img/orange_2bandit_b.png","68","68","test","","","","3","",""
"null","172389","pSARL_v2","pSARL_v21n53nhu0","650af146fe0db44909734913","fixation","img/fixation.png","null","","test","","","","","",""
"324","172715","pSARL_v2","pSARL_v21n53nhu0","650af146fe0db44909734913","freq","img/green_2bandit_b2.png","70","70","test","1","52","52","3","",""
"null","173197","pSARL_v2","pSARL_v21n53nhu0","650af146fe0db44909734913","freq_resp","img/green_2bandit_b.png","70","70","test","","","","3","",""
"null","173354","pSARL_v2","pSARL_v21n53nhu0","650af146fe0db44909734913","fixation","img/fixation.png","null","","test","","","","","",""
"306","173661","pSARL_v2","pSARL_v21n53nhu0","650af146fe0db44909734913","freq","img/green_2bandit_b2.png","70","70","test","1","53","53","3","",""
"null","174162","pSARL_v2","pSARL_v21n53nhu0","650af146fe0db44909734913","freq_resp","img/green_2bandit_b.png","70","70","test","","","","3","",""
"null","174317","pSARL_v2","pSARL_v21n53nhu0","650af146fe0db44909734913","fixation","img/fixation.png","null","","test","","","","","",""
"261","174582","pSARL_v2","pSARL_v21n53nhu0","650af146fe0db44909734913","freq","img/green_2bandit_b2.png","70","70","test","1","54","54","3","",""
"null","175126","pSARL_v2","pSARL_v21n53nhu0","650af146fe0db44909734913","freq_resp","img/green_2bandit_b.png","70","70","test","","","","3","",""
"null","175282","pSARL_v2","pSARL_v21n53nhu0","650af146fe0db44909734913","fixation","img/fixation.png","null","","test","","","","","",""
"258","175543","pSARL_v2","pSARL_v21n53nhu0","650af146fe0db44909734913","freq","img/green_2bandit_b2.png","70","70","test","1","55","55","3","",""
"null","176090","pSARL_v2","pSARL_v21n53nhu0","650af146fe0db44909734913","freq_resp","img/green_2bandit_b.png","70","70","test","","","","3","",""
"null","176245","pSARL_v2","pSARL_v21n53nhu0","650af146fe0db44909734913","fixation","img/fixation.png","null","","test","","","","","",""
"234","176483","pSARL_v2","pSARL_v21n53nhu0","650af146fe0db44909734913","freq","img/green_2bandit_b2.png","70","70","test","1","56","56","3","",""
"null","177053","pSARL_v2","pSARL_v21n53nhu0","650af146fe0db44909734913","freq_resp","img/green_2bandit_b.png","70","70","test","","","","3","",""
"null","177208","pSARL_v2","pSARL_v21n53nhu0","650af146fe0db44909734913","fixation","img/fixation.png","null","","test","","","","","",""
"329","177539","pSARL_v2","pSARL_v21n53nhu0","650af146fe0db44909734913","freq","img/green_2bandit_b2.png","70","70","test","1","57","57","3","",""
"null","178017","pSARL_v2","pSARL_v21n53nhu0","650af146fe0db44909734913","freq_resp","img/green_2bandit_b.png","70","70","test","","","","3","",""
"null","178171","pSARL_v2","pSARL_v21n53nhu0","650af146fe0db44909734913","fixation","img/fixation.png","null","","test","","","","","",""
"268","178442","pSARL_v2","pSARL_v21n53nhu0","650af146fe0db44909734913","freq","img/green_2bandit_b2.png","70","70","test","1","58","58","3","",""
"null","178983","pSARL_v2","pSARL_v21n53nhu0","650af146fe0db44909734913","freq_resp","img/green_2bandit_b.png","70","70","test","","","","3","",""
"null","179137","pSARL_v2","pSARL_v21n53nhu0","650af146fe0db44909734913","fixation","img/fixation.png","null","","test","","","","","",""
"264","179404","pSARL_v2","pSARL_v21n53nhu0","650af146fe0db44909734913","freq","img/green_2bandit_b2.png","70","70","test","1","59","59","3","",""
"null","179946","pSARL_v2","pSARL_v21n53nhu0","650af146fe0db44909734913","freq_resp","img/green_2bandit_b.png","70","70","test","","","","3","",""
"null","180101","pSARL_v2","pSARL_v21n53nhu0","650af146fe0db44909734913","fixation","img/fixation.png","null","","test","","","","","",""
"307","180410","pSARL_v2","pSARL_v21n53nhu0","650af146fe0db44909734913","freq","img/green_2bandit_b2.png","70","70","test","1","60","60","3","",""
"null","180911","pSARL_v2","pSARL_v21n53nhu0","650af146fe0db44909734913","freq_resp","img/green_2bandit_b.png","70","70","test","","","","3","",""
"null","181066","pSARL_v2","pSARL_v21n53nhu0","650af146fe0db44909734913","fixation","img/fixation.png","null","","test","","","","","",""
"419","181488","pSARL_v2","pSARL_v21n53nhu0","650af146fe0db44909734913","infreq","img/orange_2bandit_b2.png","68","68","test","1","61","61","3","",""
"null","181875","pSARL_v2","pSARL_v21n53nhu0","650af146fe0db44909734913","infreq_resp","img/orange_2bandit_b.png","68","68","test","","","","3","",""
"null","182045","pSARL_v2","pSARL_v21n53nhu0","650af146fe0db44909734913","fixation","img/fixation.png","null","","test","","","","","",""
"295","182342","pSARL_v2","pSARL_v21n53nhu0","650af146fe0db44909734913","freq","img/green_2bandit_b2.png","70","70","test","1","62","62","3","",""
"null","182854","pSARL_v2","pSARL_v21n53nhu0","650af146fe0db44909734913","freq_resp","img/green_2bandit_b.png","70","70","test","","","","3","",""
"null","183010","pSARL_v2","pSARL_v21n53nhu0","650af146fe0db44909734913","fixation","img/fixation.png","null","","test","","","","","",""
"366","183381","pSARL_v2","pSARL_v21n53nhu0","650af146fe0db44909734913","freq","img/green_2bandit_b2.png","70","70","test","1","63","63","3","",""
"null","183817","pSARL_v2","pSARL_v21n53nhu0","650af146fe0db44909734913","freq_resp","img/green_2bandit_b.png","70","70","test","","","","3","",""
"null","183973","pSARL_v2","pSARL_v21n53nhu0","650af146fe0db44909734913","fixation","img/fixation.png","null","","test","","","","","",""
"317","184291","pSARL_v2","pSARL_v21n53nhu0","650af146fe0db44909734913","freq","img/green_2bandit_b2.png","70","70","test","1","64","64","3","",""
"null","184783","pSARL_v2","pSARL_v21n53nhu0","650af146fe0db44909734913","freq_resp","img/green_2bandit_b.png","70","70","test","","","","3","",""
"null","184938","pSARL_v2","pSARL_v21n53nhu0","650af146fe0db44909734913","fixation","img/fixation.png","null","","test","","","","","",""
"252","185191","pSARL_v2","pSARL_v21n53nhu0","650af146fe0db44909734913","freq","img/green_2bandit_b2.png","70","70","test","1","65","65","3","",""
"null","185745","pSARL_v2","pSARL_v21n53nhu0","650af146fe0db44909734913","freq_resp","img/green_2bandit_b.png","70","70","test","","","","3","",""
"null","185901","pSARL_v2","pSARL_v21n53nhu0","650af146fe0db44909734913","fixation","img/fixation.png","null","","test","","","","","",""
"247","186151","pSARL_v2","pSARL_v21n53nhu0","650af146fe0db44909734913","freq","img/green_2bandit_b2.png","70","70","test","1","66","66","3","",""
"null","186711","pSARL_v2","pSARL_v21n53nhu0","650af146fe0db44909734913","freq_resp","img/green_2bandit_b.png","70","70","test","","","","3","",""
"null","186865","pSARL_v2","pSARL_v21n53nhu0","650af146fe0db44909734913","fixation","img/fixation.png","null","","test","","","","","",""
"381","187247","pSARL_v2","pSARL_v21n53nhu0","650af146fe0db44909734913","reward","img/slot.png","74","","test","","","","","",""
"null","188000","pSARL_v2","pSARL_v21n53nhu0","650af146fe0db44909734913","points","<div class=""verylowPoints""> -7 </div>","null","na","test","","","","3","-7","2"
"425","188429","pSARL_v2","pSARL_v21n53nhu0","650af146fe0db44909734913","freq","img/green_2bandit_b2.png","70","70","test","1","67","67","4","",""
"null","188810","pSARL_v2","pSARL_v21n53nhu0","650af146fe0db44909734913","freq_resp","img/green_2bandit_b.png","70","70","test","","","","4","",""
"null","188966","pSARL_v2","pSARL_v21n53nhu0","650af146fe0db44909734913","fixation","img/fixation.png","null","","test","","","","","",""
"388","189356","pSARL_v2","pSARL_v21n53nhu0","650af146fe0db44909734913","freq","img/green_2bandit_b2.png","70","70","test","1","68","68","4","",""
"null","189773","pSARL_v2","pSARL_v21n53nhu0","650af146fe0db44909734913","freq_resp","img/green_2bandit_b.png","70","70","test","","","","4","",""
"null","189932","pSARL_v2","pSARL_v21n53nhu0","650af146fe0db44909734913","fixation","img/fixation.png","null","","test","","","","","",""
"327","190261","pSARL_v2","pSARL_v21n53nhu0","650af146fe0db44909734913","freq","img/green_2bandit_b2.png","70","70","test","1","69","69","4","",""
"null","190737","pSARL_v2","pSARL_v21n53nhu0","650af146fe0db44909734913","freq_resp","img/green_2bandit_b.png","70","70","test","","","","4","",""
"null","190892","pSARL_v2","pSARL_v21n53nhu0","650af146fe0db44909734913","fixation","img/fixation.png","null","","test","","","","","",""
"498","191393","pSARL_v2","pSARL_v21n53nhu0","650af146fe0db44909734913","freq","img/green_2bandit_b2.png","70","70","test","1","70","70","4","",""
"null","191701","pSARL_v2","pSARL_v21n53nhu0","650af146fe0db44909734913","freq_resp","img/green_2bandit_b.png","70","70","test","","","","4","",""
"null","191856","pSARL_v2","pSARL_v21n53nhu0","650af146fe0db44909734913","fixation","img/fixation.png","null","","test","","","","","",""
"482","192342","pSARL_v2","pSARL_v21n53nhu0","650af146fe0db44909734913","freq","img/green_2bandit_b2.png","70","70","test","1","71","71","4","",""
"null","192666","pSARL_v2","pSARL_v21n53nhu0","650af146fe0db44909734913","freq_resp","img/green_2bandit_b.png","70","70","test","","","","4","",""
"null","192821","pSARL_v2","pSARL_v21n53nhu0","650af146fe0db44909734913","fixation","img/fixation.png","null","","test","","","","","",""
"291","193113","pSARL_v2","pSARL_v21n53nhu0","650af146fe0db44909734913","freq","img/green_2bandit_b2.png","70","70","test","1","72","72","4","",""
"null","193632","pSARL_v2","pSARL_v21n53nhu0","650af146fe0db44909734913","freq_resp","img/green_2bandit_b.png","70","70","test","","","","4","",""
"null","193786","pSARL_v2","pSARL_v21n53nhu0","650af146fe0db44909734913","fixation","img/fixation.png","null","","test","","","","","",""
"247","194035","pSARL_v2","pSARL_v21n53nhu0","650af146fe0db44909734913","freq","img/green_2bandit_b2.png","70","70","test","1","73","73","4","",""
"null","194594","pSARL_v2","pSARL_v21n53nhu0","650af146fe0db44909734913","freq_resp","img/green_2bandit_b.png","70","70","test","","","","4","",""
"null","194750","pSARL_v2","pSARL_v21n53nhu0","650af146fe0db44909734913","fixation","img/fixation.png","null","","test","","","","","",""
"250","195001","pSARL_v2","pSARL_v21n53nhu0","650af146fe0db44909734913","freq","img/green_2bandit_b2.png","70","70","test","1","74","74","4","",""
"null","195560","pSARL_v2","pSARL_v21n53nhu0","650af146fe0db44909734913","freq_resp","img/green_2bandit_b.png","70","70","test","","","","4","",""
"null","195715","pSARL_v2","pSARL_v21n53nhu0","650af146fe0db44909734913","fixation","img/fixation.png","null","","test","","","","","",""
"247","195964","pSARL_v2","pSARL_v21n53nhu0","650af146fe0db44909734913","freq","img/green_2bandit_b2.png","70","70","test","1","75","75","4","",""
"null","196525","pSARL_v2","pSARL_v21n53nhu0","650af146fe0db44909734913","freq_resp","img/green_2bandit_b.png","70","70","test","","","","4","",""
"null","196681","pSARL_v2","pSARL_v21n53nhu0","650af146fe0db44909734913","fixation","img/fixation.png","null","","test","","","","","",""
"496","197181","pSARL_v2","pSARL_v21n53nhu0","650af146fe0db44909734913","infreq","img/orange_2bandit_b2.png","68","68","test","1","76","76","4","",""
"null","197489","pSARL_v2","pSARL_v21n53nhu0","650af146fe0db44909734913","infreq_resp","img/orange_2bandit_b.png","68","68","test","","","","4","",""
"null","197644","pSARL_v2","pSARL_v21n53nhu0","650af146fe0db44909734913","fixation","img/fixation.png","null","","test","","","","","",""
"307","197954","pSARL_v2","pSARL_v21n53nhu0","650af146fe0db44909734913","freq","img/green_2bandit_b2.png","70","70","test","1","77","77","4","",""
"null","198453","pSARL_v2","pSARL_v21n53nhu0","650af146fe0db44909734913","freq_resp","img/green_2bandit_b.png","70","70","test","","","","4","",""
"null","198609","pSARL_v2","pSARL_v21n53nhu0","650af146fe0db44909734913","fixation","img/fixation.png","null","","test","","","","","",""
"481","199092","pSARL_v2","pSARL_v21n53nhu0","650af146fe0db44909734913","infreq","img/orange_2bandit_b2.png","68","68","test","1","78","78","4","",""
"null","199417","pSARL_v2","pSARL_v21n53nhu0","650af146fe0db44909734913","infreq_resp","img/orange_2bandit_b.png","68","68","test","","","","4","",""
"null","199573","pSARL_v2","pSARL_v21n53nhu0","650af146fe0db44909734913","fixation","img/fixation.png","null","","test","","","","","",""
"279","199853","pSARL_v2","pSARL_v21n53nhu0","650af146fe0db44909734913","freq","img/green_2bandit_b2.png","70","70","test","1","79","79","4","",""
"null","200383","pSARL_v2","pSARL_v21n53nhu0","650af146fe0db44909734913","freq_resp","img/green_2bandit_b.png","70","70","test","","","","4","",""
"null","200537","pSARL_v2","pSARL_v21n53nhu0","650af146fe0db44909734913","fixation","img/fixation.png","null","","test","","","","","",""
"288","200829","pSARL_v2","pSARL_v21n53nhu0","650af146fe0db44909734913","freq","img/green_2bandit_b2.png","70","70","test","1","80","80","4","",""
"null","201346","pSARL_v2","pSARL_v21n53nhu0","650af146fe0db44909734913","freq_resp","img/green_2bandit_b.png","70","70","test","","","","4","",""
"null","201501","pSARL_v2","pSARL_v21n53nhu0","650af146fe0db44909734913","fixation","img/fixation.png","null","","test","","","","","",""
"242","201746","pSARL_v2","pSARL_v21n53nhu0","650af146fe0db44909734913","freq","img/green_2bandit_b2.png","70","70","test","1","81","81","4","",""
"null","202311","pSARL_v2","pSARL_v21n53nhu0","650af146fe0db44909734913","freq_resp","img/green_2bandit_b.png","70","70","test","","","","4","",""
"null","202467","pSARL_v2","pSARL_v21n53nhu0","650af146fe0db44909734913","fixation","img/fixation.png","null","","test","","","","","",""
"307","202776","pSARL_v2","pSARL_v21n53nhu0","650af146fe0db44909734913","freq","img/green_2bandit_b2.png","70","70","test","1","82","82","4","",""
"null","203277","pSARL_v2","pSARL_v21n53nhu0","650af146fe0db44909734913","freq_resp","img/green_2bandit_b.png","70","70","test","","","","4","",""
"null","203432","pSARL_v2","pSARL_v21n53nhu0","650af146fe0db44909734913","fixation","img/fixation.png","null","","test","","","","","",""
"279","203713","pSARL_v2","pSARL_v21n53nhu0","650af146fe0db44909734913","freq","img/green_2bandit_b2.png","70","70","test","1","83","83","4","",""
"null","204240","pSARL_v2","pSARL_v21n53nhu0","650af146fe0db44909734913","freq_resp","img/green_2bandit_b.png","70","70","test","","","","4","",""
"null","204395","pSARL_v2","pSARL_v21n53nhu0","650af146fe0db44909734913","fixation","img/fixation.png","null","","test","","","","","",""
"388","204785","pSARL_v2","pSARL_v21n53nhu0","650af146fe0db44909734913","freq","img/green_2bandit_b2.png","70","70","test","1","84","84","4","",""
"null","205203","pSARL_v2","pSARL_v21n53nhu0","650af146fe0db44909734913","freq_resp","img/green_2bandit_b.png","70","70","test","","","","4","",""
"null","205358","pSARL_v2","pSARL_v21n53nhu0","650af146fe0db44909734913","fixation","img/fixation.png","null","","test","","","","","",""
"265","205627","pSARL_v2","pSARL_v21n53nhu0","650af146fe0db44909734913","freq","img/green_2bandit_b2.png","70","70","test","1","85","85","4","",""
"null","206168","pSARL_v2","pSARL_v21n53nhu0","650af146fe0db44909734913","freq_resp","img/green_2bandit_b.png","70","70","test","","","","4","",""
"null","206323","pSARL_v2","pSARL_v21n53nhu0","650af146fe0db44909734913","fixation","img/fixation.png","null","","test","","","","","",""
"325","206651","pSARL_v2","pSARL_v21n53nhu0","650af146fe0db44909734913","freq","img/green_2bandit_b2.png","70","70","test","1","86","86","4","",""
"null","207132","pSARL_v2","pSARL_v21n53nhu0","650af146fe0db44909734913","freq_resp","img/green_2bandit_b.png","70","70","test","","","","4","",""
"null","207288","pSARL_v2","pSARL_v21n53nhu0","650af146fe0db44909734913","fixation","img/fixation.png","null","","test","","","","","",""
"377","207667","pSARL_v2","pSARL_v21n53nhu0","650af146fe0db44909734913","infreq","img/orange_2bandit_b2.png","68","68","test","1","87","87","4","",""
"null","208096","pSARL_v2","pSARL_v21n53nhu0","650af146fe0db44909734913","infreq_resp","img/orange_2bandit_b.png","68","68","test","","","","4","",""
"null","208252","pSARL_v2","pSARL_v21n53nhu0","650af146fe0db44909734913","fixation","img/fixation.png","null","","test","","","","","",""
"294","208547","pSARL_v2","pSARL_v21n53nhu0","650af146fe0db44909734913","freq","img/green_2bandit_b2.png","70","70","test","1","88","88","4","",""
"null","209061","pSARL_v2","pSARL_v21n53nhu0","650af146fe0db44909734913","freq_resp","img/green_2bandit_b.png","70","70","test","","","","4","",""
"null","209216","pSARL_v2","pSARL_v21n53nhu0","650af146fe0db44909734913","fixation","img/fixation.png","null","","test","","","","","",""
"307","209525","pSARL_v2","pSARL_v21n53nhu0","650af146fe0db44909734913","freq","img/green_2bandit_b2.png","70","70","test","1","89","89","4","",""
"null","210028","pSARL_v2","pSARL_v21n53nhu0","650af146fe0db44909734913","freq_resp","img/green_2bandit_b.png","70","70","test","","","","4","",""
"null","210183","pSARL_v2","pSARL_v21n53nhu0","650af146fe0db44909734913","fixation","img/fixation.png","null","","test","","","","","",""
"415","210601","pSARL_v2","pSARL_v21n53nhu0","650af146fe0db44909734913","reward","img/slot.png","74","","test","","","","","",""
"null","211364","pSARL_v2","pSARL_v21n53nhu0","650af146fe0db44909734913","points","<div class=""verylowPoints""> -3 </div>","null","na","test","","","","4","-3","3"
"421","211787","pSARL_v2","pSARL_v21n53nhu0","650af146fe0db44909734913","freq","img/green_2bandit_b2.png","70","70","test","1","90","90","5","",""
"null","212172","pSARL_v2","pSARL_v21n53nhu0","650af146fe0db44909734913","freq_resp","img/green_2bandit_b.png","70","70","test","","","","5","",""
"null","212331","pSARL_v2","pSARL_v21n53nhu0","650af146fe0db44909734913","fixation","img/fixation.png","null","","test","","","","","",""
"344","212679","pSARL_v2","pSARL_v21n53nhu0","650af146fe0db44909734913","freq","img/green_2bandit_b2.png","70","70","test","1","91","91","5","",""
"null","213152","pSARL_v2","pSARL_v21n53nhu0","650af146fe0db44909734913","freq_resp","img/green_2bandit_b.png","70","70","test","","","","5","",""
"null","213309","pSARL_v2","pSARL_v21n53nhu0","650af146fe0db44909734913","fixation","img/fixation.png","null","","test","","","","","",""
"321","213631","pSARL_v2","pSARL_v21n53nhu0","650af146fe0db44909734913","freq","img/green_2bandit_b2.png","70","70","test","1","92","92","5","",""
"null","214117","pSARL_v2","pSARL_v21n53nhu0","650af146fe0db44909734913","freq_resp","img/green_2bandit_b.png","70","70","test","","","","5","",""
"null","214273","pSARL_v2","pSARL_v21n53nhu0","650af146fe0db44909734913","fixation","img/fixation.png","null","","test","","","","","",""
"252","214528","pSARL_v2","pSARL_v21n53nhu0","650af146fe0db44909734913","freq","img/green_2bandit_b2.png","70","70","test","1","93","93","5","",""
"null","215082","pSARL_v2","pSARL_v21n53nhu0","650af146fe0db44909734913","freq_resp","img/green_2bandit_b.png","70","70","test","","","","5","",""
"null","215236","pSARL_v2","pSARL_v21n53nhu0","650af146fe0db44909734913","fixation","img/fixation.png","null","","test","","","","","",""
"242","215481","pSARL_v2","pSARL_v21n53nhu0","650af146fe0db44909734913","freq","img/green_2bandit_b2.png","70","70","test","1","94","94","5","",""
"null","216046","pSARL_v2","pSARL_v21n53nhu0","650af146fe0db44909734913","freq_resp","img/green_2bandit_b.png","70","70","test","","","","5","",""
"null","216200","pSARL_v2","pSARL_v21n53nhu0","650af146fe0db44909734913","fixation","img/fixation.png","null","","test","","","","","",""
"226","216430","pSARL_v2","pSARL_v21n53nhu0","650af146fe0db44909734913","freq","img/green_2bandit_b2.png","70","70","test","1","95","95","5","",""
"null","217010","pSARL_v2","pSARL_v21n53nhu0","650af146fe0db44909734913","freq_resp","img/green_2bandit_b.png","70","70","test","","","","5","",""
"null","217165","pSARL_v2","pSARL_v21n53nhu0","650af146fe0db44909734913","fixation","img/fixation.png","null","","test","","","","","",""
"248","217415","pSARL_v2","pSARL_v21n53nhu0","650af146fe0db44909734913","freq","img/green_2bandit_b2.png","70","70","test","1","96","96","5","",""
"null","217975","pSARL_v2","pSARL_v21n53nhu0","650af146fe0db44909734913","freq_resp","img/green_2bandit_b.png","70","70","test","","","","5","",""
"null","218132","pSARL_v2","pSARL_v21n53nhu0","650af146fe0db44909734913","fixation","img/fixation.png","null","","test","","","","","",""
"294","218429","pSARL_v2","pSARL_v21n53nhu0","650af146fe0db44909734913","freq","img/green_2bandit_b2.png","70","70","test","1","97","97","5","",""
"null","218939","pSARL_v2","pSARL_v21n53nhu0","650af146fe0db44909734913","freq_resp","img/green_2bandit_b.png","70","70","test","","","","5","",""
"null","219094","pSARL_v2","pSARL_v21n53nhu0","650af146fe0db44909734913","fixation","img/fixation.png","null","","test","","","","","",""
"262","219358","pSARL_v2","pSARL_v21n53nhu0","650af146fe0db44909734913","freq","img/green_2bandit_b2.png","70","70","test","1","98","98","5","",""
"null","219902","pSARL_v2","pSARL_v21n53nhu0","650af146fe0db44909734913","freq_resp","img/green_2bandit_b.png","70","70","test","","","","5","",""
"null","220073","pSARL_v2","pSARL_v21n53nhu0","650af146fe0db44909734913","fixation","img/fixation.png","null","","test","","","","","",""
"330","220404","pSARL_v2","pSARL_v21n53nhu0","650af146fe0db44909734913","freq","img/green_2bandit_b2.png","70","70","test","1","99","99","5","",""
"null","220883","pSARL_v2","pSARL_v21n53nhu0","650af146fe0db44909734913","freq_resp","img/green_2bandit_b.png","70","70","test","","","","5","",""
"null","221037","pSARL_v2","pSARL_v21n53nhu0","650af146fe0db44909734913","fixation","img/fixation.png","null","","test","","","","","",""
"304","221343","pSARL_v2","pSARL_v21n53nhu0","650af146fe0db44909734913","freq","img/green_2bandit_b2.png","70","70","test","1","100","100","5","",""
"null","221845","pSARL_v2","pSARL_v21n53nhu0","650af146fe0db44909734913","freq_resp","img/green_2bandit_b.png","70","70","test","","","","5","",""
"null","222000","pSARL_v2","pSARL_v21n53nhu0","650af146fe0db44909734913","fixation","img/fixation.png","null","","test","","","","","",""
"266","222268","pSARL_v2","pSARL_v21n53nhu0","650af146fe0db44909734913","freq","img/green_2bandit_b2.png","70","70","test","1","101","101","5","",""
"null","222809","pSARL_v2","pSARL_v21n53nhu0","650af146fe0db44909734913","freq_resp","img/green_2bandit_b.png","70","70","test","","","","5","",""
"null","222965","pSARL_v2","pSARL_v21n53nhu0","650af146fe0db44909734913","fixation","img/fixation.png","null","","test","","","","","",""
"373","223341","pSARL_v2","pSARL_v21n53nhu0","650af146fe0db44909734913","infreq","img/orange_2bandit_b2.png","68","68","test","1","102","102","5","",""
"null","223775","pSARL_v2","pSARL_v21n53nhu0","650af146fe0db44909734913","infreq_resp","img/orange_2bandit_b.png","68","68","test","","","","5","",""
"null","223932","pSARL_v2","pSARL_v21n53nhu0","650af146fe0db44909734913","fixation","img/fixation.png","null","","test","","","","","",""
"258","224192","pSARL_v2","pSARL_v21n53nhu0","650af146fe0db44909734913","freq","img/green_2bandit_b2.png","70","70","test","1","103","103","5","",""
"null","224737","pSARL_v2","pSARL_v21n53nhu0","650af146fe0db44909734913","freq_resp","img/green_2bandit_b.png","70","70","test","","","","5","",""
"null","224893","pSARL_v2","pSARL_v21n53nhu0","650af146fe0db44909734913","fixation","img/fixation.png","null","","test","","","","","",""
"281","225178","pSARL_v2","pSARL_v21n53nhu0","650af146fe0db44909734913","freq","img/green_2bandit_b2.png","70","70","test","1","104","104","5","",""
"null","225702","pSARL_v2","pSARL_v21n53nhu0","650af146fe0db44909734913","freq_resp","img/green_2bandit_b.png","70","70","test","","","","5","",""
"null","225857","pSARL_v2","pSARL_v21n53nhu0","650af146fe0db44909734913","fixation","img/fixation.png","null","","test","","","","","",""
"207","226067","pSARL_v2","pSARL_v21n53nhu0","650af146fe0db44909734913","freq","img/green_2bandit_b2.png","70","70","test","1","105","105","5","",""
"null","226667","pSARL_v2","pSARL_v21n53nhu0","650af146fe0db44909734913","freq_resp","img/green_2bandit_b.png","70","70","test","","","","5","",""
"null","226822","pSARL_v2","pSARL_v21n53nhu0","650af146fe0db44909734913","fixation","img/fixation.png","null","","test","","","","","",""
"224","227048","pSARL_v2","pSARL_v21n53nhu0","650af146fe0db44909734913","freq","img/green_2bandit_b2.png","70","70","test","1","106","106","5","",""
"null","227632","pSARL_v2","pSARL_v21n53nhu0","650af146fe0db44909734913","freq_resp","img/green_2bandit_b.png","70","70","test","","","","5","",""
"null","227786","pSARL_v2","pSARL_v21n53nhu0","650af146fe0db44909734913","fixation","img/fixation.png","null","","test","","","","","",""
"248","228036","pSARL_v2","pSARL_v21n53nhu0","650af146fe0db44909734913","freq","img/green_2bandit_b2.png","70","70","test","1","107","107","5","",""
"null","228593","pSARL_v2","pSARL_v21n53nhu0","650af146fe0db44909734913","freq_resp","img/green_2bandit_b.png","70","70","test","","","","5","",""
"null","228748","pSARL_v2","pSARL_v21n53nhu0","650af146fe0db44909734913","fixation","img/fixation.png","null","","test","","","","","",""
"250","229001","pSARL_v2","pSARL_v21n53nhu0","650af146fe0db44909734913","freq","img/green_2bandit_b2.png","70","70","test","1","108","108","5","",""
"null","229558","pSARL_v2","pSARL_v21n53nhu0","650af146fe0db44909734913","freq_resp","img/green_2bandit_b.png","70","70","test","","","","5","",""
"null","229713","pSARL_v2","pSARL_v21n53nhu0","650af146fe0db44909734913","fixation","img/fixation.png","null","","test","","","","","",""
"250","229965","pSARL_v2","pSARL_v21n53nhu0","650af146fe0db44909734913","freq","img/green_2bandit_b2.png","70","70","test","1","109","109","5","",""
"null","230521","pSARL_v2","pSARL_v21n53nhu0","650af146fe0db44909734913","freq_resp","img/green_2bandit_b.png","70","70","test","","","","5","",""
"null","230679","pSARL_v2","pSARL_v21n53nhu0","650af146fe0db44909734913","fixation","img/fixation.png","null","","test","","","","","",""
"357","231039","pSARL_v2","pSARL_v21n53nhu0","650af146fe0db44909734913","freq","img/green_2bandit_b2.png","70","70","test","1","110","110","5","",""
"null","231487","pSARL_v2","pSARL_v21n53nhu0","650af146fe0db44909734913","freq_resp","img/green_2bandit_b.png","70","70","test","","","","5","",""
"null","231641","pSARL_v2","pSARL_v21n53nhu0","650af146fe0db44909734913","fixation","img/fixation.png","null","","test","","","","","",""
"253","231897","pSARL_v2","pSARL_v21n53nhu0","650af146fe0db44909734913","freq","img/green_2bandit_b2.png","70","70","test","1","111","111","5","",""
"null","232450","pSARL_v2","pSARL_v21n53nhu0","650af146fe0db44909734913","freq_resp","img/green_2bandit_b.png","70","70","test","","","","5","",""
"null","232606","pSARL_v2","pSARL_v21n53nhu0","650af146fe0db44909734913","fixation","img/fixation.png","null","","test","","","","","",""
"301","232907","pSARL_v2","pSARL_v21n53nhu0","650af146fe0db44909734913","freq","img/green_2bandit_b2.png","70","70","test","1","112","112","5","",""
"null","233414","pSARL_v2","pSARL_v21n53nhu0","650af146fe0db44909734913","freq_resp","img/green_2bandit_b.png","70","70","test","","","","5","",""
"null","233570","pSARL_v2","pSARL_v21n53nhu0","650af146fe0db44909734913","fixation","img/fixation.png","null","","test","","","","","",""
"469","234041","pSARL_v2","pSARL_v21n53nhu0","650af146fe0db44909734913","infreq","img/orange_2bandit_b2.png","68","68","test","1","113","113","5","",""
"null","234380","pSARL_v2","pSARL_v21n53nhu0","650af146fe0db44909734913","infreq_resp","img/orange_2bandit_b.png","68","68","test","","","","5","",""
"null","234533","pSARL_v2","pSARL_v21n53nhu0","650af146fe0db44909734913","fixation","img/fixation.png","null","","test","","","","","",""
"312","234847","pSARL_v2","pSARL_v21n53nhu0","650af146fe0db44909734913","freq","img/green_2bandit_b2.png","70","70","test","1","114","114","5","",""
"null","235341","pSARL_v2","pSARL_v21n53nhu0","650af146fe0db44909734913","freq_resp","img/green_2bandit_b.png","70","70","test","","","","5","",""
"null","235496","pSARL_v2","pSARL_v21n53nhu0","650af146fe0db44909734913","fixation","img/fixation.png","null","","test","","","","","",""
"363","235860","pSARL_v2","pSARL_v21n53nhu0","650af146fe0db44909734913","reward","img/slot.png","74","","test","","","","","",""
"null","236615","pSARL_v2","pSARL_v21n53nhu0","650af146fe0db44909734913","points","<div class=""veryhighPoints""> +1 </div>","null","na","test","","","","5","1","4"
"431","237048","pSARL_v2","pSARL_v21n53nhu0","650af146fe0db44909734913","freq","img/green_2bandit_b2.png","70","70","test","1","115","115","6","",""
"null","237424","pSARL_v2","pSARL_v21n53nhu0","650af146fe0db44909734913","freq_resp","img/green_2bandit_b.png","70","70","test","","","","6","",""
"null","237581","pSARL_v2","pSARL_v21n53nhu0","650af146fe0db44909734913","fixation","img/fixation.png","null","","test","","","","","",""
"422","238005","pSARL_v2","pSARL_v21n53nhu0","650af146fe0db44909734913","infreq","img/orange_2bandit_b2.png","68","68","test","1","116","116","6","",""
"null","238389","pSARL_v2","pSARL_v21n53nhu0","650af146fe0db44909734913","infreq_resp","img/orange_2bandit_b.png","68","68","test","","","","6","",""
"null","238544","pSARL_v2","pSARL_v21n53nhu0","650af146fe0db44909734913","fixation","img/fixation.png","null","","test","","","","","",""
"295","238841","pSARL_v2","pSARL_v21n53nhu0","650af146fe0db44909734913","freq","img/green_2bandit_b2.png","70","70","test","1","117","117","6","",""
"null","239353","pSARL_v2","pSARL_v21n53nhu0","650af146fe0db44909734913","freq_resp","img/green_2bandit_b.png","70","70","test","","","","6","",""
"null","239509","pSARL_v2","pSARL_v21n53nhu0","650af146fe0db44909734913","fixation","img/fixation.png","null","","test","","","","","",""
"326","239837","pSARL_v2","pSARL_v21n53nhu0","650af146fe0db44909734913","freq","img/green_2bandit_b2.png","70","70","test","1","118","118","6","",""
"null","240318","pSARL_v2","pSARL_v21n53nhu0","650af146fe0db44909734913","freq_resp","img/green_2bandit_b.png","70","70","test","","","","6","",""
"null","240473","pSARL_v2","pSARL_v21n53nhu0","650af146fe0db44909734913","fixation","img/fixation.png","null","","test","","","","","",""
"309","240784","pSARL_v2","pSARL_v21n53nhu0","650af146fe0db44909734913","freq","img/green_2bandit_b2.png","70","70","test","1","119","119","6","",""
"null","241282","pSARL_v2","pSARL_v21n53nhu0","650af146fe0db44909734913","freq_resp","img/green_2bandit_b.png","70","70","test","","","","6","",""
"null","241437","pSARL_v2","pSARL_v21n53nhu0","650af146fe0db44909734913","fixation","img/fixation.png","null","","test","","","","","",""
"227","241665","pSARL_v2","pSARL_v21n53nhu0","650af146fe0db44909734913","freq","img/green_2bandit_b2.png","70","70","test","1","120","120","6","",""
"null","242246","pSARL_v2","pSARL_v21n53nhu0","650af146fe0db44909734913","freq_resp","img/green_2bandit_b.png","70","70","test","","","","6","",""
"null","242401","pSARL_v2","pSARL_v21n53nhu0","650af146fe0db44909734913","fixation","img/fixation.png","null","","test","","","","","",""
"340","242743","pSARL_v2","pSARL_v21n53nhu0","650af146fe0db44909734913","freq","img/green_2bandit_b2.png","70","70","test","1","121","121","6","",""
"null","243210","pSARL_v2","pSARL_v21n53nhu0","650af146fe0db44909734913","freq_resp","img/green_2bandit_b.png","70","70","test","","","","6","",""
"null","243365","pSARL_v2","pSARL_v21n53nhu0","650af146fe0db44909734913","fixation","img/fixation.png","null","","test","","","","","",""
"267","243635","pSARL_v2","pSARL_v21n53nhu0","650af146fe0db44909734913","freq","img/green_2bandit_b2.png","70","70","test","1","122","122","6","",""
"null","244175","pSARL_v2","pSARL_v21n53nhu0","650af146fe0db44909734913","freq_resp","img/green_2bandit_b.png","70","70","test","","","","6","",""
"null","244332","pSARL_v2","pSARL_v21n53nhu0","650af146fe0db44909734913","fixation","img/fixation.png","null","","test","","","","","",""
"274","244608","pSARL_v2","pSARL_v21n53nhu0","650af146fe0db44909734913","freq","img/green_2bandit_b2.png","70","70","test","1","123","123","6","",""
"null","245139","pSARL_v2","pSARL_v21n53nhu0","650af146fe0db44909734913","freq_resp","img/green_2bandit_b.png","70","70","test","","","","6","",""
"null","245294","pSARL_v2","pSARL_v21n53nhu0","650af146fe0db44909734913","fixation","img/fixation.png","null","","test","","","","","",""
"264","245559","pSARL_v2","pSARL_v21n53nhu0","650af146fe0db44909734913","freq","img/green_2bandit_b2.png","70","70","test","1","124","124","6","",""
"null","246102","pSARL_v2","pSARL_v21n53nhu0","650af146fe0db44909734913","freq_resp","img/green_2bandit_b.png","70","70","test","","","","6","",""
"null","246257","pSARL_v2","pSARL_v21n53nhu0","650af146fe0db44909734913","fixation","img/fixation.png","null","","test","","","","","",""
"403","246662","pSARL_v2","pSARL_v21n53nhu0","650af146fe0db44909734913","infreq","img/orange_2bandit_b2.png","68","68","test","1","125","125","6","",""
"null","247066","pSARL_v2","pSARL_v21n53nhu0","650af146fe0db44909734913","infreq_resp","img/orange_2bandit_b.png","68","68","test","","","","6","",""
"null","247222","pSARL_v2","pSARL_v21n53nhu0","650af146fe0db44909734913","fixation","img/fixation.png","null","","test","","","","","",""
"233","247457","pSARL_v2","pSARL_v21n53nhu0","650af146fe0db44909734913","freq","img/green_2bandit_b2.png","70","70","test","1","126","126","6","",""
"null","248032","pSARL_v2","pSARL_v21n53nhu0","650af146fe0db44909734913","freq_resp","img/green_2bandit_b.png","70","70","test","","","","6","",""
"null","248186","pSARL_v2","pSARL_v21n53nhu0","650af146fe0db44909734913","fixation","img/fixation.png","null","","test","","","","","",""
"380","248568","pSARL_v2","pSARL_v21n53nhu0","650af146fe0db44909734913","infreq","img/orange_2bandit_b2.png","68","68","test","1","127","127","6","",""
"null","248996","pSARL_v2","pSARL_v21n53nhu0","650af146fe0db44909734913","infreq_resp","img/orange_2bandit_b.png","68","68","test","","","","6","",""
"null","249151","pSARL_v2","pSARL_v21n53nhu0","650af146fe0db44909734913","fixation","img/fixation.png","null","","test","","","","","",""
"266","249419","pSARL_v2","pSARL_v21n53nhu0","650af146fe0db44909734913","freq","img/green_2bandit_b2.png","70","70","test","1","128","128","6","",""
"null","249960","pSARL_v2","pSARL_v21n53nhu0","650af146fe0db44909734913","freq_resp","img/green_2bandit_b.png","70","70","test","","","","6","",""
"null","250115","pSARL_v2","pSARL_v21n53nhu0","650af146fe0db44909734913","fixation","img/fixation.png","null","","test","","","","","",""
"240","250357","pSARL_v2","pSARL_v21n53nhu0","650af146fe0db44909734913","freq","img/green_2bandit_b2.png","70","70","test","1","129","129","6","",""
"null","250924","pSARL_v2","pSARL_v21n53nhu0","650af146fe0db44909734913","freq_resp","img/green_2bandit_b.png","70","70","test","","","","6","",""
"null","251081","pSARL_v2","pSARL_v21n53nhu0","650af146fe0db44909734913","fixation","img/fixation.png","null","","test","","","","","",""
"242","251327","pSARL_v2","pSARL_v21n53nhu0","650af146fe0db44909734913","freq","img/green_2bandit_b2.png","70","70","test","1","130","130","6","",""
"null","251903","pSARL_v2","pSARL_v21n53nhu0","650af146fe0db44909734913","freq_resp","img/green_2bandit_b.png","70","70","test","","","","6","",""
"null","252059","pSARL_v2","pSARL_v21n53nhu0","650af146fe0db44909734913","fixation","img/fixation.png","null","","test","","","","","",""
"239","252299","pSARL_v2","pSARL_v21n53nhu0","650af146fe0db44909734913","freq","img/green_2bandit_b2.png","70","70","test","1","131","131","6","",""
"null","252868","pSARL_v2","pSARL_v21n53nhu0","650af146fe0db44909734913","freq_resp","img/green_2bandit_b.png","70","70","test","","","","6","",""
"null","253024","pSARL_v2","pSARL_v21n53nhu0","650af146fe0db44909734913","fixation","img/fixation.png","null","","test","","","","","",""
"238","253262","pSARL_v2","pSARL_v21n53nhu0","650af146fe0db44909734913","freq","img/green_2bandit_b2.png","70","70","test","1","132","132","6","",""
"null","253833","pSARL_v2","pSARL_v21n53nhu0","650af146fe0db44909734913","freq_resp","img/green_2bandit_b.png","70","70","test","","","","6","",""
"null","253988","pSARL_v2","pSARL_v21n53nhu0","650af146fe0db44909734913","fixation","img/fixation.png","null","","test","","","","","",""
"247","254238","pSARL_v2","pSARL_v21n53nhu0","650af146fe0db44909734913","freq","img/green_2bandit_b2.png","70","70","test","1","133","133","6","",""
"null","254796","pSARL_v2","pSARL_v21n53nhu0","650af146fe0db44909734913","freq_resp","img/green_2bandit_b.png","70","70","test","","","","6","",""
"null","254952","pSARL_v2","pSARL_v21n53nhu0","650af146fe0db44909734913","fixation","img/fixation.png","null","","test","","","","","",""
"232","255185","pSARL_v2","pSARL_v21n53nhu0","650af146fe0db44909734913","freq","img/green_2bandit_b2.png","70","70","test","1","134","134","6","",""
"null","255761","pSARL_v2","pSARL_v21n53nhu0","650af146fe0db44909734913","freq_resp","img/green_2bandit_b.png","70","70","test","","","","6","",""
"null","255916","pSARL_v2","pSARL_v21n53nhu0","650af146fe0db44909734913","fixation","img/fixation.png","null","","test","","","","","",""
"247","256165","pSARL_v2","pSARL_v21n53nhu0","650af146fe0db44909734913","freq","img/green_2bandit_b2.png","70","70","test","1","135","135","6","",""
"null","256727","pSARL_v2","pSARL_v21n53nhu0","650af146fe0db44909734913","freq_resp","img/green_2bandit_b.png","70","70","test","","","","6","",""
"null","256881","pSARL_v2","pSARL_v21n53nhu0","650af146fe0db44909734913","fixation","img/fixation.png","null","","test","","","","","",""
"270","257154","pSARL_v2","pSARL_v21n53nhu0","650af146fe0db44909734913","freq","img/green_2bandit_b2.png","70","70","test","1","136","136","6","",""
"null","257689","pSARL_v2","pSARL_v21n53nhu0","650af146fe0db44909734913","freq_resp","img/green_2bandit_b.png","70","70","test","","","","6","",""
"null","257844","pSARL_v2","pSARL_v21n53nhu0","650af146fe0db44909734913","fixation","img/fixation.png","null","","test","","","","","",""
"278","258125","pSARL_v2","pSARL_v21n53nhu0","650af146fe0db44909734913","freq","img/green_2bandit_b2.png","70","70","test","1","137","137","6","",""
"null","258653","pSARL_v2","pSARL_v21n53nhu0","650af146fe0db44909734913","freq_resp","img/green_2bandit_b.png","70","70","test","","","","6","",""
"null","258809","pSARL_v2","pSARL_v21n53nhu0","650af146fe0db44909734913","fixation","img/fixation.png","null","","test","","","","","",""
"273","259084","pSARL_v2","pSARL_v21n53nhu0","650af146fe0db44909734913","freq","img/green_2bandit_b2.png","70","70","test","1","138","138","6","",""
"null","259617","pSARL_v2","pSARL_v21n53nhu0","650af146fe0db44909734913","freq_resp","img/green_2bandit_b.png","70","70","test","","","","6","",""
"null","259772","pSARL_v2","pSARL_v21n53nhu0","650af146fe0db44909734913","fixation","img/fixation.png","null","","test","","","","","",""
"559","260334","pSARL_v2","pSARL_v21n53nhu0","650af146fe0db44909734913","reward","img/slot.png","74","","test","","","","","",""
"null","261093","pSARL_v2","pSARL_v21n53nhu0","650af146fe0db44909734913","points","<div class=""verylowPoints""> -7 </div>","null","na","test","","","","6","-7","5"
"424","261520","pSARL_v2","pSARL_v21n53nhu0","650af146fe0db44909734913","freq","img/green_2bandit_b2.png","70","70","test","1","139","139","7","",""
"null","261902","pSARL_v2","pSARL_v21n53nhu0","650af146fe0db44909734913","freq_resp","img/green_2bandit_b.png","70","70","test","","","","7","",""
"null","262058","pSARL_v2","pSARL_v21n53nhu0","650af146fe0db44909734913","fixation","img/fixation.png","null","","test","","","","","",""
"393","262453","pSARL_v2","pSARL_v21n53nhu0","650af146fe0db44909734913","freq","img/green_2bandit_b2.png","70","70","test","1","140","140","7","",""
"null","262866","pSARL_v2","pSARL_v21n53nhu0","650af146fe0db44909734913","freq_resp","img/green_2bandit_b.png","70","70","test","","","","7","",""
"null","263022","pSARL_v2","pSARL_v21n53nhu0","650af146fe0db44909734913","fixation","img/fixation.png","null","","test","","","","","",""
"559","263584","pSARL_v2","pSARL_v21n53nhu0","650af146fe0db44909734913","infreq","img/orange_2bandit_b2.png","68","68","test","1","141","141","7","",""
"null","263832","pSARL_v2","pSARL_v21n53nhu0","650af146fe0db44909734913","infreq_resp","img/orange_2bandit_b.png","68","68","test","","","","7","",""
"null","263986","pSARL_v2","pSARL_v21n53nhu0","650af146fe0db44909734913","fixation","img/fixation.png","null","","test","","","","","",""
"341","264331","pSARL_v2","pSARL_v21n53nhu0","650af146fe0db44909734913","freq","img/green_2bandit_b2.png","70","70","test","1","142","142","7","",""
"null","264794","pSARL_v2","pSARL_v21n53nhu0","650af146fe0db44909734913","freq_resp","img/green_2bandit_b.png","70","70","test","","","","7","",""
"null","264949","pSARL_v2","pSARL_v21n53nhu0","650af146fe0db44909734913","fixation","img/fixation.png","null","","test","","","","","",""
"259","265211","pSARL_v2","pSARL_v21n53nhu0","650af146fe0db44909734913","freq","img/green_2bandit_b2.png","70","70","test","1","143","143","7","",""
"null","265759","pSARL_v2","pSARL_v21n53nhu0","650af146fe0db44909734913","freq_resp","img/green_2bandit_b.png","70","70","test","","","","7","",""
"null","265914","pSARL_v2","pSARL_v21n53nhu0","650af146fe0db44909734913","fixation","img/fixation.png","null","","test","","","","","",""
"253","266170","pSARL_v2","pSARL_v21n53nhu0","650af146fe0db44909734913","freq","img/green_2bandit_b2.png","70","70","test","1","144","144","7","",""
"null","266723","pSARL_v2","pSARL_v21n53nhu0","650af146fe0db44909734913","freq_resp","img/green_2bandit_b.png","70","70","test","","","","7","",""
"null","266881","pSARL_v2","pSARL_v21n53nhu0","650af146fe0db44909734913","fixation","img/fixation.png","null","","test","","","","","",""
"271","267154","pSARL_v2","pSARL_v21n53nhu0","650af146fe0db44909734913","freq","img/green_2bandit_b2.png","70","70","test","1","145","145","7","",""
"null","267688","pSARL_v2","pSARL_v21n53nhu0","650af146fe0db44909734913","freq_resp","img/green_2bandit_b.png","70","70","test","","","","7","",""
"null","267843","pSARL_v2","pSARL_v21n53nhu0","650af146fe0db44909734913","fixation","img/fixation.png","null","","test","","","","","",""
"261","268105","pSARL_v2","pSARL_v21n53nhu0","650af146fe0db44909734913","freq","img/green_2bandit_b2.png","70","70","test","1","146","146","7","",""
"null","268652","pSARL_v2","pSARL_v21n53nhu0","650af146fe0db44909734913","freq_resp","img/green_2bandit_b.png","70","70","test","","","","7","",""
"null","268808","pSARL_v2","pSARL_v21n53nhu0","650af146fe0db44909734913","fixation","img/fixation.png","null","","test","","","","","",""
"261","269071","pSARL_v2","pSARL_v21n53nhu0","650af146fe0db44909734913","freq","img/green_2bandit_b2.png","70","70","test","1","147","147","7","",""
"null","269614","pSARL_v2","pSARL_v21n53nhu0","650af146fe0db44909734913","freq_resp","img/green_2bandit_b.png","70","70","test","","","","7","",""
"null","269770","pSARL_v2","pSARL_v21n53nhu0","650af146fe0db44909734913","fixation","img/fixation.png","null","","test","","","","","",""
"243","270014","pSARL_v2","pSARL_v21n53nhu0","650af146fe0db44909734913","freq","img/green_2bandit_b2.png","70","70","test","1","148","148","7","",""
"null","270582","pSARL_v2","pSARL_v21n53nhu0","650af146fe0db44909734913","freq_resp","img/green_2bandit_b.png","70","70","test","","","","7","",""
"null","270734","pSARL_v2","pSARL_v21n53nhu0","650af146fe0db44909734913","fixation","img/fixation.png","null","","test","","","","","",""
"237","270974","pSARL_v2","pSARL_v21n53nhu0","650af146fe0db44909734913","freq","img/green_2bandit_b2.png","70","70","test","1","149","149","7","",""
"null","271542","pSARL_v2","pSARL_v21n53nhu0","650af146fe0db44909734913","freq_resp","img/green_2bandit_b.png","70","70","test","","","","7","",""
"null","271699","pSARL_v2","pSARL_v21n53nhu0","650af146fe0db44909734913","fixation","img/fixation.png","null","","test","","","","","",""
"379","272081","pSARL_v2","pSARL_v21n53nhu0","650af146fe0db44909734913","infreq","img/orange_2bandit_b2.png","68","68","test","1","150","150","7","",""
"null","272507","pSARL_v2","pSARL_v21n53nhu0","650af146fe0db44909734913","infreq_resp","img/orange_2bandit_b.png","68","68","test","","","","7","",""
"null","272662","pSARL_v2","pSARL_v21n53nhu0","650af146fe0db44909734913","fixation","img/fixation.png","null","","test","","","","","",""
"285","272951","pSARL_v2","pSARL_v21n53nhu0","650af146fe0db44909734913","freq","img/green_2bandit_b2.png","70","70","test","1","151","151","7","",""
"null","273471","pSARL_v2","pSARL_v21n53nhu0","650af146fe0db44909734913","freq_resp","img/green_2bandit_b.png","70","70","test","","","","7","",""
"null","273627","pSARL_v2","pSARL_v21n53nhu0","650af146fe0db44909734913","fixation","img/fixation.png","null","","test","","","","","",""
"313","273942","pSARL_v2","pSARL_v21n53nhu0","650af146fe0db44909734913","freq","img/green_2bandit_b2.png","70","70","test","1","152","152","7","",""
"null","274435","pSARL_v2","pSARL_v21n53nhu0","650af146fe0db44909734913","freq_resp","img/green_2bandit_b.png","70","70","test","","","","7","",""
"null","274591","pSARL_v2","pSARL_v21n53nhu0","650af146fe0db44909734913","fixation","img/fixation.png","null","","test","","","","","",""
"248","274841","pSARL_v2","pSARL_v21n53nhu0","650af146fe0db44909734913","freq","img/green_2bandit_b2.png","70","70","test","1","153","153","7","",""
"null","275399","pSARL_v2","pSARL_v21n53nhu0","650af146fe0db44909734913","freq_resp","img/green_2bandit_b.png","70","70","test","","","","7","",""
"null","275556","pSARL_v2","pSARL_v21n53nhu0","650af146fe0db44909734913","fixation","img/fixation.png","null","","test","","","","","",""
"269","275828","pSARL_v2","pSARL_v21n53nhu0","650af146fe0db44909734913","freq","img/green_2bandit_b2.png","70","70","test","1","154","154","7","",""
"null","276364","pSARL_v2","pSARL_v21n53nhu0","650af146fe0db44909734913","freq_resp","img/green_2bandit_b.png","70","70","test","","","","7","",""
"null","276520","pSARL_v2","pSARL_v21n53nhu0","650af146fe0db44909734913","fixation","img/fixation.png","null","","test","","","","","",""
"261","276784","pSARL_v2","pSARL_v21n53nhu0","650af146fe0db44909734913","freq","img/green_2bandit_b2.png","70","70","test","1","155","155","7","",""
"null","277329","pSARL_v2","pSARL_v21n53nhu0","650af146fe0db44909734913","freq_resp","img/green_2bandit_b.png","70","70","test","","","","7","",""
"null","277484","pSARL_v2","pSARL_v21n53nhu0","650af146fe0db44909734913","fixation","img/fixation.png","null","","test","","","","","",""
"223","277708","pSARL_v2","pSARL_v21n53nhu0","650af146fe0db44909734913","freq","img/green_2bandit_b2.png","70","70","test","1","156","156","7","",""
"null","278291","pSARL_v2","pSARL_v21n53nhu0","650af146fe0db44909734913","freq_resp","img/green_2bandit_b.png","70","70","test","","","","7","",""
"null","278448","pSARL_v2","pSARL_v21n53nhu0","650af146fe0db44909734913","fixation","img/fixation.png","null","","test","","","","","",""
"245","278694","pSARL_v2","pSARL_v21n53nhu0","650af146fe0db44909734913","freq","img/green_2bandit_b2.png","70","70","test","1","157","157","7","",""
"null","279257","pSARL_v2","pSARL_v21n53nhu0","650af146fe0db44909734913","freq_resp","img/green_2bandit_b.png","70","70","test","","","","7","",""
"null","279412","pSARL_v2","pSARL_v21n53nhu0","650af146fe0db44909734913","fixation","img/fixation.png","null","","test","","","","","",""
"255","279669","pSARL_v2","pSARL_v21n53nhu0","650af146fe0db44909734913","freq","img/green_2bandit_b2.png","70","70","test","1","158","158","7","",""
"null","280220","pSARL_v2","pSARL_v21n53nhu0","650af146fe0db44909734913","freq_resp","img/green_2bandit_b.png","70","70","test","","","","7","",""
"null","280377","pSARL_v2","pSARL_v21n53nhu0","650af146fe0db44909734913","fixation","img/fixation.png","null","","test","","","","","",""
"261","280640","pSARL_v2","pSARL_v21n53nhu0","650af146fe0db44909734913","freq","img/green_2bandit_b2.png","70","70","test","1","159","159","7","",""
"null","281184","pSARL_v2","pSARL_v21n53nhu0","650af146fe0db44909734913","freq_resp","img/green_2bandit_b.png","70","70","test","","","","7","",""
"null","281340","pSARL_v2","pSARL_v21n53nhu0","650af146fe0db44909734913","fixation","img/fixation.png","null","","test","","","","","",""
"237","281580","pSARL_v2","pSARL_v21n53nhu0","650af146fe0db44909734913","freq","img/green_2bandit_b2.png","70","70","test","1","160","160","7","",""
"null","282148","pSARL_v2","pSARL_v21n53nhu0","650af146fe0db44909734913","freq_resp","img/green_2bandit_b.png","70","70","test","","","","7","",""
"null","282304","pSARL_v2","pSARL_v21n53nhu0","650af146fe0db44909734913","fixation","img/fixation.png","null","","test","","","","","",""
"274","282582","pSARL_v2","pSARL_v21n53nhu0","650af146fe0db44909734913","freq","img/green_2bandit_b2.png","70","70","test","1","161","161","7","",""
"null","283112","pSARL_v2","pSARL_v21n53nhu0","650af146fe0db44909734913","freq_resp","img/green_2bandit_b.png","70","70","test","","","","7","",""
"null","283268","pSARL_v2","pSARL_v21n53nhu0","650af146fe0db44909734913","fixation","img/fixation.png","null","","test","","","","","",""
"257","283528","pSARL_v2","pSARL_v21n53nhu0","650af146fe0db44909734913","freq","img/green_2bandit_b2.png","70","70","test","1","162","162","7","",""
"null","284076","pSARL_v2","pSARL_v21n53nhu0","650af146fe0db44909734913","freq_resp","img/green_2bandit_b.png","70","70","test","","","","7","",""
"null","284231","pSARL_v2","pSARL_v21n53nhu0","650af146fe0db44909734913","fixation","img/fixation.png","null","","test","","","","","",""
"260","284494","pSARL_v2","pSARL_v21n53nhu0","650af146fe0db44909734913","freq","img/green_2bandit_b2.png","70","70","test","1","163","163","7","",""
"null","285039","pSARL_v2","pSARL_v21n53nhu0","650af146fe0db44909734913","freq_resp","img/green_2bandit_b.png","70","70","test","","","","7","",""
"null","285195","pSARL_v2","pSARL_v21n53nhu0","650af146fe0db44909734913","fixation","img/fixation.png","null","","test","","","","","",""
"337","285534","pSARL_v2","pSARL_v21n53nhu0","650af146fe0db44909734913","reward","img/slot.png","74","","test","","","","","",""
"null","286299","pSARL_v2","pSARL_v21n53nhu0","650af146fe0db44909734913","points","<div class=""verylowPoints""> -6 </div>","null","na","test","","","","7","-6","6"
"386","286687","pSARL_v2","pSARL_v21n53nhu0","650af146fe0db44909734913","freq","img/green_2bandit_b2.png","70","70","test","1","164","164","8","",""
"null","287107","pSARL_v2","pSARL_v21n53nhu0","650af146fe0db44909734913","freq_resp","img/green_2bandit_b.png","70","70","test","","","","8","",""
"null","287262","pSARL_v2","pSARL_v21n53nhu0","650af146fe0db44909734913","fixation","img/fixation.png","null","","test","","","","","",""
"271","287535","pSARL_v2","pSARL_v21n53nhu0","650af146fe0db44909734913","freq","img/green_2bandit_b2.png","70","70","test","1","165","165","8","",""
"null","288072","pSARL_v2","pSARL_v21n53nhu0","650af146fe0db44909734913","freq_resp","img/green_2bandit_b.png","70","70","test","","","","8","",""
"null","288229","pSARL_v2","pSARL_v21n53nhu0","650af146fe0db44909734913","fixation","img/fixation.png","null","","test","","","","","",""
"211","288443","pSARL_v2","pSARL_v21n53nhu0","650af146fe0db44909734913","freq","img/green_2bandit_b2.png","70","70","test","1","166","166","8","",""
"null","289038","pSARL_v2","pSARL_v21n53nhu0","650af146fe0db44909734913","freq_resp","img/green_2bandit_b.png","70","70","test","","","","8","",""
"null","289192","pSARL_v2","pSARL_v21n53nhu0","650af146fe0db44909734913","fixation","img/fixation.png","null","","test","","","","","",""
"240","289435","pSARL_v2","pSARL_v21n53nhu0","650af146fe0db44909734913","freq","img/green_2bandit_b2.png","70","70","test","1","167","167","8","",""
"null","290002","pSARL_v2","pSARL_v21n53nhu0","650af146fe0db44909734913","freq_resp","img/green_2bandit_b.png","70","70","test","","","","8","",""
"null","290158","pSARL_v2","pSARL_v21n53nhu0","650af146fe0db44909734913","fixation","img/fixation.png","null","","test","","","","","",""
"257","290417","pSARL_v2","pSARL_v21n53nhu0","650af146fe0db44909734913","freq","img/green_2bandit_b2.png","70","70","test","1","168","168","8","",""
"null","290966","pSARL_v2","pSARL_v21n53nhu0","650af146fe0db44909734913","freq_resp","img/green_2bandit_b.png","70","70","test","","","","8","",""
"null","291121","pSARL_v2","pSARL_v21n53nhu0","650af146fe0db44909734913","fixation","img/fixation.png","null","","test","","","","","",""
"233","291357","pSARL_v2","pSARL_v21n53nhu0","650af146fe0db44909734913","freq","img/green_2bandit_b2.png","70","70","test","1","169","169","8","",""
"null","291932","pSARL_v2","pSARL_v21n53nhu0","650af146fe0db44909734913","freq_resp","img/green_2bandit_b.png","70","70","test","","","","8","",""
"null","292086","pSARL_v2","pSARL_v21n53nhu0","650af146fe0db44909734913","fixation","img/fixation.png","null","","test","","","","","",""
"230","292318","pSARL_v2","pSARL_v21n53nhu0","650af146fe0db44909734913","freq","img/green_2bandit_b2.png","70","70","test","1","170","170","8","",""
"null","292895","pSARL_v2","pSARL_v21n53nhu0","650af146fe0db44909734913","freq_resp","img/green_2bandit_b.png","70","70","test","","","","8","",""
"null","293051","pSARL_v2","pSARL_v21n53nhu0","650af146fe0db44909734913","fixation","img/fixation.png","null","","test","","","","","",""
"234","293286","pSARL_v2","pSARL_v21n53nhu0","650af146fe0db44909734913","freq","img/green_2bandit_b2.png","70","70","test","1","171","171","8","",""
"null","293860","pSARL_v2","pSARL_v21n53nhu0","650af146fe0db44909734913","freq_resp","img/green_2bandit_b.png","70","70","test","","","","8","",""
"null","294015","pSARL_v2","pSARL_v21n53nhu0","650af146fe0db44909734913","fixation","img/fixation.png","null","","test","","","","","",""
"222","294239","pSARL_v2","pSARL_v21n53nhu0","650af146fe0db44909734913","freq","img/green_2bandit_b2.png","70","70","test","1","172","172","8","",""
"null","294823","pSARL_v2","pSARL_v21n53nhu0","650af146fe0db44909734913","freq_resp","img/green_2bandit_b.png","70","70","test","","","","8","",""
"null","294981","pSARL_v2","pSARL_v21n53nhu0","650af146fe0db44909734913","fixation","img/fixation.png","null","","test","","","","","",""
"212","295195","pSARL_v2","pSARL_v21n53nhu0","650af146fe0db44909734913","freq","img/green_2bandit_b2.png","70","70","test","1","173","173","8","",""
"null","295786","pSARL_v2","pSARL_v21n53nhu0","650af146fe0db44909734913","freq_resp","img/green_2bandit_b.png","70","70","test","","","","8","",""
"null","295941","pSARL_v2","pSARL_v21n53nhu0","650af146fe0db44909734913","fixation","img/fixation.png","null","","test","","","","","",""
"337","296282","pSARL_v2","pSARL_v21n53nhu0","650af146fe0db44909734913","infreq","img/orange_2bandit_b2.png","68","68","test","1","174","174","8","",""
"null","296749","pSARL_v2","pSARL_v21n53nhu0","650af146fe0db44909734913","infreq_resp","img/orange_2bandit_b.png","68","68","test","","","","8","",""
"null","296905","pSARL_v2","pSARL_v21n53nhu0","650af146fe0db44909734913","fixation","img/fixation.png","null","","test","","","","","",""
"256","297163","pSARL_v2","pSARL_v21n53nhu0","650af146fe0db44909734913","freq","img/green_2bandit_b2.png","70","70","test","1","175","175","8","",""
"null","297712","pSARL_v2","pSARL_v21n53nhu0","650af146fe0db44909734913","freq_resp","img/green_2bandit_b.png","70","70","test","","","","8","",""
"null","297867","pSARL_v2","pSARL_v21n53nhu0","650af146fe0db44909734913","fixation","img/fixation.png","null","","test","","","","","",""
"225","298094","pSARL_v2","pSARL_v21n53nhu0","650af146fe0db44909734913","freq","img/green_2bandit_b2.png","70","70","test","1","176","176","8","",""
"null","298677","pSARL_v2","pSARL_v21n53nhu0","650af146fe0db44909734913","freq_resp","img/green_2bandit_b.png","70","70","test","","","","8","",""
"null","298832","pSARL_v2","pSARL_v21n53nhu0","650af146fe0db44909734913","fixation","img/fixation.png","null","","test","","","","","",""
"237","299072","pSARL_v2","pSARL_v21n53nhu0","650af146fe0db44909734913","freq","img/green_2bandit_b2.png","70","70","test","1","177","177","8","",""
"null","299640","pSARL_v2","pSARL_v21n53nhu0","650af146fe0db44909734913","freq_resp","img/green_2bandit_b.png","70","70","test","","","","8","",""
"null","299795","pSARL_v2","pSARL_v21n53nhu0","650af146fe0db44909734913","fixation","img/fixation.png","null","","test","","","","","",""
"231","300031","pSARL_v2","pSARL_v21n53nhu0","650af146fe0db44909734913","freq","img/green_2bandit_b2.png","70","70","test","1","178","178","8","",""
"null","300604","pSARL_v2","pSARL_v21n53nhu0","650af146fe0db44909734913","freq_resp","img/green_2bandit_b.png","70","70","test","","","","8","",""
"null","300760","pSARL_v2","pSARL_v21n53nhu0","650af146fe0db44909734913","fixation","img/fixation.png","null","","test","","","","","",""
"243","301005","pSARL_v2","pSARL_v21n53nhu0","650af146fe0db44909734913","freq","img/green_2bandit_b2.png","70","70","test","1","179","179","8","",""
"null","301569","pSARL_v2","pSARL_v21n53nhu0","650af146fe0db44909734913","freq_resp","img/green_2bandit_b.png","70","70","test","","","","8","",""
"null","301725","pSARL_v2","pSARL_v21n53nhu0","650af146fe0db44909734913","fixation","img/fixation.png","null","","test","","","","","",""
"239","301966","pSARL_v2","pSARL_v21n53nhu0","650af146fe0db44909734913","freq","img/green_2bandit_b2.png","70","70","test","1","180","180","8","",""
"null","302533","pSARL_v2","pSARL_v21n53nhu0","650af146fe0db44909734913","freq_resp","img/green_2bandit_b.png","70","70","test","","","","8","",""
"null","302689","pSARL_v2","pSARL_v21n53nhu0","650af146fe0db44909734913","fixation","img/fixation.png","null","","test","","","","","",""
"225","302915","pSARL_v2","pSARL_v21n53nhu0","650af146fe0db44909734913","freq","img/green_2bandit_b2.png","70","70","test","1","181","181","8","",""
"null","303497","pSARL_v2","pSARL_v21n53nhu0","650af146fe0db44909734913","freq_resp","img/green_2bandit_b.png","70","70","test","","","","8","",""
"null","303653","pSARL_v2","pSARL_v21n53nhu0","650af146fe0db44909734913","fixation","img/fixation.png","null","","test","","","","","",""
"238","303893","pSARL_v2","pSARL_v21n53nhu0","650af146fe0db44909734913","freq","img/green_2bandit_b2.png","70","70","test","1","182","182","8","",""
"null","304461","pSARL_v2","pSARL_v21n53nhu0","650af146fe0db44909734913","freq_resp","img/green_2bandit_b.png","70","70","test","","","","8","",""
"null","304617","pSARL_v2","pSARL_v21n53nhu0","650af146fe0db44909734913","fixation","img/fixation.png","null","","test","","","","","",""
"231","304848","pSARL_v2","pSARL_v21n53nhu0","650af146fe0db44909734913","freq","img/green_2bandit_b2.png","70","70","test","1","183","183","8","",""
"null","305426","pSARL_v2","pSARL_v21n53nhu0","650af146fe0db44909734913","freq_resp","img/green_2bandit_b.png","70","70","test","","","","8","",""
"null","305581","pSARL_v2","pSARL_v21n53nhu0","650af146fe0db44909734913","fixation","img/fixation.png","null","","test","","","","","",""
"250","305833","pSARL_v2","pSARL_v21n53nhu0","650af146fe0db44909734913","freq","img/green_2bandit_b2.png","70","70","test","1","184","184","8","",""
"null","306389","pSARL_v2","pSARL_v21n53nhu0","650af146fe0db44909734913","freq_resp","img/green_2bandit_b.png","70","70","test","","","","8","",""
"null","306545","pSARL_v2","pSARL_v21n53nhu0","650af146fe0db44909734913","fixation","img/fixation.png","null","","test","","","","","",""
"252","306799","pSARL_v2","pSARL_v21n53nhu0","650af146fe0db44909734913","freq","img/green_2bandit_b2.png","70","70","test","1","185","185","8","",""
"null","307352","pSARL_v2","pSARL_v21n53nhu0","650af146fe0db44909734913","freq_resp","img/green_2bandit_b.png","70","70","test","","","","8","",""
"null","307507","pSARL_v2","pSARL_v21n53nhu0","650af146fe0db44909734913","fixation","img/fixation.png","null","","test","","","","","",""
"418","307929","pSARL_v2","pSARL_v21n53nhu0","650af146fe0db44909734913","infreq","img/orange_2bandit_b2.png","68","68","test","1","186","186","8","",""
"null","308317","pSARL_v2","pSARL_v21n53nhu0","650af146fe0db44909734913","infreq_resp","img/orange_2bandit_b.png","68","68","test","","","","8","",""
"null","308473","pSARL_v2","pSARL_v21n53nhu0","650af146fe0db44909734913","fixation","img/fixation.png","null","","test","","","","","",""
"293","308767","pSARL_v2","pSARL_v21n53nhu0","650af146fe0db44909734913","freq","img/green_2bandit_b2.png","70","70","test","1","187","187","8","",""
"null","309283","pSARL_v2","pSARL_v21n53nhu0","650af146fe0db44909734913","freq_resp","img/green_2bandit_b.png","70","70","test","","","","8","",""
"null","309437","pSARL_v2","pSARL_v21n53nhu0","650af146fe0db44909734913","fixation","img/fixation.png","null","","test","","","","","",""
"358","309797","pSARL_v2","pSARL_v21n53nhu0","650af146fe0db44909734913","freq","img/green_2bandit_b2.png","70","70","test","1","188","188","8","",""
"null","310246","pSARL_v2","pSARL_v21n53nhu0","650af146fe0db44909734913","freq_resp","img/green_2bandit_b.png","70","70","test","","","","8","",""
"null","310402","pSARL_v2","pSARL_v21n53nhu0","650af146fe0db44909734913","fixation","img/fixation.png","null","","test","","","","","",""
"266","310669","pSARL_v2","pSARL_v21n53nhu0","650af146fe0db44909734913","freq","img/green_2bandit_b2.png","70","70","test","1","189","189","8","",""
"null","311209","pSARL_v2","pSARL_v21n53nhu0","650af146fe0db44909734913","freq_resp","img/green_2bandit_b.png","70","70","test","","","","8","",""
"null","311366","pSARL_v2","pSARL_v21n53nhu0","650af146fe0db44909734913","fixation","img/fixation.png","null","","test","","","","","",""
"326","311693","pSARL_v2","pSARL_v21n53nhu0","650af146fe0db44909734913","reward","img/slot.png","74","","test","","","","","",""
"null","312454","pSARL_v2","pSARL_v21n53nhu0","650af146fe0db44909734913","points","<div class=""verylowPoints""> -4 </div>","null","na","test","","","","8","-4","7"
"517","312972","pSARL_v2","pSARL_v21n53nhu0","650af146fe0db44909734913","freq","img/green_2bandit_b2.png","70","70","test","1","190","190","9","",""
"null","313262","pSARL_v2","pSARL_v21n53nhu0","650af146fe0db44909734913","freq_resp","img/green_2bandit_b.png","70","70","test","","","","9","",""
"null","313419","pSARL_v2","pSARL_v21n53nhu0","650af146fe0db44909734913","fixation","img/fixation.png","null","","test","","","","","",""
"305","313727","pSARL_v2","pSARL_v21n53nhu0","650af146fe0db44909734913","freq","img/green_2bandit_b2.png","70","70","test","1","191","191","9","",""
"null","314228","pSARL_v2","pSARL_v21n53nhu0","650af146fe0db44909734913","freq_resp","img/green_2bandit_b.png","70","70","test","","","","9","",""
"null","314383","pSARL_v2","pSARL_v21n53nhu0","650af146fe0db44909734913","fixation","img/fixation.png","null","","test","","","","","",""
"274","314658","pSARL_v2","pSARL_v21n53nhu0","650af146fe0db44909734913","freq","img/green_2bandit_b2.png","70","70","test","1","192","192","9","",""
"null","315191","pSARL_v2","pSARL_v21n53nhu0","650af146fe0db44909734913","freq_resp","img/green_2bandit_b.png","70","70","test","","","","9","",""
"null","315346","pSARL_v2","pSARL_v21n53nhu0","650af146fe0db44909734913","fixation","img/fixation.png","null","","test","","","","","",""
"291","315639","pSARL_v2","pSARL_v21n53nhu0","650af146fe0db44909734913","freq","img/green_2bandit_b2.png","70","70","test","1","193","193","9","",""
"null","316156","pSARL_v2","pSARL_v21n53nhu0","650af146fe0db44909734913","freq_resp","img/green_2bandit_b.png","70","70","test","","","","9","",""
"null","316311","pSARL_v2","pSARL_v21n53nhu0","650af146fe0db44909734913","fixation","img/fixation.png","null","","test","","","","","",""
"247","316561","pSARL_v2","pSARL_v21n53nhu0","650af146fe0db44909734913","freq","img/green_2bandit_b2.png","70","70","test","1","194","194","9","",""
"null","317120","pSARL_v2","pSARL_v21n53nhu0","650af146fe0db44909734913","freq_resp","img/green_2bandit_b.png","70","70","test","","","","9","",""
"null","317276","pSARL_v2","pSARL_v21n53nhu0","650af146fe0db44909734913","fixation","img/fixation.png","null","","test","","","","","",""
"255","317533","pSARL_v2","pSARL_v21n53nhu0","650af146fe0db44909734913","freq","img/green_2bandit_b2.png","70","70","test","1","195","195","9","",""
"null","318084","pSARL_v2","pSARL_v21n53nhu0","650af146fe0db44909734913","freq_resp","img/green_2bandit_b.png","70","70","test","","","","9","",""
"null","318240","pSARL_v2","pSARL_v21n53nhu0","650af146fe0db44909734913","fixation","img/fixation.png","null","","test","","","","","",""
"233","318475","pSARL_v2","pSARL_v21n53nhu0","650af146fe0db44909734913","freq","img/green_2bandit_b2.png","70","70","test","1","196","196","9","",""
"null","319047","pSARL_v2","pSARL_v21n53nhu0","650af146fe0db44909734913","freq_resp","img/green_2bandit_b.png","70","70","test","","","","9","",""
"null","319202","pSARL_v2","pSARL_v21n53nhu0","650af146fe0db44909734913","fixation","img/fixation.png","null","","test","","","","","",""
"244","319448","pSARL_v2","pSARL_v21n53nhu0","650af146fe0db44909734913","freq","img/green_2bandit_b2.png","70","70","test","1","197","197","9","",""
"null","320011","pSARL_v2","pSARL_v21n53nhu0","650af146fe0db44909734913","freq_resp","img/green_2bandit_b.png","70","70","test","","","","9","",""
"null","320166","pSARL_v2","pSARL_v21n53nhu0","650af146fe0db44909734913","fixation","img/fixation.png","null","","test","","","","","",""
"230","320399","pSARL_v2","pSARL_v21n53nhu0","650af146fe0db44909734913","freq","img/green_2bandit_b2.png","70","70","test","1","198","198","9","",""
"null","320976","pSARL_v2","pSARL_v21n53nhu0","650af146fe0db44909734913","freq_resp","img/green_2bandit_b.png","70","70","test","","","","9","",""
"null","321132","pSARL_v2","pSARL_v21n53nhu0","650af146fe0db44909734913","fixation","img/fixation.png","null","","test","","","","","",""
"248","321383","pSARL_v2","pSARL_v21n53nhu0","650af146fe0db44909734913","freq","img/green_2bandit_b2.png","70","70","test","1","199","199","9","",""
"null","321940","pSARL_v2","pSARL_v21n53nhu0","650af146fe0db44909734913","freq_resp","img/green_2bandit_b.png","70","70","test","","","","9","",""
"null","322095","pSARL_v2","pSARL_v21n53nhu0","650af146fe0db44909734913","fixation","img/fixation.png","null","","test","","","","","",""
"325","322421","pSARL_v2","pSARL_v21n53nhu0","650af146fe0db44909734913","freq","img/green_2bandit_b2.png","70","70","test","1","200","200","9","",""
"null","322904","pSARL_v2","pSARL_v21n53nhu0","650af146fe0db44909734913","freq_resp","img/green_2bandit_b.png","70","70","test","","","","9","",""
"null","323060","pSARL_v2","pSARL_v21n53nhu0","650af146fe0db44909734913","fixation","img/fixation.png","null","","test","","","","","",""
"403","323464","pSARL_v2","pSARL_v21n53nhu0","650af146fe0db44909734913","infreq","img/orange_2bandit_b2.png","68","68","test","1","201","201","9","",""
"null","323869","pSARL_v2","pSARL_v21n53nhu0","650af146fe0db44909734913","infreq_resp","img/orange_2bandit_b.png","68","68","test","","","","9","",""
"null","324025","pSARL_v2","pSARL_v21n53nhu0","650af146fe0db44909734913","fixation","img/fixation.png","null","","test","","","","","",""
"267","324293","pSARL_v2","pSARL_v21n53nhu0","650af146fe0db44909734913","freq","img/green_2bandit_b2.png","70","70","test","1","202","202","9","",""
"null","324833","pSARL_v2","pSARL_v21n53nhu0","650af146fe0db44909734913","freq_resp","img/green_2bandit_b.png","70","70","test","","","","9","",""
"null","324989","pSARL_v2","pSARL_v21n53nhu0","650af146fe0db44909734913","fixation","img/fixation.png","null","","test","","","","","",""
"280","325270","pSARL_v2","pSARL_v21n53nhu0","650af146fe0db44909734913","freq","img/green_2bandit_b2.png","70","70","test","1","203","203","9","",""
"null","325798","pSARL_v2","pSARL_v21n53nhu0","650af146fe0db44909734913","freq_resp","img/green_2bandit_b.png","70","70","test","","","","9","",""
"null","325954","pSARL_v2","pSARL_v21n53nhu0","650af146fe0db44909734913","fixation","img/fixation.png","null","","test","","","","","",""
"58","326014","pSARL_v2","pSARL_v21n53nhu0","650af146fe0db44909734913","freq","img/green_2bandit_b2.png","70","70","test","1","204","204","9","",""
"null","326762","pSARL_v2","pSARL_v21n53nhu0","650af146fe0db44909734913","freq_resp","img/green_2bandit_b.png","70","70","test","","","","9","",""
"null","326918","pSARL_v2","pSARL_v21n53nhu0","650af146fe0db44909734913","fixation","img/fixation.png","null","","test","","","","","",""
"489","327409","pSARL_v2","pSARL_v21n53nhu0","650af146fe0db44909734913","infreq","img/orange_2bandit_b2.png","68","68","test","1","205","205","9","",""
"null","327728","pSARL_v2","pSARL_v21n53nhu0","650af146fe0db44909734913","infreq_resp","img/orange_2bandit_b.png","68","68","test","","","","9","",""
"null","327883","pSARL_v2","pSARL_v21n53nhu0","650af146fe0db44909734913","fixation","img/fixation.png","null","","test","","","","","",""
"350","328235","pSARL_v2","pSARL_v21n53nhu0","650af146fe0db44909734913","freq","img/green_2bandit_b2.png","70","70","test","1","206","206","9","",""
"null","328692","pSARL_v2","pSARL_v21n53nhu0","650af146fe0db44909734913","freq_resp","img/green_2bandit_b.png","70","70","test","","","","9","",""
"null","328848","pSARL_v2","pSARL_v21n53nhu0","650af146fe0db44909734913","fixation","img/fixation.png","null","","test","","","","","",""
"266","329116","pSARL_v2","pSARL_v21n53nhu0","650af146fe0db44909734913","freq","img/green_2bandit_b2.png","70","70","test","1","207","207","9","",""
"null","329657","pSARL_v2","pSARL_v21n53nhu0","650af146fe0db44909734913","freq_resp","img/green_2bandit_b.png","70","70","test","","","","9","",""
"null","329811","pSARL_v2","pSARL_v21n53nhu0","650af146fe0db44909734913","fixation","img/fixation.png","null","","test","","","","","",""
"233","330047","pSARL_v2","pSARL_v21n53nhu0","650af146fe0db44909734913","freq","img/green_2bandit_b2.png","70","70","test","1","208","208","9","",""
"null","330620","pSARL_v2","pSARL_v21n53nhu0","650af146fe0db44909734913","freq_resp","img/green_2bandit_b.png","70","70","test","","","","9","",""
"null","330776","pSARL_v2","pSARL_v21n53nhu0","650af146fe0db44909734913","fixation","img/fixation.png","null","","test","","","","","",""
"231","331009","pSARL_v2","pSARL_v21n53nhu0","650af146fe0db44909734913","freq","img/green_2bandit_b2.png","70","70","test","1","209","209","9","",""
"null","331584","pSARL_v2","pSARL_v21n53nhu0","650af146fe0db44909734913","freq_resp","img/green_2bandit_b.png","70","70","test","","","","9","",""
"null","331740","pSARL_v2","pSARL_v21n53nhu0","650af146fe0db44909734913","fixation","img/fixation.png","null","","test","","","","","",""
"239","331982","pSARL_v2","pSARL_v21n53nhu0","650af146fe0db44909734913","freq","img/green_2bandit_b2.png","70","70","test","1","210","210","9","",""
"null","332548","pSARL_v2","pSARL_v21n53nhu0","650af146fe0db44909734913","freq_resp","img/green_2bandit_b.png","70","70","test","","","","9","",""
"null","332704","pSARL_v2","pSARL_v21n53nhu0","650af146fe0db44909734913","fixation","img/fixation.png","null","","test","","","","","",""
"540","333246","pSARL_v2","pSARL_v21n53nhu0","650af146fe0db44909734913","infreq","img/orange_2bandit_b2.png","68","68","test","1","211","211","9","",""
"null","333513","pSARL_v2","pSARL_v21n53nhu0","650af146fe0db44909734913","infreq_resp","img/orange_2bandit_b.png","68","68","test","","","","9","",""
"null","333669","pSARL_v2","pSARL_v21n53nhu0","650af146fe0db44909734913","fixation","img/fixation.png","null","","test","","","","","",""
"385","334056","pSARL_v2","pSARL_v21n53nhu0","650af146fe0db44909734913","freq","img/green_2bandit_b2.png","70","70","test","1","212","212","9","",""
"null","334478","pSARL_v2","pSARL_v21n53nhu0","650af146fe0db44909734913","freq_resp","img/green_2bandit_b.png","70","70","test","","","","9","",""
"null","334633","pSARL_v2","pSARL_v21n53nhu0","650af146fe0db44909734913","fixation","img/fixation.png","null","","test","","","","","",""
