"rt","time_elapsed","expId","subject","prolificID","trialType","stimulus","key_press","corrresp","phase","corr","trialNum","attentionRunNum","blockNum","points","rlNum"
"4528.299999237061","4534","pSARL_v2","pSARL_v2ahoqs5m6","5d01b9d4c9281200151c7c6b","","","","","","","","","","",""
"","6805","pSARL_v2","pSARL_v2ahoqs5m6","5d01b9d4c9281200151c7c6b","fullscreen","","","","","","","","","",""
"35102.39999961853","41912","pSARL_v2","pSARL_v2ahoqs5m6","5d01b9d4c9281200151c7c6b","","","","","","","","","","",""
"null","42720","pSARL_v2","pSARL_v2ahoqs5m6","5d01b9d4c9281200151c7c6b","freqPrac","img/green_2bandit_b2.png","null","70","prac","0","","","","",""
"null","43729","pSARL_v2","pSARL_v2ahoqs5m6","5d01b9d4c9281200151c7c6b","feedback","img/tooSlow.png","null","na","prac","","","","","",""
"null","43887","pSARL_v2","pSARL_v2ahoqs5m6","5d01b9d4c9281200151c7c6b","fixation","img/fixation.png","null","","prac","","","","","",""
"651.9000005722046","44543","pSARL_v2","pSARL_v2ahoqs5m6","5d01b9d4c9281200151c7c6b","infreqPrac","img/orange_2bandit_b2.png","70","68","prac","0","","","","",""
"651.9000005722046","44696","pSARL_v2","pSARL_v2ahoqs5m6","5d01b9d4c9281200151c7c6b","infreqPrac_resp","img/orange_2bandit_b.png","70","68","prac","","","","","",""
"null","45707","pSARL_v2","pSARL_v2ahoqs5m6","5d01b9d4c9281200151c7c6b","feedback","img/wrongKey.png","null","na","prac","","","","","",""
"null","45862","pSARL_v2","pSARL_v2ahoqs5m6","5d01b9d4c9281200151c7c6b","fixation","img/fixation.png","null","","prac","","","","","",""
"637.0999994277954","46503","pSARL_v2","pSARL_v2ahoqs5m6","5d01b9d4c9281200151c7c6b","freqPrac","img/green_2bandit_b2.png","70","70","prac","1","","","","",""
"637.0999994277954","46674","pSARL_v2","pSARL_v2ahoqs5m6","5d01b9d4c9281200151c7c6b","freqPrac_resp","img/green_2bandit_b.png","70","70","prac","","","","","",""
"null","46828","pSARL_v2","pSARL_v2ahoqs5m6","5d01b9d4c9281200151c7c6b","fixation","img/fixation.png","null","","prac","","","","","",""
"558","47390","pSARL_v2","pSARL_v2ahoqs5m6","5d01b9d4c9281200151c7c6b","infreqPrac","img/orange_2bandit_b2.png","68","68","prac","1","","","","",""
"558","47652","pSARL_v2","pSARL_v2ahoqs5m6","5d01b9d4c9281200151c7c6b","infreqPrac_resp","img/orange_2bandit_b.png","68","68","prac","","","","","",""
"null","47821","pSARL_v2","pSARL_v2ahoqs5m6","5d01b9d4c9281200151c7c6b","fixation","img/fixation.png","null","","prac","","","","","",""
"501.3999996185303","48326","pSARL_v2","pSARL_v2ahoqs5m6","5d01b9d4c9281200151c7c6b","infreqPrac","img/orange_2bandit_b2.png","68","68","prac","1","","","","",""
"501.3999996185303","48630","pSARL_v2","pSARL_v2ahoqs5m6","5d01b9d4c9281200151c7c6b","infreqPrac_resp","img/orange_2bandit_b.png","68","68","prac","","","","","",""
"null","48787","pSARL_v2","pSARL_v2ahoqs5m6","5d01b9d4c9281200151c7c6b","fixation","img/fixation.png","null","","prac","","","","","",""
"406.80000019073486","49198","pSARL_v2","pSARL_v2ahoqs5m6","5d01b9d4c9281200151c7c6b","infreqPrac","img/orange_2bandit_b2.png","68","68","prac","1","","","","",""
"406.80000019073486","49610","pSARL_v2","pSARL_v2ahoqs5m6","5d01b9d4c9281200151c7c6b","infreqPrac_resp","img/orange_2bandit_b.png","68","68","prac","","","","","",""
"null","49766","pSARL_v2","pSARL_v2ahoqs5m6","5d01b9d4c9281200151c7c6b","fixation","img/fixation.png","null","","prac","","","","","",""
"380.79999923706055","50151","pSARL_v2","pSARL_v2ahoqs5m6","5d01b9d4c9281200151c7c6b","freqPrac","img/green_2bandit_b2.png","70","70","prac","1","","","","",""
"380.79999923706055","50576","pSARL_v2","pSARL_v2ahoqs5m6","5d01b9d4c9281200151c7c6b","freqPrac_resp","img/green_2bandit_b.png","70","70","prac","","","","","",""
"null","50733","pSARL_v2","pSARL_v2ahoqs5m6","5d01b9d4c9281200151c7c6b","fixation","img/fixation.png","null","","prac","","","","","",""
"357.69999980926514","51096","pSARL_v2","pSARL_v2ahoqs5m6","5d01b9d4c9281200151c7c6b","infreqPrac","img/orange_2bandit_b2.png","70","68","prac","0","","","","",""
"357.69999980926514","51560","pSARL_v2","pSARL_v2ahoqs5m6","5d01b9d4c9281200151c7c6b","infreqPrac_resp","img/orange_2bandit_b.png","70","68","prac","","","","","",""
"null","52568","pSARL_v2","pSARL_v2ahoqs5m6","5d01b9d4c9281200151c7c6b","feedback","img/wrongKey.png","null","na","prac","","","","","",""
"null","52726","pSARL_v2","pSARL_v2ahoqs5m6","5d01b9d4c9281200151c7c6b","fixation","img/fixation.png","null","","prac","","","","","",""
"469.69999980926514","53200","pSARL_v2","pSARL_v2ahoqs5m6","5d01b9d4c9281200151c7c6b","freqPrac","img/green_2bandit_b2.png","70","70","prac","1","","","","",""
"469.69999980926514","53536","pSARL_v2","pSARL_v2ahoqs5m6","5d01b9d4c9281200151c7c6b","freqPrac_resp","img/green_2bandit_b.png","70","70","prac","","","","","",""
"null","53690","pSARL_v2","pSARL_v2ahoqs5m6","5d01b9d4c9281200151c7c6b","fixation","img/fixation.png","null","","prac","","","","","",""
"384.4000005722046","54078","pSARL_v2","pSARL_v2ahoqs5m6","5d01b9d4c9281200151c7c6b","freqPrac","img/green_2bandit_b2.png","70","70","prac","1","","","","",""
"384.4000005722046","54498","pSARL_v2","pSARL_v2ahoqs5m6","5d01b9d4c9281200151c7c6b","freqPrac_resp","img/green_2bandit_b.png","70","70","prac","","","","","",""
"null","54655","pSARL_v2","pSARL_v2ahoqs5m6","5d01b9d4c9281200151c7c6b","fixation","img/fixation.png","null","","prac","","","","","",""
"16540.300000190735","71198","pSARL_v2","pSARL_v2ahoqs5m6","5d01b9d4c9281200151c7c6b","","","","","prac","","","","","",""
"676.2999992370605","71878","pSARL_v2","pSARL_v2ahoqs5m6","5d01b9d4c9281200151c7c6b","rewardPractice","img/slot.png","74","","prac","","","","","",""
"null","72640","pSARL_v2","pSARL_v2ahoqs5m6","5d01b9d4c9281200151c7c6b","feedback","<div class=""veryhighPoints""> +15 </div>","null","na","prac","","","","","",""
"null","72796","pSARL_v2","pSARL_v2ahoqs5m6","5d01b9d4c9281200151c7c6b","fixation","img/fixation.png","null","","prac","","","","","",""
"12063.599999427795","84864","pSARL_v2","pSARL_v2ahoqs5m6","5d01b9d4c9281200151c7c6b","","","","","prac","","","","","",""
"506.8999996185303","85374","pSARL_v2","pSARL_v2ahoqs5m6","5d01b9d4c9281200151c7c6b","freq","img/green_2bandit_b2.png","70","70","test","1","1","1","1","",""
"null","85687","pSARL_v2","pSARL_v2ahoqs5m6","5d01b9d4c9281200151c7c6b","freq_resp","img/green_2bandit_b.png","70","70","test","","","","1","",""
"null","85841","pSARL_v2","pSARL_v2ahoqs5m6","5d01b9d4c9281200151c7c6b","fixation","img/fixation.png","null","","test","","","","","",""
"409","86254","pSARL_v2","pSARL_v2ahoqs5m6","5d01b9d4c9281200151c7c6b","freq","img/green_2bandit_b2.png","70","70","test","1","2","2","1","",""
"null","86662","pSARL_v2","pSARL_v2ahoqs5m6","5d01b9d4c9281200151c7c6b","freq_resp","img/green_2bandit_b.png","70","70","test","","","","1","",""
"null","86820","pSARL_v2","pSARL_v2ahoqs5m6","5d01b9d4c9281200151c7c6b","fixation","img/fixation.png","null","","test","","","","","",""
"390.80000019073486","87216","pSARL_v2","pSARL_v2ahoqs5m6","5d01b9d4c9281200151c7c6b","infreq","img/orange_2bandit_b2.png","68","68","test","1","3","3","1","",""
"null","87630","pSARL_v2","pSARL_v2ahoqs5m6","5d01b9d4c9281200151c7c6b","infreq_resp","img/orange_2bandit_b.png","68","68","test","","","","1","",""
"null","87784","pSARL_v2","pSARL_v2ahoqs5m6","5d01b9d4c9281200151c7c6b","fixation","img/fixation.png","null","","test","","","","","",""
"555.2999992370605","88343","pSARL_v2","pSARL_v2ahoqs5m6","5d01b9d4c9281200151c7c6b","freq","img/green_2bandit_b2.png","70","70","test","1","4","4","1","",""
"null","88594","pSARL_v2","pSARL_v2ahoqs5m6","5d01b9d4c9281200151c7c6b","freq_resp","img/green_2bandit_b.png","70","70","test","","","","1","",""
"null","88749","pSARL_v2","pSARL_v2ahoqs5m6","5d01b9d4c9281200151c7c6b","fixation","img/fixation.png","null","","test","","","","","",""
"357.0999994277954","89111","pSARL_v2","pSARL_v2ahoqs5m6","5d01b9d4c9281200151c7c6b","freq","img/green_2bandit_b2.png","70","70","test","1","5","5","1","",""
"null","89570","pSARL_v2","pSARL_v2ahoqs5m6","5d01b9d4c9281200151c7c6b","freq_resp","img/green_2bandit_b.png","70","70","test","","","","1","",""
"null","89724","pSARL_v2","pSARL_v2ahoqs5m6","5d01b9d4c9281200151c7c6b","fixation","img/fixation.png","null","","test","","","","","",""
"342.8999996185303","90071","pSARL_v2","pSARL_v2ahoqs5m6","5d01b9d4c9281200151c7c6b","freq","img/green_2bandit_b2.png","70","70","test","1","6","6","1","",""
"null","90535","pSARL_v2","pSARL_v2ahoqs5m6","5d01b9d4c9281200151c7c6b","freq_resp","img/green_2bandit_b.png","70","70","test","","","","1","",""
"null","90692","pSARL_v2","pSARL_v2ahoqs5m6","5d01b9d4c9281200151c7c6b","fixation","img/fixation.png","null","","test","","","","","",""
"342.80000019073486","91039","pSARL_v2","pSARL_v2ahoqs5m6","5d01b9d4c9281200151c7c6b","infreq","img/orange_2bandit_b2.png","68","68","test","1","7","7","1","",""
"null","91510","pSARL_v2","pSARL_v2ahoqs5m6","5d01b9d4c9281200151c7c6b","infreq_resp","img/orange_2bandit_b.png","68","68","test","","","","1","",""
"null","91679","pSARL_v2","pSARL_v2ahoqs5m6","5d01b9d4c9281200151c7c6b","fixation","img/fixation.png","null","","test","","","","","",""
"371.5","92054","pSARL_v2","pSARL_v2ahoqs5m6","5d01b9d4c9281200151c7c6b","freq","img/green_2bandit_b2.png","70","70","test","1","8","8","1","",""
"null","92500","pSARL_v2","pSARL_v2ahoqs5m6","5d01b9d4c9281200151c7c6b","freq_resp","img/green_2bandit_b.png","70","70","test","","","","1","",""
"null","92657","pSARL_v2","pSARL_v2ahoqs5m6","5d01b9d4c9281200151c7c6b","fixation","img/fixation.png","null","","test","","","","","",""
"369.30000019073486","93032","pSARL_v2","pSARL_v2ahoqs5m6","5d01b9d4c9281200151c7c6b","freq","img/green_2bandit_b2.png","70","70","test","1","9","9","1","",""
"null","93478","pSARL_v2","pSARL_v2ahoqs5m6","5d01b9d4c9281200151c7c6b","freq_resp","img/green_2bandit_b.png","70","70","test","","","","1","",""
"null","93634","pSARL_v2","pSARL_v2ahoqs5m6","5d01b9d4c9281200151c7c6b","fixation","img/fixation.png","null","","test","","","","","",""
"384.9000005722046","94023","pSARL_v2","pSARL_v2ahoqs5m6","5d01b9d4c9281200151c7c6b","freq","img/green_2bandit_b2.png","70","70","test","1","10","10","1","",""
"null","94454","pSARL_v2","pSARL_v2ahoqs5m6","5d01b9d4c9281200151c7c6b","freq_resp","img/green_2bandit_b.png","70","70","test","","","","1","",""
"null","94611","pSARL_v2","pSARL_v2ahoqs5m6","5d01b9d4c9281200151c7c6b","fixation","img/fixation.png","null","","test","","","","","",""
"391.80000019073486","95007","pSARL_v2","pSARL_v2ahoqs5m6","5d01b9d4c9281200151c7c6b","freq","img/green_2bandit_b2.png","70","70","test","1","11","11","1","",""
"null","95422","pSARL_v2","pSARL_v2ahoqs5m6","5d01b9d4c9281200151c7c6b","freq_resp","img/green_2bandit_b.png","70","70","test","","","","1","",""
"null","95577","pSARL_v2","pSARL_v2ahoqs5m6","5d01b9d4c9281200151c7c6b","fixation","img/fixation.png","null","","test","","","","","",""
"346","95929","pSARL_v2","pSARL_v2ahoqs5m6","5d01b9d4c9281200151c7c6b","freq","img/green_2bandit_b2.png","70","70","test","1","12","12","1","",""
"null","96400","pSARL_v2","pSARL_v2ahoqs5m6","5d01b9d4c9281200151c7c6b","freq_resp","img/green_2bandit_b.png","70","70","test","","","","1","",""
"null","96555","pSARL_v2","pSARL_v2ahoqs5m6","5d01b9d4c9281200151c7c6b","fixation","img/fixation.png","null","","test","","","","","",""
"335.6000003814697","96893","pSARL_v2","pSARL_v2ahoqs5m6","5d01b9d4c9281200151c7c6b","freq","img/green_2bandit_b2.png","70","70","test","1","13","13","1","",""
"null","97367","pSARL_v2","pSARL_v2ahoqs5m6","5d01b9d4c9281200151c7c6b","freq_resp","img/green_2bandit_b.png","70","70","test","","","","1","",""
"null","97521","pSARL_v2","pSARL_v2ahoqs5m6","5d01b9d4c9281200151c7c6b","fixation","img/fixation.png","null","","test","","","","","",""
"345.5","97870","pSARL_v2","pSARL_v2ahoqs5m6","5d01b9d4c9281200151c7c6b","freq","img/green_2bandit_b2.png","70","70","test","1","14","14","1","",""
"null","98332","pSARL_v2","pSARL_v2ahoqs5m6","5d01b9d4c9281200151c7c6b","freq_resp","img/green_2bandit_b.png","70","70","test","","","","1","",""
"null","98501","pSARL_v2","pSARL_v2ahoqs5m6","5d01b9d4c9281200151c7c6b","fixation","img/fixation.png","null","","test","","","","","",""
"381.4000005722046","98887","pSARL_v2","pSARL_v2ahoqs5m6","5d01b9d4c9281200151c7c6b","freq","img/green_2bandit_b2.png","70","70","test","1","15","15","1","",""
"null","99309","pSARL_v2","pSARL_v2ahoqs5m6","5d01b9d4c9281200151c7c6b","freq_resp","img/green_2bandit_b.png","70","70","test","","","","1","",""
"null","99463","pSARL_v2","pSARL_v2ahoqs5m6","5d01b9d4c9281200151c7c6b","fixation","img/fixation.png","null","","test","","","","","",""
"340.1000003814697","99806","pSARL_v2","pSARL_v2ahoqs5m6","5d01b9d4c9281200151c7c6b","freq","img/green_2bandit_b2.png","70","70","test","1","16","16","1","",""
"null","100271","pSARL_v2","pSARL_v2ahoqs5m6","5d01b9d4c9281200151c7c6b","freq_resp","img/green_2bandit_b.png","70","70","test","","","","1","",""
"null","100426","pSARL_v2","pSARL_v2ahoqs5m6","5d01b9d4c9281200151c7c6b","fixation","img/fixation.png","null","","test","","","","","",""
"456.30000019073486","100888","pSARL_v2","pSARL_v2ahoqs5m6","5d01b9d4c9281200151c7c6b","infreq","img/orange_2bandit_b2.png","68","68","test","1","17","17","1","",""
"null","101237","pSARL_v2","pSARL_v2ahoqs5m6","5d01b9d4c9281200151c7c6b","infreq_resp","img/orange_2bandit_b.png","68","68","test","","","","1","",""
"null","101391","pSARL_v2","pSARL_v2ahoqs5m6","5d01b9d4c9281200151c7c6b","fixation","img/fixation.png","null","","test","","","","","",""
"412.6000003814697","101808","pSARL_v2","pSARL_v2ahoqs5m6","5d01b9d4c9281200151c7c6b","freq","img/green_2bandit_b2.png","70","70","test","1","18","18","1","",""
"null","102214","pSARL_v2","pSARL_v2ahoqs5m6","5d01b9d4c9281200151c7c6b","freq_resp","img/green_2bandit_b.png","70","70","test","","","","1","",""
"null","102369","pSARL_v2","pSARL_v2ahoqs5m6","5d01b9d4c9281200151c7c6b","fixation","img/fixation.png","null","","test","","","","","",""
"377.80000019073486","102751","pSARL_v2","pSARL_v2ahoqs5m6","5d01b9d4c9281200151c7c6b","freq","img/green_2bandit_b2.png","70","70","test","1","19","19","1","",""
"null","103191","pSARL_v2","pSARL_v2ahoqs5m6","5d01b9d4c9281200151c7c6b","freq_resp","img/green_2bandit_b.png","70","70","test","","","","1","",""
"null","103348","pSARL_v2","pSARL_v2ahoqs5m6","5d01b9d4c9281200151c7c6b","fixation","img/fixation.png","null","","test","","","","","",""
"334.69999980926514","103686","pSARL_v2","pSARL_v2ahoqs5m6","5d01b9d4c9281200151c7c6b","freq","img/green_2bandit_b2.png","70","70","test","1","20","20","1","",""
"null","104157","pSARL_v2","pSARL_v2ahoqs5m6","5d01b9d4c9281200151c7c6b","freq_resp","img/green_2bandit_b.png","70","70","test","","","","1","",""
"null","104311","pSARL_v2","pSARL_v2ahoqs5m6","5d01b9d4c9281200151c7c6b","fixation","img/fixation.png","null","","test","","","","","",""
"556.6000003814697","104871","pSARL_v2","pSARL_v2ahoqs5m6","5d01b9d4c9281200151c7c6b","reward","img/slot.png","74","","test","","","","","",""
"null","105635","pSARL_v2","pSARL_v2ahoqs5m6","5d01b9d4c9281200151c7c6b","points","<div class=""verylowPoints""> -6 </div>","null","na","test","","","","1","-6","0"
"712.5","106351","pSARL_v2","pSARL_v2ahoqs5m6","5d01b9d4c9281200151c7c6b","freq","img/green_2bandit_b2.png","70","70","test","1","21","21","2","",""
"null","106443","pSARL_v2","pSARL_v2ahoqs5m6","5d01b9d4c9281200151c7c6b","freq_resp","img/green_2bandit_b.png","70","70","test","","","","2","",""
"null","106598","pSARL_v2","pSARL_v2ahoqs5m6","5d01b9d4c9281200151c7c6b","fixation","img/fixation.png","null","","test","","","","","",""
"460.1000003814697","107062","pSARL_v2","pSARL_v2ahoqs5m6","5d01b9d4c9281200151c7c6b","freq","img/green_2bandit_b2.png","70","70","test","1","22","22","2","",""
"null","107406","pSARL_v2","pSARL_v2ahoqs5m6","5d01b9d4c9281200151c7c6b","freq_resp","img/green_2bandit_b.png","70","70","test","","","","2","",""
"null","107561","pSARL_v2","pSARL_v2ahoqs5m6","5d01b9d4c9281200151c7c6b","fixation","img/fixation.png","null","","test","","","","","",""
"361.5999994277954","107927","pSARL_v2","pSARL_v2ahoqs5m6","5d01b9d4c9281200151c7c6b","freq","img/green_2bandit_b2.png","70","70","test","1","23","23","2","",""
"null","108372","pSARL_v2","pSARL_v2ahoqs5m6","5d01b9d4c9281200151c7c6b","freq_resp","img/green_2bandit_b.png","70","70","test","","","","2","",""
"null","108526","pSARL_v2","pSARL_v2ahoqs5m6","5d01b9d4c9281200151c7c6b","fixation","img/fixation.png","null","","test","","","","","",""
"348.5","108877","pSARL_v2","pSARL_v2ahoqs5m6","5d01b9d4c9281200151c7c6b","freq","img/green_2bandit_b2.png","70","70","test","1","24","24","2","",""
"null","109343","pSARL_v2","pSARL_v2ahoqs5m6","5d01b9d4c9281200151c7c6b","freq_resp","img/green_2bandit_b.png","70","70","test","","","","2","",""
"null","109499","pSARL_v2","pSARL_v2ahoqs5m6","5d01b9d4c9281200151c7c6b","fixation","img/fixation.png","null","","test","","","","","",""
"336","109839","pSARL_v2","pSARL_v2ahoqs5m6","5d01b9d4c9281200151c7c6b","freq","img/green_2bandit_b2.png","70","70","test","1","25","25","2","",""
"null","110311","pSARL_v2","pSARL_v2ahoqs5m6","5d01b9d4c9281200151c7c6b","freq_resp","img/green_2bandit_b.png","70","70","test","","","","2","",""
"null","110467","pSARL_v2","pSARL_v2ahoqs5m6","5d01b9d4c9281200151c7c6b","fixation","img/fixation.png","null","","test","","","","","",""
"327.69999980926514","110799","pSARL_v2","pSARL_v2ahoqs5m6","5d01b9d4c9281200151c7c6b","freq","img/green_2bandit_b2.png","70","70","test","1","26","26","2","",""
"null","111277","pSARL_v2","pSARL_v2ahoqs5m6","5d01b9d4c9281200151c7c6b","freq_resp","img/green_2bandit_b.png","70","70","test","","","","2","",""
"null","111445","pSARL_v2","pSARL_v2ahoqs5m6","5d01b9d4c9281200151c7c6b","fixation","img/fixation.png","null","","test","","","","","",""
"349","111799","pSARL_v2","pSARL_v2ahoqs5m6","5d01b9d4c9281200151c7c6b","freq","img/green_2bandit_b2.png","70","70","test","1","27","27","2","",""
"null","112269","pSARL_v2","pSARL_v2ahoqs5m6","5d01b9d4c9281200151c7c6b","freq_resp","img/green_2bandit_b.png","70","70","test","","","","2","",""
"null","112423","pSARL_v2","pSARL_v2ahoqs5m6","5d01b9d4c9281200151c7c6b","fixation","img/fixation.png","null","","test","","","","","",""
"467.80000019073486","112894","pSARL_v2","pSARL_v2ahoqs5m6","5d01b9d4c9281200151c7c6b","infreq","img/orange_2bandit_b2.png","68","68","test","1","28","28","2","",""
"null","113230","pSARL_v2","pSARL_v2ahoqs5m6","5d01b9d4c9281200151c7c6b","infreq_resp","img/orange_2bandit_b.png","68","68","test","","","","2","",""
"null","113386","pSARL_v2","pSARL_v2ahoqs5m6","5d01b9d4c9281200151c7c6b","fixation","img/fixation.png","null","","test","","","","","",""
"424.5999994277954","113815","pSARL_v2","pSARL_v2ahoqs5m6","5d01b9d4c9281200151c7c6b","infreq","img/orange_2bandit_b2.png","68","68","test","1","29","29","2","",""
"null","114200","pSARL_v2","pSARL_v2ahoqs5m6","5d01b9d4c9281200151c7c6b","infreq_resp","img/orange_2bandit_b.png","68","68","test","","","","2","",""
"null","114368","pSARL_v2","pSARL_v2ahoqs5m6","5d01b9d4c9281200151c7c6b","fixation","img/fixation.png","null","","test","","","","","",""
"386.30000019073486","114762","pSARL_v2","pSARL_v2ahoqs5m6","5d01b9d4c9281200151c7c6b","freq","img/green_2bandit_b2.png","70","70","test","1","30","30","2","",""
"null","115191","pSARL_v2","pSARL_v2ahoqs5m6","5d01b9d4c9281200151c7c6b","freq_resp","img/green_2bandit_b.png","70","70","test","","","","2","",""
"null","115359","pSARL_v2","pSARL_v2ahoqs5m6","5d01b9d4c9281200151c7c6b","fixation","img/fixation.png","null","","test","","","","","",""
"435.5999994277954","115801","pSARL_v2","pSARL_v2ahoqs5m6","5d01b9d4c9281200151c7c6b","infreq","img/orange_2bandit_b2.png","68","68","test","1","31","31","2","",""
"null","116170","pSARL_v2","pSARL_v2ahoqs5m6","5d01b9d4c9281200151c7c6b","infreq_resp","img/orange_2bandit_b.png","68","68","test","","","","2","",""
"null","116326","pSARL_v2","pSARL_v2ahoqs5m6","5d01b9d4c9281200151c7c6b","fixation","img/fixation.png","null","","test","","","","","",""
"412.30000019073486","116743","pSARL_v2","pSARL_v2ahoqs5m6","5d01b9d4c9281200151c7c6b","freq","img/green_2bandit_b2.png","70","70","test","1","32","32","2","",""
"null","117147","pSARL_v2","pSARL_v2ahoqs5m6","5d01b9d4c9281200151c7c6b","freq_resp","img/green_2bandit_b.png","70","70","test","","","","2","",""
"null","117302","pSARL_v2","pSARL_v2ahoqs5m6","5d01b9d4c9281200151c7c6b","fixation","img/fixation.png","null","","test","","","","","",""
"412.30000019073486","117718","pSARL_v2","pSARL_v2ahoqs5m6","5d01b9d4c9281200151c7c6b","freq","img/green_2bandit_b2.png","70","70","test","1","33","33","2","",""
"null","118112","pSARL_v2","pSARL_v2ahoqs5m6","5d01b9d4c9281200151c7c6b","freq_resp","img/green_2bandit_b.png","70","70","test","","","","2","",""
"null","118282","pSARL_v2","pSARL_v2ahoqs5m6","5d01b9d4c9281200151c7c6b","fixation","img/fixation.png","null","","test","","","","","",""
"368.9000005722046","118655","pSARL_v2","pSARL_v2ahoqs5m6","5d01b9d4c9281200151c7c6b","freq","img/green_2bandit_b2.png","70","70","test","1","34","34","2","",""
"null","119104","pSARL_v2","pSARL_v2ahoqs5m6","5d01b9d4c9281200151c7c6b","freq_resp","img/green_2bandit_b.png","70","70","test","","","","2","",""
"null","119258","pSARL_v2","pSARL_v2ahoqs5m6","5d01b9d4c9281200151c7c6b","fixation","img/fixation.png","null","","test","","","","","",""
"352.3999996185303","119615","pSARL_v2","pSARL_v2ahoqs5m6","5d01b9d4c9281200151c7c6b","freq","img/green_2bandit_b2.png","70","70","test","1","35","35","2","",""
"null","120068","pSARL_v2","pSARL_v2ahoqs5m6","5d01b9d4c9281200151c7c6b","freq_resp","img/green_2bandit_b.png","70","70","test","","","","2","",""
"null","120223","pSARL_v2","pSARL_v2ahoqs5m6","5d01b9d4c9281200151c7c6b","fixation","img/fixation.png","null","","test","","","","","",""
"307.30000019073486","120535","pSARL_v2","pSARL_v2ahoqs5m6","5d01b9d4c9281200151c7c6b","freq","img/green_2bandit_b2.png","70","70","test","1","36","36","2","",""
"null","121032","pSARL_v2","pSARL_v2ahoqs5m6","5d01b9d4c9281200151c7c6b","freq_resp","img/green_2bandit_b.png","70","70","test","","","","2","",""
"null","121189","pSARL_v2","pSARL_v2ahoqs5m6","5d01b9d4c9281200151c7c6b","fixation","img/fixation.png","null","","test","","","","","",""
"302.69999980926514","121499","pSARL_v2","pSARL_v2ahoqs5m6","5d01b9d4c9281200151c7c6b","freq","img/green_2bandit_b2.png","70","70","test","1","37","37","2","",""
"null","122014","pSARL_v2","pSARL_v2ahoqs5m6","5d01b9d4c9281200151c7c6b","freq_resp","img/green_2bandit_b.png","70","70","test","","","","2","",""
"null","122172","pSARL_v2","pSARL_v2ahoqs5m6","5d01b9d4c9281200151c7c6b","fixation","img/fixation.png","null","","test","","","","","",""
"326.80000019073486","122503","pSARL_v2","pSARL_v2ahoqs5m6","5d01b9d4c9281200151c7c6b","freq","img/green_2bandit_b2.png","70","70","test","1","38","38","2","",""
"null","122988","pSARL_v2","pSARL_v2ahoqs5m6","5d01b9d4c9281200151c7c6b","freq_resp","img/green_2bandit_b.png","70","70","test","","","","2","",""
"null","123143","pSARL_v2","pSARL_v2ahoqs5m6","5d01b9d4c9281200151c7c6b","fixation","img/fixation.png","null","","test","","","","","",""
"291.19999980926514","123438","pSARL_v2","pSARL_v2ahoqs5m6","5d01b9d4c9281200151c7c6b","freq","img/green_2bandit_b2.png","70","70","test","1","39","39","2","",""
"null","123953","pSARL_v2","pSARL_v2ahoqs5m6","5d01b9d4c9281200151c7c6b","freq_resp","img/green_2bandit_b.png","70","70","test","","","","2","",""
"null","124107","pSARL_v2","pSARL_v2ahoqs5m6","5d01b9d4c9281200151c7c6b","fixation","img/fixation.png","null","","test","","","","","",""
"304","124415","pSARL_v2","pSARL_v2ahoqs5m6","5d01b9d4c9281200151c7c6b","freq","img/green_2bandit_b2.png","70","70","test","1","40","40","2","",""
"null","124930","pSARL_v2","pSARL_v2ahoqs5m6","5d01b9d4c9281200151c7c6b","freq_resp","img/green_2bandit_b.png","70","70","test","","","","2","",""
"null","125085","pSARL_v2","pSARL_v2ahoqs5m6","5d01b9d4c9281200151c7c6b","fixation","img/fixation.png","null","","test","","","","","",""
"301.1000003814697","125390","pSARL_v2","pSARL_v2ahoqs5m6","5d01b9d4c9281200151c7c6b","freq","img/green_2bandit_b2.png","70","70","test","1","41","41","2","",""
"null","125908","pSARL_v2","pSARL_v2ahoqs5m6","5d01b9d4c9281200151c7c6b","freq_resp","img/green_2bandit_b.png","70","70","test","","","","2","",""
"null","126074","pSARL_v2","pSARL_v2ahoqs5m6","5d01b9d4c9281200151c7c6b","fixation","img/fixation.png","null","","test","","","","","",""
"376.5","126455","pSARL_v2","pSARL_v2ahoqs5m6","5d01b9d4c9281200151c7c6b","freq","img/green_2bandit_b2.png","70","70","test","1","42","42","2","",""
"null","126896","pSARL_v2","pSARL_v2ahoqs5m6","5d01b9d4c9281200151c7c6b","freq_resp","img/green_2bandit_b.png","70","70","test","","","","2","",""
"null","127054","pSARL_v2","pSARL_v2ahoqs5m6","5d01b9d4c9281200151c7c6b","fixation","img/fixation.png","null","","test","","","","","",""
"527.1999998092651","127589","pSARL_v2","pSARL_v2ahoqs5m6","5d01b9d4c9281200151c7c6b","reward","img/slot.png","74","","test","","","","","",""
"null","128344","pSARL_v2","pSARL_v2ahoqs5m6","5d01b9d4c9281200151c7c6b","points","<div class=""verylowPoints""> -11 </div>","null","na","test","","","","2","-11","1"
"412.30000019073486","128762","pSARL_v2","pSARL_v2ahoqs5m6","5d01b9d4c9281200151c7c6b","freq","img/green_2bandit_b2.png","70","70","test","1","43","43","3","",""
"null","129168","pSARL_v2","pSARL_v2ahoqs5m6","5d01b9d4c9281200151c7c6b","freq_resp","img/green_2bandit_b.png","70","70","test","","","","3","",""
"null","129323","pSARL_v2","pSARL_v2ahoqs5m6","5d01b9d4c9281200151c7c6b","fixation","img/fixation.png","null","","test","","","","","",""
"303.8999996185303","129631","pSARL_v2","pSARL_v2ahoqs5m6","5d01b9d4c9281200151c7c6b","freq","img/green_2bandit_b2.png","70","70","test","1","44","44","3","",""
"null","130137","pSARL_v2","pSARL_v2ahoqs5m6","5d01b9d4c9281200151c7c6b","freq_resp","img/green_2bandit_b.png","70","70","test","","","","3","",""
"null","130293","pSARL_v2","pSARL_v2ahoqs5m6","5d01b9d4c9281200151c7c6b","fixation","img/fixation.png","null","","test","","","","","",""
"286","130583","pSARL_v2","pSARL_v2ahoqs5m6","5d01b9d4c9281200151c7c6b","freq","img/green_2bandit_b2.png","70","70","test","1","45","45","3","",""
"null","131114","pSARL_v2","pSARL_v2ahoqs5m6","5d01b9d4c9281200151c7c6b","freq_resp","img/green_2bandit_b.png","70","70","test","","","","3","",""
"null","131271","pSARL_v2","pSARL_v2ahoqs5m6","5d01b9d4c9281200151c7c6b","fixation","img/fixation.png","null","","test","","","","","",""
"179.30000019073486","131455","pSARL_v2","pSARL_v2ahoqs5m6","5d01b9d4c9281200151c7c6b","freq","img/green_2bandit_b2.png","70","70","test","1","46","46","3","",""
"null","132092","pSARL_v2","pSARL_v2ahoqs5m6","5d01b9d4c9281200151c7c6b","freq_resp","img/green_2bandit_b.png","70","70","test","","","","3","",""
"null","132247","pSARL_v2","pSARL_v2ahoqs5m6","5d01b9d4c9281200151c7c6b","fixation","img/fixation.png","null","","test","","","","","",""
"147.69999980926514","132397","pSARL_v2","pSARL_v2ahoqs5m6","5d01b9d4c9281200151c7c6b","freq","img/green_2bandit_b2.png","70","70","test","1","47","47","3","",""
"null","133055","pSARL_v2","pSARL_v2ahoqs5m6","5d01b9d4c9281200151c7c6b","freq_resp","img/green_2bandit_b.png","70","70","test","","","","3","",""
"null","133212","pSARL_v2","pSARL_v2ahoqs5m6","5d01b9d4c9281200151c7c6b","fixation","img/fixation.png","null","","test","","","","","",""
"126.40000057220459","133344","pSARL_v2","pSARL_v2ahoqs5m6","5d01b9d4c9281200151c7c6b","infreq","img/orange_2bandit_b2.png","70","68","test","0","48","48","3","",""
"null","134021","pSARL_v2","pSARL_v2ahoqs5m6","5d01b9d4c9281200151c7c6b","infreq_resp","img/orange_2bandit_b.png","70","68","test","","","","3","",""
"null","134176","pSARL_v2","pSARL_v2ahoqs5m6","5d01b9d4c9281200151c7c6b","fixation","img/fixation.png","null","","test","","","","","",""
"388.19999980926514","134568","pSARL_v2","pSARL_v2ahoqs5m6","5d01b9d4c9281200151c7c6b","freq","img/green_2bandit_b2.png","70","70","test","1","49","49","3","",""
"null","134985","pSARL_v2","pSARL_v2ahoqs5m6","5d01b9d4c9281200151c7c6b","freq_resp","img/green_2bandit_b.png","70","70","test","","","","3","",""
"null","135141","pSARL_v2","pSARL_v2ahoqs5m6","5d01b9d4c9281200151c7c6b","fixation","img/fixation.png","null","","test","","","","","",""
"406.19999980926514","135552","pSARL_v2","pSARL_v2ahoqs5m6","5d01b9d4c9281200151c7c6b","infreq","img/orange_2bandit_b2.png","68","68","test","1","50","50","3","",""
"null","135951","pSARL_v2","pSARL_v2ahoqs5m6","5d01b9d4c9281200151c7c6b","infreq_resp","img/orange_2bandit_b.png","68","68","test","","","","3","",""
"null","136106","pSARL_v2","pSARL_v2ahoqs5m6","5d01b9d4c9281200151c7c6b","fixation","img/fixation.png","null","","test","","","","","",""
"329","136439","pSARL_v2","pSARL_v2ahoqs5m6","5d01b9d4c9281200151c7c6b","freq","img/green_2bandit_b2.png","70","70","test","1","51","51","3","",""
"null","136927","pSARL_v2","pSARL_v2ahoqs5m6","5d01b9d4c9281200151c7c6b","freq_resp","img/green_2bandit_b.png","70","70","test","","","","3","",""
"null","137086","pSARL_v2","pSARL_v2ahoqs5m6","5d01b9d4c9281200151c7c6b","fixation","img/fixation.png","null","","test","","","","","",""
"428.69999980926514","137518","pSARL_v2","pSARL_v2ahoqs5m6","5d01b9d4c9281200151c7c6b","freq","img/green_2bandit_b2.png","70","70","test","1","52","52","3","",""
"null","137907","pSARL_v2","pSARL_v2ahoqs5m6","5d01b9d4c9281200151c7c6b","freq_resp","img/green_2bandit_b.png","70","70","test","","","","3","",""
"null","138063","pSARL_v2","pSARL_v2ahoqs5m6","5d01b9d4c9281200151c7c6b","fixation","img/fixation.png","null","","test","","","","","",""
"347.8999996185303","138415","pSARL_v2","pSARL_v2ahoqs5m6","5d01b9d4c9281200151c7c6b","freq","img/green_2bandit_b2.png","70","70","test","1","53","53","3","",""
"null","138873","pSARL_v2","pSARL_v2ahoqs5m6","5d01b9d4c9281200151c7c6b","freq_resp","img/green_2bandit_b.png","70","70","test","","","","3","",""
"null","139028","pSARL_v2","pSARL_v2ahoqs5m6","5d01b9d4c9281200151c7c6b","fixation","img/fixation.png","null","","test","","","","","",""
"318.30000019073486","139351","pSARL_v2","pSARL_v2ahoqs5m6","5d01b9d4c9281200151c7c6b","freq","img/green_2bandit_b2.png","70","70","test","1","54","54","3","",""
"null","139837","pSARL_v2","pSARL_v2ahoqs5m6","5d01b9d4c9281200151c7c6b","freq_resp","img/green_2bandit_b.png","70","70","test","","","","3","",""
"null","139993","pSARL_v2","pSARL_v2ahoqs5m6","5d01b9d4c9281200151c7c6b","fixation","img/fixation.png","null","","test","","","","","",""
"330.1000003814697","140328","pSARL_v2","pSARL_v2ahoqs5m6","5d01b9d4c9281200151c7c6b","freq","img/green_2bandit_b2.png","70","70","test","1","55","55","3","",""
"null","140804","pSARL_v2","pSARL_v2ahoqs5m6","5d01b9d4c9281200151c7c6b","freq_resp","img/green_2bandit_b.png","70","70","test","","","","3","",""
"null","140972","pSARL_v2","pSARL_v2ahoqs5m6","5d01b9d4c9281200151c7c6b","fixation","img/fixation.png","null","","test","","","","","",""
"326.4000005722046","141302","pSARL_v2","pSARL_v2ahoqs5m6","5d01b9d4c9281200151c7c6b","freq","img/green_2bandit_b2.png","70","70","test","1","56","56","3","",""
"null","141782","pSARL_v2","pSARL_v2ahoqs5m6","5d01b9d4c9281200151c7c6b","freq_resp","img/green_2bandit_b.png","70","70","test","","","","3","",""
"null","141937","pSARL_v2","pSARL_v2ahoqs5m6","5d01b9d4c9281200151c7c6b","fixation","img/fixation.png","null","","test","","","","","",""
"337.30000019073486","142278","pSARL_v2","pSARL_v2ahoqs5m6","5d01b9d4c9281200151c7c6b","freq","img/green_2bandit_b2.png","70","70","test","1","57","57","3","",""
"null","142747","pSARL_v2","pSARL_v2ahoqs5m6","5d01b9d4c9281200151c7c6b","freq_resp","img/green_2bandit_b.png","70","70","test","","","","3","",""
"null","142902","pSARL_v2","pSARL_v2ahoqs5m6","5d01b9d4c9281200151c7c6b","fixation","img/fixation.png","null","","test","","","","","",""
"315.69999980926514","143222","pSARL_v2","pSARL_v2ahoqs5m6","5d01b9d4c9281200151c7c6b","freq","img/green_2bandit_b2.png","70","70","test","1","58","58","3","",""
"null","143713","pSARL_v2","pSARL_v2ahoqs5m6","5d01b9d4c9281200151c7c6b","freq_resp","img/green_2bandit_b.png","70","70","test","","","","3","",""
"null","143870","pSARL_v2","pSARL_v2ahoqs5m6","5d01b9d4c9281200151c7c6b","fixation","img/fixation.png","null","","test","","","","","",""
"309.30000019073486","144187","pSARL_v2","pSARL_v2ahoqs5m6","5d01b9d4c9281200151c7c6b","freq","img/green_2bandit_b2.png","70","70","test","1","59","59","3","",""
"null","144692","pSARL_v2","pSARL_v2ahoqs5m6","5d01b9d4c9281200151c7c6b","freq_resp","img/green_2bandit_b.png","70","70","test","","","","3","",""
"null","144846","pSARL_v2","pSARL_v2ahoqs5m6","5d01b9d4c9281200151c7c6b","fixation","img/fixation.png","null","","test","","","","","",""
"309.0999994277954","145159","pSARL_v2","pSARL_v2ahoqs5m6","5d01b9d4c9281200151c7c6b","freq","img/green_2bandit_b2.png","70","70","test","1","60","60","3","",""
"null","145660","pSARL_v2","pSARL_v2ahoqs5m6","5d01b9d4c9281200151c7c6b","freq_resp","img/green_2bandit_b.png","70","70","test","","","","3","",""
"null","145820","pSARL_v2","pSARL_v2ahoqs5m6","5d01b9d4c9281200151c7c6b","fixation","img/fixation.png","null","","test","","","","","",""
"335","146158","pSARL_v2","pSARL_v2ahoqs5m6","5d01b9d4c9281200151c7c6b","freq","img/green_2bandit_b2.png","70","70","test","1","61","61","3","",""
"null","146642","pSARL_v2","pSARL_v2ahoqs5m6","5d01b9d4c9281200151c7c6b","freq_resp","img/green_2bandit_b.png","70","70","test","","","","3","",""
"null","146801","pSARL_v2","pSARL_v2ahoqs5m6","5d01b9d4c9281200151c7c6b","fixation","img/fixation.png","null","","test","","","","","",""
"305.6000003814697","147110","pSARL_v2","pSARL_v2ahoqs5m6","5d01b9d4c9281200151c7c6b","freq","img/green_2bandit_b2.png","70","70","test","1","62","62","3","",""
"null","147616","pSARL_v2","pSARL_v2ahoqs5m6","5d01b9d4c9281200151c7c6b","freq_resp","img/green_2bandit_b.png","70","70","test","","","","3","",""
"null","147768","pSARL_v2","pSARL_v2ahoqs5m6","5d01b9d4c9281200151c7c6b","fixation","img/fixation.png","null","","test","","","","","",""
"330.4000005722046","148103","pSARL_v2","pSARL_v2ahoqs5m6","5d01b9d4c9281200151c7c6b","freq","img/green_2bandit_b2.png","70","70","test","1","63","63","3","",""
"null","148589","pSARL_v2","pSARL_v2ahoqs5m6","5d01b9d4c9281200151c7c6b","freq_resp","img/green_2bandit_b.png","70","70","test","","","","3","",""
"null","148745","pSARL_v2","pSARL_v2ahoqs5m6","5d01b9d4c9281200151c7c6b","fixation","img/fixation.png","null","","test","","","","","",""
"362.29999923706055","149111","pSARL_v2","pSARL_v2ahoqs5m6","5d01b9d4c9281200151c7c6b","freq","img/green_2bandit_b2.png","70","70","test","1","64","64","3","",""
"null","149552","pSARL_v2","pSARL_v2ahoqs5m6","5d01b9d4c9281200151c7c6b","freq_resp","img/green_2bandit_b.png","70","70","test","","","","3","",""
"null","149710","pSARL_v2","pSARL_v2ahoqs5m6","5d01b9d4c9281200151c7c6b","fixation","img/fixation.png","null","","test","","","","","",""
"324.3999996185303","150039","pSARL_v2","pSARL_v2ahoqs5m6","5d01b9d4c9281200151c7c6b","freq","img/green_2bandit_b2.png","70","70","test","1","65","65","3","",""
"null","150520","pSARL_v2","pSARL_v2ahoqs5m6","5d01b9d4c9281200151c7c6b","freq_resp","img/green_2bandit_b.png","70","70","test","","","","3","",""
"null","150675","pSARL_v2","pSARL_v2ahoqs5m6","5d01b9d4c9281200151c7c6b","fixation","img/fixation.png","null","","test","","","","","",""
"320.19999980926514","150998","pSARL_v2","pSARL_v2ahoqs5m6","5d01b9d4c9281200151c7c6b","freq","img/green_2bandit_b2.png","70","70","test","1","66","66","3","",""
"null","151492","pSARL_v2","pSARL_v2ahoqs5m6","5d01b9d4c9281200151c7c6b","freq_resp","img/green_2bandit_b.png","70","70","test","","","","3","",""
"null","151648","pSARL_v2","pSARL_v2ahoqs5m6","5d01b9d4c9281200151c7c6b","fixation","img/fixation.png","null","","test","","","","","",""
"556.3999996185303","152207","pSARL_v2","pSARL_v2ahoqs5m6","5d01b9d4c9281200151c7c6b","reward","img/slot.png","74","","test","","","","","",""
"null","152968","pSARL_v2","pSARL_v2ahoqs5m6","5d01b9d4c9281200151c7c6b","points","<div class=""verylowPoints""> -7 </div>","null","na","test","","","","3","-7","2"
"578.8999996185303","153550","pSARL_v2","pSARL_v2ahoqs5m6","5d01b9d4c9281200151c7c6b","freq","img/green_2bandit_b2.png","70","70","test","1","67","67","4","",""
"null","153787","pSARL_v2","pSARL_v2ahoqs5m6","5d01b9d4c9281200151c7c6b","freq_resp","img/green_2bandit_b.png","70","70","test","","","","4","",""
"null","153946","pSARL_v2","pSARL_v2ahoqs5m6","5d01b9d4c9281200151c7c6b","fixation","img/fixation.png","null","","test","","","","","",""
"392.8999996185303","154341","pSARL_v2","pSARL_v2ahoqs5m6","5d01b9d4c9281200151c7c6b","freq","img/green_2bandit_b2.png","70","70","test","1","68","68","4","",""
"null","154753","pSARL_v2","pSARL_v2ahoqs5m6","5d01b9d4c9281200151c7c6b","freq_resp","img/green_2bandit_b.png","70","70","test","","","","4","",""
"null","154909","pSARL_v2","pSARL_v2ahoqs5m6","5d01b9d4c9281200151c7c6b","fixation","img/fixation.png","null","","test","","","","","",""
"293.6000003814697","155206","pSARL_v2","pSARL_v2ahoqs5m6","5d01b9d4c9281200151c7c6b","freq","img/green_2bandit_b2.png","70","70","test","1","69","69","4","",""
"null","155719","pSARL_v2","pSARL_v2ahoqs5m6","5d01b9d4c9281200151c7c6b","freq_resp","img/green_2bandit_b.png","70","70","test","","","","4","",""
"null","155876","pSARL_v2","pSARL_v2ahoqs5m6","5d01b9d4c9281200151c7c6b","fixation","img/fixation.png","null","","test","","","","","",""
"271.30000019073486","156151","pSARL_v2","pSARL_v2ahoqs5m6","5d01b9d4c9281200151c7c6b","infreq","img/orange_2bandit_b2.png","70","68","test","0","70","70","4","",""
"null","156686","pSARL_v2","pSARL_v2ahoqs5m6","5d01b9d4c9281200151c7c6b","infreq_resp","img/orange_2bandit_b.png","70","68","test","","","","4","",""
"null","156844","pSARL_v2","pSARL_v2ahoqs5m6","5d01b9d4c9281200151c7c6b","fixation","img/fixation.png","null","","test","","","","","",""
"389.4000005722046","157238","pSARL_v2","pSARL_v2ahoqs5m6","5d01b9d4c9281200151c7c6b","freq","img/green_2bandit_b2.png","70","70","test","1","71","71","4","",""
"null","157663","pSARL_v2","pSARL_v2ahoqs5m6","5d01b9d4c9281200151c7c6b","freq_resp","img/green_2bandit_b.png","70","70","test","","","","4","",""
"null","157822","pSARL_v2","pSARL_v2ahoqs5m6","5d01b9d4c9281200151c7c6b","fixation","img/fixation.png","null","","test","","","","","",""
"420.69999980926514","158247","pSARL_v2","pSARL_v2ahoqs5m6","5d01b9d4c9281200151c7c6b","freq","img/green_2bandit_b2.png","70","70","test","1","72","72","4","",""
"null","158638","pSARL_v2","pSARL_v2ahoqs5m6","5d01b9d4c9281200151c7c6b","freq_resp","img/green_2bandit_b.png","70","70","test","","","","4","",""
"null","158793","pSARL_v2","pSARL_v2ahoqs5m6","5d01b9d4c9281200151c7c6b","fixation","img/fixation.png","null","","test","","","","","",""
"337.8999996185303","159136","pSARL_v2","pSARL_v2ahoqs5m6","5d01b9d4c9281200151c7c6b","freq","img/green_2bandit_b2.png","70","70","test","1","73","73","4","",""
"null","159602","pSARL_v2","pSARL_v2ahoqs5m6","5d01b9d4c9281200151c7c6b","freq_resp","img/green_2bandit_b.png","70","70","test","","","","4","",""
"null","159771","pSARL_v2","pSARL_v2ahoqs5m6","5d01b9d4c9281200151c7c6b","fixation","img/fixation.png","null","","test","","","","","",""
"287.9000005722046","160062","pSARL_v2","pSARL_v2ahoqs5m6","5d01b9d4c9281200151c7c6b","freq","img/green_2bandit_b2.png","70","70","test","1","74","74","4","",""
"null","160580","pSARL_v2","pSARL_v2ahoqs5m6","5d01b9d4c9281200151c7c6b","freq_resp","img/green_2bandit_b.png","70","70","test","","","","4","",""
"null","160735","pSARL_v2","pSARL_v2ahoqs5m6","5d01b9d4c9281200151c7c6b","fixation","img/fixation.png","null","","test","","","","","",""
"299.69999980926514","161038","pSARL_v2","pSARL_v2ahoqs5m6","5d01b9d4c9281200151c7c6b","freq","img/green_2bandit_b2.png","70","70","test","1","75","75","4","",""
"null","161545","pSARL_v2","pSARL_v2ahoqs5m6","5d01b9d4c9281200151c7c6b","freq_resp","img/green_2bandit_b.png","70","70","test","","","","4","",""
"null","161700","pSARL_v2","pSARL_v2ahoqs5m6","5d01b9d4c9281200151c7c6b","fixation","img/fixation.png","null","","test","","","","","",""
"318.6000003814697","162023","pSARL_v2","pSARL_v2ahoqs5m6","5d01b9d4c9281200151c7c6b","freq","img/green_2bandit_b2.png","70","70","test","1","76","76","4","",""
"null","162508","pSARL_v2","pSARL_v2ahoqs5m6","5d01b9d4c9281200151c7c6b","freq_resp","img/green_2bandit_b.png","70","70","test","","","","4","",""
"null","162665","pSARL_v2","pSARL_v2ahoqs5m6","5d01b9d4c9281200151c7c6b","fixation","img/fixation.png","null","","test","","","","","",""
"394.19999980926514","163064","pSARL_v2","pSARL_v2ahoqs5m6","5d01b9d4c9281200151c7c6b","infreq","img/orange_2bandit_b2.png","68","68","test","1","77","77","4","",""
"null","163474","pSARL_v2","pSARL_v2ahoqs5m6","5d01b9d4c9281200151c7c6b","infreq_resp","img/orange_2bandit_b.png","68","68","test","","","","4","",""
"null","163630","pSARL_v2","pSARL_v2ahoqs5m6","5d01b9d4c9281200151c7c6b","fixation","img/fixation.png","null","","test","","","","","",""
"364.4000005722046","163999","pSARL_v2","pSARL_v2ahoqs5m6","5d01b9d4c9281200151c7c6b","infreq","img/orange_2bandit_b2.png","68","68","test","1","78","78","4","",""
"null","164453","pSARL_v2","pSARL_v2ahoqs5m6","5d01b9d4c9281200151c7c6b","infreq_resp","img/orange_2bandit_b.png","68","68","test","","","","4","",""
"null","164608","pSARL_v2","pSARL_v2ahoqs5m6","5d01b9d4c9281200151c7c6b","fixation","img/fixation.png","null","","test","","","","","",""
"418.19999980926514","165032","pSARL_v2","pSARL_v2ahoqs5m6","5d01b9d4c9281200151c7c6b","freq","img/green_2bandit_b2.png","70","70","test","1","79","79","4","",""
"null","165429","pSARL_v2","pSARL_v2ahoqs5m6","5d01b9d4c9281200151c7c6b","freq_resp","img/green_2bandit_b.png","70","70","test","","","","4","",""
"null","165587","pSARL_v2","pSARL_v2ahoqs5m6","5d01b9d4c9281200151c7c6b","fixation","img/fixation.png","null","","test","","","","","",""
"312","165902","pSARL_v2","pSARL_v2ahoqs5m6","5d01b9d4c9281200151c7c6b","freq","img/green_2bandit_b2.png","70","70","test","1","80","80","4","",""
"null","166399","pSARL_v2","pSARL_v2ahoqs5m6","5d01b9d4c9281200151c7c6b","freq_resp","img/green_2bandit_b.png","70","70","test","","","","4","",""
"null","166553","pSARL_v2","pSARL_v2ahoqs5m6","5d01b9d4c9281200151c7c6b","fixation","img/fixation.png","null","","test","","","","","",""
"329.80000019073486","166886","pSARL_v2","pSARL_v2ahoqs5m6","5d01b9d4c9281200151c7c6b","freq","img/green_2bandit_b2.png","70","70","test","1","81","81","4","",""
"null","167362","pSARL_v2","pSARL_v2ahoqs5m6","5d01b9d4c9281200151c7c6b","freq_resp","img/green_2bandit_b.png","70","70","test","","","","4","",""
"null","167518","pSARL_v2","pSARL_v2ahoqs5m6","5d01b9d4c9281200151c7c6b","fixation","img/fixation.png","null","","test","","","","","",""
"332.3999996185303","167855","pSARL_v2","pSARL_v2ahoqs5m6","5d01b9d4c9281200151c7c6b","freq","img/green_2bandit_b2.png","70","70","test","1","82","82","4","",""
"null","168339","pSARL_v2","pSARL_v2ahoqs5m6","5d01b9d4c9281200151c7c6b","freq_resp","img/green_2bandit_b.png","70","70","test","","","","4","",""
"null","168496","pSARL_v2","pSARL_v2ahoqs5m6","5d01b9d4c9281200151c7c6b","fixation","img/fixation.png","null","","test","","","","","",""
"347.20000076293945","168847","pSARL_v2","pSARL_v2ahoqs5m6","5d01b9d4c9281200151c7c6b","freq","img/green_2bandit_b2.png","70","70","test","1","83","83","4","",""
"null","169305","pSARL_v2","pSARL_v2ahoqs5m6","5d01b9d4c9281200151c7c6b","freq_resp","img/green_2bandit_b.png","70","70","test","","","","4","",""
"null","169459","pSARL_v2","pSARL_v2ahoqs5m6","5d01b9d4c9281200151c7c6b","fixation","img/fixation.png","null","","test","","","","","",""
"303.8999996185303","169767","pSARL_v2","pSARL_v2ahoqs5m6","5d01b9d4c9281200151c7c6b","freq","img/green_2bandit_b2.png","70","70","test","1","84","84","4","",""
"null","170274","pSARL_v2","pSARL_v2ahoqs5m6","5d01b9d4c9281200151c7c6b","freq_resp","img/green_2bandit_b.png","70","70","test","","","","4","",""
"null","170443","pSARL_v2","pSARL_v2ahoqs5m6","5d01b9d4c9281200151c7c6b","fixation","img/fixation.png","null","","test","","","","","",""
"334.8999996185303","170781","pSARL_v2","pSARL_v2ahoqs5m6","5d01b9d4c9281200151c7c6b","freq","img/green_2bandit_b2.png","70","70","test","1","85","85","4","",""
"null","171254","pSARL_v2","pSARL_v2ahoqs5m6","5d01b9d4c9281200151c7c6b","freq_resp","img/green_2bandit_b.png","70","70","test","","","","4","",""
"null","171408","pSARL_v2","pSARL_v2ahoqs5m6","5d01b9d4c9281200151c7c6b","fixation","img/fixation.png","null","","test","","","","","",""
"347.30000019073486","171759","pSARL_v2","pSARL_v2ahoqs5m6","5d01b9d4c9281200151c7c6b","freq","img/green_2bandit_b2.png","70","70","test","1","86","86","4","",""
"null","172219","pSARL_v2","pSARL_v2ahoqs5m6","5d01b9d4c9281200151c7c6b","freq_resp","img/green_2bandit_b.png","70","70","test","","","","4","",""
"null","172374","pSARL_v2","pSARL_v2ahoqs5m6","5d01b9d4c9281200151c7c6b","fixation","img/fixation.png","null","","test","","","","","",""
"517.1999998092651","172896","pSARL_v2","pSARL_v2ahoqs5m6","5d01b9d4c9281200151c7c6b","reward","img/slot.png","74","","test","","","","","",""
"null","173664","pSARL_v2","pSARL_v2ahoqs5m6","5d01b9d4c9281200151c7c6b","points","<div class=""verylowPoints""> -3 </div>","null","na","test","","","","4","-3","3"
"450.8999996185303","174120","pSARL_v2","pSARL_v2ahoqs5m6","5d01b9d4c9281200151c7c6b","freq","img/green_2bandit_b2.png","70","70","test","1","87","87","5","",""
"null","174485","pSARL_v2","pSARL_v2ahoqs5m6","5d01b9d4c9281200151c7c6b","freq_resp","img/green_2bandit_b.png","70","70","test","","","","5","",""
"null","174642","pSARL_v2","pSARL_v2ahoqs5m6","5d01b9d4c9281200151c7c6b","fixation","img/fixation.png","null","","test","","","","","",""
"328.80000019073486","174975","pSARL_v2","pSARL_v2ahoqs5m6","5d01b9d4c9281200151c7c6b","freq","img/green_2bandit_b2.png","70","70","test","1","88","88","5","",""
"null","175466","pSARL_v2","pSARL_v2ahoqs5m6","5d01b9d4c9281200151c7c6b","freq_resp","img/green_2bandit_b.png","70","70","test","","","","5","",""
"null","175619","pSARL_v2","pSARL_v2ahoqs5m6","5d01b9d4c9281200151c7c6b","fixation","img/fixation.png","null","","test","","","","","",""
"423.5999994277954","176046","pSARL_v2","pSARL_v2ahoqs5m6","5d01b9d4c9281200151c7c6b","infreq","img/orange_2bandit_b2.png","68","68","test","1","89","89","5","",""
"null","176430","pSARL_v2","pSARL_v2ahoqs5m6","5d01b9d4c9281200151c7c6b","infreq_resp","img/orange_2bandit_b.png","68","68","test","","","","5","",""
"null","176585","pSARL_v2","pSARL_v2ahoqs5m6","5d01b9d4c9281200151c7c6b","fixation","img/fixation.png","null","","test","","","","","",""
"457.80000019073486","177046","pSARL_v2","pSARL_v2ahoqs5m6","5d01b9d4c9281200151c7c6b","freq","img/green_2bandit_b2.png","70","70","test","1","90","90","5","",""
"null","177404","pSARL_v2","pSARL_v2ahoqs5m6","5d01b9d4c9281200151c7c6b","freq_resp","img/green_2bandit_b.png","70","70","test","","","","5","",""
"null","177560","pSARL_v2","pSARL_v2ahoqs5m6","5d01b9d4c9281200151c7c6b","fixation","img/fixation.png","null","","test","","","","","",""
"362.8999996185303","177929","pSARL_v2","pSARL_v2ahoqs5m6","5d01b9d4c9281200151c7c6b","freq","img/green_2bandit_b2.png","70","70","test","1","91","91","5","",""
"null","178372","pSARL_v2","pSARL_v2ahoqs5m6","5d01b9d4c9281200151c7c6b","freq_resp","img/green_2bandit_b.png","70","70","test","","","","5","",""
"null","178527","pSARL_v2","pSARL_v2ahoqs5m6","5d01b9d4c9281200151c7c6b","fixation","img/fixation.png","null","","test","","","","","",""
"347.70000076293945","178878","pSARL_v2","pSARL_v2ahoqs5m6","5d01b9d4c9281200151c7c6b","freq","img/green_2bandit_b2.png","70","70","test","1","92","92","5","",""
"null","179336","pSARL_v2","pSARL_v2ahoqs5m6","5d01b9d4c9281200151c7c6b","freq_resp","img/green_2bandit_b.png","70","70","test","","","","5","",""
"null","179489","pSARL_v2","pSARL_v2ahoqs5m6","5d01b9d4c9281200151c7c6b","fixation","img/fixation.png","null","","test","","","","","",""
"313.20000076293945","179806","pSARL_v2","pSARL_v2ahoqs5m6","5d01b9d4c9281200151c7c6b","freq","img/green_2bandit_b2.png","70","70","test","1","93","93","5","",""
"null","180298","pSARL_v2","pSARL_v2ahoqs5m6","5d01b9d4c9281200151c7c6b","freq_resp","img/green_2bandit_b.png","70","70","test","","","","5","",""
"null","180454","pSARL_v2","pSARL_v2ahoqs5m6","5d01b9d4c9281200151c7c6b","fixation","img/fixation.png","null","","test","","","","","",""
"300.5","180759","pSARL_v2","pSARL_v2ahoqs5m6","5d01b9d4c9281200151c7c6b","freq","img/green_2bandit_b2.png","70","70","test","1","94","94","5","",""
"null","181265","pSARL_v2","pSARL_v2ahoqs5m6","5d01b9d4c9281200151c7c6b","freq_resp","img/green_2bandit_b.png","70","70","test","","","","5","",""
"null","181423","pSARL_v2","pSARL_v2ahoqs5m6","5d01b9d4c9281200151c7c6b","fixation","img/fixation.png","null","","test","","","","","",""
"331.30000019073486","181759","pSARL_v2","pSARL_v2ahoqs5m6","5d01b9d4c9281200151c7c6b","freq","img/green_2bandit_b2.png","70","70","test","1","95","95","5","",""
"null","182243","pSARL_v2","pSARL_v2ahoqs5m6","5d01b9d4c9281200151c7c6b","freq_resp","img/green_2bandit_b.png","70","70","test","","","","5","",""
"null","182411","pSARL_v2","pSARL_v2ahoqs5m6","5d01b9d4c9281200151c7c6b","fixation","img/fixation.png","null","","test","","","","","",""
"256.30000019073486","182672","pSARL_v2","pSARL_v2ahoqs5m6","5d01b9d4c9281200151c7c6b","freq","img/green_2bandit_b2.png","70","70","test","1","96","96","5","",""
"null","183219","pSARL_v2","pSARL_v2ahoqs5m6","5d01b9d4c9281200151c7c6b","freq_resp","img/green_2bandit_b.png","70","70","test","","","","5","",""
"null","183375","pSARL_v2","pSARL_v2ahoqs5m6","5d01b9d4c9281200151c7c6b","fixation","img/fixation.png","null","","test","","","","","",""
"259.9000005722046","183640","pSARL_v2","pSARL_v2ahoqs5m6","5d01b9d4c9281200151c7c6b","freq","img/green_2bandit_b2.png","70","70","test","1","97","97","5","",""
"null","184185","pSARL_v2","pSARL_v2ahoqs5m6","5d01b9d4c9281200151c7c6b","freq_resp","img/green_2bandit_b.png","70","70","test","","","","5","",""
"null","184340","pSARL_v2","pSARL_v2ahoqs5m6","5d01b9d4c9281200151c7c6b","fixation","img/fixation.png","null","","test","","","","","",""
"182.80000019073486","184526","pSARL_v2","pSARL_v2ahoqs5m6","5d01b9d4c9281200151c7c6b","freq","img/green_2bandit_b2.png","70","70","test","1","98","98","5","",""
"null","185151","pSARL_v2","pSARL_v2ahoqs5m6","5d01b9d4c9281200151c7c6b","freq_resp","img/green_2bandit_b.png","70","70","test","","","","5","",""
"null","185318","pSARL_v2","pSARL_v2ahoqs5m6","5d01b9d4c9281200151c7c6b","fixation","img/fixation.png","null","","test","","","","","",""
"140.89999961853027","185462","pSARL_v2","pSARL_v2ahoqs5m6","5d01b9d4c9281200151c7c6b","freq","img/green_2bandit_b2.png","70","70","test","1","99","99","5","",""
"null","186132","pSARL_v2","pSARL_v2ahoqs5m6","5d01b9d4c9281200151c7c6b","freq_resp","img/green_2bandit_b.png","70","70","test","","","","5","",""
"null","186288","pSARL_v2","pSARL_v2ahoqs5m6","5d01b9d4c9281200151c7c6b","fixation","img/fixation.png","null","","test","","","","","",""
"219.0999994277954","186511","pSARL_v2","pSARL_v2ahoqs5m6","5d01b9d4c9281200151c7c6b","freq","img/green_2bandit_b2.png","70","70","test","1","100","100","5","",""
"null","187111","pSARL_v2","pSARL_v2ahoqs5m6","5d01b9d4c9281200151c7c6b","freq_resp","img/green_2bandit_b.png","70","70","test","","","","5","",""
"null","187265","pSARL_v2","pSARL_v2ahoqs5m6","5d01b9d4c9281200151c7c6b","fixation","img/fixation.png","null","","test","","","","","",""
"154.0999994277954","187424","pSARL_v2","pSARL_v2ahoqs5m6","5d01b9d4c9281200151c7c6b","freq","img/green_2bandit_b2.png","70","70","test","1","101","101","5","",""
"null","188087","pSARL_v2","pSARL_v2ahoqs5m6","5d01b9d4c9281200151c7c6b","freq_resp","img/green_2bandit_b.png","70","70","test","","","","5","",""
"null","188243","pSARL_v2","pSARL_v2ahoqs5m6","5d01b9d4c9281200151c7c6b","fixation","img/fixation.png","null","","test","","","","","",""
"240","188488","pSARL_v2","pSARL_v2ahoqs5m6","5d01b9d4c9281200151c7c6b","freq","img/green_2bandit_b2.png","70","70","test","1","102","102","5","",""
"null","189068","pSARL_v2","pSARL_v2ahoqs5m6","5d01b9d4c9281200151c7c6b","freq_resp","img/green_2bandit_b.png","70","70","test","","","","5","",""
"null","189237","pSARL_v2","pSARL_v2ahoqs5m6","5d01b9d4c9281200151c7c6b","fixation","img/fixation.png","null","","test","","","","","",""
"278.30000019073486","189520","pSARL_v2","pSARL_v2ahoqs5m6","5d01b9d4c9281200151c7c6b","freq","img/green_2bandit_b2.png","70","70","test","1","103","103","5","",""
"null","190046","pSARL_v2","pSARL_v2ahoqs5m6","5d01b9d4c9281200151c7c6b","freq_resp","img/green_2bandit_b.png","70","70","test","","","","5","",""
"null","190200","pSARL_v2","pSARL_v2ahoqs5m6","5d01b9d4c9281200151c7c6b","fixation","img/fixation.png","null","","test","","","","","",""
"603.1999998092651","190807","pSARL_v2","pSARL_v2ahoqs5m6","5d01b9d4c9281200151c7c6b","infreq","img/orange_2bandit_b2.png","68","68","test","1","104","104","5","",""
"null","191011","pSARL_v2","pSARL_v2ahoqs5m6","5d01b9d4c9281200151c7c6b","infreq_resp","img/orange_2bandit_b.png","68","68","test","","","","5","",""
"null","191168","pSARL_v2","pSARL_v2ahoqs5m6","5d01b9d4c9281200151c7c6b","fixation","img/fixation.png","null","","test","","","","","",""
"387.30000019073486","191558","pSARL_v2","pSARL_v2ahoqs5m6","5d01b9d4c9281200151c7c6b","freq","img/green_2bandit_b2.png","70","70","test","1","105","105","5","",""
"null","191974","pSARL_v2","pSARL_v2ahoqs5m6","5d01b9d4c9281200151c7c6b","freq_resp","img/green_2bandit_b.png","70","70","test","","","","5","",""
"null","192132","pSARL_v2","pSARL_v2ahoqs5m6","5d01b9d4c9281200151c7c6b","fixation","img/fixation.png","null","","test","","","","","",""
"414.80000019073486","192552","pSARL_v2","pSARL_v2ahoqs5m6","5d01b9d4c9281200151c7c6b","freq","img/green_2bandit_b2.png","70","70","test","1","106","106","5","",""
"null","192956","pSARL_v2","pSARL_v2ahoqs5m6","5d01b9d4c9281200151c7c6b","freq_resp","img/green_2bandit_b.png","70","70","test","","","","5","",""
"null","193111","pSARL_v2","pSARL_v2ahoqs5m6","5d01b9d4c9281200151c7c6b","fixation","img/fixation.png","null","","test","","","","","",""
"363.5","193479","pSARL_v2","pSARL_v2ahoqs5m6","5d01b9d4c9281200151c7c6b","freq","img/green_2bandit_b2.png","70","70","test","1","107","107","5","",""
"null","193921","pSARL_v2","pSARL_v2ahoqs5m6","5d01b9d4c9281200151c7c6b","freq_resp","img/green_2bandit_b.png","70","70","test","","","","5","",""
"null","194075","pSARL_v2","pSARL_v2ahoqs5m6","5d01b9d4c9281200151c7c6b","fixation","img/fixation.png","null","","test","","","","","",""
"336.30000019073486","194417","pSARL_v2","pSARL_v2ahoqs5m6","5d01b9d4c9281200151c7c6b","freq","img/green_2bandit_b2.png","70","70","test","1","108","108","5","",""
"null","194896","pSARL_v2","pSARL_v2ahoqs5m6","5d01b9d4c9281200151c7c6b","freq_resp","img/green_2bandit_b.png","70","70","test","","","","5","",""
"null","195051","pSARL_v2","pSARL_v2ahoqs5m6","5d01b9d4c9281200151c7c6b","fixation","img/fixation.png","null","","test","","","","","",""
"416.5999994277954","195471","pSARL_v2","pSARL_v2ahoqs5m6","5d01b9d4c9281200151c7c6b","reward","img/slot.png","74","","test","","","","","",""
"null","196237","pSARL_v2","pSARL_v2ahoqs5m6","5d01b9d4c9281200151c7c6b","points","<div class=""veryhighPoints""> +1 </div>","null","na","test","","","","5","1","4"
"615.3999996185303","196855","pSARL_v2","pSARL_v2ahoqs5m6","5d01b9d4c9281200151c7c6b","freq","img/green_2bandit_b2.png","70","70","test","1","109","109","6","",""
"null","197043","pSARL_v2","pSARL_v2ahoqs5m6","5d01b9d4c9281200151c7c6b","freq_resp","img/green_2bandit_b.png","70","70","test","","","","6","",""
"null","197197","pSARL_v2","pSARL_v2ahoqs5m6","5d01b9d4c9281200151c7c6b","fixation","img/fixation.png","null","","test","","","","","",""
"446.5","197647","pSARL_v2","pSARL_v2ahoqs5m6","5d01b9d4c9281200151c7c6b","freq","img/green_2bandit_b2.png","70","70","test","1","110","110","6","",""
"null","198019","pSARL_v2","pSARL_v2ahoqs5m6","5d01b9d4c9281200151c7c6b","freq_resp","img/green_2bandit_b.png","70","70","test","","","","6","",""
"null","198188","pSARL_v2","pSARL_v2ahoqs5m6","5d01b9d4c9281200151c7c6b","fixation","img/fixation.png","null","","test","","","","","",""
"334.80000019073486","198527","pSARL_v2","pSARL_v2ahoqs5m6","5d01b9d4c9281200151c7c6b","freq","img/green_2bandit_b2.png","70","70","test","1","111","111","6","",""
"null","199001","pSARL_v2","pSARL_v2ahoqs5m6","5d01b9d4c9281200151c7c6b","freq_resp","img/green_2bandit_b.png","70","70","test","","","","6","",""
"null","199156","pSARL_v2","pSARL_v2ahoqs5m6","5d01b9d4c9281200151c7c6b","fixation","img/fixation.png","null","","test","","","","","",""
"406.6000003814697","199567","pSARL_v2","pSARL_v2ahoqs5m6","5d01b9d4c9281200151c7c6b","infreq","img/orange_2bandit_b2.png","68","68","test","1","112","112","6","",""
"null","199977","pSARL_v2","pSARL_v2ahoqs5m6","5d01b9d4c9281200151c7c6b","infreq_resp","img/orange_2bandit_b.png","68","68","test","","","","6","",""
"null","200146","pSARL_v2","pSARL_v2ahoqs5m6","5d01b9d4c9281200151c7c6b","fixation","img/fixation.png","null","","test","","","","","",""
"344.5999994277954","200495","pSARL_v2","pSARL_v2ahoqs5m6","5d01b9d4c9281200151c7c6b","freq","img/green_2bandit_b2.png","70","70","test","1","113","113","6","",""
"null","200960","pSARL_v2","pSARL_v2ahoqs5m6","5d01b9d4c9281200151c7c6b","freq_resp","img/green_2bandit_b.png","70","70","test","","","","6","",""
"null","201115","pSARL_v2","pSARL_v2ahoqs5m6","5d01b9d4c9281200151c7c6b","fixation","img/fixation.png","null","","test","","","","","",""
"392.30000019073486","201512","pSARL_v2","pSARL_v2ahoqs5m6","5d01b9d4c9281200151c7c6b","freq","img/green_2bandit_b2.png","70","70","test","1","114","114","6","",""
"null","201937","pSARL_v2","pSARL_v2ahoqs5m6","5d01b9d4c9281200151c7c6b","freq_resp","img/green_2bandit_b.png","70","70","test","","","","6","",""
"null","202094","pSARL_v2","pSARL_v2ahoqs5m6","5d01b9d4c9281200151c7c6b","fixation","img/fixation.png","null","","test","","","","","",""
"590","202687","pSARL_v2","pSARL_v2ahoqs5m6","5d01b9d4c9281200151c7c6b","freq","img/green_2bandit_b2.png","70","70","test","1","115","115","6","",""
"null","202904","pSARL_v2","pSARL_v2ahoqs5m6","5d01b9d4c9281200151c7c6b","freq_resp","img/green_2bandit_b.png","70","70","test","","","","6","",""
"null","203061","pSARL_v2","pSARL_v2ahoqs5m6","5d01b9d4c9281200151c7c6b","fixation","img/fixation.png","null","","test","","","","","",""
"413.4000005722046","203478","pSARL_v2","pSARL_v2ahoqs5m6","5d01b9d4c9281200151c7c6b","freq","img/green_2bandit_b2.png","70","70","test","1","116","116","6","",""
"null","203879","pSARL_v2","pSARL_v2ahoqs5m6","5d01b9d4c9281200151c7c6b","freq_resp","img/green_2bandit_b.png","70","70","test","","","","6","",""
"null","204034","pSARL_v2","pSARL_v2ahoqs5m6","5d01b9d4c9281200151c7c6b","fixation","img/fixation.png","null","","test","","","","","",""
"345.3999996185303","204384","pSARL_v2","pSARL_v2ahoqs5m6","5d01b9d4c9281200151c7c6b","freq","img/green_2bandit_b2.png","70","70","test","1","117","117","6","",""
"null","204843","pSARL_v2","pSARL_v2ahoqs5m6","5d01b9d4c9281200151c7c6b","freq_resp","img/green_2bandit_b.png","70","70","test","","","","6","",""
"null","204997","pSARL_v2","pSARL_v2ahoqs5m6","5d01b9d4c9281200151c7c6b","fixation","img/fixation.png","null","","test","","","","","",""
"349.69999980926514","205352","pSARL_v2","pSARL_v2ahoqs5m6","5d01b9d4c9281200151c7c6b","freq","img/green_2bandit_b2.png","70","70","test","1","118","118","6","",""
"null","205808","pSARL_v2","pSARL_v2ahoqs5m6","5d01b9d4c9281200151c7c6b","freq_resp","img/green_2bandit_b.png","70","70","test","","","","6","",""
"null","205964","pSARL_v2","pSARL_v2ahoqs5m6","5d01b9d4c9281200151c7c6b","fixation","img/fixation.png","null","","test","","","","","",""
"254.89999961853027","206223","pSARL_v2","pSARL_v2ahoqs5m6","5d01b9d4c9281200151c7c6b","freq","img/green_2bandit_b2.png","70","70","test","1","119","119","6","",""
"null","206783","pSARL_v2","pSARL_v2ahoqs5m6","5d01b9d4c9281200151c7c6b","freq_resp","img/green_2bandit_b.png","70","70","test","","","","6","",""
"null","206942","pSARL_v2","pSARL_v2ahoqs5m6","5d01b9d4c9281200151c7c6b","fixation","img/fixation.png","null","","test","","","","","",""
"324.5999994277954","207271","pSARL_v2","pSARL_v2ahoqs5m6","5d01b9d4c9281200151c7c6b","freq","img/green_2bandit_b2.png","70","70","test","1","120","120","6","",""
"null","207763","pSARL_v2","pSARL_v2ahoqs5m6","5d01b9d4c9281200151c7c6b","freq_resp","img/green_2bandit_b.png","70","70","test","","","","6","",""
"null","207920","pSARL_v2","pSARL_v2ahoqs5m6","5d01b9d4c9281200151c7c6b","fixation","img/fixation.png","null","","test","","","","","",""
"346.80000019073486","208271","pSARL_v2","pSARL_v2ahoqs5m6","5d01b9d4c9281200151c7c6b","freq","img/green_2bandit_b2.png","70","70","test","1","121","121","6","",""
"null","208729","pSARL_v2","pSARL_v2ahoqs5m6","5d01b9d4c9281200151c7c6b","freq_resp","img/green_2bandit_b.png","70","70","test","","","","6","",""
"null","208885","pSARL_v2","pSARL_v2ahoqs5m6","5d01b9d4c9281200151c7c6b","fixation","img/fixation.png","null","","test","","","","","",""
"302","209191","pSARL_v2","pSARL_v2ahoqs5m6","5d01b9d4c9281200151c7c6b","freq","img/green_2bandit_b2.png","70","70","test","1","122","122","6","",""
"null","209707","pSARL_v2","pSARL_v2ahoqs5m6","5d01b9d4c9281200151c7c6b","freq_resp","img/green_2bandit_b.png","70","70","test","","","","6","",""
"null","209862","pSARL_v2","pSARL_v2ahoqs5m6","5d01b9d4c9281200151c7c6b","fixation","img/fixation.png","null","","test","","","","","",""
"453","210319","pSARL_v2","pSARL_v2ahoqs5m6","5d01b9d4c9281200151c7c6b","infreq","img/orange_2bandit_b2.png","68","68","test","1","123","123","6","",""
"null","210673","pSARL_v2","pSARL_v2ahoqs5m6","5d01b9d4c9281200151c7c6b","infreq_resp","img/orange_2bandit_b.png","68","68","test","","","","6","",""
"null","210827","pSARL_v2","pSARL_v2ahoqs5m6","5d01b9d4c9281200151c7c6b","fixation","img/fixation.png","null","","test","","","","","",""
"432.3999996185303","211263","pSARL_v2","pSARL_v2ahoqs5m6","5d01b9d4c9281200151c7c6b","freq","img/green_2bandit_b2.png","70","70","test","1","124","124","6","",""
"null","211640","pSARL_v2","pSARL_v2ahoqs5m6","5d01b9d4c9281200151c7c6b","freq_resp","img/green_2bandit_b.png","70","70","test","","","","6","",""
"null","211796","pSARL_v2","pSARL_v2ahoqs5m6","5d01b9d4c9281200151c7c6b","fixation","img/fixation.png","null","","test","","","","","",""
"751.6999998092651","212552","pSARL_v2","pSARL_v2ahoqs5m6","5d01b9d4c9281200151c7c6b","freq","img/green_2bandit_b2.png","68","70","test","0","125","125","6","",""
"null","212619","pSARL_v2","pSARL_v2ahoqs5m6","5d01b9d4c9281200151c7c6b","freq_resp","img/green_2bandit_b.png","68","70","test","","","","6","",""
"null","212773","pSARL_v2","pSARL_v2ahoqs5m6","5d01b9d4c9281200151c7c6b","fixation","img/fixation.png","null","","test","","","","","",""
"446","213223","pSARL_v2","pSARL_v2ahoqs5m6","5d01b9d4c9281200151c7c6b","freq","img/green_2bandit_b2.png","70","70","test","1","126","126","6","",""
"null","213582","pSARL_v2","pSARL_v2ahoqs5m6","5d01b9d4c9281200151c7c6b","freq_resp","img/green_2bandit_b.png","70","70","test","","","","6","",""
"null","213737","pSARL_v2","pSARL_v2ahoqs5m6","5d01b9d4c9281200151c7c6b","fixation","img/fixation.png","null","","test","","","","","",""
"394.4000005722046","214135","pSARL_v2","pSARL_v2ahoqs5m6","5d01b9d4c9281200151c7c6b","freq","img/green_2bandit_b2.png","70","70","test","1","127","127","6","",""
"null","214557","pSARL_v2","pSARL_v2ahoqs5m6","5d01b9d4c9281200151c7c6b","freq_resp","img/green_2bandit_b.png","70","70","test","","","","6","",""
"null","214713","pSARL_v2","pSARL_v2ahoqs5m6","5d01b9d4c9281200151c7c6b","fixation","img/fixation.png","null","","test","","","","","",""
"401.69999980926514","215118","pSARL_v2","pSARL_v2ahoqs5m6","5d01b9d4c9281200151c7c6b","freq","img/green_2bandit_b2.png","70","70","test","1","128","128","6","",""
"null","215524","pSARL_v2","pSARL_v2ahoqs5m6","5d01b9d4c9281200151c7c6b","freq_resp","img/green_2bandit_b.png","70","70","test","","","","6","",""
"null","215680","pSARL_v2","pSARL_v2ahoqs5m6","5d01b9d4c9281200151c7c6b","fixation","img/fixation.png","null","","test","","","","","",""
"418.8999996185303","216102","pSARL_v2","pSARL_v2ahoqs5m6","5d01b9d4c9281200151c7c6b","reward","img/slot.png","74","","test","","","","","",""
"null","216861","pSARL_v2","pSARL_v2ahoqs5m6","5d01b9d4c9281200151c7c6b","points","<div class=""verylowPoints""> -7 </div>","null","na","test","","","","6","-7","5"
"503.1000003814697","217371","pSARL_v2","pSARL_v2ahoqs5m6","5d01b9d4c9281200151c7c6b","freq","img/green_2bandit_b2.png","70","70","test","1","129","129","7","",""
"null","217674","pSARL_v2","pSARL_v2ahoqs5m6","5d01b9d4c9281200151c7c6b","freq_resp","img/green_2bandit_b.png","70","70","test","","","","7","",""
"null","217830","pSARL_v2","pSARL_v2ahoqs5m6","5d01b9d4c9281200151c7c6b","fixation","img/fixation.png","null","","test","","","","","",""
"396.5","218230","pSARL_v2","pSARL_v2ahoqs5m6","5d01b9d4c9281200151c7c6b","freq","img/green_2bandit_b2.png","70","70","test","1","130","130","7","",""
"null","218640","pSARL_v2","pSARL_v2ahoqs5m6","5d01b9d4c9281200151c7c6b","freq_resp","img/green_2bandit_b.png","70","70","test","","","","7","",""
"null","218808","pSARL_v2","pSARL_v2ahoqs5m6","5d01b9d4c9281200151c7c6b","fixation","img/fixation.png","null","","test","","","","","",""
"418.69999980926514","219231","pSARL_v2","pSARL_v2ahoqs5m6","5d01b9d4c9281200151c7c6b","freq","img/green_2bandit_b2.png","70","70","test","1","131","131","7","",""
"null","219629","pSARL_v2","pSARL_v2ahoqs5m6","5d01b9d4c9281200151c7c6b","freq_resp","img/green_2bandit_b.png","70","70","test","","","","7","",""
"null","219786","pSARL_v2","pSARL_v2ahoqs5m6","5d01b9d4c9281200151c7c6b","fixation","img/fixation.png","null","","test","","","","","",""
"312","220102","pSARL_v2","pSARL_v2ahoqs5m6","5d01b9d4c9281200151c7c6b","freq","img/green_2bandit_b2.png","70","70","test","1","132","132","7","",""
"null","220598","pSARL_v2","pSARL_v2ahoqs5m6","5d01b9d4c9281200151c7c6b","freq_resp","img/green_2bandit_b.png","70","70","test","","","","7","",""
"null","220756","pSARL_v2","pSARL_v2ahoqs5m6","5d01b9d4c9281200151c7c6b","fixation","img/fixation.png","null","","test","","","","","",""
"368","221129","pSARL_v2","pSARL_v2ahoqs5m6","5d01b9d4c9281200151c7c6b","freq","img/green_2bandit_b2.png","70","70","test","1","133","133","7","",""
"null","221567","pSARL_v2","pSARL_v2ahoqs5m6","5d01b9d4c9281200151c7c6b","freq_resp","img/green_2bandit_b.png","70","70","test","","","","7","",""
"null","221721","pSARL_v2","pSARL_v2ahoqs5m6","5d01b9d4c9281200151c7c6b","fixation","img/fixation.png","null","","test","","","","","",""
"289.5","222014","pSARL_v2","pSARL_v2ahoqs5m6","5d01b9d4c9281200151c7c6b","freq","img/green_2bandit_b2.png","70","70","test","1","134","134","7","",""
"null","222543","pSARL_v2","pSARL_v2ahoqs5m6","5d01b9d4c9281200151c7c6b","freq_resp","img/green_2bandit_b.png","70","70","test","","","","7","",""
"null","222699","pSARL_v2","pSARL_v2ahoqs5m6","5d01b9d4c9281200151c7c6b","fixation","img/fixation.png","null","","test","","","","","",""
"304","223007","pSARL_v2","pSARL_v2ahoqs5m6","5d01b9d4c9281200151c7c6b","freq","img/green_2bandit_b2.png","70","70","test","1","135","135","7","",""
"null","223511","pSARL_v2","pSARL_v2ahoqs5m6","5d01b9d4c9281200151c7c6b","freq_resp","img/green_2bandit_b.png","70","70","test","","","","7","",""
"null","223664","pSARL_v2","pSARL_v2ahoqs5m6","5d01b9d4c9281200151c7c6b","fixation","img/fixation.png","null","","test","","","","","",""
"274.5999994277954","223943","pSARL_v2","pSARL_v2ahoqs5m6","5d01b9d4c9281200151c7c6b","freq","img/green_2bandit_b2.png","70","70","test","1","136","136","7","",""
"null","224473","pSARL_v2","pSARL_v2ahoqs5m6","5d01b9d4c9281200151c7c6b","freq_resp","img/green_2bandit_b.png","70","70","test","","","","7","",""
"null","224631","pSARL_v2","pSARL_v2ahoqs5m6","5d01b9d4c9281200151c7c6b","fixation","img/fixation.png","null","","test","","","","","",""
"243.80000019073486","224878","pSARL_v2","pSARL_v2ahoqs5m6","5d01b9d4c9281200151c7c6b","freq","img/green_2bandit_b2.png","70","70","test","1","137","137","7","",""
"null","225440","pSARL_v2","pSARL_v2ahoqs5m6","5d01b9d4c9281200151c7c6b","freq_resp","img/green_2bandit_b.png","70","70","test","","","","7","",""
"null","225608","pSARL_v2","pSARL_v2ahoqs5m6","5d01b9d4c9281200151c7c6b","fixation","img/fixation.png","null","","test","","","","","",""
"290.69999980926514","225903","pSARL_v2","pSARL_v2ahoqs5m6","5d01b9d4c9281200151c7c6b","freq","img/green_2bandit_b2.png","70","70","test","1","138","138","7","",""
"null","226431","pSARL_v2","pSARL_v2ahoqs5m6","5d01b9d4c9281200151c7c6b","freq_resp","img/green_2bandit_b.png","70","70","test","","","","7","",""
"null","226587","pSARL_v2","pSARL_v2ahoqs5m6","5d01b9d4c9281200151c7c6b","fixation","img/fixation.png","null","","test","","","","","",""
"271.19999980926514","226862","pSARL_v2","pSARL_v2ahoqs5m6","5d01b9d4c9281200151c7c6b","freq","img/green_2bandit_b2.png","70","70","test","1","139","139","7","",""
"null","227397","pSARL_v2","pSARL_v2ahoqs5m6","5d01b9d4c9281200151c7c6b","freq_resp","img/green_2bandit_b.png","70","70","test","","","","7","",""
"null","227553","pSARL_v2","pSARL_v2ahoqs5m6","5d01b9d4c9281200151c7c6b","fixation","img/fixation.png","null","","test","","","","","",""
"153.80000019073486","227712","pSARL_v2","pSARL_v2ahoqs5m6","5d01b9d4c9281200151c7c6b","freq","img/green_2bandit_b2.png","70","70","test","1","140","140","7","",""
"null","228375","pSARL_v2","pSARL_v2ahoqs5m6","5d01b9d4c9281200151c7c6b","freq_resp","img/green_2bandit_b.png","70","70","test","","","","7","",""
"null","228531","pSARL_v2","pSARL_v2ahoqs5m6","5d01b9d4c9281200151c7c6b","fixation","img/fixation.png","null","","test","","","","","",""
"255.30000019073486","228791","pSARL_v2","pSARL_v2ahoqs5m6","5d01b9d4c9281200151c7c6b","freq","img/green_2bandit_b2.png","70","70","test","1","141","141","7","",""
"null","229344","pSARL_v2","pSARL_v2ahoqs5m6","5d01b9d4c9281200151c7c6b","freq_resp","img/green_2bandit_b.png","70","70","test","","","","7","",""
"null","229515","pSARL_v2","pSARL_v2ahoqs5m6","5d01b9d4c9281200151c7c6b","fixation","img/fixation.png","null","","test","","","","","",""
"111.69999980926514","229631","pSARL_v2","pSARL_v2ahoqs5m6","5d01b9d4c9281200151c7c6b","freq","img/green_2bandit_b2.png","70","70","test","1","142","142","7","",""
"null","230325","pSARL_v2","pSARL_v2ahoqs5m6","5d01b9d4c9281200151c7c6b","freq_resp","img/green_2bandit_b.png","70","70","test","","","","7","",""
"null","230482","pSARL_v2","pSARL_v2ahoqs5m6","5d01b9d4c9281200151c7c6b","fixation","img/fixation.png","null","","test","","","","","",""
"112.80000019073486","230598","pSARL_v2","pSARL_v2ahoqs5m6","5d01b9d4c9281200151c7c6b","infreq","img/orange_2bandit_b2.png","70","68","test","0","143","143","7","",""
"null","231306","pSARL_v2","pSARL_v2ahoqs5m6","5d01b9d4c9281200151c7c6b","infreq_resp","img/orange_2bandit_b.png","70","68","test","","","","7","",""
"null","231460","pSARL_v2","pSARL_v2ahoqs5m6","5d01b9d4c9281200151c7c6b","fixation","img/fixation.png","null","","test","","","","","",""
"265","231731","pSARL_v2","pSARL_v2ahoqs5m6","5d01b9d4c9281200151c7c6b","freq","img/green_2bandit_b2.png","70","70","test","1","144","144","7","",""
"null","232286","pSARL_v2","pSARL_v2ahoqs5m6","5d01b9d4c9281200151c7c6b","freq_resp","img/green_2bandit_b.png","70","70","test","","","","7","",""
"null","232442","pSARL_v2","pSARL_v2ahoqs5m6","5d01b9d4c9281200151c7c6b","fixation","img/fixation.png","null","","test","","","","","",""
"185","232631","pSARL_v2","pSARL_v2ahoqs5m6","5d01b9d4c9281200151c7c6b","freq","img/green_2bandit_b2.png","70","70","test","1","145","145","7","",""
"null","233262","pSARL_v2","pSARL_v2ahoqs5m6","5d01b9d4c9281200151c7c6b","freq_resp","img/green_2bandit_b.png","70","70","test","","","","7","",""
"null","233418","pSARL_v2","pSARL_v2ahoqs5m6","5d01b9d4c9281200151c7c6b","fixation","img/fixation.png","null","","test","","","","","",""
"240.69999980926514","233663","pSARL_v2","pSARL_v2ahoqs5m6","5d01b9d4c9281200151c7c6b","freq","img/green_2bandit_b2.png","70","70","test","1","146","146","7","",""
"null","234227","pSARL_v2","pSARL_v2ahoqs5m6","5d01b9d4c9281200151c7c6b","freq_resp","img/green_2bandit_b.png","70","70","test","","","","7","",""
"null","234382","pSARL_v2","pSARL_v2ahoqs5m6","5d01b9d4c9281200151c7c6b","fixation","img/fixation.png","null","","test","","","","","",""
"173.0999994277954","234559","pSARL_v2","pSARL_v2ahoqs5m6","5d01b9d4c9281200151c7c6b","freq","img/green_2bandit_b2.png","70","70","test","1","147","147","7","",""
"null","235193","pSARL_v2","pSARL_v2ahoqs5m6","5d01b9d4c9281200151c7c6b","freq_resp","img/green_2bandit_b.png","70","70","test","","","","7","",""
"null","235349","pSARL_v2","pSARL_v2ahoqs5m6","5d01b9d4c9281200151c7c6b","fixation","img/fixation.png","null","","test","","","","","",""
"205.39999961853027","235559","pSARL_v2","pSARL_v2ahoqs5m6","5d01b9d4c9281200151c7c6b","freq","img/green_2bandit_b2.png","70","70","test","1","148","148","7","",""
"null","236160","pSARL_v2","pSARL_v2ahoqs5m6","5d01b9d4c9281200151c7c6b","freq_resp","img/green_2bandit_b.png","70","70","test","","","","7","",""
"null","236316","pSARL_v2","pSARL_v2ahoqs5m6","5d01b9d4c9281200151c7c6b","fixation","img/fixation.png","null","","test","","","","","",""
"280.1000003814697","236606","pSARL_v2","pSARL_v2ahoqs5m6","5d01b9d4c9281200151c7c6b","infreq","img/orange_2bandit_b2.png","70","68","test","0","149","149","7","",""
"null","237141","pSARL_v2","pSARL_v2ahoqs5m6","5d01b9d4c9281200151c7c6b","infreq_resp","img/orange_2bandit_b.png","70","68","test","","","","7","",""
"null","237295","pSARL_v2","pSARL_v2ahoqs5m6","5d01b9d4c9281200151c7c6b","fixation","img/fixation.png","null","","test","","","","","",""
"299.8999996185303","237599","pSARL_v2","pSARL_v2ahoqs5m6","5d01b9d4c9281200151c7c6b","freq","img/green_2bandit_b2.png","70","70","test","1","150","150","7","",""
"null","238104","pSARL_v2","pSARL_v2ahoqs5m6","5d01b9d4c9281200151c7c6b","freq_resp","img/green_2bandit_b.png","70","70","test","","","","7","",""
"null","238259","pSARL_v2","pSARL_v2ahoqs5m6","5d01b9d4c9281200151c7c6b","fixation","img/fixation.png","null","","test","","","","","",""
"191.70000076293945","238456","pSARL_v2","pSARL_v2ahoqs5m6","5d01b9d4c9281200151c7c6b","freq","img/green_2bandit_b2.png","70","70","test","1","151","151","7","",""
"null","239070","pSARL_v2","pSARL_v2ahoqs5m6","5d01b9d4c9281200151c7c6b","freq_resp","img/green_2bandit_b.png","70","70","test","","","","7","",""
"null","239223","pSARL_v2","pSARL_v2ahoqs5m6","5d01b9d4c9281200151c7c6b","fixation","img/fixation.png","null","","test","","","","","",""
"211.60000038146973","239439","pSARL_v2","pSARL_v2ahoqs5m6","5d01b9d4c9281200151c7c6b","freq","img/green_2bandit_b2.png","70","70","test","1","152","152","7","",""
"null","240033","pSARL_v2","pSARL_v2ahoqs5m6","5d01b9d4c9281200151c7c6b","freq_resp","img/green_2bandit_b.png","70","70","test","","","","7","",""
"null","240192","pSARL_v2","pSARL_v2ahoqs5m6","5d01b9d4c9281200151c7c6b","fixation","img/fixation.png","null","","test","","","","","",""
"266.8999996185303","240463","pSARL_v2","pSARL_v2ahoqs5m6","5d01b9d4c9281200151c7c6b","freq","img/green_2bandit_b2.png","70","70","test","1","153","153","7","",""
"null","241011","pSARL_v2","pSARL_v2ahoqs5m6","5d01b9d4c9281200151c7c6b","freq_resp","img/green_2bandit_b.png","70","70","test","","","","7","",""
"null","241166","pSARL_v2","pSARL_v2ahoqs5m6","5d01b9d4c9281200151c7c6b","fixation","img/fixation.png","null","","test","","","","","",""
"269.1000003814697","241438","pSARL_v2","pSARL_v2ahoqs5m6","5d01b9d4c9281200151c7c6b","freq","img/green_2bandit_b2.png","70","70","test","1","154","154","7","",""
"null","241977","pSARL_v2","pSARL_v2ahoqs5m6","5d01b9d4c9281200151c7c6b","freq_resp","img/green_2bandit_b.png","70","70","test","","","","7","",""
"null","242133","pSARL_v2","pSARL_v2ahoqs5m6","5d01b9d4c9281200151c7c6b","fixation","img/fixation.png","null","","test","","","","","",""
"430","242567","pSARL_v2","pSARL_v2ahoqs5m6","5d01b9d4c9281200151c7c6b","reward","img/slot.png","74","","test","","","","","",""
"null","243328","pSARL_v2","pSARL_v2ahoqs5m6","5d01b9d4c9281200151c7c6b","points","<div class=""verylowPoints""> -6 </div>","null","na","test","","","","7","-6","6"
"499.69999980926514","243831","pSARL_v2","pSARL_v2ahoqs5m6","5d01b9d4c9281200151c7c6b","freq","img/green_2bandit_b2.png","70","70","test","1","155","155","8","",""
"null","244149","pSARL_v2","pSARL_v2ahoqs5m6","5d01b9d4c9281200151c7c6b","freq_resp","img/green_2bandit_b.png","70","70","test","","","","8","",""
"null","244305","pSARL_v2","pSARL_v2ahoqs5m6","5d01b9d4c9281200151c7c6b","fixation","img/fixation.png","null","","test","","","","","",""
"417.5","244727","pSARL_v2","pSARL_v2ahoqs5m6","5d01b9d4c9281200151c7c6b","freq","img/green_2bandit_b2.png","70","70","test","1","156","156","8","",""
"null","245116","pSARL_v2","pSARL_v2ahoqs5m6","5d01b9d4c9281200151c7c6b","freq_resp","img/green_2bandit_b.png","70","70","test","","","","8","",""
"null","245272","pSARL_v2","pSARL_v2ahoqs5m6","5d01b9d4c9281200151c7c6b","fixation","img/fixation.png","null","","test","","","","","",""
"306.29999923706055","245582","pSARL_v2","pSARL_v2ahoqs5m6","5d01b9d4c9281200151c7c6b","freq","img/green_2bandit_b2.png","70","70","test","1","157","157","8","",""
"null","246081","pSARL_v2","pSARL_v2ahoqs5m6","5d01b9d4c9281200151c7c6b","freq_resp","img/green_2bandit_b.png","70","70","test","","","","8","",""
"null","246250","pSARL_v2","pSARL_v2ahoqs5m6","5d01b9d4c9281200151c7c6b","fixation","img/fixation.png","null","","test","","","","","",""
"266.30000019073486","246519","pSARL_v2","pSARL_v2ahoqs5m6","5d01b9d4c9281200151c7c6b","freq","img/green_2bandit_b2.png","70","70","test","1","158","158","8","",""
"null","247057","pSARL_v2","pSARL_v2ahoqs5m6","5d01b9d4c9281200151c7c6b","freq_resp","img/green_2bandit_b.png","70","70","test","","","","8","",""
"null","247214","pSARL_v2","pSARL_v2ahoqs5m6","5d01b9d4c9281200151c7c6b","fixation","img/fixation.png","null","","test","","","","","",""
"301.19999980926514","247519","pSARL_v2","pSARL_v2ahoqs5m6","5d01b9d4c9281200151c7c6b","freq","img/green_2bandit_b2.png","70","70","test","1","159","159","8","",""
"null","248022","pSARL_v2","pSARL_v2ahoqs5m6","5d01b9d4c9281200151c7c6b","freq_resp","img/green_2bandit_b.png","70","70","test","","","","8","",""
"null","248178","pSARL_v2","pSARL_v2ahoqs5m6","5d01b9d4c9281200151c7c6b","fixation","img/fixation.png","null","","test","","","","","",""
"424.8999996185303","248607","pSARL_v2","pSARL_v2ahoqs5m6","5d01b9d4c9281200151c7c6b","infreq","img/orange_2bandit_b2.png","68","68","test","1","160","160","8","",""
"null","249003","pSARL_v2","pSARL_v2ahoqs5m6","5d01b9d4c9281200151c7c6b","infreq_resp","img/orange_2bandit_b.png","68","68","test","","","","8","",""
"null","249161","pSARL_v2","pSARL_v2ahoqs5m6","5d01b9d4c9281200151c7c6b","fixation","img/fixation.png","null","","test","","","","","",""
"296.69999980926514","249464","pSARL_v2","pSARL_v2ahoqs5m6","5d01b9d4c9281200151c7c6b","freq","img/green_2bandit_b2.png","70","70","test","1","161","161","8","",""
"null","249979","pSARL_v2","pSARL_v2ahoqs5m6","5d01b9d4c9281200151c7c6b","freq_resp","img/green_2bandit_b.png","70","70","test","","","","8","",""
"null","250133","pSARL_v2","pSARL_v2ahoqs5m6","5d01b9d4c9281200151c7c6b","fixation","img/fixation.png","null","","test","","","","","",""
"293.80000019073486","250433","pSARL_v2","pSARL_v2ahoqs5m6","5d01b9d4c9281200151c7c6b","freq","img/green_2bandit_b2.png","70","70","test","1","162","162","8","",""
"null","250958","pSARL_v2","pSARL_v2ahoqs5m6","5d01b9d4c9281200151c7c6b","freq_resp","img/green_2bandit_b.png","70","70","test","","","","8","",""
"null","251115","pSARL_v2","pSARL_v2ahoqs5m6","5d01b9d4c9281200151c7c6b","fixation","img/fixation.png","null","","test","","","","","",""
"239.80000019073486","251359","pSARL_v2","pSARL_v2ahoqs5m6","5d01b9d4c9281200151c7c6b","freq","img/green_2bandit_b2.png","70","70","test","1","163","163","8","",""
"null","251937","pSARL_v2","pSARL_v2ahoqs5m6","5d01b9d4c9281200151c7c6b","freq_resp","img/green_2bandit_b.png","70","70","test","","","","8","",""
"null","252093","pSARL_v2","pSARL_v2ahoqs5m6","5d01b9d4c9281200151c7c6b","fixation","img/fixation.png","null","","test","","","","","",""
"446.70000076293945","252543","pSARL_v2","pSARL_v2ahoqs5m6","5d01b9d4c9281200151c7c6b","freq","img/green_2bandit_b2.png","70","70","test","1","164","164","8","",""
"null","252902","pSARL_v2","pSARL_v2ahoqs5m6","5d01b9d4c9281200151c7c6b","freq_resp","img/green_2bandit_b.png","70","70","test","","","","8","",""
"null","253058","pSARL_v2","pSARL_v2ahoqs5m6","5d01b9d4c9281200151c7c6b","fixation","img/fixation.png","null","","test","","","","","",""
"321.80000019073486","253389","pSARL_v2","pSARL_v2ahoqs5m6","5d01b9d4c9281200151c7c6b","freq","img/green_2bandit_b2.png","70","70","test","1","165","165","8","",""
"null","253883","pSARL_v2","pSARL_v2ahoqs5m6","5d01b9d4c9281200151c7c6b","freq_resp","img/green_2bandit_b.png","70","70","test","","","","8","",""
"null","254037","pSARL_v2","pSARL_v2ahoqs5m6","5d01b9d4c9281200151c7c6b","fixation","img/fixation.png","null","","test","","","","","",""
"326","254368","pSARL_v2","pSARL_v2ahoqs5m6","5d01b9d4c9281200151c7c6b","freq","img/green_2bandit_b2.png","70","70","test","1","166","166","8","",""
"null","254847","pSARL_v2","pSARL_v2ahoqs5m6","5d01b9d4c9281200151c7c6b","freq_resp","img/green_2bandit_b.png","70","70","test","","","","8","",""
"null","255019","pSARL_v2","pSARL_v2ahoqs5m6","5d01b9d4c9281200151c7c6b","fixation","img/fixation.png","null","","test","","","","","",""
"343.9000005722046","255367","pSARL_v2","pSARL_v2ahoqs5m6","5d01b9d4c9281200151c7c6b","freq","img/green_2bandit_b2.png","70","70","test","1","167","167","8","",""
"null","255839","pSARL_v2","pSARL_v2ahoqs5m6","5d01b9d4c9281200151c7c6b","freq_resp","img/green_2bandit_b.png","70","70","test","","","","8","",""
"null","255994","pSARL_v2","pSARL_v2ahoqs5m6","5d01b9d4c9281200151c7c6b","fixation","img/fixation.png","null","","test","","","","","",""
"328.4000005722046","256327","pSARL_v2","pSARL_v2ahoqs5m6","5d01b9d4c9281200151c7c6b","freq","img/green_2bandit_b2.png","70","70","test","1","168","168","8","",""
"null","256806","pSARL_v2","pSARL_v2ahoqs5m6","5d01b9d4c9281200151c7c6b","freq_resp","img/green_2bandit_b.png","70","70","test","","","","8","",""
"null","256960","pSARL_v2","pSARL_v2ahoqs5m6","5d01b9d4c9281200151c7c6b","fixation","img/fixation.png","null","","test","","","","","",""
"346.5999994277954","257311","pSARL_v2","pSARL_v2ahoqs5m6","5d01b9d4c9281200151c7c6b","freq","img/green_2bandit_b2.png","70","70","test","1","169","169","8","",""
"null","257782","pSARL_v2","pSARL_v2ahoqs5m6","5d01b9d4c9281200151c7c6b","freq_resp","img/green_2bandit_b.png","70","70","test","","","","8","",""
"null","257938","pSARL_v2","pSARL_v2ahoqs5m6","5d01b9d4c9281200151c7c6b","fixation","img/fixation.png","null","","test","","","","","",""
"369.80000019073486","258314","pSARL_v2","pSARL_v2ahoqs5m6","5d01b9d4c9281200151c7c6b","freq","img/green_2bandit_b2.png","70","70","test","1","170","170","8","",""
"null","258764","pSARL_v2","pSARL_v2ahoqs5m6","5d01b9d4c9281200151c7c6b","freq_resp","img/green_2bandit_b.png","70","70","test","","","","8","",""
"null","258922","pSARL_v2","pSARL_v2ahoqs5m6","5d01b9d4c9281200151c7c6b","fixation","img/fixation.png","null","","test","","","","","",""
"529.3000001907349","259456","pSARL_v2","pSARL_v2ahoqs5m6","5d01b9d4c9281200151c7c6b","infreq","img/orange_2bandit_b2.png","68","68","test","1","171","171","8","",""
"null","259744","pSARL_v2","pSARL_v2ahoqs5m6","5d01b9d4c9281200151c7c6b","infreq_resp","img/orange_2bandit_b.png","68","68","test","","","","8","",""
"null","259900","pSARL_v2","pSARL_v2ahoqs5m6","5d01b9d4c9281200151c7c6b","fixation","img/fixation.png","null","","test","","","","","",""
"303.0999994277954","260209","pSARL_v2","pSARL_v2ahoqs5m6","5d01b9d4c9281200151c7c6b","freq","img/green_2bandit_b2.png","70","70","test","1","172","172","8","",""
"null","260709","pSARL_v2","pSARL_v2ahoqs5m6","5d01b9d4c9281200151c7c6b","freq_resp","img/green_2bandit_b.png","70","70","test","","","","8","",""
"null","260864","pSARL_v2","pSARL_v2ahoqs5m6","5d01b9d4c9281200151c7c6b","fixation","img/fixation.png","null","","test","","","","","",""
"283.30000019073486","261152","pSARL_v2","pSARL_v2ahoqs5m6","5d01b9d4c9281200151c7c6b","freq","img/green_2bandit_b2.png","70","70","test","1","173","173","8","",""
"null","261678","pSARL_v2","pSARL_v2ahoqs5m6","5d01b9d4c9281200151c7c6b","freq_resp","img/green_2bandit_b.png","70","70","test","","","","8","",""
"null","261846","pSARL_v2","pSARL_v2ahoqs5m6","5d01b9d4c9281200151c7c6b","fixation","img/fixation.png","null","","test","","","","","",""
"300.20000076293945","262150","pSARL_v2","pSARL_v2ahoqs5m6","5d01b9d4c9281200151c7c6b","freq","img/green_2bandit_b2.png","70","70","test","1","174","174","8","",""
"null","262668","pSARL_v2","pSARL_v2ahoqs5m6","5d01b9d4c9281200151c7c6b","freq_resp","img/green_2bandit_b.png","70","70","test","","","","8","",""
"null","262827","pSARL_v2","pSARL_v2ahoqs5m6","5d01b9d4c9281200151c7c6b","fixation","img/fixation.png","null","","test","","","","","",""
"112.19999980926514","262945","pSARL_v2","pSARL_v2ahoqs5m6","5d01b9d4c9281200151c7c6b","freq","img/green_2bandit_b2.png","70","70","test","1","175","175","8","",""
"null","263648","pSARL_v2","pSARL_v2ahoqs5m6","5d01b9d4c9281200151c7c6b","freq_resp","img/green_2bandit_b.png","70","70","test","","","","8","",""
"null","263803","pSARL_v2","pSARL_v2ahoqs5m6","5d01b9d4c9281200151c7c6b","fixation","img/fixation.png","null","","test","","","","","",""
"143.80000019073486","263950","pSARL_v2","pSARL_v2ahoqs5m6","5d01b9d4c9281200151c7c6b","freq","img/green_2bandit_b2.png","70","70","test","1","176","176","8","",""
"null","264616","pSARL_v2","pSARL_v2ahoqs5m6","5d01b9d4c9281200151c7c6b","freq_resp","img/green_2bandit_b.png","70","70","test","","","","8","",""
"null","264784","pSARL_v2","pSARL_v2ahoqs5m6","5d01b9d4c9281200151c7c6b","fixation","img/fixation.png","null","","test","","","","","",""
"482.8999996185303","265271","pSARL_v2","pSARL_v2ahoqs5m6","5d01b9d4c9281200151c7c6b","reward","img/slot.png","74","","test","","","","","",""
"null","266038","pSARL_v2","pSARL_v2ahoqs5m6","5d01b9d4c9281200151c7c6b","points","<div class=""verylowPoints""> -4 </div>","null","na","test","","","","8","-4","7"
"509.19999980926514","266552","pSARL_v2","pSARL_v2ahoqs5m6","5d01b9d4c9281200151c7c6b","freq","img/green_2bandit_b2.png","70","70","test","1","177","177","9","",""
"null","266848","pSARL_v2","pSARL_v2ahoqs5m6","5d01b9d4c9281200151c7c6b","freq_resp","img/green_2bandit_b.png","70","70","test","","","","9","",""
"null","267009","pSARL_v2","pSARL_v2ahoqs5m6","5d01b9d4c9281200151c7c6b","fixation","img/fixation.png","null","","test","","","","","",""
"745.7000007629395","267760","pSARL_v2","pSARL_v2ahoqs5m6","5d01b9d4c9281200151c7c6b","infreq","img/orange_2bandit_b2.png","68","68","test","1","178","178","9","",""
"null","267827","pSARL_v2","pSARL_v2ahoqs5m6","5d01b9d4c9281200151c7c6b","infreq_resp","img/orange_2bandit_b.png","68","68","test","","","","9","",""
"null","267983","pSARL_v2","pSARL_v2ahoqs5m6","5d01b9d4c9281200151c7c6b","fixation","img/fixation.png","null","","test","","","","","",""
"468","268455","pSARL_v2","pSARL_v2ahoqs5m6","5d01b9d4c9281200151c7c6b","freq","img/green_2bandit_b2.png","70","70","test","1","179","179","9","",""
"null","268803","pSARL_v2","pSARL_v2ahoqs5m6","5d01b9d4c9281200151c7c6b","freq_resp","img/green_2bandit_b.png","70","70","test","","","","9","",""
"null","268959","pSARL_v2","pSARL_v2ahoqs5m6","5d01b9d4c9281200151c7c6b","fixation","img/fixation.png","null","","test","","","","","",""
"307.70000076293945","269272","pSARL_v2","pSARL_v2ahoqs5m6","5d01b9d4c9281200151c7c6b","freq","img/green_2bandit_b2.png","70","70","test","1","180","180","9","",""
"null","269782","pSARL_v2","pSARL_v2ahoqs5m6","5d01b9d4c9281200151c7c6b","freq_resp","img/green_2bandit_b.png","70","70","test","","","","9","",""
"null","269936","pSARL_v2","pSARL_v2ahoqs5m6","5d01b9d4c9281200151c7c6b","fixation","img/fixation.png","null","","test","","","","","",""
"227.39999961853027","270168","pSARL_v2","pSARL_v2ahoqs5m6","5d01b9d4c9281200151c7c6b","freq","img/green_2bandit_b2.png","70","70","test","1","181","181","9","",""
"null","270747","pSARL_v2","pSARL_v2ahoqs5m6","5d01b9d4c9281200151c7c6b","freq_resp","img/green_2bandit_b.png","70","70","test","","","","9","",""
"null","270902","pSARL_v2","pSARL_v2ahoqs5m6","5d01b9d4c9281200151c7c6b","fixation","img/fixation.png","null","","test","","","","","",""
"277.3999996185303","271185","pSARL_v2","pSARL_v2ahoqs5m6","5d01b9d4c9281200151c7c6b","freq","img/green_2bandit_b2.png","70","70","test","1","182","182","9","",""
"null","271715","pSARL_v2","pSARL_v2ahoqs5m6","5d01b9d4c9281200151c7c6b","freq_resp","img/green_2bandit_b.png","70","70","test","","","","9","",""
"null","271885","pSARL_v2","pSARL_v2ahoqs5m6","5d01b9d4c9281200151c7c6b","fixation","img/fixation.png","null","","test","","","","","",""
"150","272038","pSARL_v2","pSARL_v2ahoqs5m6","5d01b9d4c9281200151c7c6b","infreq","img/orange_2bandit_b2.png","70","68","test","0","183","183","9","",""
"null","272705","pSARL_v2","pSARL_v2ahoqs5m6","5d01b9d4c9281200151c7c6b","infreq_resp","img/orange_2bandit_b.png","70","68","test","","","","9","",""
"null","272860","pSARL_v2","pSARL_v2ahoqs5m6","5d01b9d4c9281200151c7c6b","fixation","img/fixation.png","null","","test","","","","","",""
"199.19999980926514","273064","pSARL_v2","pSARL_v2ahoqs5m6","5d01b9d4c9281200151c7c6b","freq","img/green_2bandit_b2.png","70","70","test","1","184","184","9","",""
"null","273670","pSARL_v2","pSARL_v2ahoqs5m6","5d01b9d4c9281200151c7c6b","freq_resp","img/green_2bandit_b.png","70","70","test","","","","9","",""
"null","273838","pSARL_v2","pSARL_v2ahoqs5m6","5d01b9d4c9281200151c7c6b","fixation","img/fixation.png","null","","test","","","","","",""
"101","273942","pSARL_v2","pSARL_v2ahoqs5m6","5d01b9d4c9281200151c7c6b","freq","img/green_2bandit_b2.png","70","70","test","1","185","185","9","",""
"null","274660","pSARL_v2","pSARL_v2ahoqs5m6","5d01b9d4c9281200151c7c6b","freq_resp","img/green_2bandit_b.png","70","70","test","","","","9","",""
"null","274816","pSARL_v2","pSARL_v2ahoqs5m6","5d01b9d4c9281200151c7c6b","fixation","img/fixation.png","null","","test","","","","","",""
"163.0999994277954","274983","pSARL_v2","pSARL_v2ahoqs5m6","5d01b9d4c9281200151c7c6b","freq","img/green_2bandit_b2.png","70","70","test","1","186","186","9","",""
"null","275634","pSARL_v2","pSARL_v2ahoqs5m6","5d01b9d4c9281200151c7c6b","freq_resp","img/green_2bandit_b.png","70","70","test","","","","9","",""
"null","275789","pSARL_v2","pSARL_v2ahoqs5m6","5d01b9d4c9281200151c7c6b","fixation","img/fixation.png","null","","test","","","","","",""
"93.79999923706055","275887","pSARL_v2","pSARL_v2ahoqs5m6","5d01b9d4c9281200151c7c6b","freq","img/green_2bandit_b2.png","70","70","test","1","187","187","9","",""
"null","276599","pSARL_v2","pSARL_v2ahoqs5m6","5d01b9d4c9281200151c7c6b","freq_resp","img/green_2bandit_b.png","70","70","test","","","","9","",""
"null","276754","pSARL_v2","pSARL_v2ahoqs5m6","5d01b9d4c9281200151c7c6b","fixation","img/fixation.png","null","","test","","","","","",""
"97.10000038146973","276856","pSARL_v2","pSARL_v2ahoqs5m6","5d01b9d4c9281200151c7c6b","freq","img/green_2bandit_b2.png","70","70","test","1","188","188","9","",""
"null","277565","pSARL_v2","pSARL_v2ahoqs5m6","5d01b9d4c9281200151c7c6b","freq_resp","img/green_2bandit_b.png","70","70","test","","","","9","",""
"null","277720","pSARL_v2","pSARL_v2ahoqs5m6","5d01b9d4c9281200151c7c6b","fixation","img/fixation.png","null","","test","","","","","",""
"243.39999961853027","277967","pSARL_v2","pSARL_v2ahoqs5m6","5d01b9d4c9281200151c7c6b","freq","img/green_2bandit_b2.png","70","70","test","1","189","189","9","",""
"null","278529","pSARL_v2","pSARL_v2ahoqs5m6","5d01b9d4c9281200151c7c6b","freq_resp","img/green_2bandit_b.png","70","70","test","","","","9","",""
"null","278699","pSARL_v2","pSARL_v2ahoqs5m6","5d01b9d4c9281200151c7c6b","fixation","img/fixation.png","null","","test","","","","","",""
"200","278903","pSARL_v2","pSARL_v2ahoqs5m6","5d01b9d4c9281200151c7c6b","freq","img/green_2bandit_b2.png","70","70","test","1","190","190","9","",""
"null","279508","pSARL_v2","pSARL_v2ahoqs5m6","5d01b9d4c9281200151c7c6b","freq_resp","img/green_2bandit_b.png","70","70","test","","","","9","",""
"null","279664","pSARL_v2","pSARL_v2ahoqs5m6","5d01b9d4c9281200151c7c6b","fixation","img/fixation.png","null","","test","","","","","",""
"null","280469","pSARL_v2","pSARL_v2ahoqs5m6","5d01b9d4c9281200151c7c6b","freq","img/green_2bandit_b2.png","null","70","test","0","191","191","9","",""
"null","280626","pSARL_v2","pSARL_v2ahoqs5m6","5d01b9d4c9281200151c7c6b","fixation","img/fixation.png","null","","test","","","","","",""
"464.8999996185303","281096","pSARL_v2","pSARL_v2ahoqs5m6","5d01b9d4c9281200151c7c6b","freq","img/green_2bandit_b2.png","70","70","test","1","192","192","9","",""
"null","281437","pSARL_v2","pSARL_v2ahoqs5m6","5d01b9d4c9281200151c7c6b","freq_resp","img/green_2bandit_b.png","70","70","test","","","","9","",""
"null","281593","pSARL_v2","pSARL_v2ahoqs5m6","5d01b9d4c9281200151c7c6b","fixation","img/fixation.png","null","","test","","","","","",""
"338.19999980926514","281935","pSARL_v2","pSARL_v2ahoqs5m6","5d01b9d4c9281200151c7c6b","freq","img/green_2bandit_b2.png","70","70","test","1","193","193","9","",""
"null","282407","pSARL_v2","pSARL_v2ahoqs5m6","5d01b9d4c9281200151c7c6b","freq_resp","img/green_2bandit_b.png","70","70","test","","","","9","",""
"null","282562","pSARL_v2","pSARL_v2ahoqs5m6","5d01b9d4c9281200151c7c6b","fixation","img/fixation.png","null","","test","","","","","",""
"321.1000003814697","282886","pSARL_v2","pSARL_v2ahoqs5m6","5d01b9d4c9281200151c7c6b","freq","img/green_2bandit_b2.png","70","70","test","1","194","194","9","",""
"null","283369","pSARL_v2","pSARL_v2ahoqs5m6","5d01b9d4c9281200151c7c6b","freq_resp","img/green_2bandit_b.png","70","70","test","","","","9","",""
"null","283538","pSARL_v2","pSARL_v2ahoqs5m6","5d01b9d4c9281200151c7c6b","fixation","img/fixation.png","null","","test","","","","","",""
"296.8999996185303","283839","pSARL_v2","pSARL_v2ahoqs5m6","5d01b9d4c9281200151c7c6b","freq","img/green_2bandit_b2.png","70","70","test","1","195","195","9","",""
"null","284348","pSARL_v2","pSARL_v2ahoqs5m6","5d01b9d4c9281200151c7c6b","freq_resp","img/green_2bandit_b.png","70","70","test","","","","9","",""
"null","284503","pSARL_v2","pSARL_v2ahoqs5m6","5d01b9d4c9281200151c7c6b","fixation","img/fixation.png","null","","test","","","","","",""
"291.8999996185303","284799","pSARL_v2","pSARL_v2ahoqs5m6","5d01b9d4c9281200151c7c6b","freq","img/green_2bandit_b2.png","70","70","test","1","196","196","9","",""
"null","285316","pSARL_v2","pSARL_v2ahoqs5m6","5d01b9d4c9281200151c7c6b","freq_resp","img/green_2bandit_b.png","70","70","test","","","","9","",""
"null","285472","pSARL_v2","pSARL_v2ahoqs5m6","5d01b9d4c9281200151c7c6b","fixation","img/fixation.png","null","","test","","","","","",""
"314.6000003814697","285791","pSARL_v2","pSARL_v2ahoqs5m6","5d01b9d4c9281200151c7c6b","freq","img/green_2bandit_b2.png","70","70","test","1","197","197","9","",""
"null","286288","pSARL_v2","pSARL_v2ahoqs5m6","5d01b9d4c9281200151c7c6b","freq_resp","img/green_2bandit_b.png","70","70","test","","","","9","",""
"null","286443","pSARL_v2","pSARL_v2ahoqs5m6","5d01b9d4c9281200151c7c6b","fixation","img/fixation.png","null","","test","","","","","",""
"256","286704","pSARL_v2","pSARL_v2ahoqs5m6","5d01b9d4c9281200151c7c6b","freq","img/green_2bandit_b2.png","70","70","test","1","198","198","9","",""
"null","287266","pSARL_v2","pSARL_v2ahoqs5m6","5d01b9d4c9281200151c7c6b","freq_resp","img/green_2bandit_b.png","70","70","test","","","","9","",""
"null","287435","pSARL_v2","pSARL_v2ahoqs5m6","5d01b9d4c9281200151c7c6b","fixation","img/fixation.png","null","","test","","","","","",""
"344.3999996185303","287785","pSARL_v2","pSARL_v2ahoqs5m6","5d01b9d4c9281200151c7c6b","freq","img/green_2bandit_b2.png","70","70","test","1","199","199","9","",""
"null","288258","pSARL_v2","pSARL_v2ahoqs5m6","5d01b9d4c9281200151c7c6b","freq_resp","img/green_2bandit_b.png","70","70","test","","","","9","",""
"null","288415","pSARL_v2","pSARL_v2ahoqs5m6","5d01b9d4c9281200151c7c6b","fixation","img/fixation.png","null","","test","","","","","",""
"283.80000019073486","288703","pSARL_v2","pSARL_v2ahoqs5m6","5d01b9d4c9281200151c7c6b","infreq","img/orange_2bandit_b2.png","70","68","test","0","200","200","9","",""
"null","289224","pSARL_v2","pSARL_v2ahoqs5m6","5d01b9d4c9281200151c7c6b","infreq_resp","img/orange_2bandit_b.png","70","68","test","","","","9","",""
"null","289384","pSARL_v2","pSARL_v2ahoqs5m6","5d01b9d4c9281200151c7c6b","fixation","img/fixation.png","null","","test","","","","","",""
"219.19999980926514","289607","pSARL_v2","pSARL_v2ahoqs5m6","5d01b9d4c9281200151c7c6b","freq","img/green_2bandit_b2.png","70","70","test","1","201","201","9","",""
"null","290192","pSARL_v2","pSARL_v2ahoqs5m6","5d01b9d4c9281200151c7c6b","freq_resp","img/green_2bandit_b.png","70","70","test","","","","9","",""
"null","290352","pSARL_v2","pSARL_v2ahoqs5m6","5d01b9d4c9281200151c7c6b","fixation","img/fixation.png","null","","test","","","","","",""
"275.0999994277954","290630","pSARL_v2","pSARL_v2ahoqs5m6","5d01b9d4c9281200151c7c6b","freq","img/green_2bandit_b2.png","70","70","test","1","202","202","9","",""
"null","291159","pSARL_v2","pSARL_v2ahoqs5m6","5d01b9d4c9281200151c7c6b","freq_resp","img/green_2bandit_b.png","70","70","test","","","","9","",""
"null","291316","pSARL_v2","pSARL_v2ahoqs5m6","5d01b9d4c9281200151c7c6b","fixation","img/fixation.png","null","","test","","","","","",""
"310.5999994277954","291631","pSARL_v2","pSARL_v2ahoqs5m6","5d01b9d4c9281200151c7c6b","freq","img/green_2bandit_b2.png","70","70","test","1","203","203","9","",""
"null","292128","pSARL_v2","pSARL_v2ahoqs5m6","5d01b9d4c9281200151c7c6b","freq_resp","img/green_2bandit_b.png","70","70","test","","","","9","",""
"null","292283","pSARL_v2","pSARL_v2ahoqs5m6","5d01b9d4c9281200151c7c6b","fixation","img/fixation.png","null","","test","","","","","",""
"463.69999980926514","292750","pSARL_v2","pSARL_v2ahoqs5m6","5d01b9d4c9281200151c7c6b","reward","img/slot.png","74","","test","","","","","",""
"null","293506","pSARL_v2","pSARL_v2ahoqs5m6","5d01b9d4c9281200151c7c6b","points","<div class=""verylowPoints""> -3 </div>","null","na","test","","","","9","-3","8"
"216.30000019073486","293726","pSARL_v2","pSARL_v2ahoqs5m6","5d01b9d4c9281200151c7c6b","freq","img/green_2bandit_b2.png","70","70","test","1","204","204","10","",""
"null","294322","pSARL_v2","pSARL_v2ahoqs5m6","5d01b9d4c9281200151c7c6b","freq_resp","img/green_2bandit_b.png","70","70","test","","","","10","",""
"null","294491","pSARL_v2","pSARL_v2ahoqs5m6","5d01b9d4c9281200151c7c6b","fixation","img/fixation.png","null","","test","","","","","",""
"305.0999994277954","294802","pSARL_v2","pSARL_v2ahoqs5m6","5d01b9d4c9281200151c7c6b","freq","img/green_2bandit_b2.png","70","70","test","1","205","205","10","",""
"null","295312","pSARL_v2","pSARL_v2ahoqs5m6","5d01b9d4c9281200151c7c6b","freq_resp","img/green_2bandit_b.png","70","70","test","","","","10","",""
"null","295470","pSARL_v2","pSARL_v2ahoqs5m6","5d01b9d4c9281200151c7c6b","fixation","img/fixation.png","null","","test","","","","","",""
