"rt","time_elapsed","expId","subject","prolificID","trialType","stimulus","key_press","corrresp","phase","corr","trialNum","attentionRunNum","blockNum","points","rlNum"
"18454.599999999627","18474","pSARL_v2","pSARL_v2286lk475","615b39c56d4a42f215089b8a","","","","","","","","","","",""
"","21854","pSARL_v2","pSARL_v2286lk475","615b39c56d4a42f215089b8a","fullscreen","","","","","","","","","",""
"71192.19999999925","93065","pSARL_v2","pSARL_v2286lk475","615b39c56d4a42f215089b8a","","","","","","","","","","",""
"null","93899","pSARL_v2","pSARL_v2286lk475","615b39c56d4a42f215089b8a","freqPrac","img/orange_2bandit_a2.png","null","70","prac","0","","","","",""
"null","94932","pSARL_v2","pSARL_v2286lk475","615b39c56d4a42f215089b8a","feedback","img/tooSlow.png","null","na","prac","","","","","",""
"null","95108","pSARL_v2","pSARL_v2286lk475","615b39c56d4a42f215089b8a","fixation","img/fixation.png","null","","prac","","","","","",""
"null","95943","pSARL_v2","pSARL_v2286lk475","615b39c56d4a42f215089b8a","infreqPrac","img/green_2bandit_a2.png","null","68","prac","0","","","","",""
"null","96979","pSARL_v2","pSARL_v2286lk475","615b39c56d4a42f215089b8a","feedback","img/tooSlow.png","null","na","prac","","","","","",""
"null","97146","pSARL_v2","pSARL_v2286lk475","615b39c56d4a42f215089b8a","fixation","img/fixation.png","null","","prac","","","","","",""
"551.2999999988824","97716","pSARL_v2","pSARL_v2286lk475","615b39c56d4a42f215089b8a","freqPrac","img/orange_2bandit_a2.png","70","70","prac","1","","","","",""
"551.2999999988824","97994","pSARL_v2","pSARL_v2286lk475","615b39c56d4a42f215089b8a","freqPrac_resp","img/orange_2bandit_a.png","70","70","prac","","","","","",""
"null","98170","pSARL_v2","pSARL_v2286lk475","615b39c56d4a42f215089b8a","fixation","img/fixation.png","null","","prac","","","","","",""
"371.30000000074506","98563","pSARL_v2","pSARL_v2286lk475","615b39c56d4a42f215089b8a","infreqPrac","img/green_2bandit_a2.png","68","68","prac","1","","","","",""
"371.30000000074506","99017","pSARL_v2","pSARL_v2286lk475","615b39c56d4a42f215089b8a","infreqPrac_resp","img/green_2bandit_a.png","68","68","prac","","","","","",""
"null","99195","pSARL_v2","pSARL_v2286lk475","615b39c56d4a42f215089b8a","fixation","img/fixation.png","null","","prac","","","","","",""
"413.2999999988824","99627","pSARL_v2","pSARL_v2286lk475","615b39c56d4a42f215089b8a","infreqPrac","img/green_2bandit_a2.png","68","68","prac","1","","","","",""
"413.2999999988824","100035","pSARL_v2","pSARL_v2286lk475","615b39c56d4a42f215089b8a","infreqPrac_resp","img/green_2bandit_a.png","68","68","prac","","","","","",""
"null","100214","pSARL_v2","pSARL_v2286lk475","615b39c56d4a42f215089b8a","fixation","img/fixation.png","null","","prac","","","","","",""
"354.5","100590","pSARL_v2","pSARL_v2286lk475","615b39c56d4a42f215089b8a","infreqPrac","img/green_2bandit_a2.png","68","68","prac","1","","","","",""
"354.5","101063","pSARL_v2","pSARL_v2286lk475","615b39c56d4a42f215089b8a","infreqPrac_resp","img/green_2bandit_a.png","68","68","prac","","","","","",""
"null","101240","pSARL_v2","pSARL_v2286lk475","615b39c56d4a42f215089b8a","fixation","img/fixation.png","null","","prac","","","","","",""
"350.2999999988824","101611","pSARL_v2","pSARL_v2286lk475","615b39c56d4a42f215089b8a","freqPrac","img/orange_2bandit_a2.png","70","70","prac","1","","","","",""
"350.2999999988824","102096","pSARL_v2","pSARL_v2286lk475","615b39c56d4a42f215089b8a","freqPrac_resp","img/orange_2bandit_a.png","70","70","prac","","","","","",""
"null","102276","pSARL_v2","pSARL_v2286lk475","615b39c56d4a42f215089b8a","fixation","img/fixation.png","null","","prac","","","","","",""
"553.4000000003725","102849","pSARL_v2","pSARL_v2286lk475","615b39c56d4a42f215089b8a","infreqPrac","img/green_2bandit_a2.png","68","68","prac","1","","","","",""
"553.4000000003725","103121","pSARL_v2","pSARL_v2286lk475","615b39c56d4a42f215089b8a","infreqPrac_resp","img/green_2bandit_a.png","68","68","prac","","","","","",""
"null","103293","pSARL_v2","pSARL_v2286lk475","615b39c56d4a42f215089b8a","fixation","img/fixation.png","null","","prac","","","","","",""
"604.9000000003725","103920","pSARL_v2","pSARL_v2286lk475","615b39c56d4a42f215089b8a","freqPrac","img/orange_2bandit_a2.png","70","70","prac","1","","","","",""
"604.9000000003725","104133","pSARL_v2","pSARL_v2286lk475","615b39c56d4a42f215089b8a","freqPrac_resp","img/orange_2bandit_a.png","70","70","prac","","","","","",""
"null","104308","pSARL_v2","pSARL_v2286lk475","615b39c56d4a42f215089b8a","fixation","img/fixation.png","null","","prac","","","","","",""
"509.8999999985099","104839","pSARL_v2","pSARL_v2286lk475","615b39c56d4a42f215089b8a","freqPrac","img/orange_2bandit_a2.png","70","70","prac","1","","","","",""
"509.8999999985099","105164","pSARL_v2","pSARL_v2286lk475","615b39c56d4a42f215089b8a","freqPrac_resp","img/orange_2bandit_a.png","70","70","prac","","","","","",""
"null","105345","pSARL_v2","pSARL_v2286lk475","615b39c56d4a42f215089b8a","fixation","img/fixation.png","null","","prac","","","","","",""
"25756.299999998882","131119","pSARL_v2","pSARL_v2286lk475","615b39c56d4a42f215089b8a","","","","","prac","","","","","",""
"739.6999999992549","131878","pSARL_v2","pSARL_v2286lk475","615b39c56d4a42f215089b8a","rewardPractice","img/slot.png","74","","prac","","","","","",""
"null","132655","pSARL_v2","pSARL_v2286lk475","615b39c56d4a42f215089b8a","feedback","<div class=""veryhighPoints""> +15 </div>","null","na","prac","","","","","",""
"null","132830","pSARL_v2","pSARL_v2286lk475","615b39c56d4a42f215089b8a","fixation","img/fixation.png","null","","prac","","","","","",""
"9802.300000000745","142646","pSARL_v2","pSARL_v2286lk475","615b39c56d4a42f215089b8a","","","","","prac","","","","","",""
"612.8999999985099","143279","pSARL_v2","pSARL_v2286lk475","615b39c56d4a42f215089b8a","freq","img/orange_2bandit_a2.png","70","70","test","1","1","1","1","",""
"null","143494","pSARL_v2","pSARL_v2286lk475","615b39c56d4a42f215089b8a","freq_resp","img/orange_2bandit_a.png","70","70","test","","","","1","",""
"null","143678","pSARL_v2","pSARL_v2286lk475","615b39c56d4a42f215089b8a","fixation","img/fixation.png","null","","test","","","","","",""
"341.7999999988824","144041","pSARL_v2","pSARL_v2286lk475","615b39c56d4a42f215089b8a","freq","img/orange_2bandit_a2.png","70","70","test","1","2","2","1","",""
"null","144517","pSARL_v2","pSARL_v2286lk475","615b39c56d4a42f215089b8a","freq_resp","img/orange_2bandit_a.png","70","70","test","","","","1","",""
"null","144690","pSARL_v2","pSARL_v2286lk475","615b39c56d4a42f215089b8a","fixation","img/fixation.png","null","","test","","","","","",""
"306.2000000011176","145016","pSARL_v2","pSARL_v2286lk475","615b39c56d4a42f215089b8a","infreq","img/green_2bandit_a2.png","68","68","test","1","3","3","1","",""
"null","145539","pSARL_v2","pSARL_v2286lk475","615b39c56d4a42f215089b8a","infreq_resp","img/green_2bandit_a.png","68","68","test","","","","1","",""
"null","145709","pSARL_v2","pSARL_v2286lk475","615b39c56d4a42f215089b8a","fixation","img/fixation.png","null","","test","","","","","",""
"472.7999999988824","146204","pSARL_v2","pSARL_v2286lk475","615b39c56d4a42f215089b8a","freq","img/orange_2bandit_a2.png","70","70","test","1","4","4","1","",""
"null","146564","pSARL_v2","pSARL_v2286lk475","615b39c56d4a42f215089b8a","freq_resp","img/orange_2bandit_a.png","70","70","test","","","","1","",""
"null","146740","pSARL_v2","pSARL_v2286lk475","615b39c56d4a42f215089b8a","fixation","img/fixation.png","null","","test","","","","","",""
"379.3999999985099","147140","pSARL_v2","pSARL_v2286lk475","615b39c56d4a42f215089b8a","freq","img/orange_2bandit_a2.png","70","70","test","1","5","5","1","",""
"null","147589","pSARL_v2","pSARL_v2286lk475","615b39c56d4a42f215089b8a","freq_resp","img/orange_2bandit_a.png","70","70","test","","","","1","",""
"null","147791","pSARL_v2","pSARL_v2286lk475","615b39c56d4a42f215089b8a","fixation","img/fixation.png","null","","test","","","","","",""
"316.69999999925494","148129","pSARL_v2","pSARL_v2286lk475","615b39c56d4a42f215089b8a","freq","img/orange_2bandit_a2.png","70","70","test","1","6","6","1","",""
"null","148634","pSARL_v2","pSARL_v2286lk475","615b39c56d4a42f215089b8a","freq_resp","img/orange_2bandit_a.png","70","70","test","","","","1","",""
"null","148805","pSARL_v2","pSARL_v2286lk475","615b39c56d4a42f215089b8a","fixation","img/fixation.png","null","","test","","","","","",""
"265.5","149091","pSARL_v2","pSARL_v2286lk475","615b39c56d4a42f215089b8a","infreq","img/green_2bandit_a2.png","68","68","test","1","7","7","1","",""
"null","149661","pSARL_v2","pSARL_v2286lk475","615b39c56d4a42f215089b8a","infreq_resp","img/green_2bandit_a.png","68","68","test","","","","1","",""
"null","149838","pSARL_v2","pSARL_v2286lk475","615b39c56d4a42f215089b8a","fixation","img/fixation.png","null","","test","","","","","",""
"449.5","150311","pSARL_v2","pSARL_v2286lk475","615b39c56d4a42f215089b8a","freq","img/orange_2bandit_a2.png","68","70","test","0","8","8","1","",""
"null","150689","pSARL_v2","pSARL_v2286lk475","615b39c56d4a42f215089b8a","freq_resp","img/orange_2bandit_a.png","68","70","test","","","","1","",""
"null","150867","pSARL_v2","pSARL_v2286lk475","615b39c56d4a42f215089b8a","fixation","img/fixation.png","null","","test","","","","","",""
"515.7999999988824","151404","pSARL_v2","pSARL_v2286lk475","615b39c56d4a42f215089b8a","freq","img/orange_2bandit_a2.png","70","70","test","1","9","9","1","",""
"null","151708","pSARL_v2","pSARL_v2286lk475","615b39c56d4a42f215089b8a","freq_resp","img/orange_2bandit_a.png","70","70","test","","","","1","",""
"null","151882","pSARL_v2","pSARL_v2286lk475","615b39c56d4a42f215089b8a","fixation","img/fixation.png","null","","test","","","","","",""
"409","152312","pSARL_v2","pSARL_v2286lk475","615b39c56d4a42f215089b8a","freq","img/orange_2bandit_a2.png","70","70","test","1","10","10","1","",""
"null","152741","pSARL_v2","pSARL_v2286lk475","615b39c56d4a42f215089b8a","freq_resp","img/orange_2bandit_a.png","70","70","test","","","","1","",""
"null","152914","pSARL_v2","pSARL_v2286lk475","615b39c56d4a42f215089b8a","fixation","img/fixation.png","null","","test","","","","","",""
"325.59999999962747","153261","pSARL_v2","pSARL_v2286lk475","615b39c56d4a42f215089b8a","freq","img/orange_2bandit_a2.png","70","70","test","1","11","11","1","",""
"null","153759","pSARL_v2","pSARL_v2286lk475","615b39c56d4a42f215089b8a","freq_resp","img/orange_2bandit_a.png","70","70","test","","","","1","",""
"null","153929","pSARL_v2","pSARL_v2286lk475","615b39c56d4a42f215089b8a","fixation","img/fixation.png","null","","test","","","","","",""
"312.8999999985099","154262","pSARL_v2","pSARL_v2286lk475","615b39c56d4a42f215089b8a","freq","img/orange_2bandit_a2.png","70","70","test","1","12","12","1","",""
"null","154773","pSARL_v2","pSARL_v2286lk475","615b39c56d4a42f215089b8a","freq_resp","img/orange_2bandit_a.png","70","70","test","","","","1","",""
"null","154945","pSARL_v2","pSARL_v2286lk475","615b39c56d4a42f215089b8a","fixation","img/fixation.png","null","","test","","","","","",""
"314.30000000074506","155280","pSARL_v2","pSARL_v2286lk475","615b39c56d4a42f215089b8a","freq","img/orange_2bandit_a2.png","70","70","test","1","13","13","1","",""
"null","155788","pSARL_v2","pSARL_v2286lk475","615b39c56d4a42f215089b8a","freq_resp","img/orange_2bandit_a.png","70","70","test","","","","1","",""
"null","155960","pSARL_v2","pSARL_v2286lk475","615b39c56d4a42f215089b8a","fixation","img/fixation.png","null","","test","","","","","",""
"303.59999999962747","156283","pSARL_v2","pSARL_v2286lk475","615b39c56d4a42f215089b8a","freq","img/orange_2bandit_a2.png","70","70","test","1","14","14","1","",""
"null","156803","pSARL_v2","pSARL_v2286lk475","615b39c56d4a42f215089b8a","freq_resp","img/orange_2bandit_a.png","70","70","test","","","","1","",""
"null","156975","pSARL_v2","pSARL_v2286lk475","615b39c56d4a42f215089b8a","fixation","img/fixation.png","null","","test","","","","","",""
"311.3999999985099","157307","pSARL_v2","pSARL_v2286lk475","615b39c56d4a42f215089b8a","freq","img/orange_2bandit_a2.png","70","70","test","1","15","15","1","",""
"null","157829","pSARL_v2","pSARL_v2286lk475","615b39c56d4a42f215089b8a","freq_resp","img/orange_2bandit_a.png","70","70","test","","","","1","",""
"null","158002","pSARL_v2","pSARL_v2286lk475","615b39c56d4a42f215089b8a","fixation","img/fixation.png","null","","test","","","","","",""
"331.59999999962747","158351","pSARL_v2","pSARL_v2286lk475","615b39c56d4a42f215089b8a","freq","img/orange_2bandit_a2.png","70","70","test","1","16","16","1","",""
"null","158846","pSARL_v2","pSARL_v2286lk475","615b39c56d4a42f215089b8a","freq_resp","img/orange_2bandit_a.png","70","70","test","","","","1","",""
"null","159024","pSARL_v2","pSARL_v2286lk475","615b39c56d4a42f215089b8a","fixation","img/fixation.png","null","","test","","","","","",""
"340.30000000074506","159381","pSARL_v2","pSARL_v2286lk475","615b39c56d4a42f215089b8a","infreq","img/green_2bandit_a2.png","68","68","test","1","17","17","1","",""
"null","159867","pSARL_v2","pSARL_v2286lk475","615b39c56d4a42f215089b8a","infreq_resp","img/green_2bandit_a.png","68","68","test","","","","1","",""
"null","160039","pSARL_v2","pSARL_v2286lk475","615b39c56d4a42f215089b8a","fixation","img/fixation.png","null","","test","","","","","",""
"401.2999999988824","160461","pSARL_v2","pSARL_v2286lk475","615b39c56d4a42f215089b8a","freq","img/orange_2bandit_a2.png","70","70","test","1","18","18","1","",""
"null","160892","pSARL_v2","pSARL_v2286lk475","615b39c56d4a42f215089b8a","freq_resp","img/orange_2bandit_a.png","70","70","test","","","","1","",""
"null","161069","pSARL_v2","pSARL_v2286lk475","615b39c56d4a42f215089b8a","fixation","img/fixation.png","null","","test","","","","","",""
"472.59999999962747","161564","pSARL_v2","pSARL_v2286lk475","615b39c56d4a42f215089b8a","freq","img/orange_2bandit_a2.png","70","70","test","1","19","19","1","",""
"null","161922","pSARL_v2","pSARL_v2286lk475","615b39c56d4a42f215089b8a","freq_resp","img/orange_2bandit_a.png","70","70","test","","","","1","",""
"null","162100","pSARL_v2","pSARL_v2286lk475","615b39c56d4a42f215089b8a","fixation","img/fixation.png","null","","test","","","","","",""
"437.5","162559","pSARL_v2","pSARL_v2286lk475","615b39c56d4a42f215089b8a","freq","img/orange_2bandit_a2.png","70","70","test","1","20","20","1","",""
"null","162944","pSARL_v2","pSARL_v2286lk475","615b39c56d4a42f215089b8a","freq_resp","img/orange_2bandit_a.png","70","70","test","","","","1","",""
"null","163117","pSARL_v2","pSARL_v2286lk475","615b39c56d4a42f215089b8a","fixation","img/fixation.png","null","","test","","","","","",""
"1185.5999999996275","164317","pSARL_v2","pSARL_v2286lk475","615b39c56d4a42f215089b8a","reward","img/slot.png","74","","test","","","","","",""
"null","165087","pSARL_v2","pSARL_v2286lk475","615b39c56d4a42f215089b8a","points","<div class=""verylowPoints""> -6 </div>","null","na","test","","","","1","-6","0"
"751.1000000014901","165859","pSARL_v2","pSARL_v2286lk475","615b39c56d4a42f215089b8a","freq","img/orange_2bandit_a2.png","70","70","test","1","21","21","2","",""
"null","165946","pSARL_v2","pSARL_v2286lk475","615b39c56d4a42f215089b8a","freq_resp","img/orange_2bandit_a.png","70","70","test","","","","2","",""
"null","166125","pSARL_v2","pSARL_v2286lk475","615b39c56d4a42f215089b8a","fixation","img/fixation.png","null","","test","","","","","",""
"738.6999999992549","166886","pSARL_v2","pSARL_v2286lk475","615b39c56d4a42f215089b8a","freq","img/orange_2bandit_a2.png","70","70","test","1","22","22","2","",""
"null","166973","pSARL_v2","pSARL_v2286lk475","615b39c56d4a42f215089b8a","freq_resp","img/orange_2bandit_a.png","70","70","test","","","","2","",""
"null","167143","pSARL_v2","pSARL_v2286lk475","615b39c56d4a42f215089b8a","fixation","img/fixation.png","null","","test","","","","","",""
"298.90000000037253","167462","pSARL_v2","pSARL_v2286lk475","615b39c56d4a42f215089b8a","freq","img/orange_2bandit_a2.png","70","70","test","1","23","23","2","",""
"null","167979","pSARL_v2","pSARL_v2286lk475","615b39c56d4a42f215089b8a","freq_resp","img/orange_2bandit_a.png","70","70","test","","","","2","",""
"null","168162","pSARL_v2","pSARL_v2286lk475","615b39c56d4a42f215089b8a","fixation","img/fixation.png","null","","test","","","","","",""
"504.2999999988824","168687","pSARL_v2","pSARL_v2286lk475","615b39c56d4a42f215089b8a","freq","img/orange_2bandit_a2.png","70","70","test","1","24","24","2","",""
"null","169012","pSARL_v2","pSARL_v2286lk475","615b39c56d4a42f215089b8a","freq_resp","img/orange_2bandit_a.png","70","70","test","","","","2","",""
"null","169195","pSARL_v2","pSARL_v2286lk475","615b39c56d4a42f215089b8a","fixation","img/fixation.png","null","","test","","","","","",""
"591.5","169806","pSARL_v2","pSARL_v2286lk475","615b39c56d4a42f215089b8a","freq","img/orange_2bandit_a2.png","70","70","test","1","25","25","2","",""
"null","170051","pSARL_v2","pSARL_v2286lk475","615b39c56d4a42f215089b8a","freq_resp","img/orange_2bandit_a.png","70","70","test","","","","2","",""
"null","170223","pSARL_v2","pSARL_v2286lk475","615b39c56d4a42f215089b8a","fixation","img/fixation.png","null","","test","","","","","",""
"416.90000000037253","170662","pSARL_v2","pSARL_v2286lk475","615b39c56d4a42f215089b8a","freq","img/orange_2bandit_a2.png","70","70","test","1","26","26","2","",""
"null","171071","pSARL_v2","pSARL_v2286lk475","615b39c56d4a42f215089b8a","freq_resp","img/orange_2bandit_a.png","70","70","test","","","","2","",""
"null","171253","pSARL_v2","pSARL_v2286lk475","615b39c56d4a42f215089b8a","fixation","img/fixation.png","null","","test","","","","","",""
"265.1000000014901","171539","pSARL_v2","pSARL_v2286lk475","615b39c56d4a42f215089b8a","freq","img/orange_2bandit_a2.png","70","70","test","1","27","27","2","",""
"null","172096","pSARL_v2","pSARL_v2286lk475","615b39c56d4a42f215089b8a","freq_resp","img/orange_2bandit_a.png","70","70","test","","","","2","",""
"null","172267","pSARL_v2","pSARL_v2286lk475","615b39c56d4a42f215089b8a","fixation","img/fixation.png","null","","test","","","","","",""
"441.09999999962747","172729","pSARL_v2","pSARL_v2286lk475","615b39c56d4a42f215089b8a","infreq","img/green_2bandit_a2.png","68","68","test","1","28","28","2","",""
"null","173119","pSARL_v2","pSARL_v2286lk475","615b39c56d4a42f215089b8a","infreq_resp","img/green_2bandit_a.png","68","68","test","","","","2","",""
"null","173288","pSARL_v2","pSARL_v2286lk475","615b39c56d4a42f215089b8a","fixation","img/fixation.png","null","","test","","","","","",""
"314.09999999962747","173623","pSARL_v2","pSARL_v2286lk475","615b39c56d4a42f215089b8a","infreq","img/green_2bandit_a2.png","68","68","test","1","29","29","2","",""
"null","174141","pSARL_v2","pSARL_v2286lk475","615b39c56d4a42f215089b8a","infreq_resp","img/green_2bandit_a.png","68","68","test","","","","2","",""
"null","174314","pSARL_v2","pSARL_v2286lk475","615b39c56d4a42f215089b8a","fixation","img/fixation.png","null","","test","","","","","",""
"388.90000000037253","174724","pSARL_v2","pSARL_v2286lk475","615b39c56d4a42f215089b8a","freq","img/orange_2bandit_a2.png","70","70","test","1","30","30","2","",""
"null","175181","pSARL_v2","pSARL_v2286lk475","615b39c56d4a42f215089b8a","freq_resp","img/orange_2bandit_a.png","70","70","test","","","","2","",""
"null","175363","pSARL_v2","pSARL_v2286lk475","615b39c56d4a42f215089b8a","fixation","img/fixation.png","null","","test","","","","","",""
"541.6000000014901","175922","pSARL_v2","pSARL_v2286lk475","615b39c56d4a42f215089b8a","infreq","img/green_2bandit_a2.png","68","68","test","1","31","31","2","",""
"null","176210","pSARL_v2","pSARL_v2286lk475","615b39c56d4a42f215089b8a","infreq_resp","img/green_2bandit_a.png","68","68","test","","","","2","",""
"null","176378","pSARL_v2","pSARL_v2286lk475","615b39c56d4a42f215089b8a","fixation","img/fixation.png","null","","test","","","","","",""
"557.9000000003725","176956","pSARL_v2","pSARL_v2286lk475","615b39c56d4a42f215089b8a","freq","img/orange_2bandit_a2.png","70","70","test","1","32","32","2","",""
"null","177235","pSARL_v2","pSARL_v2286lk475","615b39c56d4a42f215089b8a","freq_resp","img/orange_2bandit_a.png","70","70","test","","","","2","",""
"null","177409","pSARL_v2","pSARL_v2286lk475","615b39c56d4a42f215089b8a","fixation","img/fixation.png","null","","test","","","","","",""
"335.40000000037253","177765","pSARL_v2","pSARL_v2286lk475","615b39c56d4a42f215089b8a","freq","img/orange_2bandit_a2.png","70","70","test","1","33","33","2","",""
"null","178258","pSARL_v2","pSARL_v2286lk475","615b39c56d4a42f215089b8a","freq_resp","img/orange_2bandit_a.png","70","70","test","","","","2","",""
"null","178441","pSARL_v2","pSARL_v2286lk475","615b39c56d4a42f215089b8a","fixation","img/fixation.png","null","","test","","","","","",""
"270.90000000037253","178733","pSARL_v2","pSARL_v2286lk475","615b39c56d4a42f215089b8a","freq","img/orange_2bandit_a2.png","70","70","test","1","34","34","2","",""
"null","179284","pSARL_v2","pSARL_v2286lk475","615b39c56d4a42f215089b8a","freq_resp","img/orange_2bandit_a.png","70","70","test","","","","2","",""
"null","179456","pSARL_v2","pSARL_v2286lk475","615b39c56d4a42f215089b8a","fixation","img/fixation.png","null","","test","","","","","",""
"271.90000000037253","179748","pSARL_v2","pSARL_v2286lk475","615b39c56d4a42f215089b8a","freq","img/orange_2bandit_a2.png","70","70","test","1","35","35","2","",""
"null","180299","pSARL_v2","pSARL_v2286lk475","615b39c56d4a42f215089b8a","freq_resp","img/orange_2bandit_a.png","70","70","test","","","","2","",""
"null","180473","pSARL_v2","pSARL_v2286lk475","615b39c56d4a42f215089b8a","fixation","img/fixation.png","null","","test","","","","","",""
"281","180774","pSARL_v2","pSARL_v2286lk475","615b39c56d4a42f215089b8a","freq","img/orange_2bandit_a2.png","70","70","test","1","36","36","2","",""
"null","181333","pSARL_v2","pSARL_v2286lk475","615b39c56d4a42f215089b8a","freq_resp","img/orange_2bandit_a.png","70","70","test","","","","2","",""
"null","181520","pSARL_v2","pSARL_v2286lk475","615b39c56d4a42f215089b8a","fixation","img/fixation.png","null","","test","","","","","",""
"280.90000000037253","181821","pSARL_v2","pSARL_v2286lk475","615b39c56d4a42f215089b8a","freq","img/orange_2bandit_a2.png","70","70","test","1","37","37","2","",""
"null","182365","pSARL_v2","pSARL_v2286lk475","615b39c56d4a42f215089b8a","freq_resp","img/orange_2bandit_a.png","70","70","test","","","","2","",""
"null","182537","pSARL_v2","pSARL_v2286lk475","615b39c56d4a42f215089b8a","fixation","img/fixation.png","null","","test","","","","","",""
"287.2999999988824","182845","pSARL_v2","pSARL_v2286lk475","615b39c56d4a42f215089b8a","freq","img/orange_2bandit_a2.png","70","70","test","1","38","38","2","",""
"null","183381","pSARL_v2","pSARL_v2286lk475","615b39c56d4a42f215089b8a","freq_resp","img/orange_2bandit_a.png","70","70","test","","","","2","",""
"null","183568","pSARL_v2","pSARL_v2286lk475","615b39c56d4a42f215089b8a","fixation","img/fixation.png","null","","test","","","","","",""
"651.0999999996275","184241","pSARL_v2","pSARL_v2286lk475","615b39c56d4a42f215089b8a","freq","img/orange_2bandit_a2.png","70","70","test","1","39","39","2","",""
"null","184414","pSARL_v2","pSARL_v2286lk475","615b39c56d4a42f215089b8a","freq_resp","img/orange_2bandit_a.png","70","70","test","","","","2","",""
"null","184579","pSARL_v2","pSARL_v2286lk475","615b39c56d4a42f215089b8a","fixation","img/fixation.png","null","","test","","","","","",""
"552.5","185150","pSARL_v2","pSARL_v2286lk475","615b39c56d4a42f215089b8a","freq","img/orange_2bandit_a2.png","70","70","test","1","40","40","2","",""
"null","185427","pSARL_v2","pSARL_v2286lk475","615b39c56d4a42f215089b8a","freq_resp","img/orange_2bandit_a.png","70","70","test","","","","2","",""
"null","185599","pSARL_v2","pSARL_v2286lk475","615b39c56d4a42f215089b8a","fixation","img/fixation.png","null","","test","","","","","",""
"446.30000000074506","186066","pSARL_v2","pSARL_v2286lk475","615b39c56d4a42f215089b8a","freq","img/orange_2bandit_a2.png","70","70","test","1","41","41","2","",""
"null","186453","pSARL_v2","pSARL_v2286lk475","615b39c56d4a42f215089b8a","freq_resp","img/orange_2bandit_a.png","70","70","test","","","","2","",""
"null","186632","pSARL_v2","pSARL_v2286lk475","615b39c56d4a42f215089b8a","fixation","img/fixation.png","null","","test","","","","","",""
"444.3999999985099","187097","pSARL_v2","pSARL_v2286lk475","615b39c56d4a42f215089b8a","freq","img/orange_2bandit_a2.png","70","70","test","1","42","42","2","",""
"null","187481","pSARL_v2","pSARL_v2286lk475","615b39c56d4a42f215089b8a","freq_resp","img/orange_2bandit_a.png","70","70","test","","","","2","",""
"null","187661","pSARL_v2","pSARL_v2286lk475","615b39c56d4a42f215089b8a","fixation","img/fixation.png","null","","test","","","","","",""
"767.4000000003725","188447","pSARL_v2","pSARL_v2286lk475","615b39c56d4a42f215089b8a","reward","img/slot.png","74","","test","","","","","",""
"null","189230","pSARL_v2","pSARL_v2286lk475","615b39c56d4a42f215089b8a","points","<div class=""verylowPoints""> -11 </div>","null","na","test","","","","2","-11","1"
"null","190066","pSARL_v2","pSARL_v2286lk475","615b39c56d4a42f215089b8a","freq","img/orange_2bandit_a2.png","null","70","test","0","43","43","3","",""
"null","190241","pSARL_v2","pSARL_v2286lk475","615b39c56d4a42f215089b8a","fixation","img/fixation.png","null","","test","","","","","",""
"550.5999999996275","190812","pSARL_v2","pSARL_v2286lk475","615b39c56d4a42f215089b8a","freq","img/orange_2bandit_a2.png","70","70","test","1","44","44","3","",""
"null","191084","pSARL_v2","pSARL_v2286lk475","615b39c56d4a42f215089b8a","freq_resp","img/orange_2bandit_a.png","70","70","test","","","","3","",""
"null","191260","pSARL_v2","pSARL_v2286lk475","615b39c56d4a42f215089b8a","fixation","img/fixation.png","null","","test","","","","","",""
"379.59999999962747","191658","pSARL_v2","pSARL_v2286lk475","615b39c56d4a42f215089b8a","freq","img/orange_2bandit_a2.png","70","70","test","1","45","45","3","",""
"null","192107","pSARL_v2","pSARL_v2286lk475","615b39c56d4a42f215089b8a","freq_resp","img/orange_2bandit_a.png","70","70","test","","","","3","",""
"null","192320","pSARL_v2","pSARL_v2286lk475","615b39c56d4a42f215089b8a","fixation","img/fixation.png","null","","test","","","","","",""
"462","192805","pSARL_v2","pSARL_v2286lk475","615b39c56d4a42f215089b8a","freq","img/orange_2bandit_a2.png","68","70","test","0","46","46","3","",""
"null","193174","pSARL_v2","pSARL_v2286lk475","615b39c56d4a42f215089b8a","freq_resp","img/orange_2bandit_a.png","68","70","test","","","","3","",""
"null","193350","pSARL_v2","pSARL_v2286lk475","615b39c56d4a42f215089b8a","fixation","img/fixation.png","null","","test","","","","","",""
"377.90000000037253","193748","pSARL_v2","pSARL_v2286lk475","615b39c56d4a42f215089b8a","freq","img/orange_2bandit_a2.png","70","70","test","1","47","47","3","",""
"null","194201","pSARL_v2","pSARL_v2286lk475","615b39c56d4a42f215089b8a","freq_resp","img/orange_2bandit_a.png","70","70","test","","","","3","",""
"null","194384","pSARL_v2","pSARL_v2286lk475","615b39c56d4a42f215089b8a","fixation","img/fixation.png","null","","test","","","","","",""
"742","195148","pSARL_v2","pSARL_v2286lk475","615b39c56d4a42f215089b8a","infreq","img/green_2bandit_a2.png","68","68","test","1","48","48","3","",""
"null","195238","pSARL_v2","pSARL_v2286lk475","615b39c56d4a42f215089b8a","infreq_resp","img/green_2bandit_a.png","68","68","test","","","","3","",""
"null","195413","pSARL_v2","pSARL_v2286lk475","615b39c56d4a42f215089b8a","fixation","img/fixation.png","null","","test","","","","","",""
"646.3999999985099","196079","pSARL_v2","pSARL_v2286lk475","615b39c56d4a42f215089b8a","freq","img/orange_2bandit_a2.png","70","70","test","1","49","49","3","",""
"null","196272","pSARL_v2","pSARL_v2286lk475","615b39c56d4a42f215089b8a","freq_resp","img/orange_2bandit_a.png","70","70","test","","","","3","",""
"null","196447","pSARL_v2","pSARL_v2286lk475","615b39c56d4a42f215089b8a","fixation","img/fixation.png","null","","test","","","","","",""
"622.9000000003725","197089","pSARL_v2","pSARL_v2286lk475","615b39c56d4a42f215089b8a","infreq","img/green_2bandit_a2.png","68","68","test","1","50","50","3","",""
"null","197288","pSARL_v2","pSARL_v2286lk475","615b39c56d4a42f215089b8a","infreq_resp","img/green_2bandit_a.png","68","68","test","","","","3","",""
"null","197470","pSARL_v2","pSARL_v2286lk475","615b39c56d4a42f215089b8a","fixation","img/fixation.png","null","","test","","","","","",""
"571.5999999996275","198063","pSARL_v2","pSARL_v2286lk475","615b39c56d4a42f215089b8a","freq","img/orange_2bandit_a2.png","70","70","test","1","51","51","3","",""
"null","198321","pSARL_v2","pSARL_v2286lk475","615b39c56d4a42f215089b8a","freq_resp","img/orange_2bandit_a.png","70","70","test","","","","3","",""
"null","198494","pSARL_v2","pSARL_v2286lk475","615b39c56d4a42f215089b8a","fixation","img/fixation.png","null","","test","","","","","",""
"333.5","198849","pSARL_v2","pSARL_v2286lk475","615b39c56d4a42f215089b8a","freq","img/orange_2bandit_a2.png","70","70","test","1","52","52","3","",""
"null","199341","pSARL_v2","pSARL_v2286lk475","615b39c56d4a42f215089b8a","freq_resp","img/orange_2bandit_a.png","70","70","test","","","","3","",""
"null","199514","pSARL_v2","pSARL_v2286lk475","615b39c56d4a42f215089b8a","fixation","img/fixation.png","null","","test","","","","","",""
"295.5","199831","pSARL_v2","pSARL_v2286lk475","615b39c56d4a42f215089b8a","freq","img/orange_2bandit_a2.png","70","70","test","1","53","53","3","",""
"null","200366","pSARL_v2","pSARL_v2286lk475","615b39c56d4a42f215089b8a","freq_resp","img/orange_2bandit_a.png","70","70","test","","","","3","",""
"null","200549","pSARL_v2","pSARL_v2286lk475","615b39c56d4a42f215089b8a","fixation","img/fixation.png","null","","test","","","","","",""
"359.40000000037253","200925","pSARL_v2","pSARL_v2286lk475","615b39c56d4a42f215089b8a","freq","img/orange_2bandit_a2.png","70","70","test","1","54","54","3","",""
"null","201389","pSARL_v2","pSARL_v2286lk475","615b39c56d4a42f215089b8a","freq_resp","img/orange_2bandit_a.png","70","70","test","","","","3","",""
"null","201572","pSARL_v2","pSARL_v2286lk475","615b39c56d4a42f215089b8a","fixation","img/fixation.png","null","","test","","","","","",""
"287.19999999925494","201882","pSARL_v2","pSARL_v2286lk475","615b39c56d4a42f215089b8a","freq","img/orange_2bandit_a2.png","70","70","test","1","55","55","3","",""
"null","202420","pSARL_v2","pSARL_v2286lk475","615b39c56d4a42f215089b8a","freq_resp","img/orange_2bandit_a.png","70","70","test","","","","3","",""
"null","202602","pSARL_v2","pSARL_v2286lk475","615b39c56d4a42f215089b8a","fixation","img/fixation.png","null","","test","","","","","",""
"299","202923","pSARL_v2","pSARL_v2286lk475","615b39c56d4a42f215089b8a","freq","img/orange_2bandit_a2.png","70","70","test","1","56","56","3","",""
"null","203449","pSARL_v2","pSARL_v2286lk475","615b39c56d4a42f215089b8a","freq_resp","img/orange_2bandit_a.png","70","70","test","","","","3","",""
"null","203651","pSARL_v2","pSARL_v2286lk475","615b39c56d4a42f215089b8a","fixation","img/fixation.png","null","","test","","","","","",""
"330.09999999962747","204002","pSARL_v2","pSARL_v2286lk475","615b39c56d4a42f215089b8a","freq","img/orange_2bandit_a2.png","70","70","test","1","57","57","3","",""
"null","204497","pSARL_v2","pSARL_v2286lk475","615b39c56d4a42f215089b8a","freq_resp","img/orange_2bandit_a.png","70","70","test","","","","3","",""
"null","204668","pSARL_v2","pSARL_v2286lk475","615b39c56d4a42f215089b8a","fixation","img/fixation.png","null","","test","","","","","",""
"368.90000000037253","205071","pSARL_v2","pSARL_v2286lk475","615b39c56d4a42f215089b8a","freq","img/orange_2bandit_a2.png","70","70","test","1","58","58","3","",""
"null","205533","pSARL_v2","pSARL_v2286lk475","615b39c56d4a42f215089b8a","freq_resp","img/orange_2bandit_a.png","70","70","test","","","","3","",""
"null","205715","pSARL_v2","pSARL_v2286lk475","615b39c56d4a42f215089b8a","fixation","img/fixation.png","null","","test","","","","","",""
"269.90000000037253","206006","pSARL_v2","pSARL_v2286lk475","615b39c56d4a42f215089b8a","freq","img/orange_2bandit_a2.png","70","70","test","1","59","59","3","",""
"null","206568","pSARL_v2","pSARL_v2286lk475","615b39c56d4a42f215089b8a","freq_resp","img/orange_2bandit_a.png","70","70","test","","","","3","",""
"null","206748","pSARL_v2","pSARL_v2286lk475","615b39c56d4a42f215089b8a","fixation","img/fixation.png","null","","test","","","","","",""
"331.8999999985099","207103","pSARL_v2","pSARL_v2286lk475","615b39c56d4a42f215089b8a","freq","img/orange_2bandit_a2.png","70","70","test","1","60","60","3","",""
"null","207595","pSARL_v2","pSARL_v2286lk475","615b39c56d4a42f215089b8a","freq_resp","img/orange_2bandit_a.png","70","70","test","","","","3","",""
"null","207765","pSARL_v2","pSARL_v2286lk475","615b39c56d4a42f215089b8a","fixation","img/fixation.png","null","","test","","","","","",""
"274.30000000074506","208061","pSARL_v2","pSARL_v2286lk475","615b39c56d4a42f215089b8a","freq","img/orange_2bandit_a2.png","70","70","test","1","61","61","3","",""
"null","208623","pSARL_v2","pSARL_v2286lk475","615b39c56d4a42f215089b8a","freq_resp","img/orange_2bandit_a.png","70","70","test","","","","3","",""
"null","208795","pSARL_v2","pSARL_v2286lk475","615b39c56d4a42f215089b8a","fixation","img/fixation.png","null","","test","","","","","",""
"260","209076","pSARL_v2","pSARL_v2286lk475","615b39c56d4a42f215089b8a","freq","img/orange_2bandit_a2.png","70","70","test","1","62","62","3","",""
"null","209647","pSARL_v2","pSARL_v2286lk475","615b39c56d4a42f215089b8a","freq_resp","img/orange_2bandit_a.png","70","70","test","","","","3","",""
"null","209825","pSARL_v2","pSARL_v2286lk475","615b39c56d4a42f215089b8a","fixation","img/fixation.png","null","","test","","","","","",""
"309.2999999988824","210150","pSARL_v2","pSARL_v2286lk475","615b39c56d4a42f215089b8a","freq","img/orange_2bandit_a2.png","70","70","test","1","63","63","3","",""
"null","210671","pSARL_v2","pSARL_v2286lk475","615b39c56d4a42f215089b8a","freq_resp","img/orange_2bandit_a.png","70","70","test","","","","3","",""
"null","210844","pSARL_v2","pSARL_v2286lk475","615b39c56d4a42f215089b8a","fixation","img/fixation.png","null","","test","","","","","",""
"278.69999999925494","211143","pSARL_v2","pSARL_v2286lk475","615b39c56d4a42f215089b8a","freq","img/orange_2bandit_a2.png","70","70","test","1","64","64","3","",""
"null","211685","pSARL_v2","pSARL_v2286lk475","615b39c56d4a42f215089b8a","freq_resp","img/orange_2bandit_a.png","70","70","test","","","","3","",""
"null","211857","pSARL_v2","pSARL_v2286lk475","615b39c56d4a42f215089b8a","fixation","img/fixation.png","null","","test","","","","","",""
"298.40000000037253","212178","pSARL_v2","pSARL_v2286lk475","615b39c56d4a42f215089b8a","freq","img/orange_2bandit_a2.png","70","70","test","1","65","65","3","",""
"null","212714","pSARL_v2","pSARL_v2286lk475","615b39c56d4a42f215089b8a","freq_resp","img/orange_2bandit_a.png","70","70","test","","","","3","",""
"null","212888","pSARL_v2","pSARL_v2286lk475","615b39c56d4a42f215089b8a","fixation","img/fixation.png","null","","test","","","","","",""
"308","213210","pSARL_v2","pSARL_v2286lk475","615b39c56d4a42f215089b8a","freq","img/orange_2bandit_a2.png","70","70","test","1","66","66","3","",""
"null","213722","pSARL_v2","pSARL_v2286lk475","615b39c56d4a42f215089b8a","freq_resp","img/orange_2bandit_a.png","70","70","test","","","","3","",""
"null","213897","pSARL_v2","pSARL_v2286lk475","615b39c56d4a42f215089b8a","fixation","img/fixation.png","null","","test","","","","","",""
"408.09999999962747","214325","pSARL_v2","pSARL_v2286lk475","615b39c56d4a42f215089b8a","reward","img/slot.png","74","","test","","","","","",""
"null","215102","pSARL_v2","pSARL_v2286lk475","615b39c56d4a42f215089b8a","points","<div class=""verylowPoints""> -7 </div>","null","na","test","","","","3","-7","2"
"435.09999999962747","215557","pSARL_v2","pSARL_v2286lk475","615b39c56d4a42f215089b8a","freq","img/orange_2bandit_a2.png","70","70","test","1","67","67","4","",""
"null","215950","pSARL_v2","pSARL_v2286lk475","615b39c56d4a42f215089b8a","freq_resp","img/orange_2bandit_a.png","70","70","test","","","","4","",""
"null","216134","pSARL_v2","pSARL_v2286lk475","615b39c56d4a42f215089b8a","fixation","img/fixation.png","null","","test","","","","","",""
"391.09999999962747","216546","pSARL_v2","pSARL_v2286lk475","615b39c56d4a42f215089b8a","freq","img/orange_2bandit_a2.png","70","70","test","1","68","68","4","",""
"null","216976","pSARL_v2","pSARL_v2286lk475","615b39c56d4a42f215089b8a","freq_resp","img/orange_2bandit_a.png","70","70","test","","","","4","",""
"null","217147","pSARL_v2","pSARL_v2286lk475","615b39c56d4a42f215089b8a","fixation","img/fixation.png","null","","test","","","","","",""
"340.69999999925494","217509","pSARL_v2","pSARL_v2286lk475","615b39c56d4a42f215089b8a","freq","img/orange_2bandit_a2.png","70","70","test","1","69","69","4","",""
"null","217997","pSARL_v2","pSARL_v2286lk475","615b39c56d4a42f215089b8a","freq_resp","img/orange_2bandit_a.png","70","70","test","","","","4","",""
"null","218181","pSARL_v2","pSARL_v2286lk475","615b39c56d4a42f215089b8a","fixation","img/fixation.png","null","","test","","","","","",""
"468.3999999985099","218670","pSARL_v2","pSARL_v2286lk475","615b39c56d4a42f215089b8a","infreq","img/green_2bandit_a2.png","68","68","test","1","70","70","4","",""
"null","219033","pSARL_v2","pSARL_v2286lk475","615b39c56d4a42f215089b8a","infreq_resp","img/green_2bandit_a.png","68","68","test","","","","4","",""
"null","219212","pSARL_v2","pSARL_v2286lk475","615b39c56d4a42f215089b8a","fixation","img/fixation.png","null","","test","","","","","",""
"527.2999999988824","219759","pSARL_v2","pSARL_v2286lk475","615b39c56d4a42f215089b8a","freq","img/orange_2bandit_a2.png","70","70","test","1","71","71","4","",""
"null","220052","pSARL_v2","pSARL_v2286lk475","615b39c56d4a42f215089b8a","freq_resp","img/orange_2bandit_a.png","70","70","test","","","","4","",""
"null","220227","pSARL_v2","pSARL_v2286lk475","615b39c56d4a42f215089b8a","fixation","img/fixation.png","null","","test","","","","","",""
"294.8999999985099","220539","pSARL_v2","pSARL_v2286lk475","615b39c56d4a42f215089b8a","freq","img/orange_2bandit_a2.png","70","70","test","1","72","72","4","",""
"null","221070","pSARL_v2","pSARL_v2286lk475","615b39c56d4a42f215089b8a","freq_resp","img/orange_2bandit_a.png","70","70","test","","","","4","",""
"null","221237","pSARL_v2","pSARL_v2286lk475","615b39c56d4a42f215089b8a","fixation","img/fixation.png","null","","test","","","","","",""
"311.59999999962747","221569","pSARL_v2","pSARL_v2286lk475","615b39c56d4a42f215089b8a","freq","img/orange_2bandit_a2.png","70","70","test","1","73","73","4","",""
"null","222087","pSARL_v2","pSARL_v2286lk475","615b39c56d4a42f215089b8a","freq_resp","img/orange_2bandit_a.png","70","70","test","","","","4","",""
"null","222258","pSARL_v2","pSARL_v2286lk475","615b39c56d4a42f215089b8a","fixation","img/fixation.png","null","","test","","","","","",""
"305.5","222580","pSARL_v2","pSARL_v2286lk475","615b39c56d4a42f215089b8a","freq","img/orange_2bandit_a2.png","70","70","test","1","74","74","4","",""
"null","223101","pSARL_v2","pSARL_v2286lk475","615b39c56d4a42f215089b8a","freq_resp","img/orange_2bandit_a.png","70","70","test","","","","4","",""
"null","223270","pSARL_v2","pSARL_v2286lk475","615b39c56d4a42f215089b8a","fixation","img/fixation.png","null","","test","","","","","",""
"267.2999999988824","223559","pSARL_v2","pSARL_v2286lk475","615b39c56d4a42f215089b8a","freq","img/orange_2bandit_a2.png","70","70","test","1","75","75","4","",""
"null","224115","pSARL_v2","pSARL_v2286lk475","615b39c56d4a42f215089b8a","freq_resp","img/orange_2bandit_a.png","70","70","test","","","","4","",""
"null","224289","pSARL_v2","pSARL_v2286lk475","615b39c56d4a42f215089b8a","fixation","img/fixation.png","null","","test","","","","","",""
"239.69999999925494","224551","pSARL_v2","pSARL_v2286lk475","615b39c56d4a42f215089b8a","freq","img/orange_2bandit_a2.png","70","70","test","1","76","76","4","",""
"null","225160","pSARL_v2","pSARL_v2286lk475","615b39c56d4a42f215089b8a","freq_resp","img/orange_2bandit_a.png","70","70","test","","","","4","",""
"null","225337","pSARL_v2","pSARL_v2286lk475","615b39c56d4a42f215089b8a","fixation","img/fixation.png","null","","test","","","","","",""
"412.59999999962747","225771","pSARL_v2","pSARL_v2286lk475","615b39c56d4a42f215089b8a","infreq","img/green_2bandit_a2.png","68","68","test","1","77","77","4","",""
"null","226197","pSARL_v2","pSARL_v2286lk475","615b39c56d4a42f215089b8a","infreq_resp","img/green_2bandit_a.png","68","68","test","","","","4","",""
"null","226367","pSARL_v2","pSARL_v2286lk475","615b39c56d4a42f215089b8a","fixation","img/fixation.png","null","","test","","","","","",""
"316.2000000011176","226705","pSARL_v2","pSARL_v2286lk475","615b39c56d4a42f215089b8a","infreq","img/green_2bandit_a2.png","68","68","test","1","78","78","4","",""
"null","227212","pSARL_v2","pSARL_v2286lk475","615b39c56d4a42f215089b8a","infreq_resp","img/green_2bandit_a.png","68","68","test","","","","4","",""
"null","227384","pSARL_v2","pSARL_v2286lk475","615b39c56d4a42f215089b8a","fixation","img/fixation.png","null","","test","","","","","",""
"381.19999999925494","227785","pSARL_v2","pSARL_v2286lk475","615b39c56d4a42f215089b8a","freq","img/orange_2bandit_a2.png","70","70","test","1","79","79","4","",""
"null","228232","pSARL_v2","pSARL_v2286lk475","615b39c56d4a42f215089b8a","freq_resp","img/orange_2bandit_a.png","70","70","test","","","","4","",""
"null","228406","pSARL_v2","pSARL_v2286lk475","615b39c56d4a42f215089b8a","fixation","img/fixation.png","null","","test","","","","","",""
"310","228738","pSARL_v2","pSARL_v2286lk475","615b39c56d4a42f215089b8a","freq","img/orange_2bandit_a2.png","70","70","test","1","80","80","4","",""
"null","229276","pSARL_v2","pSARL_v2286lk475","615b39c56d4a42f215089b8a","freq_resp","img/orange_2bandit_a.png","70","70","test","","","","4","",""
"null","229448","pSARL_v2","pSARL_v2286lk475","615b39c56d4a42f215089b8a","fixation","img/fixation.png","null","","test","","","","","",""
"267.2999999988824","229735","pSARL_v2","pSARL_v2286lk475","615b39c56d4a42f215089b8a","freq","img/orange_2bandit_a2.png","70","70","test","1","81","81","4","",""
"null","230304","pSARL_v2","pSARL_v2286lk475","615b39c56d4a42f215089b8a","freq_resp","img/orange_2bandit_a.png","70","70","test","","","","4","",""
"null","230481","pSARL_v2","pSARL_v2286lk475","615b39c56d4a42f215089b8a","fixation","img/fixation.png","null","","test","","","","","",""
"270","230771","pSARL_v2","pSARL_v2286lk475","615b39c56d4a42f215089b8a","freq","img/orange_2bandit_a2.png","70","70","test","1","82","82","4","",""
"null","231339","pSARL_v2","pSARL_v2286lk475","615b39c56d4a42f215089b8a","freq_resp","img/orange_2bandit_a.png","70","70","test","","","","4","",""
"null","231513","pSARL_v2","pSARL_v2286lk475","615b39c56d4a42f215089b8a","fixation","img/fixation.png","null","","test","","","","","",""
"294.80000000074506","231828","pSARL_v2","pSARL_v2286lk475","615b39c56d4a42f215089b8a","freq","img/orange_2bandit_a2.png","70","70","test","1","83","83","4","",""
"null","232356","pSARL_v2","pSARL_v2286lk475","615b39c56d4a42f215089b8a","freq_resp","img/orange_2bandit_a.png","70","70","test","","","","4","",""
"null","232541","pSARL_v2","pSARL_v2286lk475","615b39c56d4a42f215089b8a","fixation","img/fixation.png","null","","test","","","","","",""
"295.5","232857","pSARL_v2","pSARL_v2286lk475","615b39c56d4a42f215089b8a","freq","img/orange_2bandit_a2.png","70","70","test","1","84","84","4","",""
"null","233379","pSARL_v2","pSARL_v2286lk475","615b39c56d4a42f215089b8a","freq_resp","img/orange_2bandit_a.png","70","70","test","","","","4","",""
"null","233555","pSARL_v2","pSARL_v2286lk475","615b39c56d4a42f215089b8a","fixation","img/fixation.png","null","","test","","","","","",""
"316.69999999925494","233888","pSARL_v2","pSARL_v2286lk475","615b39c56d4a42f215089b8a","freq","img/orange_2bandit_a2.png","70","70","test","1","85","85","4","",""
"null","234399","pSARL_v2","pSARL_v2286lk475","615b39c56d4a42f215089b8a","freq_resp","img/orange_2bandit_a.png","70","70","test","","","","4","",""
"null","234577","pSARL_v2","pSARL_v2286lk475","615b39c56d4a42f215089b8a","fixation","img/fixation.png","null","","test","","","","","",""
"314.19999999925494","234911","pSARL_v2","pSARL_v2286lk475","615b39c56d4a42f215089b8a","freq","img/orange_2bandit_a2.png","70","70","test","1","86","86","4","",""
"null","235430","pSARL_v2","pSARL_v2286lk475","615b39c56d4a42f215089b8a","freq_resp","img/orange_2bandit_a.png","70","70","test","","","","4","",""
"null","235603","pSARL_v2","pSARL_v2286lk475","615b39c56d4a42f215089b8a","fixation","img/fixation.png","null","","test","","","","","",""
"346.5","235969","pSARL_v2","pSARL_v2286lk475","615b39c56d4a42f215089b8a","reward","img/slot.png","74","","test","","","","","",""
"null","236736","pSARL_v2","pSARL_v2286lk475","615b39c56d4a42f215089b8a","points","<div class=""verylowPoints""> -3 </div>","null","na","test","","","","4","-3","3"
"276.8999999985099","237031","pSARL_v2","pSARL_v2286lk475","615b39c56d4a42f215089b8a","freq","img/orange_2bandit_a2.png","70","70","test","1","87","87","5","",""
"null","237577","pSARL_v2","pSARL_v2286lk475","615b39c56d4a42f215089b8a","freq_resp","img/orange_2bandit_a.png","70","70","test","","","","5","",""
"null","237750","pSARL_v2","pSARL_v2286lk475","615b39c56d4a42f215089b8a","fixation","img/fixation.png","null","","test","","","","","",""
"319","238089","pSARL_v2","pSARL_v2286lk475","615b39c56d4a42f215089b8a","freq","img/orange_2bandit_a2.png","70","70","test","1","88","88","5","",""
"null","238595","pSARL_v2","pSARL_v2286lk475","615b39c56d4a42f215089b8a","freq_resp","img/orange_2bandit_a.png","70","70","test","","","","5","",""
"null","238766","pSARL_v2","pSARL_v2286lk475","615b39c56d4a42f215089b8a","fixation","img/fixation.png","null","","test","","","","","",""
"491.69999999925494","239279","pSARL_v2","pSARL_v2286lk475","615b39c56d4a42f215089b8a","infreq","img/green_2bandit_a2.png","68","68","test","1","89","89","5","",""
"null","239621","pSARL_v2","pSARL_v2286lk475","615b39c56d4a42f215089b8a","infreq_resp","img/green_2bandit_a.png","68","68","test","","","","5","",""
"null","239797","pSARL_v2","pSARL_v2286lk475","615b39c56d4a42f215089b8a","fixation","img/fixation.png","null","","test","","","","","",""
"508.5","240327","pSARL_v2","pSARL_v2286lk475","615b39c56d4a42f215089b8a","freq","img/orange_2bandit_a2.png","70","70","test","1","90","90","5","",""
"null","240645","pSARL_v2","pSARL_v2286lk475","615b39c56d4a42f215089b8a","freq_resp","img/orange_2bandit_a.png","70","70","test","","","","5","",""
"null","240830","pSARL_v2","pSARL_v2286lk475","615b39c56d4a42f215089b8a","fixation","img/fixation.png","null","","test","","","","","",""
"409.59999999962747","241260","pSARL_v2","pSARL_v2286lk475","615b39c56d4a42f215089b8a","freq","img/orange_2bandit_a2.png","70","70","test","1","91","91","5","",""
"null","241679","pSARL_v2","pSARL_v2286lk475","615b39c56d4a42f215089b8a","freq_resp","img/orange_2bandit_a.png","70","70","test","","","","5","",""
"null","241860","pSARL_v2","pSARL_v2286lk475","615b39c56d4a42f215089b8a","fixation","img/fixation.png","null","","test","","","","","",""
"464","242344","pSARL_v2","pSARL_v2286lk475","615b39c56d4a42f215089b8a","freq","img/orange_2bandit_a2.png","70","70","test","1","92","92","5","",""
"null","242699","pSARL_v2","pSARL_v2286lk475","615b39c56d4a42f215089b8a","freq_resp","img/orange_2bandit_a.png","70","70","test","","","","5","",""
"null","242873","pSARL_v2","pSARL_v2286lk475","615b39c56d4a42f215089b8a","fixation","img/fixation.png","null","","test","","","","","",""
"533.5","243428","pSARL_v2","pSARL_v2286lk475","615b39c56d4a42f215089b8a","freq","img/orange_2bandit_a2.png","70","70","test","1","93","93","5","",""
"null","243729","pSARL_v2","pSARL_v2286lk475","615b39c56d4a42f215089b8a","freq_resp","img/orange_2bandit_a.png","70","70","test","","","","5","",""
"null","243911","pSARL_v2","pSARL_v2286lk475","615b39c56d4a42f215089b8a","fixation","img/fixation.png","null","","test","","","","","",""
"632.1000000014901","244563","pSARL_v2","pSARL_v2286lk475","615b39c56d4a42f215089b8a","freq","img/orange_2bandit_a2.png","70","70","test","1","94","94","5","",""
"null","244759","pSARL_v2","pSARL_v2286lk475","615b39c56d4a42f215089b8a","freq_resp","img/orange_2bandit_a.png","70","70","test","","","","5","",""
"null","244931","pSARL_v2","pSARL_v2286lk475","615b39c56d4a42f215089b8a","fixation","img/fixation.png","null","","test","","","","","",""
"569.3999999985099","245521","pSARL_v2","pSARL_v2286lk475","615b39c56d4a42f215089b8a","freq","img/orange_2bandit_a2.png","70","70","test","1","95","95","5","",""
"null","245778","pSARL_v2","pSARL_v2286lk475","615b39c56d4a42f215089b8a","freq_resp","img/orange_2bandit_a.png","70","70","test","","","","5","",""
"null","245951","pSARL_v2","pSARL_v2286lk475","615b39c56d4a42f215089b8a","fixation","img/fixation.png","null","","test","","","","","",""
"318.5","246284","pSARL_v2","pSARL_v2286lk475","615b39c56d4a42f215089b8a","freq","img/orange_2bandit_a2.png","70","70","test","1","96","96","5","",""
"null","246789","pSARL_v2","pSARL_v2286lk475","615b39c56d4a42f215089b8a","freq_resp","img/orange_2bandit_a.png","70","70","test","","","","5","",""
"null","246960","pSARL_v2","pSARL_v2286lk475","615b39c56d4a42f215089b8a","fixation","img/fixation.png","null","","test","","","","","",""
"254","247234","pSARL_v2","pSARL_v2286lk475","615b39c56d4a42f215089b8a","freq","img/orange_2bandit_a2.png","70","70","test","1","97","97","5","",""
"null","247806","pSARL_v2","pSARL_v2286lk475","615b39c56d4a42f215089b8a","freq_resp","img/orange_2bandit_a.png","70","70","test","","","","5","",""
"null","247984","pSARL_v2","pSARL_v2286lk475","615b39c56d4a42f215089b8a","fixation","img/fixation.png","null","","test","","","","","",""
"318.69999999925494","248325","pSARL_v2","pSARL_v2286lk475","615b39c56d4a42f215089b8a","freq","img/orange_2bandit_a2.png","70","70","test","1","98","98","5","",""
"null","248828","pSARL_v2","pSARL_v2286lk475","615b39c56d4a42f215089b8a","freq_resp","img/orange_2bandit_a.png","70","70","test","","","","5","",""
"null","248998","pSARL_v2","pSARL_v2286lk475","615b39c56d4a42f215089b8a","fixation","img/fixation.png","null","","test","","","","","",""
"335.2999999988824","249350","pSARL_v2","pSARL_v2286lk475","615b39c56d4a42f215089b8a","freq","img/orange_2bandit_a2.png","70","70","test","1","99","99","5","",""
"null","249849","pSARL_v2","pSARL_v2286lk475","615b39c56d4a42f215089b8a","freq_resp","img/orange_2bandit_a.png","70","70","test","","","","5","",""
"null","250030","pSARL_v2","pSARL_v2286lk475","615b39c56d4a42f215089b8a","fixation","img/fixation.png","null","","test","","","","","",""
"420.40000000037253","250470","pSARL_v2","pSARL_v2286lk475","615b39c56d4a42f215089b8a","freq","img/orange_2bandit_a2.png","70","70","test","1","100","100","5","",""
"null","250875","pSARL_v2","pSARL_v2286lk475","615b39c56d4a42f215089b8a","freq_resp","img/orange_2bandit_a.png","70","70","test","","","","5","",""
"null","251060","pSARL_v2","pSARL_v2286lk475","615b39c56d4a42f215089b8a","fixation","img/fixation.png","null","","test","","","","","",""
"288.7000000011176","251369","pSARL_v2","pSARL_v2286lk475","615b39c56d4a42f215089b8a","freq","img/orange_2bandit_a2.png","70","70","test","1","101","101","5","",""
"null","251907","pSARL_v2","pSARL_v2286lk475","615b39c56d4a42f215089b8a","freq_resp","img/orange_2bandit_a.png","70","70","test","","","","5","",""
"null","252093","pSARL_v2","pSARL_v2286lk475","615b39c56d4a42f215089b8a","fixation","img/fixation.png","null","","test","","","","","",""
"241.39999999850988","252355","pSARL_v2","pSARL_v2286lk475","615b39c56d4a42f215089b8a","freq","img/orange_2bandit_a2.png","70","70","test","1","102","102","5","",""
"null","252948","pSARL_v2","pSARL_v2286lk475","615b39c56d4a42f215089b8a","freq_resp","img/orange_2bandit_a.png","70","70","test","","","","5","",""
"null","253126","pSARL_v2","pSARL_v2286lk475","615b39c56d4a42f215089b8a","fixation","img/fixation.png","null","","test","","","","","",""
"234.30000000074506","253381","pSARL_v2","pSARL_v2286lk475","615b39c56d4a42f215089b8a","freq","img/orange_2bandit_a2.png","70","70","test","1","103","103","5","",""
"null","253984","pSARL_v2","pSARL_v2286lk475","615b39c56d4a42f215089b8a","freq_resp","img/orange_2bandit_a.png","70","70","test","","","","5","",""
"null","254158","pSARL_v2","pSARL_v2286lk475","615b39c56d4a42f215089b8a","fixation","img/fixation.png","null","","test","","","","","",""
"289.7000000011176","254468","pSARL_v2","pSARL_v2286lk475","615b39c56d4a42f215089b8a","infreq","img/green_2bandit_a2.png","70","68","test","0","104","104","5","",""
"null","255001","pSARL_v2","pSARL_v2286lk475","615b39c56d4a42f215089b8a","infreq_resp","img/green_2bandit_a.png","70","68","test","","","","5","",""
"null","255175","pSARL_v2","pSARL_v2286lk475","615b39c56d4a42f215089b8a","fixation","img/fixation.png","null","","test","","","","","",""
"460.69999999925494","255655","pSARL_v2","pSARL_v2286lk475","615b39c56d4a42f215089b8a","freq","img/orange_2bandit_a2.png","70","70","test","1","105","105","5","",""
"null","256023","pSARL_v2","pSARL_v2286lk475","615b39c56d4a42f215089b8a","freq_resp","img/orange_2bandit_a.png","70","70","test","","","","5","",""
"null","256195","pSARL_v2","pSARL_v2286lk475","615b39c56d4a42f215089b8a","fixation","img/fixation.png","null","","test","","","","","",""
"305","256518","pSARL_v2","pSARL_v2286lk475","615b39c56d4a42f215089b8a","freq","img/orange_2bandit_a2.png","70","70","test","1","106","106","5","",""
"null","257043","pSARL_v2","pSARL_v2286lk475","615b39c56d4a42f215089b8a","freq_resp","img/orange_2bandit_a.png","70","70","test","","","","5","",""
"null","257217","pSARL_v2","pSARL_v2286lk475","615b39c56d4a42f215089b8a","fixation","img/fixation.png","null","","test","","","","","",""
"239.7999999988824","257478","pSARL_v2","pSARL_v2286lk475","615b39c56d4a42f215089b8a","freq","img/orange_2bandit_a2.png","70","70","test","1","107","107","5","",""
"null","258066","pSARL_v2","pSARL_v2286lk475","615b39c56d4a42f215089b8a","freq_resp","img/orange_2bandit_a.png","70","70","test","","","","5","",""
"null","258245","pSARL_v2","pSARL_v2286lk475","615b39c56d4a42f215089b8a","fixation","img/fixation.png","null","","test","","","","","",""
"313.69999999925494","258575","pSARL_v2","pSARL_v2286lk475","615b39c56d4a42f215089b8a","freq","img/orange_2bandit_a2.png","70","70","test","1","108","108","5","",""
"null","259093","pSARL_v2","pSARL_v2286lk475","615b39c56d4a42f215089b8a","freq_resp","img/orange_2bandit_a.png","70","70","test","","","","5","",""
"null","259265","pSARL_v2","pSARL_v2286lk475","615b39c56d4a42f215089b8a","fixation","img/fixation.png","null","","test","","","","","",""
"409","259693","pSARL_v2","pSARL_v2286lk475","615b39c56d4a42f215089b8a","reward","img/slot.png","74","","test","","","","","",""
"null","260469","pSARL_v2","pSARL_v2286lk475","615b39c56d4a42f215089b8a","points","<div class=""veryhighPoints""> +1 </div>","null","na","test","","","","5","1","4"
"773.3999999985099","261261","pSARL_v2","pSARL_v2286lk475","615b39c56d4a42f215089b8a","freq","img/orange_2bandit_a2.png","70","70","test","1","109","109","6","",""
"null","261302","pSARL_v2","pSARL_v2286lk475","615b39c56d4a42f215089b8a","freq_resp","img/orange_2bandit_a.png","70","70","test","","","","6","",""
"null","261477","pSARL_v2","pSARL_v2286lk475","615b39c56d4a42f215089b8a","fixation","img/fixation.png","null","","test","","","","","",""
"561.9000000003725","262058","pSARL_v2","pSARL_v2286lk475","615b39c56d4a42f215089b8a","freq","img/orange_2bandit_a2.png","70","70","test","1","110","110","6","",""
"null","262321","pSARL_v2","pSARL_v2286lk475","615b39c56d4a42f215089b8a","freq_resp","img/orange_2bandit_a.png","70","70","test","","","","6","",""
"null","262492","pSARL_v2","pSARL_v2286lk475","615b39c56d4a42f215089b8a","fixation","img/fixation.png","null","","test","","","","","",""
"354","262867","pSARL_v2","pSARL_v2286lk475","615b39c56d4a42f215089b8a","freq","img/orange_2bandit_a2.png","70","70","test","1","111","111","6","",""
"null","263339","pSARL_v2","pSARL_v2286lk475","615b39c56d4a42f215089b8a","freq_resp","img/orange_2bandit_a.png","70","70","test","","","","6","",""
"null","263510","pSARL_v2","pSARL_v2286lk475","615b39c56d4a42f215089b8a","fixation","img/fixation.png","null","","test","","","","","",""
"464.30000000074506","263996","pSARL_v2","pSARL_v2286lk475","615b39c56d4a42f215089b8a","infreq","img/green_2bandit_a2.png","68","68","test","1","112","112","6","",""
"null","264362","pSARL_v2","pSARL_v2286lk475","615b39c56d4a42f215089b8a","infreq_resp","img/green_2bandit_a.png","68","68","test","","","","6","",""
"null","264542","pSARL_v2","pSARL_v2286lk475","615b39c56d4a42f215089b8a","fixation","img/fixation.png","null","","test","","","","","",""
"419","264983","pSARL_v2","pSARL_v2286lk475","615b39c56d4a42f215089b8a","freq","img/orange_2bandit_a2.png","70","70","test","1","113","113","6","",""
"null","265391","pSARL_v2","pSARL_v2286lk475","615b39c56d4a42f215089b8a","freq_resp","img/orange_2bandit_a.png","70","70","test","","","","6","",""
"null","265597","pSARL_v2","pSARL_v2286lk475","615b39c56d4a42f215089b8a","fixation","img/fixation.png","null","","test","","","","","",""
"315.90000000037253","265932","pSARL_v2","pSARL_v2286lk475","615b39c56d4a42f215089b8a","freq","img/orange_2bandit_a2.png","70","70","test","1","114","114","6","",""
"null","266442","pSARL_v2","pSARL_v2286lk475","615b39c56d4a42f215089b8a","freq_resp","img/orange_2bandit_a.png","70","70","test","","","","6","",""
"null","266623","pSARL_v2","pSARL_v2286lk475","615b39c56d4a42f215089b8a","fixation","img/fixation.png","null","","test","","","","","",""
"256.5","266900","pSARL_v2","pSARL_v2286lk475","615b39c56d4a42f215089b8a","freq","img/orange_2bandit_a2.png","70","70","test","1","115","115","6","",""
"null","267491","pSARL_v2","pSARL_v2286lk475","615b39c56d4a42f215089b8a","freq_resp","img/orange_2bandit_a.png","70","70","test","","","","6","",""
"null","267677","pSARL_v2","pSARL_v2286lk475","615b39c56d4a42f215089b8a","fixation","img/fixation.png","null","","test","","","","","",""
"239.59999999962747","267938","pSARL_v2","pSARL_v2286lk475","615b39c56d4a42f215089b8a","freq","img/orange_2bandit_a2.png","70","70","test","1","116","116","6","",""
"null","268525","pSARL_v2","pSARL_v2286lk475","615b39c56d4a42f215089b8a","freq_resp","img/orange_2bandit_a.png","70","70","test","","","","6","",""
"null","268701","pSARL_v2","pSARL_v2286lk475","615b39c56d4a42f215089b8a","fixation","img/fixation.png","null","","test","","","","","",""
"277.90000000037253","268999","pSARL_v2","pSARL_v2286lk475","615b39c56d4a42f215089b8a","freq","img/orange_2bandit_a2.png","70","70","test","1","117","117","6","",""
"null","269553","pSARL_v2","pSARL_v2286lk475","615b39c56d4a42f215089b8a","freq_resp","img/orange_2bandit_a.png","70","70","test","","","","6","",""
"null","269733","pSARL_v2","pSARL_v2286lk475","615b39c56d4a42f215089b8a","fixation","img/fixation.png","null","","test","","","","","",""
"308","270063","pSARL_v2","pSARL_v2286lk475","615b39c56d4a42f215089b8a","freq","img/orange_2bandit_a2.png","70","70","test","1","118","118","6","",""
"null","270586","pSARL_v2","pSARL_v2286lk475","615b39c56d4a42f215089b8a","freq_resp","img/orange_2bandit_a.png","70","70","test","","","","6","",""
"null","270773","pSARL_v2","pSARL_v2286lk475","615b39c56d4a42f215089b8a","fixation","img/fixation.png","null","","test","","","","","",""
"322.5","271116","pSARL_v2","pSARL_v2286lk475","615b39c56d4a42f215089b8a","freq","img/orange_2bandit_a2.png","70","70","test","1","119","119","6","",""
"null","271626","pSARL_v2","pSARL_v2286lk475","615b39c56d4a42f215089b8a","freq_resp","img/orange_2bandit_a.png","70","70","test","","","","6","",""
"null","271803","pSARL_v2","pSARL_v2286lk475","615b39c56d4a42f215089b8a","fixation","img/fixation.png","null","","test","","","","","",""
"315.5","272138","pSARL_v2","pSARL_v2286lk475","615b39c56d4a42f215089b8a","freq","img/orange_2bandit_a2.png","70","70","test","1","120","120","6","",""
"null","272644","pSARL_v2","pSARL_v2286lk475","615b39c56d4a42f215089b8a","freq_resp","img/orange_2bandit_a.png","70","70","test","","","","6","",""
"null","272824","pSARL_v2","pSARL_v2286lk475","615b39c56d4a42f215089b8a","fixation","img/fixation.png","null","","test","","","","","",""
"363.59999999962747","273210","pSARL_v2","pSARL_v2286lk475","615b39c56d4a42f215089b8a","freq","img/orange_2bandit_a2.png","70","70","test","1","121","121","6","",""
"null","273670","pSARL_v2","pSARL_v2286lk475","615b39c56d4a42f215089b8a","freq_resp","img/orange_2bandit_a.png","70","70","test","","","","6","",""
"null","273842","pSARL_v2","pSARL_v2286lk475","615b39c56d4a42f215089b8a","fixation","img/fixation.png","null","","test","","","","","",""
"322.2000000011176","274186","pSARL_v2","pSARL_v2286lk475","615b39c56d4a42f215089b8a","freq","img/orange_2bandit_a2.png","70","70","test","1","122","122","6","",""
"null","274689","pSARL_v2","pSARL_v2286lk475","615b39c56d4a42f215089b8a","freq_resp","img/orange_2bandit_a.png","70","70","test","","","","6","",""
"null","274875","pSARL_v2","pSARL_v2286lk475","615b39c56d4a42f215089b8a","fixation","img/fixation.png","null","","test","","","","","",""
"266.69999999925494","275162","pSARL_v2","pSARL_v2286lk475","615b39c56d4a42f215089b8a","infreq","img/green_2bandit_a2.png","70","68","test","0","123","123","6","",""
"null","275725","pSARL_v2","pSARL_v2286lk475","615b39c56d4a42f215089b8a","infreq_resp","img/green_2bandit_a.png","70","68","test","","","","6","",""
"null","275906","pSARL_v2","pSARL_v2286lk475","615b39c56d4a42f215089b8a","fixation","img/fixation.png","null","","test","","","","","",""
"0.5","275922","pSARL_v2","pSARL_v2286lk475","615b39c56d4a42f215089b8a","freq","img/orange_2bandit_a2.png","68","70","test","0","124","124","6","",""
"null","276746","pSARL_v2","pSARL_v2286lk475","615b39c56d4a42f215089b8a","freq_resp","img/orange_2bandit_a.png","68","70","test","","","","6","",""
"null","276920","pSARL_v2","pSARL_v2286lk475","615b39c56d4a42f215089b8a","fixation","img/fixation.png","null","","test","","","","","",""
"471.69999999925494","277411","pSARL_v2","pSARL_v2286lk475","615b39c56d4a42f215089b8a","freq","img/orange_2bandit_a2.png","70","70","test","1","125","125","6","",""
"null","277773","pSARL_v2","pSARL_v2286lk475","615b39c56d4a42f215089b8a","freq_resp","img/orange_2bandit_a.png","70","70","test","","","","6","",""
"null","277953","pSARL_v2","pSARL_v2286lk475","615b39c56d4a42f215089b8a","fixation","img/fixation.png","null","","test","","","","","",""
"294.69999999925494","278267","pSARL_v2","pSARL_v2286lk475","615b39c56d4a42f215089b8a","freq","img/orange_2bandit_a2.png","70","70","test","1","126","126","6","",""
"null","278796","pSARL_v2","pSARL_v2286lk475","615b39c56d4a42f215089b8a","freq_resp","img/orange_2bandit_a.png","70","70","test","","","","6","",""
"null","278969","pSARL_v2","pSARL_v2286lk475","615b39c56d4a42f215089b8a","fixation","img/fixation.png","null","","test","","","","","",""
"125.69999999925494","279116","pSARL_v2","pSARL_v2286lk475","615b39c56d4a42f215089b8a","freq","img/orange_2bandit_a2.png","70","70","test","1","127","127","6","",""
"null","279824","pSARL_v2","pSARL_v2286lk475","615b39c56d4a42f215089b8a","freq_resp","img/orange_2bandit_a.png","70","70","test","","","","6","",""
"null","280006","pSARL_v2","pSARL_v2286lk475","615b39c56d4a42f215089b8a","fixation","img/fixation.png","null","","test","","","","","",""
"98.19999999925494","280126","pSARL_v2","pSARL_v2286lk475","615b39c56d4a42f215089b8a","freq","img/orange_2bandit_a2.png","70","70","test","1","128","128","6","",""
"null","280862","pSARL_v2","pSARL_v2286lk475","615b39c56d4a42f215089b8a","freq_resp","img/orange_2bandit_a.png","70","70","test","","","","6","",""
"null","281032","pSARL_v2","pSARL_v2286lk475","615b39c56d4a42f215089b8a","fixation","img/fixation.png","null","","test","","","","","",""
"405.80000000074506","281460","pSARL_v2","pSARL_v2286lk475","615b39c56d4a42f215089b8a","reward","img/slot.png","74","","test","","","","","",""
"null","282235","pSARL_v2","pSARL_v2286lk475","615b39c56d4a42f215089b8a","points","<div class=""verylowPoints""> -7 </div>","null","na","test","","","","6","-7","5"
"423.2999999988824","282679","pSARL_v2","pSARL_v2286lk475","615b39c56d4a42f215089b8a","freq","img/orange_2bandit_a2.png","70","70","test","1","129","129","7","",""
"null","283082","pSARL_v2","pSARL_v2286lk475","615b39c56d4a42f215089b8a","freq_resp","img/orange_2bandit_a.png","70","70","test","","","","7","",""
"null","283263","pSARL_v2","pSARL_v2286lk475","615b39c56d4a42f215089b8a","fixation","img/fixation.png","null","","test","","","","","",""
"462.80000000074506","283746","pSARL_v2","pSARL_v2286lk475","615b39c56d4a42f215089b8a","freq","img/orange_2bandit_a2.png","70","70","test","1","130","130","7","",""
"null","284115","pSARL_v2","pSARL_v2286lk475","615b39c56d4a42f215089b8a","freq_resp","img/orange_2bandit_a.png","70","70","test","","","","7","",""
"null","284289","pSARL_v2","pSARL_v2286lk475","615b39c56d4a42f215089b8a","fixation","img/fixation.png","null","","test","","","","","",""
"270.2000000011176","284578","pSARL_v2","pSARL_v2286lk475","615b39c56d4a42f215089b8a","freq","img/orange_2bandit_a2.png","70","70","test","1","131","131","7","",""
"null","285132","pSARL_v2","pSARL_v2286lk475","615b39c56d4a42f215089b8a","freq_resp","img/orange_2bandit_a.png","70","70","test","","","","7","",""
"null","285306","pSARL_v2","pSARL_v2286lk475","615b39c56d4a42f215089b8a","fixation","img/fixation.png","null","","test","","","","","",""
"293.19999999925494","285622","pSARL_v2","pSARL_v2286lk475","615b39c56d4a42f215089b8a","freq","img/orange_2bandit_a2.png","70","70","test","1","132","132","7","",""
"null","286145","pSARL_v2","pSARL_v2286lk475","615b39c56d4a42f215089b8a","freq_resp","img/orange_2bandit_a.png","70","70","test","","","","7","",""
"null","286330","pSARL_v2","pSARL_v2286lk475","615b39c56d4a42f215089b8a","fixation","img/fixation.png","null","","test","","","","","",""
"323.7000000011176","286669","pSARL_v2","pSARL_v2286lk475","615b39c56d4a42f215089b8a","freq","img/orange_2bandit_a2.png","70","70","test","1","133","133","7","",""
"null","287170","pSARL_v2","pSARL_v2286lk475","615b39c56d4a42f215089b8a","freq_resp","img/orange_2bandit_a.png","70","70","test","","","","7","",""
"null","287354","pSARL_v2","pSARL_v2286lk475","615b39c56d4a42f215089b8a","fixation","img/fixation.png","null","","test","","","","","",""
"281.09999999962747","287656","pSARL_v2","pSARL_v2286lk475","615b39c56d4a42f215089b8a","freq","img/orange_2bandit_a2.png","70","70","test","1","134","134","7","",""
"null","288197","pSARL_v2","pSARL_v2286lk475","615b39c56d4a42f215089b8a","freq_resp","img/orange_2bandit_a.png","70","70","test","","","","7","",""
"null","288370","pSARL_v2","pSARL_v2286lk475","615b39c56d4a42f215089b8a","fixation","img/fixation.png","null","","test","","","","","",""
"289.19999999925494","288680","pSARL_v2","pSARL_v2286lk475","615b39c56d4a42f215089b8a","freq","img/orange_2bandit_a2.png","70","70","test","1","135","135","7","",""
"null","289214","pSARL_v2","pSARL_v2286lk475","615b39c56d4a42f215089b8a","freq_resp","img/orange_2bandit_a.png","70","70","test","","","","7","",""
"null","289386","pSARL_v2","pSARL_v2286lk475","615b39c56d4a42f215089b8a","fixation","img/fixation.png","null","","test","","","","","",""
"312","289718","pSARL_v2","pSARL_v2286lk475","615b39c56d4a42f215089b8a","freq","img/orange_2bandit_a2.png","70","70","test","1","136","136","7","",""
"null","290229","pSARL_v2","pSARL_v2286lk475","615b39c56d4a42f215089b8a","freq_resp","img/orange_2bandit_a.png","70","70","test","","","","7","",""
"null","290400","pSARL_v2","pSARL_v2286lk475","615b39c56d4a42f215089b8a","fixation","img/fixation.png","null","","test","","","","","",""
"292.7999999988824","290714","pSARL_v2","pSARL_v2286lk475","615b39c56d4a42f215089b8a","freq","img/orange_2bandit_a2.png","70","70","test","1","137","137","7","",""
"null","291243","pSARL_v2","pSARL_v2286lk475","615b39c56d4a42f215089b8a","freq_resp","img/orange_2bandit_a.png","70","70","test","","","","7","",""
"null","291415","pSARL_v2","pSARL_v2286lk475","615b39c56d4a42f215089b8a","fixation","img/fixation.png","null","","test","","","","","",""
"349.5","291785","pSARL_v2","pSARL_v2286lk475","615b39c56d4a42f215089b8a","freq","img/orange_2bandit_a2.png","70","70","test","1","138","138","7","",""
"null","292270","pSARL_v2","pSARL_v2286lk475","615b39c56d4a42f215089b8a","freq_resp","img/orange_2bandit_a.png","70","70","test","","","","7","",""
"null","292447","pSARL_v2","pSARL_v2286lk475","615b39c56d4a42f215089b8a","fixation","img/fixation.png","null","","test","","","","","",""
"321.69999999925494","292790","pSARL_v2","pSARL_v2286lk475","615b39c56d4a42f215089b8a","freq","img/orange_2bandit_a2.png","70","70","test","1","139","139","7","",""
"null","293321","pSARL_v2","pSARL_v2286lk475","615b39c56d4a42f215089b8a","freq_resp","img/orange_2bandit_a.png","70","70","test","","","","7","",""
"null","293497","pSARL_v2","pSARL_v2286lk475","615b39c56d4a42f215089b8a","fixation","img/fixation.png","null","","test","","","","","",""
"302.80000000074506","293814","pSARL_v2","pSARL_v2286lk475","615b39c56d4a42f215089b8a","freq","img/orange_2bandit_a2.png","70","70","test","1","140","140","7","",""
"null","294342","pSARL_v2","pSARL_v2286lk475","615b39c56d4a42f215089b8a","freq_resp","img/orange_2bandit_a.png","70","70","test","","","","7","",""
"null","294526","pSARL_v2","pSARL_v2286lk475","615b39c56d4a42f215089b8a","fixation","img/fixation.png","null","","test","","","","","",""
"231.2999999988824","294779","pSARL_v2","pSARL_v2286lk475","615b39c56d4a42f215089b8a","freq","img/orange_2bandit_a2.png","70","70","test","1","141","141","7","",""
"null","295381","pSARL_v2","pSARL_v2286lk475","615b39c56d4a42f215089b8a","freq_resp","img/orange_2bandit_a.png","70","70","test","","","","7","",""
"null","295566","pSARL_v2","pSARL_v2286lk475","615b39c56d4a42f215089b8a","fixation","img/fixation.png","null","","test","","","","","",""
"287.6000000014901","295877","pSARL_v2","pSARL_v2286lk475","615b39c56d4a42f215089b8a","freq","img/orange_2bandit_a2.png","70","70","test","1","142","142","7","",""
"null","296419","pSARL_v2","pSARL_v2286lk475","615b39c56d4a42f215089b8a","freq_resp","img/orange_2bandit_a.png","70","70","test","","","","7","",""
"null","296592","pSARL_v2","pSARL_v2286lk475","615b39c56d4a42f215089b8a","fixation","img/fixation.png","null","","test","","","","","",""
"414.59999999962747","297027","pSARL_v2","pSARL_v2286lk475","615b39c56d4a42f215089b8a","infreq","img/green_2bandit_a2.png","68","68","test","1","143","143","7","",""
"null","297441","pSARL_v2","pSARL_v2286lk475","615b39c56d4a42f215089b8a","infreq_resp","img/green_2bandit_a.png","68","68","test","","","","7","",""
"null","297613","pSARL_v2","pSARL_v2286lk475","615b39c56d4a42f215089b8a","fixation","img/fixation.png","null","","test","","","","","",""
"424.69999999925494","298060","pSARL_v2","pSARL_v2286lk475","615b39c56d4a42f215089b8a","freq","img/orange_2bandit_a2.png","70","70","test","1","144","144","7","",""
"null","298457","pSARL_v2","pSARL_v2286lk475","615b39c56d4a42f215089b8a","freq_resp","img/orange_2bandit_a.png","70","70","test","","","","7","",""
"null","298641","pSARL_v2","pSARL_v2286lk475","615b39c56d4a42f215089b8a","fixation","img/fixation.png","null","","test","","","","","",""
"333.19999999925494","298995","pSARL_v2","pSARL_v2286lk475","615b39c56d4a42f215089b8a","freq","img/orange_2bandit_a2.png","70","70","test","1","145","145","7","",""
"null","299498","pSARL_v2","pSARL_v2286lk475","615b39c56d4a42f215089b8a","freq_resp","img/orange_2bandit_a.png","70","70","test","","","","7","",""
"null","299681","pSARL_v2","pSARL_v2286lk475","615b39c56d4a42f215089b8a","fixation","img/fixation.png","null","","test","","","","","",""
"301.09999999962747","300003","pSARL_v2","pSARL_v2286lk475","615b39c56d4a42f215089b8a","freq","img/orange_2bandit_a2.png","70","70","test","1","146","146","7","",""
"null","300529","pSARL_v2","pSARL_v2286lk475","615b39c56d4a42f215089b8a","freq_resp","img/orange_2bandit_a.png","70","70","test","","","","7","",""
"null","300703","pSARL_v2","pSARL_v2286lk475","615b39c56d4a42f215089b8a","fixation","img/fixation.png","null","","test","","","","","",""
"299.90000000037253","301023","pSARL_v2","pSARL_v2286lk475","615b39c56d4a42f215089b8a","freq","img/orange_2bandit_a2.png","70","70","test","1","147","147","7","",""
"null","301547","pSARL_v2","pSARL_v2286lk475","615b39c56d4a42f215089b8a","freq_resp","img/orange_2bandit_a.png","70","70","test","","","","7","",""
"null","301728","pSARL_v2","pSARL_v2286lk475","615b39c56d4a42f215089b8a","fixation","img/fixation.png","null","","test","","","","","",""
"288.30000000074506","302038","pSARL_v2","pSARL_v2286lk475","615b39c56d4a42f215089b8a","freq","img/orange_2bandit_a2.png","70","70","test","1","148","148","7","",""
"null","302571","pSARL_v2","pSARL_v2286lk475","615b39c56d4a42f215089b8a","freq_resp","img/orange_2bandit_a.png","70","70","test","","","","7","",""
"null","302743","pSARL_v2","pSARL_v2286lk475","615b39c56d4a42f215089b8a","fixation","img/fixation.png","null","","test","","","","","",""
"293.69999999925494","303058","pSARL_v2","pSARL_v2286lk475","615b39c56d4a42f215089b8a","infreq","img/green_2bandit_a2.png","70","68","test","0","149","149","7","",""
"null","303590","pSARL_v2","pSARL_v2286lk475","615b39c56d4a42f215089b8a","infreq_resp","img/green_2bandit_a.png","70","68","test","","","","7","",""
"null","303775","pSARL_v2","pSARL_v2286lk475","615b39c56d4a42f215089b8a","fixation","img/fixation.png","null","","test","","","","","",""
"573.4000000003725","304371","pSARL_v2","pSARL_v2286lk475","615b39c56d4a42f215089b8a","freq","img/orange_2bandit_a2.png","70","70","test","1","150","150","7","",""
"null","304620","pSARL_v2","pSARL_v2286lk475","615b39c56d4a42f215089b8a","freq_resp","img/orange_2bandit_a.png","70","70","test","","","","7","",""
"null","304796","pSARL_v2","pSARL_v2286lk475","615b39c56d4a42f215089b8a","fixation","img/fixation.png","null","","test","","","","","",""
"403.5","305222","pSARL_v2","pSARL_v2286lk475","615b39c56d4a42f215089b8a","freq","img/orange_2bandit_a2.png","70","70","test","1","151","151","7","",""
"null","305646","pSARL_v2","pSARL_v2286lk475","615b39c56d4a42f215089b8a","freq_resp","img/orange_2bandit_a.png","70","70","test","","","","7","",""
"null","305823","pSARL_v2","pSARL_v2286lk475","615b39c56d4a42f215089b8a","fixation","img/fixation.png","null","","test","","","","","",""
"460.59999999962747","306304","pSARL_v2","pSARL_v2286lk475","615b39c56d4a42f215089b8a","freq","img/orange_2bandit_a2.png","70","70","test","1","152","152","7","",""
"null","306679","pSARL_v2","pSARL_v2286lk475","615b39c56d4a42f215089b8a","freq_resp","img/orange_2bandit_a.png","70","70","test","","","","7","",""
"null","306855","pSARL_v2","pSARL_v2286lk475","615b39c56d4a42f215089b8a","fixation","img/fixation.png","null","","test","","","","","",""
"297.69999999925494","307171","pSARL_v2","pSARL_v2286lk475","615b39c56d4a42f215089b8a","freq","img/orange_2bandit_a2.png","70","70","test","1","153","153","7","",""
"null","307697","pSARL_v2","pSARL_v2286lk475","615b39c56d4a42f215089b8a","freq_resp","img/orange_2bandit_a.png","70","70","test","","","","7","",""
"null","307871","pSARL_v2","pSARL_v2286lk475","615b39c56d4a42f215089b8a","fixation","img/fixation.png","null","","test","","","","","",""
"314.09999999962747","308202","pSARL_v2","pSARL_v2286lk475","615b39c56d4a42f215089b8a","freq","img/orange_2bandit_a2.png","70","70","test","1","154","154","7","",""
"null","308719","pSARL_v2","pSARL_v2286lk475","615b39c56d4a42f215089b8a","freq_resp","img/orange_2bandit_a.png","70","70","test","","","","7","",""
"null","308890","pSARL_v2","pSARL_v2286lk475","615b39c56d4a42f215089b8a","fixation","img/fixation.png","null","","test","","","","","",""
"389.30000000074506","309299","pSARL_v2","pSARL_v2286lk475","615b39c56d4a42f215089b8a","reward","img/slot.png","74","","test","","","","","",""
"null","310072","pSARL_v2","pSARL_v2286lk475","615b39c56d4a42f215089b8a","points","<div class=""verylowPoints""> -6 </div>","null","na","test","","","","7","-6","6"
"501.59999999962747","310594","pSARL_v2","pSARL_v2286lk475","615b39c56d4a42f215089b8a","freq","img/orange_2bandit_a2.png","70","70","test","1","155","155","8","",""
"null","310921","pSARL_v2","pSARL_v2286lk475","615b39c56d4a42f215089b8a","freq_resp","img/orange_2bandit_a.png","70","70","test","","","","8","",""
"null","311098","pSARL_v2","pSARL_v2286lk475","615b39c56d4a42f215089b8a","fixation","img/fixation.png","null","","test","","","","","",""
"535","311655","pSARL_v2","pSARL_v2286lk475","615b39c56d4a42f215089b8a","freq","img/orange_2bandit_a2.png","70","70","test","1","156","156","8","",""
"null","311956","pSARL_v2","pSARL_v2286lk475","615b39c56d4a42f215089b8a","freq_resp","img/orange_2bandit_a.png","70","70","test","","","","8","",""
"null","312145","pSARL_v2","pSARL_v2286lk475","615b39c56d4a42f215089b8a","fixation","img/fixation.png","null","","test","","","","","",""
"437.1000000014901","312606","pSARL_v2","pSARL_v2286lk475","615b39c56d4a42f215089b8a","freq","img/orange_2bandit_a2.png","70","70","test","1","157","157","8","",""
"null","313000","pSARL_v2","pSARL_v2286lk475","615b39c56d4a42f215089b8a","freq_resp","img/orange_2bandit_a.png","70","70","test","","","","8","",""
"null","313180","pSARL_v2","pSARL_v2286lk475","615b39c56d4a42f215089b8a","fixation","img/fixation.png","null","","test","","","","","",""
"400.40000000037253","313600","pSARL_v2","pSARL_v2286lk475","615b39c56d4a42f215089b8a","freq","img/orange_2bandit_a2.png","70","70","test","1","158","158","8","",""
"null","314031","pSARL_v2","pSARL_v2286lk475","615b39c56d4a42f215089b8a","freq_resp","img/orange_2bandit_a.png","70","70","test","","","","8","",""
"null","314210","pSARL_v2","pSARL_v2286lk475","615b39c56d4a42f215089b8a","fixation","img/fixation.png","null","","test","","","","","",""
"296.30000000074506","314528","pSARL_v2","pSARL_v2286lk475","615b39c56d4a42f215089b8a","freq","img/orange_2bandit_a2.png","70","70","test","1","159","159","8","",""
"null","315057","pSARL_v2","pSARL_v2286lk475","615b39c56d4a42f215089b8a","freq_resp","img/orange_2bandit_a.png","70","70","test","","","","8","",""
"null","315232","pSARL_v2","pSARL_v2286lk475","615b39c56d4a42f215089b8a","fixation","img/fixation.png","null","","test","","","","","",""
"350.69999999925494","315604","pSARL_v2","pSARL_v2286lk475","615b39c56d4a42f215089b8a","infreq","img/green_2bandit_a2.png","68","68","test","1","160","160","8","",""
"null","316091","pSARL_v2","pSARL_v2286lk475","615b39c56d4a42f215089b8a","infreq_resp","img/green_2bandit_a.png","68","68","test","","","","8","",""
"null","316274","pSARL_v2","pSARL_v2286lk475","615b39c56d4a42f215089b8a","fixation","img/fixation.png","null","","test","","","","","",""
"337.30000000074506","316633","pSARL_v2","pSARL_v2286lk475","615b39c56d4a42f215089b8a","freq","img/orange_2bandit_a2.png","70","70","test","1","161","161","8","",""
"null","317123","pSARL_v2","pSARL_v2286lk475","615b39c56d4a42f215089b8a","freq_resp","img/orange_2bandit_a.png","70","70","test","","","","8","",""
"null","317304","pSARL_v2","pSARL_v2286lk475","615b39c56d4a42f215089b8a","fixation","img/fixation.png","null","","test","","","","","",""
"409.19999999925494","317736","pSARL_v2","pSARL_v2286lk475","615b39c56d4a42f215089b8a","freq","img/orange_2bandit_a2.png","70","70","test","1","162","162","8","",""
"null","318161","pSARL_v2","pSARL_v2286lk475","615b39c56d4a42f215089b8a","freq_resp","img/orange_2bandit_a.png","70","70","test","","","","8","",""
"null","318338","pSARL_v2","pSARL_v2286lk475","615b39c56d4a42f215089b8a","fixation","img/fixation.png","null","","test","","","","","",""
"316.7999999988824","318676","pSARL_v2","pSARL_v2286lk475","615b39c56d4a42f215089b8a","freq","img/orange_2bandit_a2.png","70","70","test","1","163","163","8","",""
"null","319185","pSARL_v2","pSARL_v2286lk475","615b39c56d4a42f215089b8a","freq_resp","img/orange_2bandit_a.png","70","70","test","","","","8","",""
"null","319369","pSARL_v2","pSARL_v2286lk475","615b39c56d4a42f215089b8a","fixation","img/fixation.png","null","","test","","","","","",""
"318.09999999962747","319709","pSARL_v2","pSARL_v2286lk475","615b39c56d4a42f215089b8a","freq","img/orange_2bandit_a2.png","70","70","test","1","164","164","8","",""
"null","320214","pSARL_v2","pSARL_v2286lk475","615b39c56d4a42f215089b8a","freq_resp","img/orange_2bandit_a.png","70","70","test","","","","8","",""
"null","320384","pSARL_v2","pSARL_v2286lk475","615b39c56d4a42f215089b8a","fixation","img/fixation.png","null","","test","","","","","",""
"346.59999999962747","320749","pSARL_v2","pSARL_v2286lk475","615b39c56d4a42f215089b8a","freq","img/orange_2bandit_a2.png","70","70","test","1","165","165","8","",""
"null","321236","pSARL_v2","pSARL_v2286lk475","615b39c56d4a42f215089b8a","freq_resp","img/orange_2bandit_a.png","70","70","test","","","","8","",""
"null","321408","pSARL_v2","pSARL_v2286lk475","615b39c56d4a42f215089b8a","fixation","img/fixation.png","null","","test","","","","","",""
"297.7000000011176","321728","pSARL_v2","pSARL_v2286lk475","615b39c56d4a42f215089b8a","freq","img/orange_2bandit_a2.png","70","70","test","1","166","166","8","",""
"null","322263","pSARL_v2","pSARL_v2286lk475","615b39c56d4a42f215089b8a","freq_resp","img/orange_2bandit_a.png","70","70","test","","","","8","",""
"null","322446","pSARL_v2","pSARL_v2286lk475","615b39c56d4a42f215089b8a","fixation","img/fixation.png","null","","test","","","","","",""
"277","322745","pSARL_v2","pSARL_v2286lk475","615b39c56d4a42f215089b8a","freq","img/orange_2bandit_a2.png","70","70","test","1","167","167","8","",""
"null","323292","pSARL_v2","pSARL_v2286lk475","615b39c56d4a42f215089b8a","freq_resp","img/orange_2bandit_a.png","70","70","test","","","","8","",""
"null","323464","pSARL_v2","pSARL_v2286lk475","615b39c56d4a42f215089b8a","fixation","img/fixation.png","null","","test","","","","","",""
"291.7999999988824","323776","pSARL_v2","pSARL_v2286lk475","615b39c56d4a42f215089b8a","freq","img/orange_2bandit_a2.png","70","70","test","1","168","168","8","",""
"null","324321","pSARL_v2","pSARL_v2286lk475","615b39c56d4a42f215089b8a","freq_resp","img/orange_2bandit_a.png","70","70","test","","","","8","",""
"null","324494","pSARL_v2","pSARL_v2286lk475","615b39c56d4a42f215089b8a","fixation","img/fixation.png","null","","test","","","","","",""
"263.90000000037253","324779","pSARL_v2","pSARL_v2286lk475","615b39c56d4a42f215089b8a","freq","img/orange_2bandit_a2.png","70","70","test","1","169","169","8","",""
"null","325349","pSARL_v2","pSARL_v2286lk475","615b39c56d4a42f215089b8a","freq_resp","img/orange_2bandit_a.png","70","70","test","","","","8","",""
"null","325535","pSARL_v2","pSARL_v2286lk475","615b39c56d4a42f215089b8a","fixation","img/fixation.png","null","","test","","","","","",""
"311.8999999985099","325867","pSARL_v2","pSARL_v2286lk475","615b39c56d4a42f215089b8a","freq","img/orange_2bandit_a2.png","70","70","test","1","170","170","8","",""
"null","326388","pSARL_v2","pSARL_v2286lk475","615b39c56d4a42f215089b8a","freq_resp","img/orange_2bandit_a.png","70","70","test","","","","8","",""
"null","326559","pSARL_v2","pSARL_v2286lk475","615b39c56d4a42f215089b8a","fixation","img/fixation.png","null","","test","","","","","",""
"457.2999999988824","327037","pSARL_v2","pSARL_v2286lk475","615b39c56d4a42f215089b8a","infreq","img/green_2bandit_a2.png","68","68","test","1","171","171","8","",""
"null","327408","pSARL_v2","pSARL_v2286lk475","615b39c56d4a42f215089b8a","infreq_resp","img/green_2bandit_a.png","68","68","test","","","","8","",""
"null","327591","pSARL_v2","pSARL_v2286lk475","615b39c56d4a42f215089b8a","fixation","img/fixation.png","null","","test","","","","","",""
"440.90000000037253","328049","pSARL_v2","pSARL_v2286lk475","615b39c56d4a42f215089b8a","freq","img/orange_2bandit_a2.png","70","70","test","1","172","172","8","",""
"null","328432","pSARL_v2","pSARL_v2286lk475","615b39c56d4a42f215089b8a","freq_resp","img/orange_2bandit_a.png","70","70","test","","","","8","",""
"null","328606","pSARL_v2","pSARL_v2286lk475","615b39c56d4a42f215089b8a","fixation","img/fixation.png","null","","test","","","","","",""
"408.80000000074506","329032","pSARL_v2","pSARL_v2286lk475","615b39c56d4a42f215089b8a","freq","img/orange_2bandit_a2.png","70","70","test","1","173","173","8","",""
"null","329445","pSARL_v2","pSARL_v2286lk475","615b39c56d4a42f215089b8a","freq_resp","img/orange_2bandit_a.png","70","70","test","","","","8","",""
"null","329624","pSARL_v2","pSARL_v2286lk475","615b39c56d4a42f215089b8a","fixation","img/fixation.png","null","","test","","","","","",""
"328.59999999962747","329975","pSARL_v2","pSARL_v2286lk475","615b39c56d4a42f215089b8a","freq","img/orange_2bandit_a2.png","70","70","test","1","174","174","8","",""
"null","330484","pSARL_v2","pSARL_v2286lk475","615b39c56d4a42f215089b8a","freq_resp","img/orange_2bandit_a.png","70","70","test","","","","8","",""
"null","330669","pSARL_v2","pSARL_v2286lk475","615b39c56d4a42f215089b8a","fixation","img/fixation.png","null","","test","","","","","",""
"298.1000000014901","330987","pSARL_v2","pSARL_v2286lk475","615b39c56d4a42f215089b8a","freq","img/orange_2bandit_a2.png","70","70","test","1","175","175","8","",""
"null","331511","pSARL_v2","pSARL_v2286lk475","615b39c56d4a42f215089b8a","freq_resp","img/orange_2bandit_a.png","70","70","test","","","","8","",""
"null","331690","pSARL_v2","pSARL_v2286lk475","615b39c56d4a42f215089b8a","fixation","img/fixation.png","null","","test","","","","","",""
"343.5","332055","pSARL_v2","pSARL_v2286lk475","615b39c56d4a42f215089b8a","freq","img/orange_2bandit_a2.png","70","70","test","1","176","176","8","",""
"null","332545","pSARL_v2","pSARL_v2286lk475","615b39c56d4a42f215089b8a","freq_resp","img/orange_2bandit_a.png","70","70","test","","","","8","",""
"null","332717","pSARL_v2","pSARL_v2286lk475","615b39c56d4a42f215089b8a","fixation","img/fixation.png","null","","test","","","","","",""
"344.5","333081","pSARL_v2","pSARL_v2286lk475","615b39c56d4a42f215089b8a","reward","img/slot.png","74","","test","","","","","",""
"null","333855","pSARL_v2","pSARL_v2286lk475","615b39c56d4a42f215089b8a","points","<div class=""verylowPoints""> -4 </div>","null","na","test","","","","8","-4","7"
"400.69999999925494","334278","pSARL_v2","pSARL_v2286lk475","615b39c56d4a42f215089b8a","freq","img/orange_2bandit_a2.png","70","70","test","1","177","177","9","",""
"null","334704","pSARL_v2","pSARL_v2286lk475","615b39c56d4a42f215089b8a","freq_resp","img/orange_2bandit_a.png","70","70","test","","","","9","",""
"null","334881","pSARL_v2","pSARL_v2286lk475","615b39c56d4a42f215089b8a","fixation","img/fixation.png","null","","test","","","","","",""
"444.59999999962747","335347","pSARL_v2","pSARL_v2286lk475","615b39c56d4a42f215089b8a","infreq","img/green_2bandit_a2.png","68","68","test","1","178","178","9","",""
"null","335725","pSARL_v2","pSARL_v2286lk475","615b39c56d4a42f215089b8a","infreq_resp","img/green_2bandit_a.png","68","68","test","","","","9","",""
"null","335912","pSARL_v2","pSARL_v2286lk475","615b39c56d4a42f215089b8a","fixation","img/fixation.png","null","","test","","","","","",""
"499.80000000074506","336433","pSARL_v2","pSARL_v2286lk475","615b39c56d4a42f215089b8a","freq","img/orange_2bandit_a2.png","70","70","test","1","179","179","9","",""
"null","336766","pSARL_v2","pSARL_v2286lk475","615b39c56d4a42f215089b8a","freq_resp","img/orange_2bandit_a.png","70","70","test","","","","9","",""
"null","336941","pSARL_v2","pSARL_v2286lk475","615b39c56d4a42f215089b8a","fixation","img/fixation.png","null","","test","","","","","",""
"343.2999999988824","337306","pSARL_v2","pSARL_v2286lk475","615b39c56d4a42f215089b8a","freq","img/orange_2bandit_a2.png","70","70","test","1","180","180","9","",""
"null","337789","pSARL_v2","pSARL_v2286lk475","615b39c56d4a42f215089b8a","freq_resp","img/orange_2bandit_a.png","70","70","test","","","","9","",""
"null","337965","pSARL_v2","pSARL_v2286lk475","615b39c56d4a42f215089b8a","fixation","img/fixation.png","null","","test","","","","","",""
"456","338443","pSARL_v2","pSARL_v2286lk475","615b39c56d4a42f215089b8a","freq","img/orange_2bandit_a2.png","70","70","test","1","181","181","9","",""
"null","338811","pSARL_v2","pSARL_v2286lk475","615b39c56d4a42f215089b8a","freq_resp","img/orange_2bandit_a.png","70","70","test","","","","9","",""
"null","338988","pSARL_v2","pSARL_v2286lk475","615b39c56d4a42f215089b8a","fixation","img/fixation.png","null","","test","","","","","",""
"281.69999999925494","339290","pSARL_v2","pSARL_v2286lk475","615b39c56d4a42f215089b8a","freq","img/orange_2bandit_a2.png","70","70","test","1","182","182","9","",""
"null","339829","pSARL_v2","pSARL_v2286lk475","615b39c56d4a42f215089b8a","freq_resp","img/orange_2bandit_a.png","70","70","test","","","","9","",""
"null","340012","pSARL_v2","pSARL_v2286lk475","615b39c56d4a42f215089b8a","fixation","img/fixation.png","null","","test","","","","","",""
"268.1000000014901","340302","pSARL_v2","pSARL_v2286lk475","615b39c56d4a42f215089b8a","infreq","img/green_2bandit_a2.png","70","68","test","0","183","183","9","",""
"null","340857","pSARL_v2","pSARL_v2286lk475","615b39c56d4a42f215089b8a","infreq_resp","img/green_2bandit_a.png","70","68","test","","","","9","",""
"null","341039","pSARL_v2","pSARL_v2286lk475","615b39c56d4a42f215089b8a","fixation","img/fixation.png","null","","test","","","","","",""
"418.2999999988824","341478","pSARL_v2","pSARL_v2286lk475","615b39c56d4a42f215089b8a","freq","img/orange_2bandit_a2.png","70","70","test","1","184","184","9","",""
"null","341887","pSARL_v2","pSARL_v2286lk475","615b39c56d4a42f215089b8a","freq_resp","img/orange_2bandit_a.png","70","70","test","","","","9","",""
"null","342060","pSARL_v2","pSARL_v2286lk475","615b39c56d4a42f215089b8a","fixation","img/fixation.png","null","","test","","","","","",""
"277.59999999962747","342359","pSARL_v2","pSARL_v2286lk475","615b39c56d4a42f215089b8a","freq","img/orange_2bandit_a2.png","70","70","test","1","185","185","9","",""
"null","342904","pSARL_v2","pSARL_v2286lk475","615b39c56d4a42f215089b8a","freq_resp","img/orange_2bandit_a.png","70","70","test","","","","9","",""
"null","343076","pSARL_v2","pSARL_v2286lk475","615b39c56d4a42f215089b8a","fixation","img/fixation.png","null","","test","","","","","",""
"292","343389","pSARL_v2","pSARL_v2286lk475","615b39c56d4a42f215089b8a","freq","img/orange_2bandit_a2.png","70","70","test","1","186","186","9","",""
"null","343926","pSARL_v2","pSARL_v2286lk475","615b39c56d4a42f215089b8a","freq_resp","img/orange_2bandit_a.png","70","70","test","","","","9","",""
"null","344097","pSARL_v2","pSARL_v2286lk475","615b39c56d4a42f215089b8a","fixation","img/fixation.png","null","","test","","","","","",""
"391.69999999925494","344511","pSARL_v2","pSARL_v2286lk475","615b39c56d4a42f215089b8a","freq","img/orange_2bandit_a2.png","70","70","test","1","187","187","9","",""
"null","344951","pSARL_v2","pSARL_v2286lk475","615b39c56d4a42f215089b8a","freq_resp","img/orange_2bandit_a.png","70","70","test","","","","9","",""
"null","345130","pSARL_v2","pSARL_v2286lk475","615b39c56d4a42f215089b8a","fixation","img/fixation.png","null","","test","","","","","",""
"293.2999999988824","345444","pSARL_v2","pSARL_v2286lk475","615b39c56d4a42f215089b8a","freq","img/orange_2bandit_a2.png","70","70","test","1","188","188","9","",""
"null","345980","pSARL_v2","pSARL_v2286lk475","615b39c56d4a42f215089b8a","freq_resp","img/orange_2bandit_a.png","70","70","test","","","","9","",""
"null","346161","pSARL_v2","pSARL_v2286lk475","615b39c56d4a42f215089b8a","fixation","img/fixation.png","null","","test","","","","","",""
"334.7000000011176","346517","pSARL_v2","pSARL_v2286lk475","615b39c56d4a42f215089b8a","freq","img/orange_2bandit_a2.png","70","70","test","1","189","189","9","",""
"null","347016","pSARL_v2","pSARL_v2286lk475","615b39c56d4a42f215089b8a","freq_resp","img/orange_2bandit_a.png","70","70","test","","","","9","",""
"null","347192","pSARL_v2","pSARL_v2286lk475","615b39c56d4a42f215089b8a","fixation","img/fixation.png","null","","test","","","","","",""
"336.19999999925494","347550","pSARL_v2","pSARL_v2286lk475","615b39c56d4a42f215089b8a","freq","img/orange_2bandit_a2.png","70","70","test","1","190","190","9","",""
"null","348038","pSARL_v2","pSARL_v2286lk475","615b39c56d4a42f215089b8a","freq_resp","img/orange_2bandit_a.png","70","70","test","","","","9","",""
"null","348208","pSARL_v2","pSARL_v2286lk475","615b39c56d4a42f215089b8a","fixation","img/fixation.png","null","","test","","","","","",""
"418.30000000074506","348648","pSARL_v2","pSARL_v2286lk475","615b39c56d4a42f215089b8a","freq","img/orange_2bandit_a2.png","70","70","test","1","191","191","9","",""
"null","349061","pSARL_v2","pSARL_v2286lk475","615b39c56d4a42f215089b8a","freq_resp","img/orange_2bandit_a.png","70","70","test","","","","9","",""
"null","349234","pSARL_v2","pSARL_v2286lk475","615b39c56d4a42f215089b8a","fixation","img/fixation.png","null","","test","","","","","",""
"521.1000000014901","349777","pSARL_v2","pSARL_v2286lk475","615b39c56d4a42f215089b8a","freq","img/orange_2bandit_a2.png","70","70","test","1","192","192","9","",""
"null","350081","pSARL_v2","pSARL_v2286lk475","615b39c56d4a42f215089b8a","freq_resp","img/orange_2bandit_a.png","70","70","test","","","","9","",""
"null","350259","pSARL_v2","pSARL_v2286lk475","615b39c56d4a42f215089b8a","fixation","img/fixation.png","null","","test","","","","","",""
"466","350748","pSARL_v2","pSARL_v2286lk475","615b39c56d4a42f215089b8a","freq","img/orange_2bandit_a2.png","70","70","test","1","193","193","9","",""
"null","351110","pSARL_v2","pSARL_v2286lk475","615b39c56d4a42f215089b8a","freq_resp","img/orange_2bandit_a.png","70","70","test","","","","9","",""
"null","351288","pSARL_v2","pSARL_v2286lk475","615b39c56d4a42f215089b8a","fixation","img/fixation.png","null","","test","","","","","",""
"512.5","351824","pSARL_v2","pSARL_v2286lk475","615b39c56d4a42f215089b8a","freq","img/orange_2bandit_a2.png","70","70","test","1","194","194","9","",""
"null","352134","pSARL_v2","pSARL_v2286lk475","615b39c56d4a42f215089b8a","freq_resp","img/orange_2bandit_a.png","70","70","test","","","","9","",""
"null","352305","pSARL_v2","pSARL_v2286lk475","615b39c56d4a42f215089b8a","fixation","img/fixation.png","null","","test","","","","","",""
"373.59999999962747","352700","pSARL_v2","pSARL_v2286lk475","615b39c56d4a42f215089b8a","freq","img/orange_2bandit_a2.png","70","70","test","1","195","195","9","",""
"null","353154","pSARL_v2","pSARL_v2286lk475","615b39c56d4a42f215089b8a","freq_resp","img/orange_2bandit_a.png","70","70","test","","","","9","",""
"null","353336","pSARL_v2","pSARL_v2286lk475","615b39c56d4a42f215089b8a","fixation","img/fixation.png","null","","test","","","","","",""
"336.90000000037253","353697","pSARL_v2","pSARL_v2286lk475","615b39c56d4a42f215089b8a","freq","img/orange_2bandit_a2.png","70","70","test","1","196","196","9","",""
"null","354190","pSARL_v2","pSARL_v2286lk475","615b39c56d4a42f215089b8a","freq_resp","img/orange_2bandit_a.png","70","70","test","","","","9","",""
"null","354364","pSARL_v2","pSARL_v2286lk475","615b39c56d4a42f215089b8a","fixation","img/fixation.png","null","","test","","","","","",""
"null","355193","pSARL_v2","pSARL_v2286lk475","615b39c56d4a42f215089b8a","freq","img/orange_2bandit_a2.png","null","70","test","0","197","197","9","",""
"null","355365","pSARL_v2","pSARL_v2286lk475","615b39c56d4a42f215089b8a","fixation","img/fixation.png","null","","test","","","","","",""
"704.1999999992549","356090","pSARL_v2","pSARL_v2286lk475","615b39c56d4a42f215089b8a","freq","img/orange_2bandit_a2.png","70","70","test","1","198","198","9","",""
"null","356213","pSARL_v2","pSARL_v2286lk475","615b39c56d4a42f215089b8a","freq_resp","img/orange_2bandit_a.png","70","70","test","","","","9","",""
"null","356396","pSARL_v2","pSARL_v2286lk475","615b39c56d4a42f215089b8a","fixation","img/fixation.png","null","","test","","","","","",""
"546.4000000003725","356962","pSARL_v2","pSARL_v2286lk475","615b39c56d4a42f215089b8a","freq","img/orange_2bandit_a2.png","70","70","test","1","199","199","9","",""
"null","357239","pSARL_v2","pSARL_v2286lk475","615b39c56d4a42f215089b8a","freq_resp","img/orange_2bandit_a.png","70","70","test","","","","9","",""
"null","357412","pSARL_v2","pSARL_v2286lk475","615b39c56d4a42f215089b8a","fixation","img/fixation.png","null","","test","","","","","",""
"565.7000000011176","357999","pSARL_v2","pSARL_v2286lk475","615b39c56d4a42f215089b8a","infreq","img/green_2bandit_a2.png","68","68","test","1","200","200","9","",""
"null","358271","pSARL_v2","pSARL_v2286lk475","615b39c56d4a42f215089b8a","infreq_resp","img/green_2bandit_a.png","68","68","test","","","","9","",""
"null","358445","pSARL_v2","pSARL_v2286lk475","615b39c56d4a42f215089b8a","fixation","img/fixation.png","null","","test","","","","","",""
"null","359276","pSARL_v2","pSARL_v2286lk475","615b39c56d4a42f215089b8a","freq","img/orange_2bandit_a2.png","null","70","test","0","201","201","9","",""
"null","359458","pSARL_v2","pSARL_v2286lk475","615b39c56d4a42f215089b8a","fixation","img/fixation.png","null","","test","","","","","",""
"435.80000000074506","359915","pSARL_v2","pSARL_v2286lk475","615b39c56d4a42f215089b8a","freq","img/orange_2bandit_a2.png","70","70","test","1","202","202","9","",""
"null","360313","pSARL_v2","pSARL_v2286lk475","615b39c56d4a42f215089b8a","freq_resp","img/orange_2bandit_a.png","70","70","test","","","","9","",""
"null","360495","pSARL_v2","pSARL_v2286lk475","615b39c56d4a42f215089b8a","fixation","img/fixation.png","null","","test","","","","","",""
"316.2000000011176","360836","pSARL_v2","pSARL_v2286lk475","615b39c56d4a42f215089b8a","freq","img/orange_2bandit_a2.png","70","70","test","1","203","203","9","",""
"null","361365","pSARL_v2","pSARL_v2286lk475","615b39c56d4a42f215089b8a","freq_resp","img/orange_2bandit_a.png","70","70","test","","","","9","",""
"null","361569","pSARL_v2","pSARL_v2286lk475","615b39c56d4a42f215089b8a","fixation","img/fixation.png","null","","test","","","","","",""
"356.90000000037253","361951","pSARL_v2","pSARL_v2286lk475","615b39c56d4a42f215089b8a","reward","img/slot.png","74","","test","","","","","",""
"null","362735","pSARL_v2","pSARL_v2286lk475","615b39c56d4a42f215089b8a","points","<div class=""verylowPoints""> -3 </div>","null","na","test","","","","9","-3","8"
"322.59999999962747","363078","pSARL_v2","pSARL_v2286lk475","615b39c56d4a42f215089b8a","freq","img/orange_2bandit_a2.png","70","70","test","1","204","204","10","",""
"null","363584","pSARL_v2","pSARL_v2286lk475","615b39c56d4a42f215089b8a","freq_resp","img/orange_2bandit_a.png","70","70","test","","","","10","",""
"null","363755","pSARL_v2","pSARL_v2286lk475","615b39c56d4a42f215089b8a","fixation","img/fixation.png","null","","test","","","","","",""
"468.69999999925494","364245","pSARL_v2","pSARL_v2286lk475","615b39c56d4a42f215089b8a","freq","img/orange_2bandit_a2.png","70","70","test","1","205","205","10","",""
"null","364599","pSARL_v2","pSARL_v2286lk475","615b39c56d4a42f215089b8a","freq_resp","img/orange_2bandit_a.png","70","70","test","","","","10","",""
"null","364772","pSARL_v2","pSARL_v2286lk475","615b39c56d4a42f215089b8a","fixation","img/fixation.png","null","","test","","","","","",""
"529.6000000014901","365321","pSARL_v2","pSARL_v2286lk475","615b39c56d4a42f215089b8a","infreq","img/green_2bandit_a2.png","68","68","test","1","206","206","10","",""
"null","365626","pSARL_v2","pSARL_v2286lk475","615b39c56d4a42f215089b8a","infreq_resp","img/green_2bandit_a.png","68","68","test","","","","10","",""
