"rt","time_elapsed","expId","subject","prolificID","trialType","stimulus","key_press","corrresp","phase","corr","trialNum","attentionRunNum","blockNum","points","rlNum"
"8455.39999961853","8474","pSARL_v2","pSARL_v29b4716py","62854bc2a3bb1ddef989b6b7","","","","","","","","","","",""
"","11915","pSARL_v2","pSARL_v29b4716py","62854bc2a3bb1ddef989b6b7","fullscreen","","","","","","","","","",""
"57165.09999990463","69092","pSARL_v2","pSARL_v29b4716py","62854bc2a3bb1ddef989b6b7","","","","","","","","","","",""
"null","69913","pSARL_v2","pSARL_v29b4716py","62854bc2a3bb1ddef989b6b7","freqPrac","img/orange_2bandit_a2.png","null","70","prac","0","","","","",""
"null","70926","pSARL_v2","pSARL_v29b4716py","62854bc2a3bb1ddef989b6b7","feedback","img/tooSlow.png","null","na","prac","","","","","",""
"null","71099","pSARL_v2","pSARL_v29b4716py","62854bc2a3bb1ddef989b6b7","fixation","img/fixation.png","null","","prac","","","","","",""
"100.40000009536743","71209","pSARL_v2","pSARL_v29b4716py","62854bc2a3bb1ddef989b6b7","infreqPrac","img/green_2bandit_a2.png","68","68","prac","1","","","","",""
"100.40000009536743","71926","pSARL_v2","pSARL_v29b4716py","62854bc2a3bb1ddef989b6b7","infreqPrac_resp","img/green_2bandit_a.png","68","68","prac","","","","","",""
"null","72098","pSARL_v2","pSARL_v29b4716py","62854bc2a3bb1ddef989b6b7","fixation","img/fixation.png","null","","prac","","","","","",""
"746","72850","pSARL_v2","pSARL_v29b4716py","62854bc2a3bb1ddef989b6b7","freqPrac","img/orange_2bandit_a2.png","68","70","prac","0","","","","",""
"746","72916","pSARL_v2","pSARL_v29b4716py","62854bc2a3bb1ddef989b6b7","freqPrac_resp","img/orange_2bandit_a.png","68","70","prac","","","","","",""
"null","73924","pSARL_v2","pSARL_v29b4716py","62854bc2a3bb1ddef989b6b7","feedback","img/wrongKey.png","null","na","prac","","","","","",""
"null","74080","pSARL_v2","pSARL_v29b4716py","62854bc2a3bb1ddef989b6b7","fixation","img/fixation.png","null","","prac","","","","","",""
"null","74901","pSARL_v2","pSARL_v29b4716py","62854bc2a3bb1ddef989b6b7","infreqPrac","img/green_2bandit_a2.png","null","68","prac","0","","","","",""
"null","75918","pSARL_v2","pSARL_v29b4716py","62854bc2a3bb1ddef989b6b7","feedback","img/tooSlow.png","null","na","prac","","","","","",""
"null","76073","pSARL_v2","pSARL_v29b4716py","62854bc2a3bb1ddef989b6b7","fixation","img/fixation.png","null","","prac","","","","","",""
"429.59999990463257","76507","pSARL_v2","pSARL_v29b4716py","62854bc2a3bb1ddef989b6b7","infreqPrac","img/green_2bandit_a2.png","70","68","prac","0","","","","",""
"429.59999990463257","76886","pSARL_v2","pSARL_v29b4716py","62854bc2a3bb1ddef989b6b7","infreqPrac_resp","img/green_2bandit_a.png","70","68","prac","","","","","",""
"null","77903","pSARL_v2","pSARL_v29b4716py","62854bc2a3bb1ddef989b6b7","feedback","img/wrongKey.png","null","na","prac","","","","","",""
"null","78073","pSARL_v2","pSARL_v29b4716py","62854bc2a3bb1ddef989b6b7","fixation","img/fixation.png","null","","prac","","","","","",""
"556.7000002861023","78635","pSARL_v2","pSARL_v29b4716py","62854bc2a3bb1ddef989b6b7","infreqPrac","img/green_2bandit_a2.png","68","68","prac","1","","","","",""
"556.7000002861023","78886","pSARL_v2","pSARL_v29b4716py","62854bc2a3bb1ddef989b6b7","infreqPrac_resp","img/green_2bandit_a.png","68","68","prac","","","","","",""
"null","79042","pSARL_v2","pSARL_v29b4716py","62854bc2a3bb1ddef989b6b7","fixation","img/fixation.png","null","","prac","","","","","",""
"634.7999997138977","79684","pSARL_v2","pSARL_v29b4716py","62854bc2a3bb1ddef989b6b7","freqPrac","img/orange_2bandit_a2.png","70","70","prac","1","","","","",""
"634.7999997138977","79855","pSARL_v2","pSARL_v29b4716py","62854bc2a3bb1ddef989b6b7","freqPrac_resp","img/orange_2bandit_a.png","70","70","prac","","","","","",""
"null","80045","pSARL_v2","pSARL_v29b4716py","62854bc2a3bb1ddef989b6b7","fixation","img/fixation.png","null","","prac","","","","","",""
"607.8000001907349","80661","pSARL_v2","pSARL_v29b4716py","62854bc2a3bb1ddef989b6b7","infreqPrac","img/green_2bandit_a2.png","68","68","prac","1","","","","",""
"607.8000001907349","80871","pSARL_v2","pSARL_v29b4716py","62854bc2a3bb1ddef989b6b7","infreqPrac_resp","img/green_2bandit_a.png","68","68","prac","","","","","",""
"null","81041","pSARL_v2","pSARL_v29b4716py","62854bc2a3bb1ddef989b6b7","fixation","img/fixation.png","null","","prac","","","","","",""
"null","81848","pSARL_v2","pSARL_v29b4716py","62854bc2a3bb1ddef989b6b7","freqPrac","img/orange_2bandit_a2.png","null","70","prac","0","","","","",""
"null","82867","pSARL_v2","pSARL_v29b4716py","62854bc2a3bb1ddef989b6b7","feedback","img/tooSlow.png","null","na","prac","","","","","",""
"null","83024","pSARL_v2","pSARL_v29b4716py","62854bc2a3bb1ddef989b6b7","fixation","img/fixation.png","null","","prac","","","","","",""
"509.40000009536743","83538","pSARL_v2","pSARL_v29b4716py","62854bc2a3bb1ddef989b6b7","freqPrac","img/orange_2bandit_a2.png","70","70","prac","1","","","","",""
"509.40000009536743","83851","pSARL_v2","pSARL_v29b4716py","62854bc2a3bb1ddef989b6b7","freqPrac_resp","img/orange_2bandit_a.png","70","70","prac","","","","","",""
"null","84020","pSARL_v2","pSARL_v29b4716py","62854bc2a3bb1ddef989b6b7","fixation","img/fixation.png","null","","prac","","","","","",""
"64027","148053","pSARL_v2","pSARL_v29b4716py","62854bc2a3bb1ddef989b6b7","","","","","prac","","","","","",""
"1673.7000002861023","149736","pSARL_v2","pSARL_v29b4716py","62854bc2a3bb1ddef989b6b7","rewardPractice","img/slot.png","74","","prac","","","","","",""
"null","150514","pSARL_v2","pSARL_v29b4716py","62854bc2a3bb1ddef989b6b7","feedback","<div class=""veryhighPoints""> +15 </div>","null","na","prac","","","","","",""
"null","150702","pSARL_v2","pSARL_v29b4716py","62854bc2a3bb1ddef989b6b7","fixation","img/fixation.png","null","","prac","","","","","",""
"18371.900000095367","169079","pSARL_v2","pSARL_v29b4716py","62854bc2a3bb1ddef989b6b7","","","","","prac","","","","","",""
"null","169895","pSARL_v2","pSARL_v29b4716py","62854bc2a3bb1ddef989b6b7","freq","img/orange_2bandit_a2.png","null","70","test","0","1","1","1","",""
"null","170061","pSARL_v2","pSARL_v29b4716py","62854bc2a3bb1ddef989b6b7","fixation","img/fixation.png","null","","test","","","","","",""
"931.8000001907349","170998","pSARL_v2","pSARL_v29b4716py","62854bc2a3bb1ddef989b6b7","freq","img/orange_2bandit_a2.png","70","70","test","1","2","2","1","",""
"null","171168","pSARL_v2","pSARL_v29b4716py","62854bc2a3bb1ddef989b6b7","fixation","img/fixation.png","null","","test","","","","","",""
"792.9000000953674","171966","pSARL_v2","pSARL_v29b4716py","62854bc2a3bb1ddef989b6b7","freq","img/orange_2bandit_a2.png","70","70","test","1","3","3","1","",""
"null","171981","pSARL_v2","pSARL_v29b4716py","62854bc2a3bb1ddef989b6b7","freq_resp","img/orange_2bandit_a.png","70","70","test","","","","1","",""
"null","172141","pSARL_v2","pSARL_v29b4716py","62854bc2a3bb1ddef989b6b7","fixation","img/fixation.png","null","","test","","","","","",""
"575.3999996185303","172722","pSARL_v2","pSARL_v29b4716py","62854bc2a3bb1ddef989b6b7","freq","img/orange_2bandit_a2.png","70","70","test","1","4","4","1","",""
"null","172959","pSARL_v2","pSARL_v29b4716py","62854bc2a3bb1ddef989b6b7","freq_resp","img/orange_2bandit_a.png","70","70","test","","","","1","",""
"null","173128","pSARL_v2","pSARL_v29b4716py","62854bc2a3bb1ddef989b6b7","fixation","img/fixation.png","null","","test","","","","","",""
"397.09999990463257","173530","pSARL_v2","pSARL_v29b4716py","62854bc2a3bb1ddef989b6b7","freq","img/orange_2bandit_a2.png","70","70","test","1","5","5","1","",""
"null","173956","pSARL_v2","pSARL_v29b4716py","62854bc2a3bb1ddef989b6b7","freq_resp","img/orange_2bandit_a.png","70","70","test","","","","1","",""
"null","174150","pSARL_v2","pSARL_v29b4716py","62854bc2a3bb1ddef989b6b7","fixation","img/fixation.png","null","","test","","","","","",""
"456.2999997138977","174611","pSARL_v2","pSARL_v29b4716py","62854bc2a3bb1ddef989b6b7","freq","img/orange_2bandit_a2.png","70","70","test","1","6","6","1","",""
"null","174963","pSARL_v2","pSARL_v29b4716py","62854bc2a3bb1ddef989b6b7","freq_resp","img/orange_2bandit_a.png","70","70","test","","","","1","",""
"null","175120","pSARL_v2","pSARL_v29b4716py","62854bc2a3bb1ddef989b6b7","fixation","img/fixation.png","null","","test","","","","","",""
"359.7000002861023","175484","pSARL_v2","pSARL_v29b4716py","62854bc2a3bb1ddef989b6b7","freq","img/orange_2bandit_a2.png","70","70","test","1","7","7","1","",""
"null","175939","pSARL_v2","pSARL_v29b4716py","62854bc2a3bb1ddef989b6b7","freq_resp","img/orange_2bandit_a.png","70","70","test","","","","1","",""
"null","176096","pSARL_v2","pSARL_v29b4716py","62854bc2a3bb1ddef989b6b7","fixation","img/fixation.png","null","","test","","","","","",""
"314","176415","pSARL_v2","pSARL_v29b4716py","62854bc2a3bb1ddef989b6b7","freq","img/orange_2bandit_a2.png","70","70","test","1","8","8","1","",""
"null","176912","pSARL_v2","pSARL_v29b4716py","62854bc2a3bb1ddef989b6b7","freq_resp","img/orange_2bandit_a.png","70","70","test","","","","1","",""
"null","177083","pSARL_v2","pSARL_v29b4716py","62854bc2a3bb1ddef989b6b7","fixation","img/fixation.png","null","","test","","","","","",""
"304.40000009536743","177392","pSARL_v2","pSARL_v29b4716py","62854bc2a3bb1ddef989b6b7","freq","img/orange_2bandit_a2.png","70","70","test","1","9","9","1","",""
"null","177900","pSARL_v2","pSARL_v29b4716py","62854bc2a3bb1ddef989b6b7","freq_resp","img/orange_2bandit_a.png","70","70","test","","","","1","",""
"null","178055","pSARL_v2","pSARL_v29b4716py","62854bc2a3bb1ddef989b6b7","fixation","img/fixation.png","null","","test","","","","","",""
"302.7000002861023","178363","pSARL_v2","pSARL_v29b4716py","62854bc2a3bb1ddef989b6b7","freq","img/orange_2bandit_a2.png","70","70","test","1","10","10","1","",""
"null","178869","pSARL_v2","pSARL_v29b4716py","62854bc2a3bb1ddef989b6b7","freq_resp","img/orange_2bandit_a.png","70","70","test","","","","1","",""
"null","179025","pSARL_v2","pSARL_v29b4716py","62854bc2a3bb1ddef989b6b7","fixation","img/fixation.png","null","","test","","","","","",""
"357.5","179387","pSARL_v2","pSARL_v29b4716py","62854bc2a3bb1ddef989b6b7","freq","img/orange_2bandit_a2.png","70","70","test","1","11","11","1","",""
"null","179855","pSARL_v2","pSARL_v29b4716py","62854bc2a3bb1ddef989b6b7","freq_resp","img/orange_2bandit_a.png","70","70","test","","","","1","",""
"null","180028","pSARL_v2","pSARL_v29b4716py","62854bc2a3bb1ddef989b6b7","fixation","img/fixation.png","null","","test","","","","","",""
"252.19999980926514","180286","pSARL_v2","pSARL_v29b4716py","62854bc2a3bb1ddef989b6b7","freq","img/orange_2bandit_a2.png","70","70","test","1","12","12","1","",""
"null","180851","pSARL_v2","pSARL_v29b4716py","62854bc2a3bb1ddef989b6b7","freq_resp","img/orange_2bandit_a.png","70","70","test","","","","1","",""
"null","181019","pSARL_v2","pSARL_v29b4716py","62854bc2a3bb1ddef989b6b7","fixation","img/fixation.png","null","","test","","","","","",""
"198.60000038146973","181222","pSARL_v2","pSARL_v29b4716py","62854bc2a3bb1ddef989b6b7","freq","img/orange_2bandit_a2.png","70","70","test","1","13","13","1","",""
"null","181835","pSARL_v2","pSARL_v29b4716py","62854bc2a3bb1ddef989b6b7","freq_resp","img/orange_2bandit_a.png","70","70","test","","","","1","",""
"null","181992","pSARL_v2","pSARL_v29b4716py","62854bc2a3bb1ddef989b6b7","fixation","img/fixation.png","null","","test","","","","","",""
"208.7000002861023","182205","pSARL_v2","pSARL_v29b4716py","62854bc2a3bb1ddef989b6b7","freq","img/orange_2bandit_a2.png","70","70","test","1","14","14","1","",""
"null","182804","pSARL_v2","pSARL_v29b4716py","62854bc2a3bb1ddef989b6b7","freq_resp","img/orange_2bandit_a.png","70","70","test","","","","1","",""
"null","182965","pSARL_v2","pSARL_v29b4716py","62854bc2a3bb1ddef989b6b7","fixation","img/fixation.png","null","","test","","","","","",""
"160.59999990463257","183136","pSARL_v2","pSARL_v29b4716py","62854bc2a3bb1ddef989b6b7","freq","img/orange_2bandit_a2.png","70","70","test","1","15","15","1","",""
"null","183786","pSARL_v2","pSARL_v29b4716py","62854bc2a3bb1ddef989b6b7","freq_resp","img/orange_2bandit_a.png","70","70","test","","","","1","",""
"null","183963","pSARL_v2","pSARL_v29b4716py","62854bc2a3bb1ddef989b6b7","fixation","img/fixation.png","null","","test","","","","","",""
"16.800000190734863","183989","pSARL_v2","pSARL_v29b4716py","62854bc2a3bb1ddef989b6b7","freq","img/orange_2bandit_a2.png","70","70","test","1","16","16","1","",""
"null","184782","pSARL_v2","pSARL_v29b4716py","62854bc2a3bb1ddef989b6b7","freq_resp","img/orange_2bandit_a.png","70","70","test","","","","1","",""
"null","184953","pSARL_v2","pSARL_v29b4716py","62854bc2a3bb1ddef989b6b7","fixation","img/fixation.png","null","","test","","","","","",""
"633.8000001907349","185597","pSARL_v2","pSARL_v29b4716py","62854bc2a3bb1ddef989b6b7","infreq","img/green_2bandit_a2.png","68","68","test","1","17","17","1","",""
"null","185777","pSARL_v2","pSARL_v29b4716py","62854bc2a3bb1ddef989b6b7","infreq_resp","img/green_2bandit_a.png","68","68","test","","","","1","",""
"null","185949","pSARL_v2","pSARL_v29b4716py","62854bc2a3bb1ddef989b6b7","fixation","img/fixation.png","null","","test","","","","","",""
"484.19999980926514","186444","pSARL_v2","pSARL_v29b4716py","62854bc2a3bb1ddef989b6b7","infreq","img/green_2bandit_a2.png","68","68","test","1","18","18","1","",""
"null","186772","pSARL_v2","pSARL_v29b4716py","62854bc2a3bb1ddef989b6b7","infreq_resp","img/green_2bandit_a.png","68","68","test","","","","1","",""
"null","186945","pSARL_v2","pSARL_v29b4716py","62854bc2a3bb1ddef989b6b7","fixation","img/fixation.png","null","","test","","","","","",""
"567","187522","pSARL_v2","pSARL_v29b4716py","62854bc2a3bb1ddef989b6b7","freq","img/orange_2bandit_a2.png","70","70","test","1","19","19","1","",""
"null","187780","pSARL_v2","pSARL_v29b4716py","62854bc2a3bb1ddef989b6b7","freq_resp","img/orange_2bandit_a.png","70","70","test","","","","1","",""
"null","187949","pSARL_v2","pSARL_v29b4716py","62854bc2a3bb1ddef989b6b7","fixation","img/fixation.png","null","","test","","","","","",""
"955.9000000953674","188911","pSARL_v2","pSARL_v29b4716py","62854bc2a3bb1ddef989b6b7","reward","img/slot.png","74","","test","","","","","",""
"null","189672","pSARL_v2","pSARL_v29b4716py","62854bc2a3bb1ddef989b6b7","points","<div class=""verylowPoints""> -6 </div>","null","na","test","","","","1","-6","0"
"null","190481","pSARL_v2","pSARL_v29b4716py","62854bc2a3bb1ddef989b6b7","freq","img/orange_2bandit_a2.png","null","70","test","0","20","20","2","",""
"null","190652","pSARL_v2","pSARL_v29b4716py","62854bc2a3bb1ddef989b6b7","fixation","img/fixation.png","null","","test","","","","","",""
"153.69999980926514","190825","pSARL_v2","pSARL_v29b4716py","62854bc2a3bb1ddef989b6b7","freq","img/orange_2bandit_a2.png","70","70","test","1","21","21","2","",""
"null","191479","pSARL_v2","pSARL_v29b4716py","62854bc2a3bb1ddef989b6b7","freq_resp","img/orange_2bandit_a.png","70","70","test","","","","2","",""
"null","191637","pSARL_v2","pSARL_v29b4716py","62854bc2a3bb1ddef989b6b7","fixation","img/fixation.png","null","","test","","","","","",""
"445.7000002861023","192092","pSARL_v2","pSARL_v29b4716py","62854bc2a3bb1ddef989b6b7","freq","img/orange_2bandit_a2.png","70","70","test","1","22","22","2","",""
"null","192461","pSARL_v2","pSARL_v29b4716py","62854bc2a3bb1ddef989b6b7","freq_resp","img/orange_2bandit_a.png","70","70","test","","","","2","",""
"null","192636","pSARL_v2","pSARL_v29b4716py","62854bc2a3bb1ddef989b6b7","fixation","img/fixation.png","null","","test","","","","","",""
"750.7999997138977","193393","pSARL_v2","pSARL_v29b4716py","62854bc2a3bb1ddef989b6b7","freq","img/orange_2bandit_a2.png","70","70","test","1","23","23","2","",""
"null","193461","pSARL_v2","pSARL_v29b4716py","62854bc2a3bb1ddef989b6b7","freq_resp","img/orange_2bandit_a.png","70","70","test","","","","2","",""
"null","193638","pSARL_v2","pSARL_v29b4716py","62854bc2a3bb1ddef989b6b7","fixation","img/fixation.png","null","","test","","","","","",""
"542.8000001907349","194191","pSARL_v2","pSARL_v29b4716py","62854bc2a3bb1ddef989b6b7","freq","img/orange_2bandit_a2.png","70","70","test","1","24","24","2","",""
"null","194459","pSARL_v2","pSARL_v29b4716py","62854bc2a3bb1ddef989b6b7","freq_resp","img/orange_2bandit_a.png","70","70","test","","","","2","",""
"null","194616","pSARL_v2","pSARL_v29b4716py","62854bc2a3bb1ddef989b6b7","fixation","img/fixation.png","null","","test","","","","","",""
"385.69999980926514","195011","pSARL_v2","pSARL_v29b4716py","62854bc2a3bb1ddef989b6b7","freq","img/orange_2bandit_a2.png","70","70","test","1","25","25","2","",""
"null","195442","pSARL_v2","pSARL_v29b4716py","62854bc2a3bb1ddef989b6b7","freq_resp","img/orange_2bandit_a.png","70","70","test","","","","2","",""
"null","195613","pSARL_v2","pSARL_v29b4716py","62854bc2a3bb1ddef989b6b7","fixation","img/fixation.png","null","","test","","","","","",""
"328.40000009536743","195946","pSARL_v2","pSARL_v29b4716py","62854bc2a3bb1ddef989b6b7","freq","img/orange_2bandit_a2.png","70","70","test","1","26","26","2","",""
"null","196428","pSARL_v2","pSARL_v29b4716py","62854bc2a3bb1ddef989b6b7","freq_resp","img/orange_2bandit_a.png","70","70","test","","","","2","",""
"null","196598","pSARL_v2","pSARL_v29b4716py","62854bc2a3bb1ddef989b6b7","fixation","img/fixation.png","null","","test","","","","","",""
"293.7000002861023","196896","pSARL_v2","pSARL_v29b4716py","62854bc2a3bb1ddef989b6b7","freq","img/orange_2bandit_a2.png","70","70","test","1","27","27","2","",""
"null","197418","pSARL_v2","pSARL_v29b4716py","62854bc2a3bb1ddef989b6b7","freq_resp","img/orange_2bandit_a.png","70","70","test","","","","2","",""
"null","197581","pSARL_v2","pSARL_v29b4716py","62854bc2a3bb1ddef989b6b7","fixation","img/fixation.png","null","","test","","","","","",""
"353.7000002861023","197939","pSARL_v2","pSARL_v29b4716py","62854bc2a3bb1ddef989b6b7","freq","img/orange_2bandit_a2.png","70","70","test","1","28","28","2","",""
"null","198405","pSARL_v2","pSARL_v29b4716py","62854bc2a3bb1ddef989b6b7","freq_resp","img/orange_2bandit_a.png","70","70","test","","","","2","",""
"null","198565","pSARL_v2","pSARL_v29b4716py","62854bc2a3bb1ddef989b6b7","fixation","img/fixation.png","null","","test","","","","","",""
"564.9000000953674","199135","pSARL_v2","pSARL_v29b4716py","62854bc2a3bb1ddef989b6b7","infreq","img/green_2bandit_a2.png","68","68","test","1","29","29","2","",""
"null","199378","pSARL_v2","pSARL_v29b4716py","62854bc2a3bb1ddef989b6b7","infreq_resp","img/green_2bandit_a.png","68","68","test","","","","2","",""
"null","199540","pSARL_v2","pSARL_v29b4716py","62854bc2a3bb1ddef989b6b7","fixation","img/fixation.png","null","","test","","","","","",""
"404.1000003814697","199949","pSARL_v2","pSARL_v29b4716py","62854bc2a3bb1ddef989b6b7","infreq","img/green_2bandit_a2.png","68","68","test","1","30","30","2","",""
"null","200351","pSARL_v2","pSARL_v29b4716py","62854bc2a3bb1ddef989b6b7","infreq_resp","img/green_2bandit_a.png","68","68","test","","","","2","",""
"null","200522","pSARL_v2","pSARL_v29b4716py","62854bc2a3bb1ddef989b6b7","fixation","img/fixation.png","null","","test","","","","","",""
"396.69999980926514","200923","pSARL_v2","pSARL_v29b4716py","62854bc2a3bb1ddef989b6b7","freq","img/orange_2bandit_a2.png","68","70","test","0","31","31","2","",""
"null","201336","pSARL_v2","pSARL_v29b4716py","62854bc2a3bb1ddef989b6b7","freq_resp","img/orange_2bandit_a.png","68","70","test","","","","2","",""
"null","201493","pSARL_v2","pSARL_v29b4716py","62854bc2a3bb1ddef989b6b7","fixation","img/fixation.png","null","","test","","","","","",""
"659.9000000953674","202158","pSARL_v2","pSARL_v29b4716py","62854bc2a3bb1ddef989b6b7","freq","img/orange_2bandit_a2.png","70","70","test","1","32","32","2","",""
"null","202310","pSARL_v2","pSARL_v29b4716py","62854bc2a3bb1ddef989b6b7","freq_resp","img/orange_2bandit_a.png","70","70","test","","","","2","",""
"null","202468","pSARL_v2","pSARL_v29b4716py","62854bc2a3bb1ddef989b6b7","fixation","img/fixation.png","null","","test","","","","","",""
"392.80000019073486","202866","pSARL_v2","pSARL_v29b4716py","62854bc2a3bb1ddef989b6b7","freq","img/orange_2bandit_a2.png","70","70","test","1","33","33","2","",""
"null","203283","pSARL_v2","pSARL_v29b4716py","62854bc2a3bb1ddef989b6b7","freq_resp","img/orange_2bandit_a.png","70","70","test","","","","2","",""
"null","203444","pSARL_v2","pSARL_v29b4716py","62854bc2a3bb1ddef989b6b7","fixation","img/fixation.png","null","","test","","","","","",""
"518.2999997138977","203967","pSARL_v2","pSARL_v29b4716py","62854bc2a3bb1ddef989b6b7","infreq","img/green_2bandit_a2.png","68","68","test","1","34","34","2","",""
"null","204280","pSARL_v2","pSARL_v29b4716py","62854bc2a3bb1ddef989b6b7","infreq_resp","img/green_2bandit_a.png","68","68","test","","","","2","",""
"null","204446","pSARL_v2","pSARL_v29b4716py","62854bc2a3bb1ddef989b6b7","fixation","img/fixation.png","null","","test","","","","","",""
"570.1999998092651","205021","pSARL_v2","pSARL_v29b4716py","62854bc2a3bb1ddef989b6b7","freq","img/orange_2bandit_a2.png","70","70","test","1","35","35","2","",""
"null","205270","pSARL_v2","pSARL_v29b4716py","62854bc2a3bb1ddef989b6b7","freq_resp","img/orange_2bandit_a.png","70","70","test","","","","2","",""
"null","205450","pSARL_v2","pSARL_v29b4716py","62854bc2a3bb1ddef989b6b7","fixation","img/fixation.png","null","","test","","","","","",""
"504","205959","pSARL_v2","pSARL_v29b4716py","62854bc2a3bb1ddef989b6b7","freq","img/orange_2bandit_a2.png","70","70","test","1","36","36","2","",""
"null","206270","pSARL_v2","pSARL_v29b4716py","62854bc2a3bb1ddef989b6b7","freq_resp","img/orange_2bandit_a.png","70","70","test","","","","2","",""
"null","206428","pSARL_v2","pSARL_v29b4716py","62854bc2a3bb1ddef989b6b7","fixation","img/fixation.png","null","","test","","","","","",""
"385.69999980926514","206818","pSARL_v2","pSARL_v29b4716py","62854bc2a3bb1ddef989b6b7","freq","img/orange_2bandit_a2.png","70","70","test","1","37","37","2","",""
"null","207247","pSARL_v2","pSARL_v29b4716py","62854bc2a3bb1ddef989b6b7","freq_resp","img/orange_2bandit_a.png","70","70","test","","","","2","",""
"null","207435","pSARL_v2","pSARL_v29b4716py","62854bc2a3bb1ddef989b6b7","fixation","img/fixation.png","null","","test","","","","","",""
"357.09999990463257","207798","pSARL_v2","pSARL_v29b4716py","62854bc2a3bb1ddef989b6b7","freq","img/orange_2bandit_a2.png","70","70","test","1","38","38","2","",""
"null","208264","pSARL_v2","pSARL_v29b4716py","62854bc2a3bb1ddef989b6b7","freq_resp","img/orange_2bandit_a.png","70","70","test","","","","2","",""
"null","208464","pSARL_v2","pSARL_v29b4716py","62854bc2a3bb1ddef989b6b7","fixation","img/fixation.png","null","","test","","","","","",""
"340.40000009536743","208810","pSARL_v2","pSARL_v29b4716py","62854bc2a3bb1ddef989b6b7","freq","img/orange_2bandit_a2.png","70","70","test","1","39","39","2","",""
"null","209353","pSARL_v2","pSARL_v29b4716py","62854bc2a3bb1ddef989b6b7","freq_resp","img/orange_2bandit_a.png","70","70","test","","","","2","",""
"null","209543","pSARL_v2","pSARL_v29b4716py","62854bc2a3bb1ddef989b6b7","fixation","img/fixation.png","null","","test","","","","","",""
"354.5","209902","pSARL_v2","pSARL_v29b4716py","62854bc2a3bb1ddef989b6b7","freq","img/orange_2bandit_a2.png","70","70","test","1","40","40","2","",""
"null","210379","pSARL_v2","pSARL_v29b4716py","62854bc2a3bb1ddef989b6b7","freq_resp","img/orange_2bandit_a.png","70","70","test","","","","2","",""
"null","210540","pSARL_v2","pSARL_v29b4716py","62854bc2a3bb1ddef989b6b7","fixation","img/fixation.png","null","","test","","","","","",""
"355.7000002861023","210901","pSARL_v2","pSARL_v29b4716py","62854bc2a3bb1ddef989b6b7","freq","img/orange_2bandit_a2.png","70","70","test","1","41","41","2","",""
"null","211387","pSARL_v2","pSARL_v29b4716py","62854bc2a3bb1ddef989b6b7","freq_resp","img/orange_2bandit_a.png","70","70","test","","","","2","",""
"null","211567","pSARL_v2","pSARL_v29b4716py","62854bc2a3bb1ddef989b6b7","fixation","img/fixation.png","null","","test","","","","","",""
"630.5","212203","pSARL_v2","pSARL_v29b4716py","62854bc2a3bb1ddef989b6b7","reward","img/slot.png","74","","test","","","","","",""
"null","212972","pSARL_v2","pSARL_v29b4716py","62854bc2a3bb1ddef989b6b7","points","<div class=""verylowPoints""> -11 </div>","null","na","test","","","","2","-11","1"
"809.7000002861023","213786","pSARL_v2","pSARL_v29b4716py","62854bc2a3bb1ddef989b6b7","freq","img/orange_2bandit_a2.png","68","70","test","0","42","42","3","",""
"null","213948","pSARL_v2","pSARL_v29b4716py","62854bc2a3bb1ddef989b6b7","fixation","img/fixation.png","null","","test","","","","","",""
"717.1999998092651","214670","pSARL_v2","pSARL_v29b4716py","62854bc2a3bb1ddef989b6b7","freq","img/orange_2bandit_a2.png","68","70","test","0","43","43","3","",""
"null","214764","pSARL_v2","pSARL_v29b4716py","62854bc2a3bb1ddef989b6b7","freq_resp","img/orange_2bandit_a.png","68","70","test","","","","3","",""
"null","214922","pSARL_v2","pSARL_v29b4716py","62854bc2a3bb1ddef989b6b7","fixation","img/fixation.png","null","","test","","","","","",""
"722.9000000953674","215650","pSARL_v2","pSARL_v29b4716py","62854bc2a3bb1ddef989b6b7","freq","img/orange_2bandit_a2.png","68","70","test","0","44","44","3","",""
"null","215735","pSARL_v2","pSARL_v29b4716py","62854bc2a3bb1ddef989b6b7","freq_resp","img/orange_2bandit_a.png","68","70","test","","","","3","",""
"null","215891","pSARL_v2","pSARL_v29b4716py","62854bc2a3bb1ddef989b6b7","fixation","img/fixation.png","null","","test","","","","","",""
"722.5999999046326","216618","pSARL_v2","pSARL_v29b4716py","62854bc2a3bb1ddef989b6b7","freq","img/orange_2bandit_a2.png","68","70","test","0","45","45","3","",""
"null","216703","pSARL_v2","pSARL_v29b4716py","62854bc2a3bb1ddef989b6b7","freq_resp","img/orange_2bandit_a.png","68","70","test","","","","3","",""
"null","216868","pSARL_v2","pSARL_v29b4716py","62854bc2a3bb1ddef989b6b7","fixation","img/fixation.png","null","","test","","","","","",""
"783.3000001907349","217656","pSARL_v2","pSARL_v29b4716py","62854bc2a3bb1ddef989b6b7","freq","img/orange_2bandit_a2.png","68","70","test","0","46","46","3","",""
"null","217680","pSARL_v2","pSARL_v29b4716py","62854bc2a3bb1ddef989b6b7","freq_resp","img/orange_2bandit_a.png","68","70","test","","","","3","",""
"null","217836","pSARL_v2","pSARL_v29b4716py","62854bc2a3bb1ddef989b6b7","fixation","img/fixation.png","null","","test","","","","","",""
"704","218550","pSARL_v2","pSARL_v29b4716py","62854bc2a3bb1ddef989b6b7","freq","img/orange_2bandit_a2.png","68","70","test","0","47","47","3","",""
"null","218655","pSARL_v2","pSARL_v29b4716py","62854bc2a3bb1ddef989b6b7","freq_resp","img/orange_2bandit_a.png","68","70","test","","","","3","",""
"null","218821","pSARL_v2","pSARL_v29b4716py","62854bc2a3bb1ddef989b6b7","fixation","img/fixation.png","null","","test","","","","","",""
"447.40000009536743","219274","pSARL_v2","pSARL_v29b4716py","62854bc2a3bb1ddef989b6b7","freq","img/orange_2bandit_a2.png","68","70","test","0","48","48","3","",""
"null","219644","pSARL_v2","pSARL_v29b4716py","62854bc2a3bb1ddef989b6b7","freq_resp","img/orange_2bandit_a.png","68","70","test","","","","3","",""
"null","219821","pSARL_v2","pSARL_v29b4716py","62854bc2a3bb1ddef989b6b7","fixation","img/fixation.png","null","","test","","","","","",""
"396.80000019073486","220228","pSARL_v2","pSARL_v29b4716py","62854bc2a3bb1ddef989b6b7","freq","img/orange_2bandit_a2.png","68","70","test","0","49","49","3","",""
"null","220640","pSARL_v2","pSARL_v29b4716py","62854bc2a3bb1ddef989b6b7","freq_resp","img/orange_2bandit_a.png","68","70","test","","","","3","",""
"null","220810","pSARL_v2","pSARL_v29b4716py","62854bc2a3bb1ddef989b6b7","fixation","img/fixation.png","null","","test","","","","","",""
"342.09999990463257","221159","pSARL_v2","pSARL_v29b4716py","62854bc2a3bb1ddef989b6b7","freq","img/orange_2bandit_a2.png","68","70","test","0","50","50","3","",""
"null","221669","pSARL_v2","pSARL_v29b4716py","62854bc2a3bb1ddef989b6b7","freq_resp","img/orange_2bandit_a.png","68","70","test","","","","3","",""
"null","221826","pSARL_v2","pSARL_v29b4716py","62854bc2a3bb1ddef989b6b7","fixation","img/fixation.png","null","","test","","","","","",""
"302.7000002861023","222139","pSARL_v2","pSARL_v29b4716py","62854bc2a3bb1ddef989b6b7","freq","img/orange_2bandit_a2.png","68","70","test","0","51","51","3","",""
"null","222686","pSARL_v2","pSARL_v29b4716py","62854bc2a3bb1ddef989b6b7","freq_resp","img/orange_2bandit_a.png","68","70","test","","","","3","",""
"null","222871","pSARL_v2","pSARL_v29b4716py","62854bc2a3bb1ddef989b6b7","fixation","img/fixation.png","null","","test","","","","","",""
"347.69999980926514","223224","pSARL_v2","pSARL_v29b4716py","62854bc2a3bb1ddef989b6b7","freq","img/orange_2bandit_a2.png","68","70","test","0","52","52","3","",""
"null","223694","pSARL_v2","pSARL_v29b4716py","62854bc2a3bb1ddef989b6b7","freq_resp","img/orange_2bandit_a.png","68","70","test","","","","3","",""
"null","223861","pSARL_v2","pSARL_v29b4716py","62854bc2a3bb1ddef989b6b7","fixation","img/fixation.png","null","","test","","","","","",""
"360.7999997138977","224233","pSARL_v2","pSARL_v29b4716py","62854bc2a3bb1ddef989b6b7","freq","img/orange_2bandit_a2.png","68","70","test","0","53","53","3","",""
"null","224687","pSARL_v2","pSARL_v29b4716py","62854bc2a3bb1ddef989b6b7","freq_resp","img/orange_2bandit_a.png","68","70","test","","","","3","",""
"null","224843","pSARL_v2","pSARL_v29b4716py","62854bc2a3bb1ddef989b6b7","fixation","img/fixation.png","null","","test","","","","","",""
"577.7000002861023","225425","pSARL_v2","pSARL_v29b4716py","62854bc2a3bb1ddef989b6b7","infreq","img/green_2bandit_a2.png","70","68","test","0","54","54","3","",""
"null","225655","pSARL_v2","pSARL_v29b4716py","62854bc2a3bb1ddef989b6b7","infreq_resp","img/green_2bandit_a.png","70","68","test","","","","3","",""
"null","225811","pSARL_v2","pSARL_v29b4716py","62854bc2a3bb1ddef989b6b7","fixation","img/fixation.png","null","","test","","","","","",""
"null","226635","pSARL_v2","pSARL_v29b4716py","62854bc2a3bb1ddef989b6b7","infreq","img/green_2bandit_a2.png","null","68","test","0","55","55","3","",""
"null","226794","pSARL_v2","pSARL_v29b4716py","62854bc2a3bb1ddef989b6b7","fixation","img/fixation.png","null","","test","","","","","",""
"null","227607","pSARL_v2","pSARL_v29b4716py","62854bc2a3bb1ddef989b6b7","freq","img/orange_2bandit_a2.png","null","70","test","0","56","56","3","",""
"null","227778","pSARL_v2","pSARL_v29b4716py","62854bc2a3bb1ddef989b6b7","fixation","img/fixation.png","null","","test","","","","","",""
"769","228552","pSARL_v2","pSARL_v29b4716py","62854bc2a3bb1ddef989b6b7","freq","img/orange_2bandit_a2.png","70","70","test","1","57","57","3","",""
"null","228590","pSARL_v2","pSARL_v29b4716py","62854bc2a3bb1ddef989b6b7","freq_resp","img/orange_2bandit_a.png","70","70","test","","","","3","",""
"null","228763","pSARL_v2","pSARL_v29b4716py","62854bc2a3bb1ddef989b6b7","fixation","img/fixation.png","null","","test","","","","","",""
"790","229559","pSARL_v2","pSARL_v29b4716py","62854bc2a3bb1ddef989b6b7","infreq","img/green_2bandit_a2.png","68","68","test","1","58","58","3","",""
"null","229587","pSARL_v2","pSARL_v29b4716py","62854bc2a3bb1ddef989b6b7","infreq_resp","img/green_2bandit_a.png","68","68","test","","","","3","",""
"null","229758","pSARL_v2","pSARL_v29b4716py","62854bc2a3bb1ddef989b6b7","fixation","img/fixation.png","null","","test","","","","","",""
"724.8000001907349","230493","pSARL_v2","pSARL_v29b4716py","62854bc2a3bb1ddef989b6b7","freq","img/orange_2bandit_a2.png","70","70","test","1","59","59","3","",""
"null","230577","pSARL_v2","pSARL_v29b4716py","62854bc2a3bb1ddef989b6b7","freq_resp","img/orange_2bandit_a.png","70","70","test","","","","3","",""
"null","230749","pSARL_v2","pSARL_v29b4716py","62854bc2a3bb1ddef989b6b7","fixation","img/fixation.png","null","","test","","","","","",""
"548.0999999046326","231314","pSARL_v2","pSARL_v29b4716py","62854bc2a3bb1ddef989b6b7","freq","img/orange_2bandit_a2.png","70","70","test","1","60","60","3","",""
"null","231586","pSARL_v2","pSARL_v29b4716py","62854bc2a3bb1ddef989b6b7","freq_resp","img/orange_2bandit_a.png","70","70","test","","","","3","",""
"null","231758","pSARL_v2","pSARL_v29b4716py","62854bc2a3bb1ddef989b6b7","fixation","img/fixation.png","null","","test","","","","","",""
"401","232169","pSARL_v2","pSARL_v29b4716py","62854bc2a3bb1ddef989b6b7","freq","img/orange_2bandit_a2.png","70","70","test","1","61","61","3","",""
"null","232595","pSARL_v2","pSARL_v29b4716py","62854bc2a3bb1ddef989b6b7","freq_resp","img/orange_2bandit_a.png","70","70","test","","","","3","",""
"null","232762","pSARL_v2","pSARL_v29b4716py","62854bc2a3bb1ddef989b6b7","fixation","img/fixation.png","null","","test","","","","","",""
"387.7999997138977","233161","pSARL_v2","pSARL_v29b4716py","62854bc2a3bb1ddef989b6b7","freq","img/orange_2bandit_a2.png","70","70","test","1","62","62","3","",""
"null","233607","pSARL_v2","pSARL_v29b4716py","62854bc2a3bb1ddef989b6b7","freq_resp","img/orange_2bandit_a.png","70","70","test","","","","3","",""
"null","233793","pSARL_v2","pSARL_v29b4716py","62854bc2a3bb1ddef989b6b7","fixation","img/fixation.png","null","","test","","","","","",""
"611.7000002861023","234412","pSARL_v2","pSARL_v29b4716py","62854bc2a3bb1ddef989b6b7","reward","img/slot.png","74","","test","","","","","",""
"null","235173","pSARL_v2","pSARL_v29b4716py","62854bc2a3bb1ddef989b6b7","points","<div class=""verylowPoints""> -7 </div>","null","na","test","","","","3","-7","2"
"803.5","235987","pSARL_v2","pSARL_v29b4716py","62854bc2a3bb1ddef989b6b7","freq","img/orange_2bandit_a2.png","70","70","test","1","63","63","4","",""
"null","236156","pSARL_v2","pSARL_v29b4716py","62854bc2a3bb1ddef989b6b7","fixation","img/fixation.png","null","","test","","","","","",""
"552.1999998092651","236719","pSARL_v2","pSARL_v29b4716py","62854bc2a3bb1ddef989b6b7","freq","img/orange_2bandit_a2.png","70","70","test","1","64","64","4","",""
"null","236982","pSARL_v2","pSARL_v29b4716py","62854bc2a3bb1ddef989b6b7","freq_resp","img/orange_2bandit_a.png","70","70","test","","","","4","",""
"null","237152","pSARL_v2","pSARL_v29b4716py","62854bc2a3bb1ddef989b6b7","fixation","img/fixation.png","null","","test","","","","","",""
"345.90000009536743","237505","pSARL_v2","pSARL_v29b4716py","62854bc2a3bb1ddef989b6b7","freq","img/orange_2bandit_a2.png","70","70","test","1","65","65","4","",""
"null","237976","pSARL_v2","pSARL_v29b4716py","62854bc2a3bb1ddef989b6b7","freq_resp","img/orange_2bandit_a.png","70","70","test","","","","4","",""
"null","238145","pSARL_v2","pSARL_v29b4716py","62854bc2a3bb1ddef989b6b7","fixation","img/fixation.png","null","","test","","","","","",""
"130.40000009536743","238284","pSARL_v2","pSARL_v29b4716py","62854bc2a3bb1ddef989b6b7","freq","img/orange_2bandit_a2.png","70","70","test","1","66","66","4","",""
"null","238975","pSARL_v2","pSARL_v29b4716py","62854bc2a3bb1ddef989b6b7","freq_resp","img/orange_2bandit_a.png","70","70","test","","","","4","",""
"null","239134","pSARL_v2","pSARL_v29b4716py","62854bc2a3bb1ddef989b6b7","fixation","img/fixation.png","null","","test","","","","","",""
"131.5","239271","pSARL_v2","pSARL_v29b4716py","62854bc2a3bb1ddef989b6b7","freq","img/orange_2bandit_a2.png","70","70","test","1","67","67","4","",""
"null","239967","pSARL_v2","pSARL_v29b4716py","62854bc2a3bb1ddef989b6b7","freq_resp","img/orange_2bandit_a.png","70","70","test","","","","4","",""
"null","240146","pSARL_v2","pSARL_v29b4716py","62854bc2a3bb1ddef989b6b7","fixation","img/fixation.png","null","","test","","","","","",""
"301.90000009536743","240457","pSARL_v2","pSARL_v29b4716py","62854bc2a3bb1ddef989b6b7","freq","img/orange_2bandit_a2.png","70","70","test","1","68","68","4","",""
"null","240966","pSARL_v2","pSARL_v29b4716py","62854bc2a3bb1ddef989b6b7","freq_resp","img/orange_2bandit_a.png","70","70","test","","","","4","",""
"null","241137","pSARL_v2","pSARL_v29b4716py","62854bc2a3bb1ddef989b6b7","fixation","img/fixation.png","null","","test","","","","","",""
"311.09999990463257","241459","pSARL_v2","pSARL_v29b4716py","62854bc2a3bb1ddef989b6b7","infreq","img/green_2bandit_a2.png","70","68","test","0","69","69","4","",""
"null","241973","pSARL_v2","pSARL_v29b4716py","62854bc2a3bb1ddef989b6b7","infreq_resp","img/green_2bandit_a.png","70","68","test","","","","4","",""
"null","242136","pSARL_v2","pSARL_v29b4716py","62854bc2a3bb1ddef989b6b7","fixation","img/fixation.png","null","","test","","","","","",""
"465.7000002861023","242611","pSARL_v2","pSARL_v29b4716py","62854bc2a3bb1ddef989b6b7","freq","img/orange_2bandit_a2.png","70","70","test","1","70","70","4","",""
"null","242955","pSARL_v2","pSARL_v29b4716py","62854bc2a3bb1ddef989b6b7","freq_resp","img/orange_2bandit_a.png","70","70","test","","","","4","",""
"null","243114","pSARL_v2","pSARL_v29b4716py","62854bc2a3bb1ddef989b6b7","fixation","img/fixation.png","null","","test","","","","","",""
"438.7000002861023","243558","pSARL_v2","pSARL_v29b4716py","62854bc2a3bb1ddef989b6b7","infreq","img/green_2bandit_a2.png","68","68","test","1","71","71","4","",""
"null","243949","pSARL_v2","pSARL_v29b4716py","62854bc2a3bb1ddef989b6b7","infreq_resp","img/green_2bandit_a.png","68","68","test","","","","4","",""
"null","244110","pSARL_v2","pSARL_v29b4716py","62854bc2a3bb1ddef989b6b7","fixation","img/fixation.png","null","","test","","","","","",""
"484.59999990463257","244604","pSARL_v2","pSARL_v29b4716py","62854bc2a3bb1ddef989b6b7","freq","img/orange_2bandit_a2.png","70","70","test","1","72","72","4","",""
"null","244928","pSARL_v2","pSARL_v29b4716py","62854bc2a3bb1ddef989b6b7","freq_resp","img/orange_2bandit_a.png","70","70","test","","","","4","",""
"null","245106","pSARL_v2","pSARL_v29b4716py","62854bc2a3bb1ddef989b6b7","fixation","img/fixation.png","null","","test","","","","","",""
"431.80000019073486","245543","pSARL_v2","pSARL_v29b4716py","62854bc2a3bb1ddef989b6b7","freq","img/orange_2bandit_a2.png","70","70","test","1","73","73","4","",""
"null","245921","pSARL_v2","pSARL_v29b4716py","62854bc2a3bb1ddef989b6b7","freq_resp","img/orange_2bandit_a.png","70","70","test","","","","4","",""
"null","246087","pSARL_v2","pSARL_v29b4716py","62854bc2a3bb1ddef989b6b7","fixation","img/fixation.png","null","","test","","","","","",""
"355.09999990463257","246449","pSARL_v2","pSARL_v29b4716py","62854bc2a3bb1ddef989b6b7","freq","img/orange_2bandit_a2.png","70","70","test","1","74","74","4","",""
"null","246901","pSARL_v2","pSARL_v29b4716py","62854bc2a3bb1ddef989b6b7","freq_resp","img/orange_2bandit_a.png","70","70","test","","","","4","",""
"null","247067","pSARL_v2","pSARL_v29b4716py","62854bc2a3bb1ddef989b6b7","fixation","img/fixation.png","null","","test","","","","","",""
"347.40000009536743","247420","pSARL_v2","pSARL_v29b4716py","62854bc2a3bb1ddef989b6b7","freq","img/orange_2bandit_a2.png","70","70","test","1","75","75","4","",""
"null","247899","pSARL_v2","pSARL_v29b4716py","62854bc2a3bb1ddef989b6b7","freq_resp","img/orange_2bandit_a.png","70","70","test","","","","4","",""
"null","248079","pSARL_v2","pSARL_v29b4716py","62854bc2a3bb1ddef989b6b7","fixation","img/fixation.png","null","","test","","","","","",""
"404.5","248489","pSARL_v2","pSARL_v29b4716py","62854bc2a3bb1ddef989b6b7","freq","img/orange_2bandit_a2.png","70","70","test","1","76","76","4","",""
"null","248899","pSARL_v2","pSARL_v29b4716py","62854bc2a3bb1ddef989b6b7","freq_resp","img/orange_2bandit_a.png","70","70","test","","","","4","",""
"null","249069","pSARL_v2","pSARL_v29b4716py","62854bc2a3bb1ddef989b6b7","fixation","img/fixation.png","null","","test","","","","","",""
"411","249485","pSARL_v2","pSARL_v29b4716py","62854bc2a3bb1ddef989b6b7","freq","img/orange_2bandit_a2.png","70","70","test","1","77","77","4","",""
"null","249886","pSARL_v2","pSARL_v29b4716py","62854bc2a3bb1ddef989b6b7","freq_resp","img/orange_2bandit_a.png","70","70","test","","","","4","",""
"null","250067","pSARL_v2","pSARL_v29b4716py","62854bc2a3bb1ddef989b6b7","fixation","img/fixation.png","null","","test","","","","","",""
"346.90000009536743","250419","pSARL_v2","pSARL_v29b4716py","62854bc2a3bb1ddef989b6b7","freq","img/orange_2bandit_a2.png","70","70","test","1","78","78","4","",""
"null","250885","pSARL_v2","pSARL_v29b4716py","62854bc2a3bb1ddef989b6b7","freq_resp","img/orange_2bandit_a.png","70","70","test","","","","4","",""
"null","251055","pSARL_v2","pSARL_v29b4716py","62854bc2a3bb1ddef989b6b7","fixation","img/fixation.png","null","","test","","","","","",""
"230.2999997138977","251294","pSARL_v2","pSARL_v29b4716py","62854bc2a3bb1ddef989b6b7","freq","img/orange_2bandit_a2.png","70","70","test","1","79","79","4","",""
"null","251905","pSARL_v2","pSARL_v29b4716py","62854bc2a3bb1ddef989b6b7","freq_resp","img/orange_2bandit_a.png","70","70","test","","","","4","",""
"null","252078","pSARL_v2","pSARL_v29b4716py","62854bc2a3bb1ddef989b6b7","fixation","img/fixation.png","null","","test","","","","","",""
"356.7999997138977","252440","pSARL_v2","pSARL_v29b4716py","62854bc2a3bb1ddef989b6b7","freq","img/orange_2bandit_a2.png","70","70","test","1","80","80","4","",""
"null","252901","pSARL_v2","pSARL_v29b4716py","62854bc2a3bb1ddef989b6b7","freq_resp","img/orange_2bandit_a.png","70","70","test","","","","4","",""
"null","253089","pSARL_v2","pSARL_v29b4716py","62854bc2a3bb1ddef989b6b7","fixation","img/fixation.png","null","","test","","","","","",""
"325.2000002861023","253419","pSARL_v2","pSARL_v29b4716py","62854bc2a3bb1ddef989b6b7","freq","img/orange_2bandit_a2.png","70","70","test","1","81","81","4","",""
"null","253906","pSARL_v2","pSARL_v29b4716py","62854bc2a3bb1ddef989b6b7","freq_resp","img/orange_2bandit_a.png","70","70","test","","","","4","",""
"null","254072","pSARL_v2","pSARL_v29b4716py","62854bc2a3bb1ddef989b6b7","fixation","img/fixation.png","null","","test","","","","","",""
"306.90000009536743","254384","pSARL_v2","pSARL_v29b4716py","62854bc2a3bb1ddef989b6b7","freq","img/orange_2bandit_a2.png","70","70","test","1","82","82","4","",""
"null","254897","pSARL_v2","pSARL_v29b4716py","62854bc2a3bb1ddef989b6b7","freq_resp","img/orange_2bandit_a.png","70","70","test","","","","4","",""
"null","255055","pSARL_v2","pSARL_v29b4716py","62854bc2a3bb1ddef989b6b7","fixation","img/fixation.png","null","","test","","","","","",""
"319.30000019073486","255380","pSARL_v2","pSARL_v29b4716py","62854bc2a3bb1ddef989b6b7","freq","img/orange_2bandit_a2.png","70","70","test","1","83","83","4","",""
"null","255893","pSARL_v2","pSARL_v29b4716py","62854bc2a3bb1ddef989b6b7","freq_resp","img/orange_2bandit_a.png","70","70","test","","","","4","",""
"null","256089","pSARL_v2","pSARL_v29b4716py","62854bc2a3bb1ddef989b6b7","fixation","img/fixation.png","null","","test","","","","","",""
"535.5","256630","pSARL_v2","pSARL_v29b4716py","62854bc2a3bb1ddef989b6b7","infreq","img/green_2bandit_a2.png","68","68","test","1","84","84","4","",""
"null","256904","pSARL_v2","pSARL_v29b4716py","62854bc2a3bb1ddef989b6b7","infreq_resp","img/green_2bandit_a.png","68","68","test","","","","4","",""
"null","257062","pSARL_v2","pSARL_v29b4716py","62854bc2a3bb1ddef989b6b7","fixation","img/fixation.png","null","","test","","","","","",""
"462.59999990463257","257530","pSARL_v2","pSARL_v29b4716py","62854bc2a3bb1ddef989b6b7","freq","img/orange_2bandit_a2.png","70","70","test","1","85","85","4","",""
"null","257908","pSARL_v2","pSARL_v29b4716py","62854bc2a3bb1ddef989b6b7","freq_resp","img/orange_2bandit_a.png","70","70","test","","","","4","",""
"null","258067","pSARL_v2","pSARL_v29b4716py","62854bc2a3bb1ddef989b6b7","fixation","img/fixation.png","null","","test","","","","","",""
"402.7000002861023","258474","pSARL_v2","pSARL_v29b4716py","62854bc2a3bb1ddef989b6b7","freq","img/orange_2bandit_a2.png","70","70","test","1","86","86","4","",""
"null","258880","pSARL_v2","pSARL_v29b4716py","62854bc2a3bb1ddef989b6b7","freq_resp","img/orange_2bandit_a.png","70","70","test","","","","4","",""
"null","259037","pSARL_v2","pSARL_v29b4716py","62854bc2a3bb1ddef989b6b7","fixation","img/fixation.png","null","","test","","","","","",""
"465.30000019073486","259507","pSARL_v2","pSARL_v29b4716py","62854bc2a3bb1ddef989b6b7","freq","img/orange_2bandit_a2.png","70","70","test","1","87","87","4","",""
"null","259851","pSARL_v2","pSARL_v29b4716py","62854bc2a3bb1ddef989b6b7","freq_resp","img/orange_2bandit_a.png","70","70","test","","","","4","",""
"null","260011","pSARL_v2","pSARL_v29b4716py","62854bc2a3bb1ddef989b6b7","fixation","img/fixation.png","null","","test","","","","","",""
"372.40000009536743","260388","pSARL_v2","pSARL_v29b4716py","62854bc2a3bb1ddef989b6b7","freq","img/orange_2bandit_a2.png","70","70","test","1","88","88","4","",""
"null","260823","pSARL_v2","pSARL_v29b4716py","62854bc2a3bb1ddef989b6b7","freq_resp","img/orange_2bandit_a.png","70","70","test","","","","4","",""
"null","260980","pSARL_v2","pSARL_v29b4716py","62854bc2a3bb1ddef989b6b7","fixation","img/fixation.png","null","","test","","","","","",""
"363.90000009536743","261349","pSARL_v2","pSARL_v29b4716py","62854bc2a3bb1ddef989b6b7","freq","img/orange_2bandit_a2.png","70","70","test","1","89","89","4","",""
"null","261807","pSARL_v2","pSARL_v29b4716py","62854bc2a3bb1ddef989b6b7","freq_resp","img/orange_2bandit_a.png","70","70","test","","","","4","",""
"null","262001","pSARL_v2","pSARL_v29b4716py","62854bc2a3bb1ddef989b6b7","fixation","img/fixation.png","null","","test","","","","","",""
"498.7000002861023","262505","pSARL_v2","pSARL_v29b4716py","62854bc2a3bb1ddef989b6b7","reward","img/slot.png","74","","test","","","","","",""
"null","263263","pSARL_v2","pSARL_v29b4716py","62854bc2a3bb1ddef989b6b7","points","<div class=""verylowPoints""> -3 </div>","null","na","test","","","","4","-3","3"
"639.4000000953674","263908","pSARL_v2","pSARL_v29b4716py","62854bc2a3bb1ddef989b6b7","freq","img/orange_2bandit_a2.png","70","70","test","1","90","90","5","",""
"null","264076","pSARL_v2","pSARL_v29b4716py","62854bc2a3bb1ddef989b6b7","freq_resp","img/orange_2bandit_a.png","70","70","test","","","","5","",""
"null","264233","pSARL_v2","pSARL_v29b4716py","62854bc2a3bb1ddef989b6b7","fixation","img/fixation.png","null","","test","","","","","",""
"397.2999997138977","264635","pSARL_v2","pSARL_v29b4716py","62854bc2a3bb1ddef989b6b7","freq","img/orange_2bandit_a2.png","70","70","test","1","91","91","5","",""
"null","265051","pSARL_v2","pSARL_v29b4716py","62854bc2a3bb1ddef989b6b7","freq_resp","img/orange_2bandit_a.png","70","70","test","","","","5","",""
"null","265207","pSARL_v2","pSARL_v29b4716py","62854bc2a3bb1ddef989b6b7","fixation","img/fixation.png","null","","test","","","","","",""
"353.40000009536743","265566","pSARL_v2","pSARL_v29b4716py","62854bc2a3bb1ddef989b6b7","freq","img/orange_2bandit_a2.png","70","70","test","1","92","92","5","",""
"null","266023","pSARL_v2","pSARL_v29b4716py","62854bc2a3bb1ddef989b6b7","freq_resp","img/orange_2bandit_a.png","70","70","test","","","","5","",""
"null","266180","pSARL_v2","pSARL_v29b4716py","62854bc2a3bb1ddef989b6b7","fixation","img/fixation.png","null","","test","","","","","",""
"374","266559","pSARL_v2","pSARL_v29b4716py","62854bc2a3bb1ddef989b6b7","freq","img/orange_2bandit_a2.png","70","70","test","1","93","93","5","",""
"null","266991","pSARL_v2","pSARL_v29b4716py","62854bc2a3bb1ddef989b6b7","freq_resp","img/orange_2bandit_a.png","70","70","test","","","","5","",""
"null","267148","pSARL_v2","pSARL_v29b4716py","62854bc2a3bb1ddef989b6b7","fixation","img/fixation.png","null","","test","","","","","",""
"343.09999990463257","267500","pSARL_v2","pSARL_v29b4716py","62854bc2a3bb1ddef989b6b7","freq","img/orange_2bandit_a2.png","70","70","test","1","94","94","5","",""
"null","267975","pSARL_v2","pSARL_v29b4716py","62854bc2a3bb1ddef989b6b7","freq_resp","img/orange_2bandit_a.png","70","70","test","","","","5","",""
"null","268134","pSARL_v2","pSARL_v29b4716py","62854bc2a3bb1ddef989b6b7","fixation","img/fixation.png","null","","test","","","","","",""
"386","268525","pSARL_v2","pSARL_v29b4716py","62854bc2a3bb1ddef989b6b7","infreq","img/green_2bandit_a2.png","68","68","test","1","95","95","5","",""
"null","268980","pSARL_v2","pSARL_v29b4716py","62854bc2a3bb1ddef989b6b7","infreq_resp","img/green_2bandit_a.png","68","68","test","","","","5","",""
"null","269151","pSARL_v2","pSARL_v29b4716py","62854bc2a3bb1ddef989b6b7","fixation","img/fixation.png","null","","test","","","","","",""
"380.19999980926514","269536","pSARL_v2","pSARL_v29b4716py","62854bc2a3bb1ddef989b6b7","freq","img/orange_2bandit_a2.png","70","70","test","1","96","96","5","",""
"null","269976","pSARL_v2","pSARL_v29b4716py","62854bc2a3bb1ddef989b6b7","freq_resp","img/orange_2bandit_a.png","70","70","test","","","","5","",""
"null","270133","pSARL_v2","pSARL_v29b4716py","62854bc2a3bb1ddef989b6b7","fixation","img/fixation.png","null","","test","","","","","",""
"344.59999990463257","270484","pSARL_v2","pSARL_v29b4716py","62854bc2a3bb1ddef989b6b7","freq","img/orange_2bandit_a2.png","70","70","test","1","97","97","5","",""
"null","270965","pSARL_v2","pSARL_v29b4716py","62854bc2a3bb1ddef989b6b7","freq_resp","img/orange_2bandit_a.png","70","70","test","","","","5","",""
"null","271134","pSARL_v2","pSARL_v29b4716py","62854bc2a3bb1ddef989b6b7","fixation","img/fixation.png","null","","test","","","","","",""
"296.5","271435","pSARL_v2","pSARL_v29b4716py","62854bc2a3bb1ddef989b6b7","freq","img/orange_2bandit_a2.png","70","70","test","1","98","98","5","",""
"null","271948","pSARL_v2","pSARL_v29b4716py","62854bc2a3bb1ddef989b6b7","freq_resp","img/orange_2bandit_a.png","70","70","test","","","","5","",""
"null","272117","pSARL_v2","pSARL_v29b4716py","62854bc2a3bb1ddef989b6b7","fixation","img/fixation.png","null","","test","","","","","",""
"354.5","272477","pSARL_v2","pSARL_v29b4716py","62854bc2a3bb1ddef989b6b7","freq","img/orange_2bandit_a2.png","70","70","test","1","99","99","5","",""
"null","272935","pSARL_v2","pSARL_v29b4716py","62854bc2a3bb1ddef989b6b7","freq_resp","img/orange_2bandit_a.png","70","70","test","","","","5","",""
"null","273123","pSARL_v2","pSARL_v29b4716py","62854bc2a3bb1ddef989b6b7","fixation","img/fixation.png","null","","test","","","","","",""
"289.90000009536743","273418","pSARL_v2","pSARL_v29b4716py","62854bc2a3bb1ddef989b6b7","freq","img/orange_2bandit_a2.png","70","70","test","1","100","100","5","",""
"null","273939","pSARL_v2","pSARL_v29b4716py","62854bc2a3bb1ddef989b6b7","freq_resp","img/orange_2bandit_a.png","70","70","test","","","","5","",""
"null","274097","pSARL_v2","pSARL_v29b4716py","62854bc2a3bb1ddef989b6b7","fixation","img/fixation.png","null","","test","","","","","",""
"299.59999990463257","274402","pSARL_v2","pSARL_v29b4716py","62854bc2a3bb1ddef989b6b7","freq","img/orange_2bandit_a2.png","70","70","test","1","101","101","5","",""
"null","274915","pSARL_v2","pSARL_v29b4716py","62854bc2a3bb1ddef989b6b7","freq_resp","img/orange_2bandit_a.png","70","70","test","","","","5","",""
"null","275073","pSARL_v2","pSARL_v29b4716py","62854bc2a3bb1ddef989b6b7","fixation","img/fixation.png","null","","test","","","","","",""
"307.5","275385","pSARL_v2","pSARL_v29b4716py","62854bc2a3bb1ddef989b6b7","freq","img/orange_2bandit_a2.png","70","70","test","1","102","102","5","",""
"null","275884","pSARL_v2","pSARL_v29b4716py","62854bc2a3bb1ddef989b6b7","freq_resp","img/orange_2bandit_a.png","70","70","test","","","","5","",""
"null","276058","pSARL_v2","pSARL_v29b4716py","62854bc2a3bb1ddef989b6b7","fixation","img/fixation.png","null","","test","","","","","",""
"519.5999999046326","276585","pSARL_v2","pSARL_v29b4716py","62854bc2a3bb1ddef989b6b7","infreq","img/green_2bandit_a2.png","68","68","test","1","103","103","5","",""
"null","276883","pSARL_v2","pSARL_v29b4716py","62854bc2a3bb1ddef989b6b7","infreq_resp","img/green_2bandit_a.png","68","68","test","","","","5","",""
"null","277050","pSARL_v2","pSARL_v29b4716py","62854bc2a3bb1ddef989b6b7","fixation","img/fixation.png","null","","test","","","","","",""
"397.09999990463257","277452","pSARL_v2","pSARL_v29b4716py","62854bc2a3bb1ddef989b6b7","freq","img/orange_2bandit_a2.png","70","70","test","1","104","104","5","",""
"null","277897","pSARL_v2","pSARL_v29b4716py","62854bc2a3bb1ddef989b6b7","freq_resp","img/orange_2bandit_a.png","70","70","test","","","","5","",""
"null","278072","pSARL_v2","pSARL_v29b4716py","62854bc2a3bb1ddef989b6b7","fixation","img/fixation.png","null","","test","","","","","",""
"313.2000002861023","278390","pSARL_v2","pSARL_v29b4716py","62854bc2a3bb1ddef989b6b7","freq","img/orange_2bandit_a2.png","70","70","test","1","105","105","5","",""
"null","278918","pSARL_v2","pSARL_v29b4716py","62854bc2a3bb1ddef989b6b7","freq_resp","img/orange_2bandit_a.png","70","70","test","","","","5","",""
"null","279088","pSARL_v2","pSARL_v29b4716py","62854bc2a3bb1ddef989b6b7","fixation","img/fixation.png","null","","test","","","","","",""
"300.5","279394","pSARL_v2","pSARL_v29b4716py","62854bc2a3bb1ddef989b6b7","freq","img/orange_2bandit_a2.png","70","70","test","1","106","106","5","",""
"null","279912","pSARL_v2","pSARL_v29b4716py","62854bc2a3bb1ddef989b6b7","freq_resp","img/orange_2bandit_a.png","70","70","test","","","","5","",""
"null","280068","pSARL_v2","pSARL_v29b4716py","62854bc2a3bb1ddef989b6b7","fixation","img/fixation.png","null","","test","","","","","",""
"330.09999990463257","280403","pSARL_v2","pSARL_v29b4716py","62854bc2a3bb1ddef989b6b7","freq","img/orange_2bandit_a2.png","70","70","test","1","107","107","5","",""
"null","280886","pSARL_v2","pSARL_v29b4716py","62854bc2a3bb1ddef989b6b7","freq_resp","img/orange_2bandit_a.png","70","70","test","","","","5","",""
"null","281044","pSARL_v2","pSARL_v29b4716py","62854bc2a3bb1ddef989b6b7","fixation","img/fixation.png","null","","test","","","","","",""
"336.19999980926514","281385","pSARL_v2","pSARL_v29b4716py","62854bc2a3bb1ddef989b6b7","freq","img/orange_2bandit_a2.png","70","70","test","1","108","108","5","",""
"null","281862","pSARL_v2","pSARL_v29b4716py","62854bc2a3bb1ddef989b6b7","freq_resp","img/orange_2bandit_a.png","70","70","test","","","","5","",""
"null","282033","pSARL_v2","pSARL_v29b4716py","62854bc2a3bb1ddef989b6b7","fixation","img/fixation.png","null","","test","","","","","",""
"360.59999990463257","282403","pSARL_v2","pSARL_v29b4716py","62854bc2a3bb1ddef989b6b7","freq","img/orange_2bandit_a2.png","70","70","test","1","109","109","5","",""
"null","282863","pSARL_v2","pSARL_v29b4716py","62854bc2a3bb1ddef989b6b7","freq_resp","img/orange_2bandit_a.png","70","70","test","","","","5","",""
"null","283031","pSARL_v2","pSARL_v29b4716py","62854bc2a3bb1ddef989b6b7","fixation","img/fixation.png","null","","test","","","","","",""
"363.69999980926514","283404","pSARL_v2","pSARL_v29b4716py","62854bc2a3bb1ddef989b6b7","freq","img/orange_2bandit_a2.png","70","70","test","1","110","110","5","",""
"null","283855","pSARL_v2","pSARL_v29b4716py","62854bc2a3bb1ddef989b6b7","freq_resp","img/orange_2bandit_a.png","70","70","test","","","","5","",""
"null","284043","pSARL_v2","pSARL_v29b4716py","62854bc2a3bb1ddef989b6b7","fixation","img/fixation.png","null","","test","","","","","",""
"326.40000009536743","284374","pSARL_v2","pSARL_v29b4716py","62854bc2a3bb1ddef989b6b7","freq","img/orange_2bandit_a2.png","70","70","test","1","111","111","5","",""
"null","284867","pSARL_v2","pSARL_v29b4716py","62854bc2a3bb1ddef989b6b7","freq_resp","img/orange_2bandit_a.png","70","70","test","","","","5","",""
"null","285024","pSARL_v2","pSARL_v29b4716py","62854bc2a3bb1ddef989b6b7","fixation","img/fixation.png","null","","test","","","","","",""
"466.09999990463257","285502","pSARL_v2","pSARL_v29b4716py","62854bc2a3bb1ddef989b6b7","freq","img/orange_2bandit_a2.png","70","70","test","1","112","112","5","",""
"null","285851","pSARL_v2","pSARL_v29b4716py","62854bc2a3bb1ddef989b6b7","freq_resp","img/orange_2bandit_a.png","70","70","test","","","","5","",""
"null","286023","pSARL_v2","pSARL_v29b4716py","62854bc2a3bb1ddef989b6b7","fixation","img/fixation.png","null","","test","","","","","",""
"347.90000009536743","286382","pSARL_v2","pSARL_v29b4716py","62854bc2a3bb1ddef989b6b7","freq","img/orange_2bandit_a2.png","70","70","test","1","113","113","5","",""
"null","286843","pSARL_v2","pSARL_v29b4716py","62854bc2a3bb1ddef989b6b7","freq_resp","img/orange_2bandit_a.png","70","70","test","","","","5","",""
"null","287003","pSARL_v2","pSARL_v29b4716py","62854bc2a3bb1ddef989b6b7","fixation","img/fixation.png","null","","test","","","","","",""
"318.59999990463257","287334","pSARL_v2","pSARL_v29b4716py","62854bc2a3bb1ddef989b6b7","freq","img/orange_2bandit_a2.png","70","70","test","1","114","114","5","",""
"null","287833","pSARL_v2","pSARL_v29b4716py","62854bc2a3bb1ddef989b6b7","freq_resp","img/orange_2bandit_a.png","70","70","test","","","","5","",""
"null","288001","pSARL_v2","pSARL_v29b4716py","62854bc2a3bb1ddef989b6b7","fixation","img/fixation.png","null","","test","","","","","",""
"228.59999990463257","288240","pSARL_v2","pSARL_v29b4716py","62854bc2a3bb1ddef989b6b7","freq","img/orange_2bandit_a2.png","70","70","test","1","115","115","5","",""
"null","288824","pSARL_v2","pSARL_v29b4716py","62854bc2a3bb1ddef989b6b7","freq_resp","img/orange_2bandit_a.png","70","70","test","","","","5","",""
"null","288999","pSARL_v2","pSARL_v29b4716py","62854bc2a3bb1ddef989b6b7","fixation","img/fixation.png","null","","test","","","","","",""
"682.5999999046326","289688","pSARL_v2","pSARL_v29b4716py","62854bc2a3bb1ddef989b6b7","reward","img/slot.png","74","","test","","","","","",""
"null","290461","pSARL_v2","pSARL_v29b4716py","62854bc2a3bb1ddef989b6b7","points","<div class=""veryhighPoints""> +1 </div>","null","na","test","","","","5","1","4"
"463.09999990463257","290935","pSARL_v2","pSARL_v29b4716py","62854bc2a3bb1ddef989b6b7","freq","img/orange_2bandit_a2.png","70","70","test","1","116","116","6","",""
"null","291286","pSARL_v2","pSARL_v29b4716py","62854bc2a3bb1ddef989b6b7","freq_resp","img/orange_2bandit_a.png","70","70","test","","","","6","",""
"null","291453","pSARL_v2","pSARL_v29b4716py","62854bc2a3bb1ddef989b6b7","fixation","img/fixation.png","null","","test","","","","","",""
"280.2999997138977","291743","pSARL_v2","pSARL_v29b4716py","62854bc2a3bb1ddef989b6b7","freq","img/orange_2bandit_a2.png","70","70","test","1","117","117","6","",""
"null","292275","pSARL_v2","pSARL_v29b4716py","62854bc2a3bb1ddef989b6b7","freq_resp","img/orange_2bandit_a.png","70","70","test","","","","6","",""
"null","292447","pSARL_v2","pSARL_v29b4716py","62854bc2a3bb1ddef989b6b7","fixation","img/fixation.png","null","","test","","","","","",""
"516.8000001907349","292975","pSARL_v2","pSARL_v29b4716py","62854bc2a3bb1ddef989b6b7","infreq","img/green_2bandit_a2.png","68","68","test","1","118","118","6","",""
"null","293284","pSARL_v2","pSARL_v29b4716py","62854bc2a3bb1ddef989b6b7","infreq_resp","img/green_2bandit_a.png","68","68","test","","","","6","",""
"null","293457","pSARL_v2","pSARL_v29b4716py","62854bc2a3bb1ddef989b6b7","fixation","img/fixation.png","null","","test","","","","","",""
"396.40000009536743","293863","pSARL_v2","pSARL_v29b4716py","62854bc2a3bb1ddef989b6b7","freq","img/orange_2bandit_a2.png","70","70","test","1","119","119","6","",""
"null","294280","pSARL_v2","pSARL_v29b4716py","62854bc2a3bb1ddef989b6b7","freq_resp","img/orange_2bandit_a.png","70","70","test","","","","6","",""
"null","294452","pSARL_v2","pSARL_v29b4716py","62854bc2a3bb1ddef989b6b7","fixation","img/fixation.png","null","","test","","","","","",""
"460.69999980926514","294924","pSARL_v2","pSARL_v29b4716py","62854bc2a3bb1ddef989b6b7","freq","img/orange_2bandit_a2.png","70","70","test","1","120","120","6","",""
"null","295282","pSARL_v2","pSARL_v29b4716py","62854bc2a3bb1ddef989b6b7","freq_resp","img/orange_2bandit_a.png","70","70","test","","","","6","",""
"null","295454","pSARL_v2","pSARL_v29b4716py","62854bc2a3bb1ddef989b6b7","fixation","img/fixation.png","null","","test","","","","","",""
"365.90000009536743","295829","pSARL_v2","pSARL_v29b4716py","62854bc2a3bb1ddef989b6b7","freq","img/orange_2bandit_a2.png","70","70","test","1","121","121","6","",""
"null","296280","pSARL_v2","pSARL_v29b4716py","62854bc2a3bb1ddef989b6b7","freq_resp","img/orange_2bandit_a.png","70","70","test","","","","6","",""
"null","296451","pSARL_v2","pSARL_v29b4716py","62854bc2a3bb1ddef989b6b7","fixation","img/fixation.png","null","","test","","","","","",""
"322.59999990463257","296781","pSARL_v2","pSARL_v29b4716py","62854bc2a3bb1ddef989b6b7","freq","img/orange_2bandit_a2.png","70","70","test","1","122","122","6","",""
"null","297277","pSARL_v2","pSARL_v29b4716py","62854bc2a3bb1ddef989b6b7","freq_resp","img/orange_2bandit_a.png","70","70","test","","","","6","",""
"null","297450","pSARL_v2","pSARL_v29b4716py","62854bc2a3bb1ddef989b6b7","fixation","img/fixation.png","null","","test","","","","","",""
"345.90000009536743","297804","pSARL_v2","pSARL_v29b4716py","62854bc2a3bb1ddef989b6b7","freq","img/orange_2bandit_a2.png","70","70","test","1","123","123","6","",""
"null","298278","pSARL_v2","pSARL_v29b4716py","62854bc2a3bb1ddef989b6b7","freq_resp","img/orange_2bandit_a.png","70","70","test","","","","6","",""
"null","298443","pSARL_v2","pSARL_v29b4716py","62854bc2a3bb1ddef989b6b7","fixation","img/fixation.png","null","","test","","","","","",""
"435.5","298885","pSARL_v2","pSARL_v29b4716py","62854bc2a3bb1ddef989b6b7","infreq","img/green_2bandit_a2.png","68","68","test","1","124","124","6","",""
"null","299268","pSARL_v2","pSARL_v29b4716py","62854bc2a3bb1ddef989b6b7","infreq_resp","img/green_2bandit_a.png","68","68","test","","","","6","",""
"null","299438","pSARL_v2","pSARL_v29b4716py","62854bc2a3bb1ddef989b6b7","fixation","img/fixation.png","null","","test","","","","","",""
"391.1000003814697","299839","pSARL_v2","pSARL_v29b4716py","62854bc2a3bb1ddef989b6b7","freq","img/orange_2bandit_a2.png","70","70","test","1","125","125","6","",""
"null","300268","pSARL_v2","pSARL_v29b4716py","62854bc2a3bb1ddef989b6b7","freq_resp","img/orange_2bandit_a.png","70","70","test","","","","6","",""
"null","300427","pSARL_v2","pSARL_v29b4716py","62854bc2a3bb1ddef989b6b7","fixation","img/fixation.png","null","","test","","","","","",""
"369.90000009536743","300805","pSARL_v2","pSARL_v29b4716py","62854bc2a3bb1ddef989b6b7","freq","img/orange_2bandit_a2.png","70","70","test","1","126","126","6","",""
"null","301250","pSARL_v2","pSARL_v29b4716py","62854bc2a3bb1ddef989b6b7","freq_resp","img/orange_2bandit_a.png","70","70","test","","","","6","",""
"null","301407","pSARL_v2","pSARL_v29b4716py","62854bc2a3bb1ddef989b6b7","fixation","img/fixation.png","null","","test","","","","","",""
"426.40000009536743","301841","pSARL_v2","pSARL_v29b4716py","62854bc2a3bb1ddef989b6b7","freq","img/orange_2bandit_a2.png","70","70","test","1","127","127","6","",""
"null","302235","pSARL_v2","pSARL_v29b4716py","62854bc2a3bb1ddef989b6b7","freq_resp","img/orange_2bandit_a.png","70","70","test","","","","6","",""
"null","302396","pSARL_v2","pSARL_v29b4716py","62854bc2a3bb1ddef989b6b7","fixation","img/fixation.png","null","","test","","","","","",""
"373.59999990463257","302777","pSARL_v2","pSARL_v29b4716py","62854bc2a3bb1ddef989b6b7","freq","img/orange_2bandit_a2.png","70","70","test","1","128","128","6","",""
"null","303222","pSARL_v2","pSARL_v29b4716py","62854bc2a3bb1ddef989b6b7","freq_resp","img/orange_2bandit_a.png","70","70","test","","","","6","",""
"null","303390","pSARL_v2","pSARL_v29b4716py","62854bc2a3bb1ddef989b6b7","fixation","img/fixation.png","null","","test","","","","","",""
"342.2000002861023","303742","pSARL_v2","pSARL_v29b4716py","62854bc2a3bb1ddef989b6b7","freq","img/orange_2bandit_a2.png","70","70","test","1","129","129","6","",""
"null","304222","pSARL_v2","pSARL_v29b4716py","62854bc2a3bb1ddef989b6b7","freq_resp","img/orange_2bandit_a.png","70","70","test","","","","6","",""
"null","304390","pSARL_v2","pSARL_v29b4716py","62854bc2a3bb1ddef989b6b7","fixation","img/fixation.png","null","","test","","","","","",""
"367.59999990463257","304764","pSARL_v2","pSARL_v29b4716py","62854bc2a3bb1ddef989b6b7","freq","img/orange_2bandit_a2.png","70","70","test","1","130","130","6","",""
"null","305230","pSARL_v2","pSARL_v29b4716py","62854bc2a3bb1ddef989b6b7","freq_resp","img/orange_2bandit_a.png","70","70","test","","","","6","",""
"null","305452","pSARL_v2","pSARL_v29b4716py","62854bc2a3bb1ddef989b6b7","fixation","img/fixation.png","null","","test","","","","","",""
"407.09999990463257","305879","pSARL_v2","pSARL_v29b4716py","62854bc2a3bb1ddef989b6b7","freq","img/orange_2bandit_a2.png","70","70","test","1","131","131","6","",""
"null","306293","pSARL_v2","pSARL_v29b4716py","62854bc2a3bb1ddef989b6b7","freq_resp","img/orange_2bandit_a.png","70","70","test","","","","6","",""
"null","306458","pSARL_v2","pSARL_v29b4716py","62854bc2a3bb1ddef989b6b7","fixation","img/fixation.png","null","","test","","","","","",""
"336.90000009536743","306804","pSARL_v2","pSARL_v29b4716py","62854bc2a3bb1ddef989b6b7","freq","img/orange_2bandit_a2.png","70","70","test","1","132","132","6","",""
"null","307288","pSARL_v2","pSARL_v29b4716py","62854bc2a3bb1ddef989b6b7","freq_resp","img/orange_2bandit_a.png","70","70","test","","","","6","",""
"null","307462","pSARL_v2","pSARL_v29b4716py","62854bc2a3bb1ddef989b6b7","fixation","img/fixation.png","null","","test","","","","","",""
"355.09999990463257","307828","pSARL_v2","pSARL_v29b4716py","62854bc2a3bb1ddef989b6b7","freq","img/orange_2bandit_a2.png","70","70","test","1","133","133","6","",""
"null","308286","pSARL_v2","pSARL_v29b4716py","62854bc2a3bb1ddef989b6b7","freq_resp","img/orange_2bandit_a.png","70","70","test","","","","6","",""
"null","308456","pSARL_v2","pSARL_v29b4716py","62854bc2a3bb1ddef989b6b7","fixation","img/fixation.png","null","","test","","","","","",""
"375.5","308842","pSARL_v2","pSARL_v29b4716py","62854bc2a3bb1ddef989b6b7","freq","img/orange_2bandit_a2.png","70","70","test","1","134","134","6","",""
"null","309278","pSARL_v2","pSARL_v29b4716py","62854bc2a3bb1ddef989b6b7","freq_resp","img/orange_2bandit_a.png","70","70","test","","","","6","",""
"null","309448","pSARL_v2","pSARL_v29b4716py","62854bc2a3bb1ddef989b6b7","fixation","img/fixation.png","null","","test","","","","","",""
"342.59999990463257","309800","pSARL_v2","pSARL_v29b4716py","62854bc2a3bb1ddef989b6b7","freq","img/orange_2bandit_a2.png","70","70","test","1","135","135","6","",""
"null","310295","pSARL_v2","pSARL_v29b4716py","62854bc2a3bb1ddef989b6b7","freq_resp","img/orange_2bandit_a.png","70","70","test","","","","6","",""
"null","310462","pSARL_v2","pSARL_v29b4716py","62854bc2a3bb1ddef989b6b7","fixation","img/fixation.png","null","","test","","","","","",""
"315.09999990463257","310782","pSARL_v2","pSARL_v29b4716py","62854bc2a3bb1ddef989b6b7","freq","img/orange_2bandit_a2.png","70","70","test","1","136","136","6","",""
"null","311280","pSARL_v2","pSARL_v29b4716py","62854bc2a3bb1ddef989b6b7","freq_resp","img/orange_2bandit_a.png","70","70","test","","","","6","",""
"null","311452","pSARL_v2","pSARL_v29b4716py","62854bc2a3bb1ddef989b6b7","fixation","img/fixation.png","null","","test","","","","","",""
"356.19999980926514","311815","pSARL_v2","pSARL_v29b4716py","62854bc2a3bb1ddef989b6b7","freq","img/orange_2bandit_a2.png","70","70","test","1","137","137","6","",""
"null","312305","pSARL_v2","pSARL_v29b4716py","62854bc2a3bb1ddef989b6b7","freq_resp","img/orange_2bandit_a.png","70","70","test","","","","6","",""
"null","312471","pSARL_v2","pSARL_v29b4716py","62854bc2a3bb1ddef989b6b7","fixation","img/fixation.png","null","","test","","","","","",""
"330","312811","pSARL_v2","pSARL_v29b4716py","62854bc2a3bb1ddef989b6b7","freq","img/orange_2bandit_a2.png","70","70","test","1","138","138","6","",""
"null","313293","pSARL_v2","pSARL_v29b4716py","62854bc2a3bb1ddef989b6b7","freq_resp","img/orange_2bandit_a.png","70","70","test","","","","6","",""
"null","313468","pSARL_v2","pSARL_v29b4716py","62854bc2a3bb1ddef989b6b7","fixation","img/fixation.png","null","","test","","","","","",""
"317.90000009536743","313796","pSARL_v2","pSARL_v29b4716py","62854bc2a3bb1ddef989b6b7","freq","img/orange_2bandit_a2.png","70","70","test","1","139","139","6","",""
"null","314290","pSARL_v2","pSARL_v29b4716py","62854bc2a3bb1ddef989b6b7","freq_resp","img/orange_2bandit_a.png","70","70","test","","","","6","",""
"null","314458","pSARL_v2","pSARL_v29b4716py","62854bc2a3bb1ddef989b6b7","fixation","img/fixation.png","null","","test","","","","","",""
"491","314958","pSARL_v2","pSARL_v29b4716py","62854bc2a3bb1ddef989b6b7","reward","img/slot.png","74","","test","","","","","",""
"null","315723","pSARL_v2","pSARL_v29b4716py","62854bc2a3bb1ddef989b6b7","points","<div class=""verylowPoints""> -7 </div>","null","na","test","","","","6","-7","5"
"523.3999996185303","316257","pSARL_v2","pSARL_v29b4716py","62854bc2a3bb1ddef989b6b7","freq","img/orange_2bandit_a2.png","70","70","test","1","140","140","7","",""
"null","316550","pSARL_v2","pSARL_v29b4716py","62854bc2a3bb1ddef989b6b7","freq_resp","img/orange_2bandit_a.png","70","70","test","","","","7","",""
"null","316726","pSARL_v2","pSARL_v29b4716py","62854bc2a3bb1ddef989b6b7","fixation","img/fixation.png","null","","test","","","","","",""
"365.80000019073486","317102","pSARL_v2","pSARL_v29b4716py","62854bc2a3bb1ddef989b6b7","freq","img/orange_2bandit_a2.png","70","70","test","1","141","141","7","",""
"null","317550","pSARL_v2","pSARL_v29b4716py","62854bc2a3bb1ddef989b6b7","freq_resp","img/orange_2bandit_a.png","70","70","test","","","","7","",""
"null","317723","pSARL_v2","pSARL_v29b4716py","62854bc2a3bb1ddef989b6b7","fixation","img/fixation.png","null","","test","","","","","",""
"324.19999980926514","318053","pSARL_v2","pSARL_v29b4716py","62854bc2a3bb1ddef989b6b7","freq","img/orange_2bandit_a2.png","70","70","test","1","142","142","7","",""
"null","318551","pSARL_v2","pSARL_v29b4716py","62854bc2a3bb1ddef989b6b7","freq_resp","img/orange_2bandit_a.png","70","70","test","","","","7","",""
"null","318724","pSARL_v2","pSARL_v29b4716py","62854bc2a3bb1ddef989b6b7","fixation","img/fixation.png","null","","test","","","","","",""
"432.09999990463257","319166","pSARL_v2","pSARL_v29b4716py","62854bc2a3bb1ddef989b6b7","infreq","img/green_2bandit_a2.png","68","68","test","1","143","143","7","",""
"null","319552","pSARL_v2","pSARL_v29b4716py","62854bc2a3bb1ddef989b6b7","infreq_resp","img/green_2bandit_a.png","68","68","test","","","","7","",""
"null","319722","pSARL_v2","pSARL_v29b4716py","62854bc2a3bb1ddef989b6b7","fixation","img/fixation.png","null","","test","","","","","",""
"345.90000009536743","320076","pSARL_v2","pSARL_v29b4716py","62854bc2a3bb1ddef989b6b7","freq","img/orange_2bandit_a2.png","70","70","test","1","144","144","7","",""
"null","320547","pSARL_v2","pSARL_v29b4716py","62854bc2a3bb1ddef989b6b7","freq_resp","img/orange_2bandit_a.png","70","70","test","","","","7","",""
"null","320720","pSARL_v2","pSARL_v29b4716py","62854bc2a3bb1ddef989b6b7","fixation","img/fixation.png","null","","test","","","","","",""
"337.80000019073486","321068","pSARL_v2","pSARL_v29b4716py","62854bc2a3bb1ddef989b6b7","freq","img/orange_2bandit_a2.png","70","70","test","1","145","145","7","",""
"null","321575","pSARL_v2","pSARL_v29b4716py","62854bc2a3bb1ddef989b6b7","freq_resp","img/orange_2bandit_a.png","70","70","test","","","","7","",""
"null","321750","pSARL_v2","pSARL_v29b4716py","62854bc2a3bb1ddef989b6b7","fixation","img/fixation.png","null","","test","","","","","",""
"347","322102","pSARL_v2","pSARL_v29b4716py","62854bc2a3bb1ddef989b6b7","freq","img/orange_2bandit_a2.png","70","70","test","1","146","146","7","",""
"null","322563","pSARL_v2","pSARL_v29b4716py","62854bc2a3bb1ddef989b6b7","freq_resp","img/orange_2bandit_a.png","70","70","test","","","","7","",""
"null","322720","pSARL_v2","pSARL_v29b4716py","62854bc2a3bb1ddef989b6b7","fixation","img/fixation.png","null","","test","","","","","",""
"423.1000003814697","323149","pSARL_v2","pSARL_v29b4716py","62854bc2a3bb1ddef989b6b7","infreq","img/green_2bandit_a2.png","68","68","test","1","147","147","7","",""
"null","323537","pSARL_v2","pSARL_v29b4716py","62854bc2a3bb1ddef989b6b7","infreq_resp","img/green_2bandit_a.png","68","68","test","","","","7","",""
"null","323703","pSARL_v2","pSARL_v29b4716py","62854bc2a3bb1ddef989b6b7","fixation","img/fixation.png","null","","test","","","","","",""
"322.2000002861023","324054","pSARL_v2","pSARL_v29b4716py","62854bc2a3bb1ddef989b6b7","freq","img/orange_2bandit_a2.png","70","70","test","1","148","148","7","",""
"null","324555","pSARL_v2","pSARL_v29b4716py","62854bc2a3bb1ddef989b6b7","freq_resp","img/orange_2bandit_a.png","70","70","test","","","","7","",""
"null","324740","pSARL_v2","pSARL_v29b4716py","62854bc2a3bb1ddef989b6b7","fixation","img/fixation.png","null","","test","","","","","",""
"401.40000009536743","325162","pSARL_v2","pSARL_v29b4716py","62854bc2a3bb1ddef989b6b7","freq","img/orange_2bandit_a2.png","70","70","test","1","149","149","7","",""
"null","325632","pSARL_v2","pSARL_v29b4716py","62854bc2a3bb1ddef989b6b7","freq_resp","img/orange_2bandit_a.png","70","70","test","","","","7","",""
"null","325791","pSARL_v2","pSARL_v29b4716py","62854bc2a3bb1ddef989b6b7","fixation","img/fixation.png","null","","test","","","","","",""
"335.09999990463257","326132","pSARL_v2","pSARL_v29b4716py","62854bc2a3bb1ddef989b6b7","freq","img/orange_2bandit_a2.png","70","70","test","1","150","150","7","",""
"null","326614","pSARL_v2","pSARL_v29b4716py","62854bc2a3bb1ddef989b6b7","freq_resp","img/orange_2bandit_a.png","70","70","test","","","","7","",""
"null","326772","pSARL_v2","pSARL_v29b4716py","62854bc2a3bb1ddef989b6b7","fixation","img/fixation.png","null","","test","","","","","",""
"310.30000019073486","327088","pSARL_v2","pSARL_v29b4716py","62854bc2a3bb1ddef989b6b7","freq","img/orange_2bandit_a2.png","70","70","test","1","151","151","7","",""
"null","327597","pSARL_v2","pSARL_v29b4716py","62854bc2a3bb1ddef989b6b7","freq_resp","img/orange_2bandit_a.png","70","70","test","","","","7","",""
"null","327765","pSARL_v2","pSARL_v29b4716py","62854bc2a3bb1ddef989b6b7","fixation","img/fixation.png","null","","test","","","","","",""
"247.19999980926514","328022","pSARL_v2","pSARL_v29b4716py","62854bc2a3bb1ddef989b6b7","freq","img/orange_2bandit_a2.png","70","70","test","1","152","152","7","",""
"null","328589","pSARL_v2","pSARL_v29b4716py","62854bc2a3bb1ddef989b6b7","freq_resp","img/orange_2bandit_a.png","70","70","test","","","","7","",""
"null","328750","pSARL_v2","pSARL_v29b4716py","62854bc2a3bb1ddef989b6b7","fixation","img/fixation.png","null","","test","","","","","",""
"337","329092","pSARL_v2","pSARL_v29b4716py","62854bc2a3bb1ddef989b6b7","freq","img/orange_2bandit_a2.png","70","70","test","1","153","153","7","",""
"null","329565","pSARL_v2","pSARL_v29b4716py","62854bc2a3bb1ddef989b6b7","freq_resp","img/orange_2bandit_a.png","70","70","test","","","","7","",""
"null","329721","pSARL_v2","pSARL_v29b4716py","62854bc2a3bb1ddef989b6b7","fixation","img/fixation.png","null","","test","","","","","",""
"471.59999990463257","330203","pSARL_v2","pSARL_v29b4716py","62854bc2a3bb1ddef989b6b7","freq","img/orange_2bandit_a2.png","70","70","test","1","154","154","7","",""
"null","330552","pSARL_v2","pSARL_v29b4716py","62854bc2a3bb1ddef989b6b7","freq_resp","img/orange_2bandit_a.png","70","70","test","","","","7","",""
"null","330720","pSARL_v2","pSARL_v29b4716py","62854bc2a3bb1ddef989b6b7","fixation","img/fixation.png","null","","test","","","","","",""
"295.40000009536743","331025","pSARL_v2","pSARL_v29b4716py","62854bc2a3bb1ddef989b6b7","freq","img/orange_2bandit_a2.png","70","70","test","1","155","155","7","",""
"null","331549","pSARL_v2","pSARL_v29b4716py","62854bc2a3bb1ddef989b6b7","freq_resp","img/orange_2bandit_a.png","70","70","test","","","","7","",""
"null","331707","pSARL_v2","pSARL_v29b4716py","62854bc2a3bb1ddef989b6b7","fixation","img/fixation.png","null","","test","","","","","",""
"326.2000002861023","332038","pSARL_v2","pSARL_v29b4716py","62854bc2a3bb1ddef989b6b7","freq","img/orange_2bandit_a2.png","70","70","test","1","156","156","7","",""
"null","332553","pSARL_v2","pSARL_v29b4716py","62854bc2a3bb1ddef989b6b7","freq_resp","img/orange_2bandit_a.png","70","70","test","","","","7","",""
"null","332727","pSARL_v2","pSARL_v29b4716py","62854bc2a3bb1ddef989b6b7","fixation","img/fixation.png","null","","test","","","","","",""
"256.5","332988","pSARL_v2","pSARL_v29b4716py","62854bc2a3bb1ddef989b6b7","freq","img/orange_2bandit_a2.png","70","70","test","1","157","157","7","",""
"null","333544","pSARL_v2","pSARL_v29b4716py","62854bc2a3bb1ddef989b6b7","freq_resp","img/orange_2bandit_a.png","70","70","test","","","","7","",""
"null","333700","pSARL_v2","pSARL_v29b4716py","62854bc2a3bb1ddef989b6b7","fixation","img/fixation.png","null","","test","","","","","",""
"593.5999999046326","334303","pSARL_v2","pSARL_v29b4716py","62854bc2a3bb1ddef989b6b7","infreq","img/green_2bandit_a2.png","68","68","test","1","158","158","7","",""
"null","334527","pSARL_v2","pSARL_v29b4716py","62854bc2a3bb1ddef989b6b7","infreq_resp","img/green_2bandit_a.png","68","68","test","","","","7","",""
"null","334698","pSARL_v2","pSARL_v29b4716py","62854bc2a3bb1ddef989b6b7","fixation","img/fixation.png","null","","test","","","","","",""
"484","335187","pSARL_v2","pSARL_v29b4716py","62854bc2a3bb1ddef989b6b7","freq","img/orange_2bandit_a2.png","70","70","test","1","159","159","7","",""
"null","335510","pSARL_v2","pSARL_v29b4716py","62854bc2a3bb1ddef989b6b7","freq_resp","img/orange_2bandit_a.png","70","70","test","","","","7","",""
"null","335667","pSARL_v2","pSARL_v29b4716py","62854bc2a3bb1ddef989b6b7","fixation","img/fixation.png","null","","test","","","","","",""
"352.80000019073486","336025","pSARL_v2","pSARL_v29b4716py","62854bc2a3bb1ddef989b6b7","freq","img/orange_2bandit_a2.png","70","70","test","1","160","160","7","",""
"null","336482","pSARL_v2","pSARL_v29b4716py","62854bc2a3bb1ddef989b6b7","freq_resp","img/orange_2bandit_a.png","70","70","test","","","","7","",""
"null","336638","pSARL_v2","pSARL_v29b4716py","62854bc2a3bb1ddef989b6b7","fixation","img/fixation.png","null","","test","","","","","",""
"299.19999980926514","336942","pSARL_v2","pSARL_v29b4716py","62854bc2a3bb1ddef989b6b7","freq","img/orange_2bandit_a2.png","70","70","test","1","161","161","7","",""
"null","337453","pSARL_v2","pSARL_v29b4716py","62854bc2a3bb1ddef989b6b7","freq_resp","img/orange_2bandit_a.png","70","70","test","","","","7","",""
"null","337622","pSARL_v2","pSARL_v29b4716py","62854bc2a3bb1ddef989b6b7","fixation","img/fixation.png","null","","test","","","","","",""
"392.19999980926514","338025","pSARL_v2","pSARL_v29b4716py","62854bc2a3bb1ddef989b6b7","freq","img/orange_2bandit_a2.png","70","70","test","1","162","162","7","",""
"null","338450","pSARL_v2","pSARL_v29b4716py","62854bc2a3bb1ddef989b6b7","freq_resp","img/orange_2bandit_a.png","70","70","test","","","","7","",""
"null","338622","pSARL_v2","pSARL_v29b4716py","62854bc2a3bb1ddef989b6b7","fixation","img/fixation.png","null","","test","","","","","",""
"487.7999997138977","339120","pSARL_v2","pSARL_v29b4716py","62854bc2a3bb1ddef989b6b7","reward","img/slot.png","74","","test","","","","","",""
"null","339882","pSARL_v2","pSARL_v29b4716py","62854bc2a3bb1ddef989b6b7","points","<div class=""verylowPoints""> -6 </div>","null","na","test","","","","7","-6","6"
"451","340343","pSARL_v2","pSARL_v29b4716py","62854bc2a3bb1ddef989b6b7","freq","img/orange_2bandit_a2.png","70","70","test","1","163","163","8","",""
"null","340705","pSARL_v2","pSARL_v29b4716py","62854bc2a3bb1ddef989b6b7","freq_resp","img/orange_2bandit_a.png","70","70","test","","","","8","",""
"null","340876","pSARL_v2","pSARL_v29b4716py","62854bc2a3bb1ddef989b6b7","fixation","img/fixation.png","null","","test","","","","","",""
"352.40000009536743","341238","pSARL_v2","pSARL_v29b4716py","62854bc2a3bb1ddef989b6b7","freq","img/orange_2bandit_a2.png","70","70","test","1","164","164","8","",""
"null","341705","pSARL_v2","pSARL_v29b4716py","62854bc2a3bb1ddef989b6b7","freq_resp","img/orange_2bandit_a.png","70","70","test","","","","8","",""
"null","341865","pSARL_v2","pSARL_v29b4716py","62854bc2a3bb1ddef989b6b7","fixation","img/fixation.png","null","","test","","","","","",""
"321.5","342196","pSARL_v2","pSARL_v29b4716py","62854bc2a3bb1ddef989b6b7","freq","img/orange_2bandit_a2.png","70","70","test","1","165","165","8","",""
"null","342689","pSARL_v2","pSARL_v29b4716py","62854bc2a3bb1ddef989b6b7","freq_resp","img/orange_2bandit_a.png","70","70","test","","","","8","",""
"null","342852","pSARL_v2","pSARL_v29b4716py","62854bc2a3bb1ddef989b6b7","fixation","img/fixation.png","null","","test","","","","","",""
"324.7999997138977","343182","pSARL_v2","pSARL_v29b4716py","62854bc2a3bb1ddef989b6b7","freq","img/orange_2bandit_a2.png","70","70","test","1","166","166","8","",""
"null","343673","pSARL_v2","pSARL_v29b4716py","62854bc2a3bb1ddef989b6b7","freq_resp","img/orange_2bandit_a.png","70","70","test","","","","8","",""
"null","343846","pSARL_v2","pSARL_v29b4716py","62854bc2a3bb1ddef989b6b7","fixation","img/fixation.png","null","","test","","","","","",""
"158.90000009536743","344016","pSARL_v2","pSARL_v29b4716py","62854bc2a3bb1ddef989b6b7","freq","img/orange_2bandit_a2.png","70","70","test","1","167","167","8","",""
"null","344670","pSARL_v2","pSARL_v29b4716py","62854bc2a3bb1ddef989b6b7","freq_resp","img/orange_2bandit_a.png","70","70","test","","","","8","",""
"null","344842","pSARL_v2","pSARL_v29b4716py","62854bc2a3bb1ddef989b6b7","fixation","img/fixation.png","null","","test","","","","","",""
"123.7999997138977","344978","pSARL_v2","pSARL_v29b4716py","62854bc2a3bb1ddef989b6b7","freq","img/orange_2bandit_a2.png","70","70","test","1","168","168","8","",""
"null","345681","pSARL_v2","pSARL_v29b4716py","62854bc2a3bb1ddef989b6b7","freq_resp","img/orange_2bandit_a.png","70","70","test","","","","8","",""
"null","345854","pSARL_v2","pSARL_v29b4716py","62854bc2a3bb1ddef989b6b7","fixation","img/fixation.png","null","","test","","","","","",""
"412.1000003814697","346277","pSARL_v2","pSARL_v29b4716py","62854bc2a3bb1ddef989b6b7","freq","img/orange_2bandit_a2.png","70","70","test","1","169","169","8","",""
"null","346674","pSARL_v2","pSARL_v29b4716py","62854bc2a3bb1ddef989b6b7","freq_resp","img/orange_2bandit_a.png","70","70","test","","","","8","",""
"null","346835","pSARL_v2","pSARL_v29b4716py","62854bc2a3bb1ddef989b6b7","fixation","img/fixation.png","null","","test","","","","","",""
"330.30000019073486","347175","pSARL_v2","pSARL_v29b4716py","62854bc2a3bb1ddef989b6b7","freq","img/orange_2bandit_a2.png","70","70","test","1","170","170","8","",""
"null","347657","pSARL_v2","pSARL_v29b4716py","62854bc2a3bb1ddef989b6b7","freq_resp","img/orange_2bandit_a.png","70","70","test","","","","8","",""
"null","347840","pSARL_v2","pSARL_v29b4716py","62854bc2a3bb1ddef989b6b7","fixation","img/fixation.png","null","","test","","","","","",""
"318.8999996185303","348167","pSARL_v2","pSARL_v29b4716py","62854bc2a3bb1ddef989b6b7","freq","img/orange_2bandit_a2.png","70","70","test","1","171","171","8","",""
"null","348667","pSARL_v2","pSARL_v29b4716py","62854bc2a3bb1ddef989b6b7","freq_resp","img/orange_2bandit_a.png","70","70","test","","","","8","",""
"null","348838","pSARL_v2","pSARL_v29b4716py","62854bc2a3bb1ddef989b6b7","fixation","img/fixation.png","null","","test","","","","","",""
"332.59999990463257","349176","pSARL_v2","pSARL_v29b4716py","62854bc2a3bb1ddef989b6b7","freq","img/orange_2bandit_a2.png","70","70","test","1","172","172","8","",""
"null","349650","pSARL_v2","pSARL_v29b4716py","62854bc2a3bb1ddef989b6b7","freq_resp","img/orange_2bandit_a.png","70","70","test","","","","8","",""
"null","349820","pSARL_v2","pSARL_v29b4716py","62854bc2a3bb1ddef989b6b7","fixation","img/fixation.png","null","","test","","","","","",""
"569.6999998092651","350395","pSARL_v2","pSARL_v29b4716py","62854bc2a3bb1ddef989b6b7","infreq","img/green_2bandit_a2.png","68","68","test","1","173","173","8","",""
"null","350640","pSARL_v2","pSARL_v29b4716py","62854bc2a3bb1ddef989b6b7","infreq_resp","img/green_2bandit_a.png","68","68","test","","","","8","",""
"null","350797","pSARL_v2","pSARL_v29b4716py","62854bc2a3bb1ddef989b6b7","fixation","img/fixation.png","null","","test","","","","","",""
"411.59999990463257","351213","pSARL_v2","pSARL_v29b4716py","62854bc2a3bb1ddef989b6b7","freq","img/orange_2bandit_a2.png","70","70","test","1","174","174","8","",""
"null","351612","pSARL_v2","pSARL_v29b4716py","62854bc2a3bb1ddef989b6b7","freq_resp","img/orange_2bandit_a.png","70","70","test","","","","8","",""
"null","351779","pSARL_v2","pSARL_v29b4716py","62854bc2a3bb1ddef989b6b7","fixation","img/fixation.png","null","","test","","","","","",""
"370.7999997138977","352159","pSARL_v2","pSARL_v29b4716py","62854bc2a3bb1ddef989b6b7","freq","img/orange_2bandit_a2.png","70","70","test","1","175","175","8","",""
"null","352605","pSARL_v2","pSARL_v29b4716py","62854bc2a3bb1ddef989b6b7","freq_resp","img/orange_2bandit_a.png","70","70","test","","","","8","",""
"null","352776","pSARL_v2","pSARL_v29b4716py","62854bc2a3bb1ddef989b6b7","fixation","img/fixation.png","null","","test","","","","","",""
"365.1000003814697","353148","pSARL_v2","pSARL_v29b4716py","62854bc2a3bb1ddef989b6b7","freq","img/orange_2bandit_a2.png","70","70","test","1","176","176","8","",""
"null","353604","pSARL_v2","pSARL_v29b4716py","62854bc2a3bb1ddef989b6b7","freq_resp","img/orange_2bandit_a.png","70","70","test","","","","8","",""
"null","353795","pSARL_v2","pSARL_v29b4716py","62854bc2a3bb1ddef989b6b7","fixation","img/fixation.png","null","","test","","","","","",""
"420.40000009536743","354226","pSARL_v2","pSARL_v29b4716py","62854bc2a3bb1ddef989b6b7","freq","img/orange_2bandit_a2.png","70","70","test","1","177","177","8","",""
"null","354622","pSARL_v2","pSARL_v29b4716py","62854bc2a3bb1ddef989b6b7","freq_resp","img/orange_2bandit_a.png","70","70","test","","","","8","",""
"null","354797","pSARL_v2","pSARL_v29b4716py","62854bc2a3bb1ddef989b6b7","fixation","img/fixation.png","null","","test","","","","","",""
"498.2000002861023","355307","pSARL_v2","pSARL_v29b4716py","62854bc2a3bb1ddef989b6b7","infreq","img/green_2bandit_a2.png","68","68","test","1","178","178","8","",""
"null","355622","pSARL_v2","pSARL_v29b4716py","62854bc2a3bb1ddef989b6b7","infreq_resp","img/green_2bandit_a.png","68","68","test","","","","8","",""
"null","355781","pSARL_v2","pSARL_v29b4716py","62854bc2a3bb1ddef989b6b7","fixation","img/fixation.png","null","","test","","","","","",""
"585.7000002861023","356377","pSARL_v2","pSARL_v29b4716py","62854bc2a3bb1ddef989b6b7","freq","img/orange_2bandit_a2.png","70","70","test","1","179","179","8","",""
"null","356604","pSARL_v2","pSARL_v29b4716py","62854bc2a3bb1ddef989b6b7","freq_resp","img/orange_2bandit_a.png","70","70","test","","","","8","",""
"null","356783","pSARL_v2","pSARL_v29b4716py","62854bc2a3bb1ddef989b6b7","fixation","img/fixation.png","null","","test","","","","","",""
"365.40000009536743","357153","pSARL_v2","pSARL_v29b4716py","62854bc2a3bb1ddef989b6b7","freq","img/orange_2bandit_a2.png","70","70","test","1","180","180","8","",""
"null","357594","pSARL_v2","pSARL_v29b4716py","62854bc2a3bb1ddef989b6b7","freq_resp","img/orange_2bandit_a.png","70","70","test","","","","8","",""
"null","357768","pSARL_v2","pSARL_v29b4716py","62854bc2a3bb1ddef989b6b7","fixation","img/fixation.png","null","","test","","","","","",""
"308.59999990463257","358082","pSARL_v2","pSARL_v29b4716py","62854bc2a3bb1ddef989b6b7","freq","img/orange_2bandit_a2.png","70","70","test","1","181","181","8","",""
"null","358586","pSARL_v2","pSARL_v29b4716py","62854bc2a3bb1ddef989b6b7","freq_resp","img/orange_2bandit_a.png","70","70","test","","","","8","",""
"null","358752","pSARL_v2","pSARL_v29b4716py","62854bc2a3bb1ddef989b6b7","fixation","img/fixation.png","null","","test","","","","","",""
"366.2000002861023","359126","pSARL_v2","pSARL_v29b4716py","62854bc2a3bb1ddef989b6b7","freq","img/orange_2bandit_a2.png","70","70","test","1","182","182","8","",""
"null","359574","pSARL_v2","pSARL_v29b4716py","62854bc2a3bb1ddef989b6b7","freq_resp","img/orange_2bandit_a.png","70","70","test","","","","8","",""
"null","359740","pSARL_v2","pSARL_v29b4716py","62854bc2a3bb1ddef989b6b7","fixation","img/fixation.png","null","","test","","","","","",""
"361.19999980926514","360111","pSARL_v2","pSARL_v29b4716py","62854bc2a3bb1ddef989b6b7","freq","img/orange_2bandit_a2.png","70","70","test","1","183","183","8","",""
"null","360566","pSARL_v2","pSARL_v29b4716py","62854bc2a3bb1ddef989b6b7","freq_resp","img/orange_2bandit_a.png","70","70","test","","","","8","",""
"null","360737","pSARL_v2","pSARL_v29b4716py","62854bc2a3bb1ddef989b6b7","fixation","img/fixation.png","null","","test","","","","","",""
"340.59999990463257","361088","pSARL_v2","pSARL_v29b4716py","62854bc2a3bb1ddef989b6b7","freq","img/orange_2bandit_a2.png","70","70","test","1","184","184","8","",""
"null","361572","pSARL_v2","pSARL_v29b4716py","62854bc2a3bb1ddef989b6b7","freq_resp","img/orange_2bandit_a.png","70","70","test","","","","8","",""
"null","361743","pSARL_v2","pSARL_v29b4716py","62854bc2a3bb1ddef989b6b7","fixation","img/fixation.png","null","","test","","","","","",""
"315.90000009536743","362070","pSARL_v2","pSARL_v29b4716py","62854bc2a3bb1ddef989b6b7","freq","img/orange_2bandit_a2.png","70","70","test","1","185","185","8","",""
"null","362567","pSARL_v2","pSARL_v29b4716py","62854bc2a3bb1ddef989b6b7","freq_resp","img/orange_2bandit_a.png","70","70","test","","","","8","",""
"null","362737","pSARL_v2","pSARL_v29b4716py","62854bc2a3bb1ddef989b6b7","fixation","img/fixation.png","null","","test","","","","","",""
"166.40000009536743","362913","pSARL_v2","pSARL_v29b4716py","62854bc2a3bb1ddef989b6b7","freq","img/orange_2bandit_a2.png","70","70","test","1","186","186","8","",""
"null","363565","pSARL_v2","pSARL_v29b4716py","62854bc2a3bb1ddef989b6b7","freq_resp","img/orange_2bandit_a.png","70","70","test","","","","8","",""
"null","363724","pSARL_v2","pSARL_v29b4716py","62854bc2a3bb1ddef989b6b7","fixation","img/fixation.png","null","","test","","","","","",""
"177","363914","pSARL_v2","pSARL_v29b4716py","62854bc2a3bb1ddef989b6b7","freq","img/orange_2bandit_a2.png","70","70","test","1","187","187","8","",""
"null","364568","pSARL_v2","pSARL_v29b4716py","62854bc2a3bb1ddef989b6b7","freq_resp","img/orange_2bandit_a.png","70","70","test","","","","8","",""
"null","364745","pSARL_v2","pSARL_v29b4716py","62854bc2a3bb1ddef989b6b7","fixation","img/fixation.png","null","","test","","","","","",""
"561","365317","pSARL_v2","pSARL_v29b4716py","62854bc2a3bb1ddef989b6b7","reward","img/slot.png","74","","test","","","","","",""
"null","366081","pSARL_v2","pSARL_v29b4716py","62854bc2a3bb1ddef989b6b7","points","<div class=""verylowPoints""> -4 </div>","null","na","test","","","","8","-4","7"
"null","366901","pSARL_v2","pSARL_v29b4716py","62854bc2a3bb1ddef989b6b7","freq","img/orange_2bandit_a2.png","null","70","test","0","188","188","9","",""
"null","367061","pSARL_v2","pSARL_v29b4716py","62854bc2a3bb1ddef989b6b7","fixation","img/fixation.png","null","","test","","","","","",""
"713.0999999046326","367784","pSARL_v2","pSARL_v29b4716py","62854bc2a3bb1ddef989b6b7","freq","img/orange_2bandit_a2.png","70","70","test","1","189","189","9","",""
"null","367881","pSARL_v2","pSARL_v29b4716py","62854bc2a3bb1ddef989b6b7","freq_resp","img/orange_2bandit_a.png","70","70","test","","","","9","",""
"null","368043","pSARL_v2","pSARL_v29b4716py","62854bc2a3bb1ddef989b6b7","fixation","img/fixation.png","null","","test","","","","","",""
"427","368477","pSARL_v2","pSARL_v29b4716py","62854bc2a3bb1ddef989b6b7","freq","img/orange_2bandit_a2.png","70","70","test","1","190","190","9","",""
"null","368866","pSARL_v2","pSARL_v29b4716py","62854bc2a3bb1ddef989b6b7","freq_resp","img/orange_2bandit_a.png","70","70","test","","","","9","",""
"null","369028","pSARL_v2","pSARL_v29b4716py","62854bc2a3bb1ddef989b6b7","fixation","img/fixation.png","null","","test","","","","","",""
"304.2000002861023","369342","pSARL_v2","pSARL_v29b4716py","62854bc2a3bb1ddef989b6b7","freq","img/orange_2bandit_a2.png","70","70","test","1","191","191","9","",""
"null","369862","pSARL_v2","pSARL_v29b4716py","62854bc2a3bb1ddef989b6b7","freq_resp","img/orange_2bandit_a.png","70","70","test","","","","9","",""
"null","370061","pSARL_v2","pSARL_v29b4716py","62854bc2a3bb1ddef989b6b7","fixation","img/fixation.png","null","","test","","","","","",""
"317.5","370389","pSARL_v2","pSARL_v29b4716py","62854bc2a3bb1ddef989b6b7","freq","img/orange_2bandit_a2.png","70","70","test","1","192","192","9","",""
"null","370888","pSARL_v2","pSARL_v29b4716py","62854bc2a3bb1ddef989b6b7","freq_resp","img/orange_2bandit_a.png","70","70","test","","","","9","",""
"null","371068","pSARL_v2","pSARL_v29b4716py","62854bc2a3bb1ddef989b6b7","fixation","img/fixation.png","null","","test","","","","","",""
"281.3999996185303","371359","pSARL_v2","pSARL_v29b4716py","62854bc2a3bb1ddef989b6b7","freq","img/orange_2bandit_a2.png","70","70","test","1","193","193","9","",""
"null","371899","pSARL_v2","pSARL_v29b4716py","62854bc2a3bb1ddef989b6b7","freq_resp","img/orange_2bandit_a.png","70","70","test","","","","9","",""
"null","372057","pSARL_v2","pSARL_v29b4716py","62854bc2a3bb1ddef989b6b7","fixation","img/fixation.png","null","","test","","","","","",""
"323.3999996185303","372387","pSARL_v2","pSARL_v29b4716py","62854bc2a3bb1ddef989b6b7","freq","img/orange_2bandit_a2.png","70","70","test","1","194","194","9","",""
"null","372877","pSARL_v2","pSARL_v29b4716py","62854bc2a3bb1ddef989b6b7","freq_resp","img/orange_2bandit_a.png","70","70","test","","","","9","",""
"null","373053","pSARL_v2","pSARL_v29b4716py","62854bc2a3bb1ddef989b6b7","fixation","img/fixation.png","null","","test","","","","","",""
"316.30000019073486","373377","pSARL_v2","pSARL_v29b4716py","62854bc2a3bb1ddef989b6b7","freq","img/orange_2bandit_a2.png","70","70","test","1","195","195","9","",""
"null","373874","pSARL_v2","pSARL_v29b4716py","62854bc2a3bb1ddef989b6b7","freq_resp","img/orange_2bandit_a.png","70","70","test","","","","9","",""
"null","374045","pSARL_v2","pSARL_v29b4716py","62854bc2a3bb1ddef989b6b7","fixation","img/fixation.png","null","","test","","","","","",""
"331.2000002861023","374387","pSARL_v2","pSARL_v29b4716py","62854bc2a3bb1ddef989b6b7","freq","img/orange_2bandit_a2.png","70","70","test","1","196","196","9","",""
"null","374880","pSARL_v2","pSARL_v29b4716py","62854bc2a3bb1ddef989b6b7","freq_resp","img/orange_2bandit_a.png","70","70","test","","","","9","",""
"null","375042","pSARL_v2","pSARL_v29b4716py","62854bc2a3bb1ddef989b6b7","fixation","img/fixation.png","null","","test","","","","","",""
"295.30000019073486","375348","pSARL_v2","pSARL_v29b4716py","62854bc2a3bb1ddef989b6b7","freq","img/orange_2bandit_a2.png","70","70","test","1","197","197","9","",""
"null","375869","pSARL_v2","pSARL_v29b4716py","62854bc2a3bb1ddef989b6b7","freq_resp","img/orange_2bandit_a.png","70","70","test","","","","9","",""
"null","376040","pSARL_v2","pSARL_v29b4716py","62854bc2a3bb1ddef989b6b7","fixation","img/fixation.png","null","","test","","","","","",""
"324.59999990463257","376375","pSARL_v2","pSARL_v29b4716py","62854bc2a3bb1ddef989b6b7","freq","img/orange_2bandit_a2.png","70","70","test","1","198","198","9","",""
"null","376866","pSARL_v2","pSARL_v29b4716py","62854bc2a3bb1ddef989b6b7","freq_resp","img/orange_2bandit_a.png","70","70","test","","","","9","",""
"null","377027","pSARL_v2","pSARL_v29b4716py","62854bc2a3bb1ddef989b6b7","fixation","img/fixation.png","null","","test","","","","","",""
"252.2999997138977","377284","pSARL_v2","pSARL_v29b4716py","62854bc2a3bb1ddef989b6b7","infreq","img/green_2bandit_a2.png","70","68","test","0","199","199","9","",""
"null","377852","pSARL_v2","pSARL_v29b4716py","62854bc2a3bb1ddef989b6b7","infreq_resp","img/green_2bandit_a.png","70","68","test","","","","9","",""
"null","378023","pSARL_v2","pSARL_v29b4716py","62854bc2a3bb1ddef989b6b7","fixation","img/fixation.png","null","","test","","","","","",""
"479.7000002861023","378512","pSARL_v2","pSARL_v29b4716py","62854bc2a3bb1ddef989b6b7","freq","img/orange_2bandit_a2.png","70","70","test","1","200","200","9","",""
"null","378852","pSARL_v2","pSARL_v29b4716py","62854bc2a3bb1ddef989b6b7","freq_resp","img/orange_2bandit_a.png","70","70","test","","","","9","",""
"null","379020","pSARL_v2","pSARL_v29b4716py","62854bc2a3bb1ddef989b6b7","fixation","img/fixation.png","null","","test","","","","","",""
"325.09999990463257","379355","pSARL_v2","pSARL_v29b4716py","62854bc2a3bb1ddef989b6b7","freq","img/orange_2bandit_a2.png","70","70","test","1","201","201","9","",""
"null","379847","pSARL_v2","pSARL_v29b4716py","62854bc2a3bb1ddef989b6b7","freq_resp","img/orange_2bandit_a.png","70","70","test","","","","9","",""
"null","380013","pSARL_v2","pSARL_v29b4716py","62854bc2a3bb1ddef989b6b7","fixation","img/fixation.png","null","","test","","","","","",""
"322.2999997138977","380347","pSARL_v2","pSARL_v29b4716py","62854bc2a3bb1ddef989b6b7","freq","img/orange_2bandit_a2.png","70","70","test","1","202","202","9","",""
"null","380855","pSARL_v2","pSARL_v29b4716py","62854bc2a3bb1ddef989b6b7","freq_resp","img/orange_2bandit_a.png","70","70","test","","","","9","",""
"null","381027","pSARL_v2","pSARL_v29b4716py","62854bc2a3bb1ddef989b6b7","fixation","img/fixation.png","null","","test","","","","","",""
"332.59999990463257","381370","pSARL_v2","pSARL_v29b4716py","62854bc2a3bb1ddef989b6b7","freq","img/orange_2bandit_a2.png","70","70","test","1","203","203","9","",""
"null","381856","pSARL_v2","pSARL_v29b4716py","62854bc2a3bb1ddef989b6b7","freq_resp","img/orange_2bandit_a.png","70","70","test","","","","9","",""
"null","382026","pSARL_v2","pSARL_v29b4716py","62854bc2a3bb1ddef989b6b7","fixation","img/fixation.png","null","","test","","","","","",""
"185.19999980926514","382217","pSARL_v2","pSARL_v29b4716py","62854bc2a3bb1ddef989b6b7","freq","img/orange_2bandit_a2.png","70","70","test","1","204","204","9","",""
"null","382854","pSARL_v2","pSARL_v29b4716py","62854bc2a3bb1ddef989b6b7","freq_resp","img/orange_2bandit_a.png","70","70","test","","","","9","",""
"null","383027","pSARL_v2","pSARL_v29b4716py","62854bc2a3bb1ddef989b6b7","fixation","img/fixation.png","null","","test","","","","","",""
"462","383494","pSARL_v2","pSARL_v29b4716py","62854bc2a3bb1ddef989b6b7","infreq","img/green_2bandit_a2.png","68","68","test","1","205","205","9","",""
"null","383840","pSARL_v2","pSARL_v29b4716py","62854bc2a3bb1ddef989b6b7","infreq_resp","img/green_2bandit_a.png","68","68","test","","","","9","",""
"null","384022","pSARL_v2","pSARL_v29b4716py","62854bc2a3bb1ddef989b6b7","fixation","img/fixation.png","null","","test","","","","","",""
"331.90000009536743","384359","pSARL_v2","pSARL_v29b4716py","62854bc2a3bb1ddef989b6b7","freq","img/orange_2bandit_a2.png","70","70","test","1","206","206","9","",""
"null","384842","pSARL_v2","pSARL_v29b4716py","62854bc2a3bb1ddef989b6b7","freq_resp","img/orange_2bandit_a.png","70","70","test","","","","9","",""
"null","385003","pSARL_v2","pSARL_v29b4716py","62854bc2a3bb1ddef989b6b7","fixation","img/fixation.png","null","","test","","","","","",""
"312.5","385320","pSARL_v2","pSARL_v29b4716py","62854bc2a3bb1ddef989b6b7","freq","img/orange_2bandit_a2.png","70","70","test","1","207","207","9","",""
"null","385817","pSARL_v2","pSARL_v29b4716py","62854bc2a3bb1ddef989b6b7","freq_resp","img/orange_2bandit_a.png","70","70","test","","","","9","",""
"null","386012","pSARL_v2","pSARL_v29b4716py","62854bc2a3bb1ddef989b6b7","fixation","img/fixation.png","null","","test","","","","","",""
"90.30000019073486","386107","pSARL_v2","pSARL_v29b4716py","62854bc2a3bb1ddef989b6b7","freq","img/orange_2bandit_a2.png","70","70","test","1","208","208","9","",""
