"rt","time_elapsed","expId","subject","prolificID","trialType","stimulus","key_press","corrresp","phase","corr","trialNum","attentionRunNum","blockNum","points","rlNum"
"34073.60000014305","34090","pSARL_v2","pSARL_v2cnoya3kk","5ac4c730f69e940001d977e1","","","","","","","","","","",""
"","37298","pSARL_v2","pSARL_v2cnoya3kk","5ac4c730f69e940001d977e1","fullscreen","","","","","","","","","",""
"38110.699999809265","75419","pSARL_v2","pSARL_v2cnoya3kk","5ac4c730f69e940001d977e1","","","","","","","","","","",""
"null","76235","pSARL_v2","pSARL_v2cnoya3kk","5ac4c730f69e940001d977e1","freqPrac","img/green_2bandit_b2.png","null","70","prac","0","","","","",""
"null","77245","pSARL_v2","pSARL_v2cnoya3kk","5ac4c730f69e940001d977e1","feedback","img/tooSlow.png","null","na","prac","","","","","",""
"null","77411","pSARL_v2","pSARL_v2cnoya3kk","5ac4c730f69e940001d977e1","fixation","img/fixation.png","null","","prac","","","","","",""
"428.5","77846","pSARL_v2","pSARL_v2cnoya3kk","5ac4c730f69e940001d977e1","infreqPrac","img/orange_2bandit_b2.png","70","68","prac","0","","","","",""
"428.5","78232","pSARL_v2","pSARL_v2cnoya3kk","5ac4c730f69e940001d977e1","infreqPrac_resp","img/orange_2bandit_b.png","70","68","prac","","","","","",""
"null","79254","pSARL_v2","pSARL_v2cnoya3kk","5ac4c730f69e940001d977e1","feedback","img/wrongKey.png","null","na","prac","","","","","",""
"null","79414","pSARL_v2","pSARL_v2cnoya3kk","5ac4c730f69e940001d977e1","fixation","img/fixation.png","null","","prac","","","","","",""
"408.60000014305115","79832","pSARL_v2","pSARL_v2cnoya3kk","5ac4c730f69e940001d977e1","freqPrac","img/green_2bandit_b2.png","68","70","prac","0","","","","",""
"408.60000014305115","80245","pSARL_v2","pSARL_v2cnoya3kk","5ac4c730f69e940001d977e1","freqPrac_resp","img/green_2bandit_b.png","68","70","prac","","","","","",""
"null","81289","pSARL_v2","pSARL_v2cnoya3kk","5ac4c730f69e940001d977e1","feedback","img/wrongKey.png","null","na","prac","","","","","",""
"null","81461","pSARL_v2","pSARL_v2cnoya3kk","5ac4c730f69e940001d977e1","fixation","img/fixation.png","null","","prac","","","","","",""
"421.59999990463257","81889","pSARL_v2","pSARL_v2cnoya3kk","5ac4c730f69e940001d977e1","infreqPrac","img/orange_2bandit_b2.png","68","68","prac","1","","","","",""
"421.59999990463257","82287","pSARL_v2","pSARL_v2cnoya3kk","5ac4c730f69e940001d977e1","infreqPrac_resp","img/orange_2bandit_b.png","68","68","prac","","","","","",""
"null","82460","pSARL_v2","pSARL_v2cnoya3kk","5ac4c730f69e940001d977e1","fixation","img/fixation.png","null","","prac","","","","","",""
"477.90000009536743","82946","pSARL_v2","pSARL_v2cnoya3kk","5ac4c730f69e940001d977e1","infreqPrac","img/orange_2bandit_b2.png","68","68","prac","1","","","","",""
"477.90000009536743","83283","pSARL_v2","pSARL_v2cnoya3kk","5ac4c730f69e940001d977e1","infreqPrac_resp","img/orange_2bandit_b.png","68","68","prac","","","","","",""
"null","83455","pSARL_v2","pSARL_v2cnoya3kk","5ac4c730f69e940001d977e1","fixation","img/fixation.png","null","","prac","","","","","",""
"342.7999999523163","83805","pSARL_v2","pSARL_v2cnoya3kk","5ac4c730f69e940001d977e1","infreqPrac","img/orange_2bandit_b2.png","68","68","prac","1","","","","",""
"342.7999999523163","84272","pSARL_v2","pSARL_v2cnoya3kk","5ac4c730f69e940001d977e1","infreqPrac_resp","img/orange_2bandit_b.png","68","68","prac","","","","","",""
"null","84438","pSARL_v2","pSARL_v2cnoya3kk","5ac4c730f69e940001d977e1","fixation","img/fixation.png","null","","prac","","","","","",""
"398.2999999523163","84844","pSARL_v2","pSARL_v2cnoya3kk","5ac4c730f69e940001d977e1","freqPrac","img/green_2bandit_b2.png","70","70","prac","1","","","","",""
"398.2999999523163","85261","pSARL_v2","pSARL_v2cnoya3kk","5ac4c730f69e940001d977e1","freqPrac_resp","img/green_2bandit_b.png","70","70","prac","","","","","",""
"null","85422","pSARL_v2","pSARL_v2cnoya3kk","5ac4c730f69e940001d977e1","fixation","img/fixation.png","null","","prac","","","","","",""
"368.60000014305115","85799","pSARL_v2","pSARL_v2cnoya3kk","5ac4c730f69e940001d977e1","infreqPrac","img/orange_2bandit_b2.png","68","68","prac","1","","","","",""
"368.60000014305115","86244","pSARL_v2","pSARL_v2cnoya3kk","5ac4c730f69e940001d977e1","infreqPrac_resp","img/orange_2bandit_b.png","68","68","prac","","","","","",""
"null","86405","pSARL_v2","pSARL_v2cnoya3kk","5ac4c730f69e940001d977e1","fixation","img/fixation.png","null","","prac","","","","","",""
"407.19999980926514","86820","pSARL_v2","pSARL_v2cnoya3kk","5ac4c730f69e940001d977e1","freqPrac","img/green_2bandit_b2.png","70","70","prac","1","","","","",""
"407.19999980926514","87220","pSARL_v2","pSARL_v2cnoya3kk","5ac4c730f69e940001d977e1","freqPrac_resp","img/green_2bandit_b.png","70","70","prac","","","","","",""
"null","87387","pSARL_v2","pSARL_v2cnoya3kk","5ac4c730f69e940001d977e1","fixation","img/fixation.png","null","","prac","","","","","",""
"352.59999990463257","87747","pSARL_v2","pSARL_v2cnoya3kk","5ac4c730f69e940001d977e1","freqPrac","img/green_2bandit_b2.png","70","70","prac","1","","","","",""
"352.59999990463257","88209","pSARL_v2","pSARL_v2cnoya3kk","5ac4c730f69e940001d977e1","freqPrac_resp","img/green_2bandit_b.png","70","70","prac","","","","","",""
"null","88373","pSARL_v2","pSARL_v2cnoya3kk","5ac4c730f69e940001d977e1","fixation","img/fixation.png","null","","prac","","","","","",""
"67505.40000009537","155890","pSARL_v2","pSARL_v2cnoya3kk","5ac4c730f69e940001d977e1","","","","","prac","","","","","",""
"712","156609","pSARL_v2","pSARL_v2cnoya3kk","5ac4c730f69e940001d977e1","rewardPractice","img/slot.png","74","","prac","","","","","",""
"null","157370","pSARL_v2","pSARL_v2cnoya3kk","5ac4c730f69e940001d977e1","feedback","<div class=""veryhighPoints""> +15 </div>","null","na","prac","","","","","",""
"null","157537","pSARL_v2","pSARL_v2cnoya3kk","5ac4c730f69e940001d977e1","fixation","img/fixation.png","null","","prac","","","","","",""
"9876.900000095367","167421","pSARL_v2","pSARL_v2cnoya3kk","5ac4c730f69e940001d977e1","","","","","prac","","","","","",""
"null","168237","pSARL_v2","pSARL_v2cnoya3kk","5ac4c730f69e940001d977e1","freq","img/green_2bandit_b2.png","null","70","test","0","1","1","1","",""
"null","168404","pSARL_v2","pSARL_v2cnoya3kk","5ac4c730f69e940001d977e1","fixation","img/fixation.png","null","","test","","","","","",""
"595.5999999046326","169008","pSARL_v2","pSARL_v2cnoya3kk","5ac4c730f69e940001d977e1","freq","img/green_2bandit_b2.png","70","70","test","1","2","2","1","",""
"null","169222","pSARL_v2","pSARL_v2cnoya3kk","5ac4c730f69e940001d977e1","freq_resp","img/green_2bandit_b.png","70","70","test","","","","1","",""
"null","169389","pSARL_v2","pSARL_v2cnoya3kk","5ac4c730f69e940001d977e1","fixation","img/fixation.png","null","","test","","","","","",""
"400.89999985694885","169796","pSARL_v2","pSARL_v2cnoya3kk","5ac4c730f69e940001d977e1","freq","img/green_2bandit_b2.png","70","70","test","1","3","3","1","",""
"null","170209","pSARL_v2","pSARL_v2cnoya3kk","5ac4c730f69e940001d977e1","freq_resp","img/green_2bandit_b.png","70","70","test","","","","1","",""
"null","170370","pSARL_v2","pSARL_v2cnoya3kk","5ac4c730f69e940001d977e1","fixation","img/fixation.png","null","","test","","","","","",""
"357","170734","pSARL_v2","pSARL_v2cnoya3kk","5ac4c730f69e940001d977e1","freq","img/green_2bandit_b2.png","70","70","test","1","4","4","1","",""
"null","171189","pSARL_v2","pSARL_v2cnoya3kk","5ac4c730f69e940001d977e1","freq_resp","img/green_2bandit_b.png","70","70","test","","","","1","",""
"null","171354","pSARL_v2","pSARL_v2cnoya3kk","5ac4c730f69e940001d977e1","fixation","img/fixation.png","null","","test","","","","","",""
"422.7999999523163","171785","pSARL_v2","pSARL_v2cnoya3kk","5ac4c730f69e940001d977e1","freq","img/green_2bandit_b2.png","70","70","test","1","5","5","1","",""
"null","172178","pSARL_v2","pSARL_v2cnoya3kk","5ac4c730f69e940001d977e1","freq_resp","img/green_2bandit_b.png","70","70","test","","","","1","",""
"null","172337","pSARL_v2","pSARL_v2cnoya3kk","5ac4c730f69e940001d977e1","fixation","img/fixation.png","null","","test","","","","","",""
"349.2000000476837","172694","pSARL_v2","pSARL_v2cnoya3kk","5ac4c730f69e940001d977e1","freq","img/green_2bandit_b2.png","70","70","test","1","6","6","1","",""
"null","173157","pSARL_v2","pSARL_v2cnoya3kk","5ac4c730f69e940001d977e1","freq_resp","img/green_2bandit_b.png","70","70","test","","","","1","",""
"null","173322","pSARL_v2","pSARL_v2cnoya3kk","5ac4c730f69e940001d977e1","fixation","img/fixation.png","null","","test","","","","","",""
"378.10000014305115","173707","pSARL_v2","pSARL_v2cnoya3kk","5ac4c730f69e940001d977e1","infreq","img/orange_2bandit_b2.png","68","68","test","1","7","7","1","",""
"null","174137","pSARL_v2","pSARL_v2cnoya3kk","5ac4c730f69e940001d977e1","infreq_resp","img/orange_2bandit_b.png","68","68","test","","","","1","",""
"null","174304","pSARL_v2","pSARL_v2cnoya3kk","5ac4c730f69e940001d977e1","fixation","img/fixation.png","null","","test","","","","","",""
"403.89999985694885","174715","pSARL_v2","pSARL_v2cnoya3kk","5ac4c730f69e940001d977e1","freq","img/green_2bandit_b2.png","70","70","test","1","8","8","1","",""
"null","175123","pSARL_v2","pSARL_v2cnoya3kk","5ac4c730f69e940001d977e1","freq_resp","img/green_2bandit_b.png","70","70","test","","","","1","",""
"null","175286","pSARL_v2","pSARL_v2cnoya3kk","5ac4c730f69e940001d977e1","fixation","img/fixation.png","null","","test","","","","","",""
"313.19999980926514","175607","pSARL_v2","pSARL_v2cnoya3kk","5ac4c730f69e940001d977e1","freq","img/green_2bandit_b2.png","70","70","test","1","9","9","1","",""
"null","176112","pSARL_v2","pSARL_v2cnoya3kk","5ac4c730f69e940001d977e1","freq_resp","img/green_2bandit_b.png","70","70","test","","","","1","",""
"null","176277","pSARL_v2","pSARL_v2cnoya3kk","5ac4c730f69e940001d977e1","fixation","img/fixation.png","null","","test","","","","","",""
"367.2999999523163","176651","pSARL_v2","pSARL_v2cnoya3kk","5ac4c730f69e940001d977e1","freq","img/green_2bandit_b2.png","70","70","test","1","10","10","1","",""
"null","177106","pSARL_v2","pSARL_v2cnoya3kk","5ac4c730f69e940001d977e1","freq_resp","img/green_2bandit_b.png","70","70","test","","","","1","",""
"null","177269","pSARL_v2","pSARL_v2cnoya3kk","5ac4c730f69e940001d977e1","fixation","img/fixation.png","null","","test","","","","","",""
"366.7999999523163","177644","pSARL_v2","pSARL_v2cnoya3kk","5ac4c730f69e940001d977e1","freq","img/green_2bandit_b2.png","70","70","test","1","11","11","1","",""
"null","178089","pSARL_v2","pSARL_v2cnoya3kk","5ac4c730f69e940001d977e1","freq_resp","img/green_2bandit_b.png","70","70","test","","","","1","",""
"null","178260","pSARL_v2","pSARL_v2cnoya3kk","5ac4c730f69e940001d977e1","fixation","img/fixation.png","null","","test","","","","","",""
"311.39999985694885","178579","pSARL_v2","pSARL_v2cnoya3kk","5ac4c730f69e940001d977e1","freq","img/green_2bandit_b2.png","70","70","test","1","12","12","1","",""
"null","179089","pSARL_v2","pSARL_v2cnoya3kk","5ac4c730f69e940001d977e1","freq_resp","img/green_2bandit_b.png","70","70","test","","","","1","",""
"null","179261","pSARL_v2","pSARL_v2cnoya3kk","5ac4c730f69e940001d977e1","fixation","img/fixation.png","null","","test","","","","","",""
"297.90000009536743","179566","pSARL_v2","pSARL_v2cnoya3kk","5ac4c730f69e940001d977e1","freq","img/green_2bandit_b2.png","70","70","test","1","13","13","1","",""
"null","180087","pSARL_v2","pSARL_v2cnoya3kk","5ac4c730f69e940001d977e1","freq_resp","img/green_2bandit_b.png","70","70","test","","","","1","",""
"null","180257","pSARL_v2","pSARL_v2cnoya3kk","5ac4c730f69e940001d977e1","fixation","img/fixation.png","null","","test","","","","","",""
"351","180616","pSARL_v2","pSARL_v2cnoya3kk","5ac4c730f69e940001d977e1","infreq","img/orange_2bandit_b2.png","68","68","test","1","14","14","1","",""
"null","181075","pSARL_v2","pSARL_v2cnoya3kk","5ac4c730f69e940001d977e1","infreq_resp","img/orange_2bandit_b.png","68","68","test","","","","1","",""
"null","181237","pSARL_v2","pSARL_v2cnoya3kk","5ac4c730f69e940001d977e1","fixation","img/fixation.png","null","","test","","","","","",""
"356.2000000476837","181601","pSARL_v2","pSARL_v2cnoya3kk","5ac4c730f69e940001d977e1","freq","img/green_2bandit_b2.png","70","70","test","1","15","15","1","",""
"null","182058","pSARL_v2","pSARL_v2cnoya3kk","5ac4c730f69e940001d977e1","freq_resp","img/green_2bandit_b.png","70","70","test","","","","1","",""
"null","182222","pSARL_v2","pSARL_v2cnoya3kk","5ac4c730f69e940001d977e1","fixation","img/fixation.png","null","","test","","","","","",""
"445.5","182674","pSARL_v2","pSARL_v2cnoya3kk","5ac4c730f69e940001d977e1","freq","img/green_2bandit_b2.png","70","70","test","1","16","16","1","",""
"null","183046","pSARL_v2","pSARL_v2cnoya3kk","5ac4c730f69e940001d977e1","freq_resp","img/green_2bandit_b.png","70","70","test","","","","1","",""
"null","183219","pSARL_v2","pSARL_v2cnoya3kk","5ac4c730f69e940001d977e1","fixation","img/fixation.png","null","","test","","","","","",""
"421.5","183647","pSARL_v2","pSARL_v2cnoya3kk","5ac4c730f69e940001d977e1","freq","img/green_2bandit_b2.png","70","70","test","1","17","17","1","",""
"null","184038","pSARL_v2","pSARL_v2cnoya3kk","5ac4c730f69e940001d977e1","freq_resp","img/green_2bandit_b.png","70","70","test","","","","1","",""
"null","184212","pSARL_v2","pSARL_v2cnoya3kk","5ac4c730f69e940001d977e1","fixation","img/fixation.png","null","","test","","","","","",""
"461.7000000476837","184680","pSARL_v2","pSARL_v2cnoya3kk","5ac4c730f69e940001d977e1","infreq","img/orange_2bandit_b2.png","68","68","test","1","18","18","1","",""
"null","185031","pSARL_v2","pSARL_v2cnoya3kk","5ac4c730f69e940001d977e1","infreq_resp","img/orange_2bandit_b.png","68","68","test","","","","1","",""
"null","185191","pSARL_v2","pSARL_v2cnoya3kk","5ac4c730f69e940001d977e1","fixation","img/fixation.png","null","","test","","","","","",""
"514.0999999046326","185713","pSARL_v2","pSARL_v2cnoya3kk","5ac4c730f69e940001d977e1","freq","img/green_2bandit_b2.png","70","70","test","1","19","19","1","",""
"null","186013","pSARL_v2","pSARL_v2cnoya3kk","5ac4c730f69e940001d977e1","freq_resp","img/green_2bandit_b.png","70","70","test","","","","1","",""
"null","186180","pSARL_v2","pSARL_v2cnoya3kk","5ac4c730f69e940001d977e1","fixation","img/fixation.png","null","","test","","","","","",""
"365.7999999523163","186552","pSARL_v2","pSARL_v2cnoya3kk","5ac4c730f69e940001d977e1","freq","img/green_2bandit_b2.png","70","70","test","1","20","20","1","",""
"null","187006","pSARL_v2","pSARL_v2cnoya3kk","5ac4c730f69e940001d977e1","freq_resp","img/green_2bandit_b.png","70","70","test","","","","1","",""
"null","187179","pSARL_v2","pSARL_v2cnoya3kk","5ac4c730f69e940001d977e1","fixation","img/fixation.png","null","","test","","","","","",""
"393","187579","pSARL_v2","pSARL_v2cnoya3kk","5ac4c730f69e940001d977e1","freq","img/green_2bandit_b2.png","70","70","test","1","21","21","1","",""
"null","188024","pSARL_v2","pSARL_v2cnoya3kk","5ac4c730f69e940001d977e1","freq_resp","img/green_2bandit_b.png","70","70","test","","","","1","",""
"null","188201","pSARL_v2","pSARL_v2cnoya3kk","5ac4c730f69e940001d977e1","fixation","img/fixation.png","null","","test","","","","","",""
"347.60000014305115","188555","pSARL_v2","pSARL_v2cnoya3kk","5ac4c730f69e940001d977e1","freq","img/green_2bandit_b2.png","70","70","test","1","22","22","1","",""
"null","189021","pSARL_v2","pSARL_v2cnoya3kk","5ac4c730f69e940001d977e1","freq_resp","img/green_2bandit_b.png","70","70","test","","","","1","",""
"null","189187","pSARL_v2","pSARL_v2cnoya3kk","5ac4c730f69e940001d977e1","fixation","img/fixation.png","null","","test","","","","","",""
"338","189533","pSARL_v2","pSARL_v2cnoya3kk","5ac4c730f69e940001d977e1","freq","img/green_2bandit_b2.png","70","70","test","1","23","23","1","",""
"null","190005","pSARL_v2","pSARL_v2cnoya3kk","5ac4c730f69e940001d977e1","freq_resp","img/green_2bandit_b.png","70","70","test","","","","1","",""
"null","190178","pSARL_v2","pSARL_v2cnoya3kk","5ac4c730f69e940001d977e1","fixation","img/fixation.png","null","","test","","","","","",""
"377.5","190563","pSARL_v2","pSARL_v2cnoya3kk","5ac4c730f69e940001d977e1","freq","img/green_2bandit_b2.png","70","70","test","1","24","24","1","",""
"null","191007","pSARL_v2","pSARL_v2cnoya3kk","5ac4c730f69e940001d977e1","freq_resp","img/green_2bandit_b.png","70","70","test","","","","1","",""
"null","191171","pSARL_v2","pSARL_v2cnoya3kk","5ac4c730f69e940001d977e1","fixation","img/fixation.png","null","","test","","","","","",""
"579.7999999523163","191758","pSARL_v2","pSARL_v2cnoya3kk","5ac4c730f69e940001d977e1","reward","img/slot.png","74","","test","","","","","",""
"null","192523","pSARL_v2","pSARL_v2cnoya3kk","5ac4c730f69e940001d977e1","points","<div class=""verylowPoints""> -6 </div>","null","na","test","","","","1","-6","0"
"null","193336","pSARL_v2","pSARL_v2cnoya3kk","5ac4c730f69e940001d977e1","freq","img/green_2bandit_b2.png","null","70","test","0","25","25","2","",""
"null","193503","pSARL_v2","pSARL_v2cnoya3kk","5ac4c730f69e940001d977e1","fixation","img/fixation.png","null","","test","","","","","",""
"51.40000009536743","193561","pSARL_v2","pSARL_v2cnoya3kk","5ac4c730f69e940001d977e1","freq","img/green_2bandit_b2.png","70","70","test","1","26","26","2","",""
"null","194320","pSARL_v2","pSARL_v2cnoya3kk","5ac4c730f69e940001d977e1","freq_resp","img/green_2bandit_b.png","70","70","test","","","","2","",""
"null","194486","pSARL_v2","pSARL_v2cnoya3kk","5ac4c730f69e940001d977e1","fixation","img/fixation.png","null","","test","","","","","",""
"414.60000014305115","194908","pSARL_v2","pSARL_v2cnoya3kk","5ac4c730f69e940001d977e1","freq","img/green_2bandit_b2.png","70","70","test","1","27","27","2","",""
"null","195307","pSARL_v2","pSARL_v2cnoya3kk","5ac4c730f69e940001d977e1","freq_resp","img/green_2bandit_b.png","70","70","test","","","","2","",""
"null","195478","pSARL_v2","pSARL_v2cnoya3kk","5ac4c730f69e940001d977e1","fixation","img/fixation.png","null","","test","","","","","",""
"322.60000014305115","195808","pSARL_v2","pSARL_v2cnoya3kk","5ac4c730f69e940001d977e1","freq","img/green_2bandit_b2.png","70","70","test","1","28","28","2","",""
"null","196300","pSARL_v2","pSARL_v2cnoya3kk","5ac4c730f69e940001d977e1","freq_resp","img/green_2bandit_b.png","70","70","test","","","","2","",""
"null","196471","pSARL_v2","pSARL_v2cnoya3kk","5ac4c730f69e940001d977e1","fixation","img/fixation.png","null","","test","","","","","",""
"492.7999999523163","196971","pSARL_v2","pSARL_v2cnoya3kk","5ac4c730f69e940001d977e1","infreq","img/orange_2bandit_b2.png","68","68","test","1","29","29","2","",""
"null","197298","pSARL_v2","pSARL_v2cnoya3kk","5ac4c730f69e940001d977e1","infreq_resp","img/orange_2bandit_b.png","68","68","test","","","","2","",""
"null","197459","pSARL_v2","pSARL_v2cnoya3kk","5ac4c730f69e940001d977e1","fixation","img/fixation.png","null","","test","","","","","",""
"442.09999990463257","197909","pSARL_v2","pSARL_v2cnoya3kk","5ac4c730f69e940001d977e1","freq","img/green_2bandit_b2.png","70","70","test","1","30","30","2","",""
"null","198287","pSARL_v2","pSARL_v2cnoya3kk","5ac4c730f69e940001d977e1","freq_resp","img/green_2bandit_b.png","70","70","test","","","","2","",""
"null","198454","pSARL_v2","pSARL_v2cnoya3kk","5ac4c730f69e940001d977e1","fixation","img/fixation.png","null","","test","","","","","",""
"387.89999985694885","198850","pSARL_v2","pSARL_v2cnoya3kk","5ac4c730f69e940001d977e1","infreq","img/orange_2bandit_b2.png","68","68","test","1","31","31","2","",""
"null","199276","pSARL_v2","pSARL_v2cnoya3kk","5ac4c730f69e940001d977e1","infreq_resp","img/orange_2bandit_b.png","68","68","test","","","","2","",""
"null","199442","pSARL_v2","pSARL_v2cnoya3kk","5ac4c730f69e940001d977e1","fixation","img/fixation.png","null","","test","","","","","",""
"349.40000009536743","199799","pSARL_v2","pSARL_v2cnoya3kk","5ac4c730f69e940001d977e1","freq","img/green_2bandit_b2.png","70","70","test","1","32","32","2","",""
"null","200264","pSARL_v2","pSARL_v2cnoya3kk","5ac4c730f69e940001d977e1","freq_resp","img/green_2bandit_b.png","70","70","test","","","","2","",""
"null","200437","pSARL_v2","pSARL_v2cnoya3kk","5ac4c730f69e940001d977e1","fixation","img/fixation.png","null","","test","","","","","",""
"399.59999990463257","200843","pSARL_v2","pSARL_v2cnoya3kk","5ac4c730f69e940001d977e1","freq","img/green_2bandit_b2.png","70","70","test","1","33","33","2","",""
"null","201259","pSARL_v2","pSARL_v2cnoya3kk","5ac4c730f69e940001d977e1","freq_resp","img/green_2bandit_b.png","70","70","test","","","","2","",""
"null","201419","pSARL_v2","pSARL_v2cnoya3kk","5ac4c730f69e940001d977e1","fixation","img/fixation.png","null","","test","","","","","",""
"372.2999999523163","201799","pSARL_v2","pSARL_v2cnoya3kk","5ac4c730f69e940001d977e1","freq","img/green_2bandit_b2.png","70","70","test","1","34","34","2","",""
"null","202240","pSARL_v2","pSARL_v2cnoya3kk","5ac4c730f69e940001d977e1","freq_resp","img/green_2bandit_b.png","70","70","test","","","","2","",""
"null","202403","pSARL_v2","pSARL_v2cnoya3kk","5ac4c730f69e940001d977e1","fixation","img/fixation.png","null","","test","","","","","",""
"399.09999990463257","202809","pSARL_v2","pSARL_v2cnoya3kk","5ac4c730f69e940001d977e1","freq","img/green_2bandit_b2.png","70","70","test","1","35","35","2","",""
"null","203226","pSARL_v2","pSARL_v2cnoya3kk","5ac4c730f69e940001d977e1","freq_resp","img/green_2bandit_b.png","70","70","test","","","","2","",""
"null","203395","pSARL_v2","pSARL_v2cnoya3kk","5ac4c730f69e940001d977e1","fixation","img/fixation.png","null","","test","","","","","",""
"342.7999999523163","203746","pSARL_v2","pSARL_v2cnoya3kk","5ac4c730f69e940001d977e1","freq","img/green_2bandit_b2.png","70","70","test","1","36","36","2","",""
"null","204216","pSARL_v2","pSARL_v2cnoya3kk","5ac4c730f69e940001d977e1","freq_resp","img/green_2bandit_b.png","70","70","test","","","","2","",""
"null","204388","pSARL_v2","pSARL_v2cnoya3kk","5ac4c730f69e940001d977e1","fixation","img/fixation.png","null","","test","","","","","",""
"383","204778","pSARL_v2","pSARL_v2cnoya3kk","5ac4c730f69e940001d977e1","freq","img/green_2bandit_b2.png","70","70","test","1","37","37","2","",""
"null","205207","pSARL_v2","pSARL_v2cnoya3kk","5ac4c730f69e940001d977e1","freq_resp","img/green_2bandit_b.png","70","70","test","","","","2","",""
"null","205369","pSARL_v2","pSARL_v2cnoya3kk","5ac4c730f69e940001d977e1","fixation","img/fixation.png","null","","test","","","","","",""
"345.90000009536743","205722","pSARL_v2","pSARL_v2cnoya3kk","5ac4c730f69e940001d977e1","freq","img/green_2bandit_b2.png","70","70","test","1","38","38","2","",""
"null","206198","pSARL_v2","pSARL_v2cnoya3kk","5ac4c730f69e940001d977e1","freq_resp","img/green_2bandit_b.png","70","70","test","","","","2","",""
"null","206370","pSARL_v2","pSARL_v2cnoya3kk","5ac4c730f69e940001d977e1","fixation","img/fixation.png","null","","test","","","","","",""
"289.5","206667","pSARL_v2","pSARL_v2cnoya3kk","5ac4c730f69e940001d977e1","freq","img/green_2bandit_b2.png","70","70","test","1","39","39","2","",""
"null","207187","pSARL_v2","pSARL_v2cnoya3kk","5ac4c730f69e940001d977e1","freq_resp","img/green_2bandit_b.png","70","70","test","","","","2","",""
"null","207345","pSARL_v2","pSARL_v2cnoya3kk","5ac4c730f69e940001d977e1","fixation","img/fixation.png","null","","test","","","","","",""
"313","207666","pSARL_v2","pSARL_v2cnoya3kk","5ac4c730f69e940001d977e1","freq","img/green_2bandit_b2.png","70","70","test","1","40","40","2","",""
"null","208171","pSARL_v2","pSARL_v2cnoya3kk","5ac4c730f69e940001d977e1","freq_resp","img/green_2bandit_b.png","70","70","test","","","","2","",""
"null","208338","pSARL_v2","pSARL_v2cnoya3kk","5ac4c730f69e940001d977e1","fixation","img/fixation.png","null","","test","","","","","",""
"282.2000000476837","208627","pSARL_v2","pSARL_v2cnoya3kk","5ac4c730f69e940001d977e1","freq","img/green_2bandit_b2.png","70","70","test","1","41","41","2","",""
"null","209182","pSARL_v2","pSARL_v2cnoya3kk","5ac4c730f69e940001d977e1","freq_resp","img/green_2bandit_b.png","70","70","test","","","","2","",""
"null","209353","pSARL_v2","pSARL_v2cnoya3kk","5ac4c730f69e940001d977e1","fixation","img/fixation.png","null","","test","","","","","",""
"241.79999995231628","209603","pSARL_v2","pSARL_v2cnoya3kk","5ac4c730f69e940001d977e1","freq","img/green_2bandit_b2.png","70","70","test","1","42","42","2","",""
"null","210175","pSARL_v2","pSARL_v2cnoya3kk","5ac4c730f69e940001d977e1","freq_resp","img/green_2bandit_b.png","70","70","test","","","","2","",""
"null","210336","pSARL_v2","pSARL_v2cnoya3kk","5ac4c730f69e940001d977e1","fixation","img/fixation.png","null","","test","","","","","",""
"298.5","210641","pSARL_v2","pSARL_v2cnoya3kk","5ac4c730f69e940001d977e1","freq","img/green_2bandit_b2.png","70","70","test","1","43","43","2","",""
"null","211158","pSARL_v2","pSARL_v2cnoya3kk","5ac4c730f69e940001d977e1","freq_resp","img/green_2bandit_b.png","70","70","test","","","","2","",""
"null","211320","pSARL_v2","pSARL_v2cnoya3kk","5ac4c730f69e940001d977e1","fixation","img/fixation.png","null","","test","","","","","",""
"342.40000009536743","211671","pSARL_v2","pSARL_v2cnoya3kk","5ac4c730f69e940001d977e1","freq","img/green_2bandit_b2.png","70","70","test","1","44","44","2","",""
"null","212140","pSARL_v2","pSARL_v2cnoya3kk","5ac4c730f69e940001d977e1","freq_resp","img/green_2bandit_b.png","70","70","test","","","","2","",""
"null","212308","pSARL_v2","pSARL_v2cnoya3kk","5ac4c730f69e940001d977e1","fixation","img/fixation.png","null","","test","","","","","",""
"282.5","212597","pSARL_v2","pSARL_v2cnoya3kk","5ac4c730f69e940001d977e1","freq","img/green_2bandit_b2.png","70","70","test","1","45","45","2","",""
"null","213123","pSARL_v2","pSARL_v2cnoya3kk","5ac4c730f69e940001d977e1","freq_resp","img/green_2bandit_b.png","70","70","test","","","","2","",""
"null","213289","pSARL_v2","pSARL_v2cnoya3kk","5ac4c730f69e940001d977e1","fixation","img/fixation.png","null","","test","","","","","",""
"281.2999999523163","213577","pSARL_v2","pSARL_v2cnoya3kk","5ac4c730f69e940001d977e1","freq","img/green_2bandit_b2.png","70","70","test","1","46","46","2","",""
"null","214115","pSARL_v2","pSARL_v2cnoya3kk","5ac4c730f69e940001d977e1","freq_resp","img/green_2bandit_b.png","70","70","test","","","","2","",""
"null","214278","pSARL_v2","pSARL_v2cnoya3kk","5ac4c730f69e940001d977e1","fixation","img/fixation.png","null","","test","","","","","",""
"257.7999999523163","214543","pSARL_v2","pSARL_v2cnoya3kk","5ac4c730f69e940001d977e1","freq","img/green_2bandit_b2.png","70","70","test","1","47","47","2","",""
"null","215101","pSARL_v2","pSARL_v2cnoya3kk","5ac4c730f69e940001d977e1","freq_resp","img/green_2bandit_b.png","70","70","test","","","","2","",""
"null","215272","pSARL_v2","pSARL_v2cnoya3kk","5ac4c730f69e940001d977e1","fixation","img/fixation.png","null","","test","","","","","",""
"270.59999990463257","215551","pSARL_v2","pSARL_v2cnoya3kk","5ac4c730f69e940001d977e1","freq","img/green_2bandit_b2.png","70","70","test","1","48","48","2","",""
"null","216096","pSARL_v2","pSARL_v2cnoya3kk","5ac4c730f69e940001d977e1","freq_resp","img/green_2bandit_b.png","70","70","test","","","","2","",""
"null","216262","pSARL_v2","pSARL_v2cnoya3kk","5ac4c730f69e940001d977e1","fixation","img/fixation.png","null","","test","","","","","",""
"497.59999990463257","216767","pSARL_v2","pSARL_v2cnoya3kk","5ac4c730f69e940001d977e1","reward","img/slot.png","74","","test","","","","","",""
"null","217530","pSARL_v2","pSARL_v2cnoya3kk","5ac4c730f69e940001d977e1","points","<div class=""verylowPoints""> -11 </div>","null","na","test","","","","2","-11","1"
"485.2999999523163","218023","pSARL_v2","pSARL_v2cnoya3kk","5ac4c730f69e940001d977e1","freq","img/green_2bandit_b2.png","70","70","test","1","49","49","3","",""
"null","218361","pSARL_v2","pSARL_v2cnoya3kk","5ac4c730f69e940001d977e1","freq_resp","img/green_2bandit_b.png","70","70","test","","","","3","",""
"null","218520","pSARL_v2","pSARL_v2cnoya3kk","5ac4c730f69e940001d977e1","fixation","img/fixation.png","null","","test","","","","","",""
"446.7000000476837","218974","pSARL_v2","pSARL_v2cnoya3kk","5ac4c730f69e940001d977e1","infreq","img/orange_2bandit_b2.png","68","68","test","1","50","50","3","",""
"null","219337","pSARL_v2","pSARL_v2cnoya3kk","5ac4c730f69e940001d977e1","infreq_resp","img/orange_2bandit_b.png","68","68","test","","","","3","",""
"null","219503","pSARL_v2","pSARL_v2cnoya3kk","5ac4c730f69e940001d977e1","fixation","img/fixation.png","null","","test","","","","","",""
"439.5","219950","pSARL_v2","pSARL_v2cnoya3kk","5ac4c730f69e940001d977e1","freq","img/green_2bandit_b2.png","70","70","test","1","51","51","3","",""
"null","220327","pSARL_v2","pSARL_v2cnoya3kk","5ac4c730f69e940001d977e1","freq_resp","img/green_2bandit_b.png","70","70","test","","","","3","",""
"null","220501","pSARL_v2","pSARL_v2cnoya3kk","5ac4c730f69e940001d977e1","fixation","img/fixation.png","null","","test","","","","","",""
"291.2000000476837","220801","pSARL_v2","pSARL_v2cnoya3kk","5ac4c730f69e940001d977e1","freq","img/green_2bandit_b2.png","70","70","test","1","52","52","3","",""
"null","221317","pSARL_v2","pSARL_v2cnoya3kk","5ac4c730f69e940001d977e1","freq_resp","img/green_2bandit_b.png","70","70","test","","","","3","",""
"null","221487","pSARL_v2","pSARL_v2cnoya3kk","5ac4c730f69e940001d977e1","fixation","img/fixation.png","null","","test","","","","","",""
"323.5","221819","pSARL_v2","pSARL_v2cnoya3kk","5ac4c730f69e940001d977e1","freq","img/green_2bandit_b2.png","70","70","test","1","53","53","3","",""
"null","222305","pSARL_v2","pSARL_v2cnoya3kk","5ac4c730f69e940001d977e1","freq_resp","img/green_2bandit_b.png","70","70","test","","","","3","",""
"null","222470","pSARL_v2","pSARL_v2cnoya3kk","5ac4c730f69e940001d977e1","fixation","img/fixation.png","null","","test","","","","","",""
"404.59999990463257","222883","pSARL_v2","pSARL_v2cnoya3kk","5ac4c730f69e940001d977e1","infreq","img/orange_2bandit_b2.png","68","68","test","1","54","54","3","",""
"null","223292","pSARL_v2","pSARL_v2cnoya3kk","5ac4c730f69e940001d977e1","infreq_resp","img/orange_2bandit_b.png","68","68","test","","","","3","",""
"null","223454","pSARL_v2","pSARL_v2cnoya3kk","5ac4c730f69e940001d977e1","fixation","img/fixation.png","null","","test","","","","","",""
"485.90000009536743","223947","pSARL_v2","pSARL_v2cnoya3kk","5ac4c730f69e940001d977e1","freq","img/green_2bandit_b2.png","70","70","test","1","55","55","3","",""
"null","224281","pSARL_v2","pSARL_v2cnoya3kk","5ac4c730f69e940001d977e1","freq_resp","img/green_2bandit_b.png","70","70","test","","","","3","",""
"null","224442","pSARL_v2","pSARL_v2cnoya3kk","5ac4c730f69e940001d977e1","fixation","img/fixation.png","null","","test","","","","","",""
"364.40000009536743","224814","pSARL_v2","pSARL_v2cnoya3kk","5ac4c730f69e940001d977e1","freq","img/green_2bandit_b2.png","70","70","test","1","56","56","3","",""
"null","225282","pSARL_v2","pSARL_v2cnoya3kk","5ac4c730f69e940001d977e1","freq_resp","img/green_2bandit_b.png","70","70","test","","","","3","",""
"null","225460","pSARL_v2","pSARL_v2cnoya3kk","5ac4c730f69e940001d977e1","fixation","img/fixation.png","null","","test","","","","","",""
"313.40000009536743","225781","pSARL_v2","pSARL_v2cnoya3kk","5ac4c730f69e940001d977e1","freq","img/green_2bandit_b2.png","70","70","test","1","57","57","3","",""
"null","226284","pSARL_v2","pSARL_v2cnoya3kk","5ac4c730f69e940001d977e1","freq_resp","img/green_2bandit_b.png","70","70","test","","","","3","",""
"null","226444","pSARL_v2","pSARL_v2cnoya3kk","5ac4c730f69e940001d977e1","fixation","img/fixation.png","null","","test","","","","","",""
"347.7000000476837","226800","pSARL_v2","pSARL_v2cnoya3kk","5ac4c730f69e940001d977e1","freq","img/green_2bandit_b2.png","70","70","test","1","58","58","3","",""
"null","227271","pSARL_v2","pSARL_v2cnoya3kk","5ac4c730f69e940001d977e1","freq_resp","img/green_2bandit_b.png","70","70","test","","","","3","",""
"null","227443","pSARL_v2","pSARL_v2cnoya3kk","5ac4c730f69e940001d977e1","fixation","img/fixation.png","null","","test","","","","","",""
"304.5","227755","pSARL_v2","pSARL_v2cnoya3kk","5ac4c730f69e940001d977e1","freq","img/green_2bandit_b2.png","70","70","test","1","59","59","3","",""
"null","228263","pSARL_v2","pSARL_v2cnoya3kk","5ac4c730f69e940001d977e1","freq_resp","img/green_2bandit_b.png","70","70","test","","","","3","",""
"null","228425","pSARL_v2","pSARL_v2cnoya3kk","5ac4c730f69e940001d977e1","fixation","img/fixation.png","null","","test","","","","","",""
"425.10000014305115","228856","pSARL_v2","pSARL_v2cnoya3kk","5ac4c730f69e940001d977e1","freq","img/green_2bandit_b2.png","70","70","test","1","60","60","3","",""
"null","229244","pSARL_v2","pSARL_v2cnoya3kk","5ac4c730f69e940001d977e1","freq_resp","img/green_2bandit_b.png","70","70","test","","","","3","",""
"null","229403","pSARL_v2","pSARL_v2cnoya3kk","5ac4c730f69e940001d977e1","fixation","img/fixation.png","null","","test","","","","","",""
"371.39999985694885","229784","pSARL_v2","pSARL_v2cnoya3kk","5ac4c730f69e940001d977e1","freq","img/green_2bandit_b2.png","70","70","test","1","61","61","3","",""
"null","230224","pSARL_v2","pSARL_v2cnoya3kk","5ac4c730f69e940001d977e1","freq_resp","img/green_2bandit_b.png","70","70","test","","","","3","",""
"null","230386","pSARL_v2","pSARL_v2cnoya3kk","5ac4c730f69e940001d977e1","fixation","img/fixation.png","null","","test","","","","","",""
"331.5","230725","pSARL_v2","pSARL_v2cnoya3kk","5ac4c730f69e940001d977e1","freq","img/green_2bandit_b2.png","70","70","test","1","62","62","3","",""
"null","231217","pSARL_v2","pSARL_v2cnoya3kk","5ac4c730f69e940001d977e1","freq_resp","img/green_2bandit_b.png","70","70","test","","","","3","",""
"null","231391","pSARL_v2","pSARL_v2cnoya3kk","5ac4c730f69e940001d977e1","fixation","img/fixation.png","null","","test","","","","","",""
"343","231742","pSARL_v2","pSARL_v2cnoya3kk","5ac4c730f69e940001d977e1","freq","img/green_2bandit_b2.png","70","70","test","1","63","63","3","",""
"null","232222","pSARL_v2","pSARL_v2cnoya3kk","5ac4c730f69e940001d977e1","freq_resp","img/green_2bandit_b.png","70","70","test","","","","3","",""
"null","232393","pSARL_v2","pSARL_v2cnoya3kk","5ac4c730f69e940001d977e1","fixation","img/fixation.png","null","","test","","","","","",""
"312.2999999523163","232713","pSARL_v2","pSARL_v2cnoya3kk","5ac4c730f69e940001d977e1","freq","img/green_2bandit_b2.png","70","70","test","1","64","64","3","",""
"null","233213","pSARL_v2","pSARL_v2cnoya3kk","5ac4c730f69e940001d977e1","freq_resp","img/green_2bandit_b.png","70","70","test","","","","3","",""
"null","233376","pSARL_v2","pSARL_v2cnoya3kk","5ac4c730f69e940001d977e1","fixation","img/fixation.png","null","","test","","","","","",""
"263.09999990463257","233646","pSARL_v2","pSARL_v2cnoya3kk","5ac4c730f69e940001d977e1","freq","img/green_2bandit_b2.png","70","70","test","1","65","65","3","",""
"null","234194","pSARL_v2","pSARL_v2cnoya3kk","5ac4c730f69e940001d977e1","freq_resp","img/green_2bandit_b.png","70","70","test","","","","3","",""
"null","234353","pSARL_v2","pSARL_v2cnoya3kk","5ac4c730f69e940001d977e1","fixation","img/fixation.png","null","","test","","","","","",""
"326","234687","pSARL_v2","pSARL_v2cnoya3kk","5ac4c730f69e940001d977e1","freq","img/green_2bandit_b2.png","70","70","test","1","66","66","3","",""
"null","235171","pSARL_v2","pSARL_v2cnoya3kk","5ac4c730f69e940001d977e1","freq_resp","img/green_2bandit_b.png","70","70","test","","","","3","",""
"null","235344","pSARL_v2","pSARL_v2cnoya3kk","5ac4c730f69e940001d977e1","fixation","img/fixation.png","null","","test","","","","","",""
"316.2999999523163","235668","pSARL_v2","pSARL_v2cnoya3kk","5ac4c730f69e940001d977e1","freq","img/green_2bandit_b2.png","70","70","test","1","67","67","3","",""
"null","236183","pSARL_v2","pSARL_v2cnoya3kk","5ac4c730f69e940001d977e1","freq_resp","img/green_2bandit_b.png","70","70","test","","","","3","",""
"null","236353","pSARL_v2","pSARL_v2cnoya3kk","5ac4c730f69e940001d977e1","fixation","img/fixation.png","null","","test","","","","","",""
"532.2999999523163","236892","pSARL_v2","pSARL_v2cnoya3kk","5ac4c730f69e940001d977e1","reward","img/slot.png","74","","test","","","","","",""
"null","237664","pSARL_v2","pSARL_v2cnoya3kk","5ac4c730f69e940001d977e1","points","<div class=""verylowPoints""> -7 </div>","null","na","test","","","","3","-7","2"
"491.90000009536743","238164","pSARL_v2","pSARL_v2cnoya3kk","5ac4c730f69e940001d977e1","freq","img/green_2bandit_b2.png","70","70","test","1","68","68","4","",""
"null","238492","pSARL_v2","pSARL_v2cnoya3kk","5ac4c730f69e940001d977e1","freq_resp","img/green_2bandit_b.png","70","70","test","","","","4","",""
"null","238655","pSARL_v2","pSARL_v2cnoya3kk","5ac4c730f69e940001d977e1","fixation","img/fixation.png","null","","test","","","","","",""
"311.40000009536743","238974","pSARL_v2","pSARL_v2cnoya3kk","5ac4c730f69e940001d977e1","freq","img/green_2bandit_b2.png","70","70","test","1","69","69","4","",""
"null","239485","pSARL_v2","pSARL_v2cnoya3kk","5ac4c730f69e940001d977e1","freq_resp","img/green_2bandit_b.png","70","70","test","","","","4","",""
"null","239651","pSARL_v2","pSARL_v2cnoya3kk","5ac4c730f69e940001d977e1","fixation","img/fixation.png","null","","test","","","","","",""
"220.5","239879","pSARL_v2","pSARL_v2cnoya3kk","5ac4c730f69e940001d977e1","freq","img/green_2bandit_b2.png","70","70","test","1","70","70","4","",""
"null","240472","pSARL_v2","pSARL_v2cnoya3kk","5ac4c730f69e940001d977e1","freq_resp","img/green_2bandit_b.png","70","70","test","","","","4","",""
"null","240638","pSARL_v2","pSARL_v2cnoya3kk","5ac4c730f69e940001d977e1","fixation","img/fixation.png","null","","test","","","","","",""
"220.80000019073486","240868","pSARL_v2","pSARL_v2cnoya3kk","5ac4c730f69e940001d977e1","freq","img/green_2bandit_b2.png","70","70","test","1","71","71","4","",""
"null","241469","pSARL_v2","pSARL_v2cnoya3kk","5ac4c730f69e940001d977e1","freq_resp","img/green_2bandit_b.png","70","70","test","","","","4","",""
"null","241639","pSARL_v2","pSARL_v2cnoya3kk","5ac4c730f69e940001d977e1","fixation","img/fixation.png","null","","test","","","","","",""
"258.10000014305115","241905","pSARL_v2","pSARL_v2cnoya3kk","5ac4c730f69e940001d977e1","freq","img/green_2bandit_b2.png","70","70","test","1","72","72","4","",""
"null","242454","pSARL_v2","pSARL_v2cnoya3kk","5ac4c730f69e940001d977e1","freq_resp","img/green_2bandit_b.png","70","70","test","","","","4","",""
"null","242626","pSARL_v2","pSARL_v2cnoya3kk","5ac4c730f69e940001d977e1","fixation","img/fixation.png","null","","test","","","","","",""
"293.5","242927","pSARL_v2","pSARL_v2cnoya3kk","5ac4c730f69e940001d977e1","freq","img/green_2bandit_b2.png","70","70","test","1","73","73","4","",""
"null","243448","pSARL_v2","pSARL_v2cnoya3kk","5ac4c730f69e940001d977e1","freq_resp","img/green_2bandit_b.png","70","70","test","","","","4","",""
"null","243610","pSARL_v2","pSARL_v2cnoya3kk","5ac4c730f69e940001d977e1","fixation","img/fixation.png","null","","test","","","","","",""
"380.09999990463257","243998","pSARL_v2","pSARL_v2cnoya3kk","5ac4c730f69e940001d977e1","freq","img/green_2bandit_b2.png","70","70","test","1","74","74","4","",""
"null","244441","pSARL_v2","pSARL_v2cnoya3kk","5ac4c730f69e940001d977e1","freq_resp","img/green_2bandit_b.png","70","70","test","","","","4","",""
"null","244602","pSARL_v2","pSARL_v2cnoya3kk","5ac4c730f69e940001d977e1","fixation","img/fixation.png","null","","test","","","","","",""
"417.40000009536743","245027","pSARL_v2","pSARL_v2cnoya3kk","5ac4c730f69e940001d977e1","infreq","img/orange_2bandit_b2.png","68","68","test","1","75","75","4","",""
"null","245421","pSARL_v2","pSARL_v2cnoya3kk","5ac4c730f69e940001d977e1","infreq_resp","img/orange_2bandit_b.png","68","68","test","","","","4","",""
"null","245591","pSARL_v2","pSARL_v2cnoya3kk","5ac4c730f69e940001d977e1","fixation","img/fixation.png","null","","test","","","","","",""
"507.7000000476837","246107","pSARL_v2","pSARL_v2cnoya3kk","5ac4c730f69e940001d977e1","freq","img/green_2bandit_b2.png","70","70","test","1","76","76","4","",""
"null","246423","pSARL_v2","pSARL_v2cnoya3kk","5ac4c730f69e940001d977e1","freq_resp","img/green_2bandit_b.png","70","70","test","","","","4","",""
"null","246593","pSARL_v2","pSARL_v2cnoya3kk","5ac4c730f69e940001d977e1","fixation","img/fixation.png","null","","test","","","","","",""
"398.2999999523163","246999","pSARL_v2","pSARL_v2cnoya3kk","5ac4c730f69e940001d977e1","freq","img/green_2bandit_b2.png","70","70","test","1","77","77","4","",""
"null","247424","pSARL_v2","pSARL_v2cnoya3kk","5ac4c730f69e940001d977e1","freq_resp","img/green_2bandit_b.png","70","70","test","","","","4","",""
"null","247592","pSARL_v2","pSARL_v2cnoya3kk","5ac4c730f69e940001d977e1","fixation","img/fixation.png","null","","test","","","","","",""
"null","248402","pSARL_v2","pSARL_v2cnoya3kk","5ac4c730f69e940001d977e1","infreq","img/orange_2bandit_b2.png","null","68","test","0","78","78","4","",""
"null","248562","pSARL_v2","pSARL_v2cnoya3kk","5ac4c730f69e940001d977e1","fixation","img/fixation.png","null","","test","","","","","",""
"80.59999990463257","248650","pSARL_v2","pSARL_v2cnoya3kk","5ac4c730f69e940001d977e1","freq","img/green_2bandit_b2.png","68","70","test","0","79","79","4","",""
"null","249378","pSARL_v2","pSARL_v2cnoya3kk","5ac4c730f69e940001d977e1","freq_resp","img/green_2bandit_b.png","68","70","test","","","","4","",""
"null","249544","pSARL_v2","pSARL_v2cnoya3kk","5ac4c730f69e940001d977e1","fixation","img/fixation.png","null","","test","","","","","",""
"424.2000000476837","249976","pSARL_v2","pSARL_v2cnoya3kk","5ac4c730f69e940001d977e1","freq","img/green_2bandit_b2.png","70","70","test","1","80","80","4","",""
"null","250372","pSARL_v2","pSARL_v2cnoya3kk","5ac4c730f69e940001d977e1","freq_resp","img/green_2bandit_b.png","70","70","test","","","","4","",""
"null","250537","pSARL_v2","pSARL_v2cnoya3kk","5ac4c730f69e940001d977e1","fixation","img/fixation.png","null","","test","","","","","",""
"330.2000000476837","250876","pSARL_v2","pSARL_v2cnoya3kk","5ac4c730f69e940001d977e1","freq","img/green_2bandit_b2.png","70","70","test","1","81","81","4","",""
"null","251362","pSARL_v2","pSARL_v2cnoya3kk","5ac4c730f69e940001d977e1","freq_resp","img/green_2bandit_b.png","70","70","test","","","","4","",""
"null","251528","pSARL_v2","pSARL_v2cnoya3kk","5ac4c730f69e940001d977e1","fixation","img/fixation.png","null","","test","","","","","",""
"362.60000014305115","251899","pSARL_v2","pSARL_v2cnoya3kk","5ac4c730f69e940001d977e1","freq","img/green_2bandit_b2.png","70","70","test","1","82","82","4","",""
"null","252356","pSARL_v2","pSARL_v2cnoya3kk","5ac4c730f69e940001d977e1","freq_resp","img/green_2bandit_b.png","70","70","test","","","","4","",""
"null","252525","pSARL_v2","pSARL_v2cnoya3kk","5ac4c730f69e940001d977e1","fixation","img/fixation.png","null","","test","","","","","",""
"386.7999999523163","252920","pSARL_v2","pSARL_v2cnoya3kk","5ac4c730f69e940001d977e1","freq","img/green_2bandit_b2.png","70","70","test","1","83","83","4","",""
"null","253358","pSARL_v2","pSARL_v2cnoya3kk","5ac4c730f69e940001d977e1","freq_resp","img/green_2bandit_b.png","70","70","test","","","","4","",""
"null","253519","pSARL_v2","pSARL_v2cnoya3kk","5ac4c730f69e940001d977e1","fixation","img/fixation.png","null","","test","","","","","",""
"385.90000009536743","253912","pSARL_v2","pSARL_v2cnoya3kk","5ac4c730f69e940001d977e1","freq","img/green_2bandit_b2.png","70","70","test","1","84","84","4","",""
"null","254349","pSARL_v2","pSARL_v2cnoya3kk","5ac4c730f69e940001d977e1","freq_resp","img/green_2bandit_b.png","70","70","test","","","","4","",""
"null","254518","pSARL_v2","pSARL_v2cnoya3kk","5ac4c730f69e940001d977e1","fixation","img/fixation.png","null","","test","","","","","",""
"289.5","254815","pSARL_v2","pSARL_v2cnoya3kk","5ac4c730f69e940001d977e1","freq","img/green_2bandit_b2.png","70","70","test","1","85","85","4","",""
"null","255344","pSARL_v2","pSARL_v2cnoya3kk","5ac4c730f69e940001d977e1","freq_resp","img/green_2bandit_b.png","70","70","test","","","","4","",""
"null","255502","pSARL_v2","pSARL_v2cnoya3kk","5ac4c730f69e940001d977e1","fixation","img/fixation.png","null","","test","","","","","",""
"330.7000000476837","255840","pSARL_v2","pSARL_v2cnoya3kk","5ac4c730f69e940001d977e1","freq","img/green_2bandit_b2.png","70","70","test","1","86","86","4","",""
"null","256321","pSARL_v2","pSARL_v2cnoya3kk","5ac4c730f69e940001d977e1","freq_resp","img/green_2bandit_b.png","70","70","test","","","","4","",""
"null","256493","pSARL_v2","pSARL_v2cnoya3kk","5ac4c730f69e940001d977e1","fixation","img/fixation.png","null","","test","","","","","",""
"359.39999985694885","256860","pSARL_v2","pSARL_v2cnoya3kk","5ac4c730f69e940001d977e1","freq","img/green_2bandit_b2.png","70","70","test","1","87","87","4","",""
"null","257321","pSARL_v2","pSARL_v2cnoya3kk","5ac4c730f69e940001d977e1","freq_resp","img/green_2bandit_b.png","70","70","test","","","","4","",""
"null","257502","pSARL_v2","pSARL_v2cnoya3kk","5ac4c730f69e940001d977e1","fixation","img/fixation.png","null","","test","","","","","",""
"363.7999999523163","257873","pSARL_v2","pSARL_v2cnoya3kk","5ac4c730f69e940001d977e1","freq","img/green_2bandit_b2.png","70","70","test","1","88","88","4","",""
"null","258324","pSARL_v2","pSARL_v2cnoya3kk","5ac4c730f69e940001d977e1","freq_resp","img/green_2bandit_b.png","70","70","test","","","","4","",""
"null","258491","pSARL_v2","pSARL_v2cnoya3kk","5ac4c730f69e940001d977e1","fixation","img/fixation.png","null","","test","","","","","",""
"307.5","258806","pSARL_v2","pSARL_v2cnoya3kk","5ac4c730f69e940001d977e1","freq","img/green_2bandit_b2.png","70","70","test","1","89","89","4","",""
"null","259319","pSARL_v2","pSARL_v2cnoya3kk","5ac4c730f69e940001d977e1","freq_resp","img/green_2bandit_b.png","70","70","test","","","","4","",""
"null","259486","pSARL_v2","pSARL_v2cnoya3kk","5ac4c730f69e940001d977e1","fixation","img/fixation.png","null","","test","","","","","",""
"283.2000000476837","259776","pSARL_v2","pSARL_v2cnoya3kk","5ac4c730f69e940001d977e1","freq","img/green_2bandit_b2.png","70","70","test","1","90","90","4","",""
"null","260313","pSARL_v2","pSARL_v2cnoya3kk","5ac4c730f69e940001d977e1","freq_resp","img/green_2bandit_b.png","70","70","test","","","","4","",""
"null","260476","pSARL_v2","pSARL_v2cnoya3kk","5ac4c730f69e940001d977e1","fixation","img/fixation.png","null","","test","","","","","",""
"546.2000000476837","261030","pSARL_v2","pSARL_v2cnoya3kk","5ac4c730f69e940001d977e1","reward","img/slot.png","74","","test","","","","","",""
"null","261799","pSARL_v2","pSARL_v2cnoya3kk","5ac4c730f69e940001d977e1","points","<div class=""verylowPoints""> -3 </div>","null","na","test","","","","4","-3","3"
"505.2999999523163","262312","pSARL_v2","pSARL_v2cnoya3kk","5ac4c730f69e940001d977e1","freq","img/green_2bandit_b2.png","70","70","test","1","91","91","5","",""
"null","262615","pSARL_v2","pSARL_v2cnoya3kk","5ac4c730f69e940001d977e1","freq_resp","img/green_2bandit_b.png","70","70","test","","","","5","",""
"null","262794","pSARL_v2","pSARL_v2cnoya3kk","5ac4c730f69e940001d977e1","fixation","img/fixation.png","null","","test","","","","","",""
"518","263319","pSARL_v2","pSARL_v2cnoya3kk","5ac4c730f69e940001d977e1","freq","img/green_2bandit_b2.png","70","70","test","1","92","92","5","",""
"null","263617","pSARL_v2","pSARL_v2cnoya3kk","5ac4c730f69e940001d977e1","freq_resp","img/green_2bandit_b.png","70","70","test","","","","5","",""
"null","263778","pSARL_v2","pSARL_v2cnoya3kk","5ac4c730f69e940001d977e1","fixation","img/fixation.png","null","","test","","","","","",""
"483.7999999523163","264270","pSARL_v2","pSARL_v2cnoya3kk","5ac4c730f69e940001d977e1","freq","img/green_2bandit_b2.png","70","70","test","1","93","93","5","",""
"null","264597","pSARL_v2","pSARL_v2cnoya3kk","5ac4c730f69e940001d977e1","freq_resp","img/green_2bandit_b.png","70","70","test","","","","5","",""
"null","264758","pSARL_v2","pSARL_v2cnoya3kk","5ac4c730f69e940001d977e1","fixation","img/fixation.png","null","","test","","","","","",""
"465.5","265231","pSARL_v2","pSARL_v2cnoya3kk","5ac4c730f69e940001d977e1","freq","img/green_2bandit_b2.png","70","70","test","1","94","94","5","",""
"null","265586","pSARL_v2","pSARL_v2cnoya3kk","5ac4c730f69e940001d977e1","freq_resp","img/green_2bandit_b.png","70","70","test","","","","5","",""
"null","265760","pSARL_v2","pSARL_v2cnoya3kk","5ac4c730f69e940001d977e1","fixation","img/fixation.png","null","","test","","","","","",""
"375.7999999523163","266143","pSARL_v2","pSARL_v2cnoya3kk","5ac4c730f69e940001d977e1","freq","img/green_2bandit_b2.png","70","70","test","1","95","95","5","",""
"null","266586","pSARL_v2","pSARL_v2cnoya3kk","5ac4c730f69e940001d977e1","freq_resp","img/green_2bandit_b.png","70","70","test","","","","5","",""
"null","266761","pSARL_v2","pSARL_v2cnoya3kk","5ac4c730f69e940001d977e1","fixation","img/fixation.png","null","","test","","","","","",""
"362","267130","pSARL_v2","pSARL_v2cnoya3kk","5ac4c730f69e940001d977e1","freq","img/green_2bandit_b2.png","70","70","test","1","96","96","5","",""
"null","267586","pSARL_v2","pSARL_v2cnoya3kk","5ac4c730f69e940001d977e1","freq_resp","img/green_2bandit_b.png","70","70","test","","","","5","",""
"null","267744","pSARL_v2","pSARL_v2cnoya3kk","5ac4c730f69e940001d977e1","fixation","img/fixation.png","null","","test","","","","","",""
"325.7999999523163","268077","pSARL_v2","pSARL_v2cnoya3kk","5ac4c730f69e940001d977e1","freq","img/green_2bandit_b2.png","70","70","test","1","97","97","5","",""
"null","268570","pSARL_v2","pSARL_v2cnoya3kk","5ac4c730f69e940001d977e1","freq_resp","img/green_2bandit_b.png","70","70","test","","","","5","",""
"null","268751","pSARL_v2","pSARL_v2cnoya3kk","5ac4c730f69e940001d977e1","fixation","img/fixation.png","null","","test","","","","","",""
"404.09999990463257","269163","pSARL_v2","pSARL_v2cnoya3kk","5ac4c730f69e940001d977e1","infreq","img/orange_2bandit_b2.png","68","68","test","1","98","98","5","",""
"null","269567","pSARL_v2","pSARL_v2cnoya3kk","5ac4c730f69e940001d977e1","infreq_resp","img/orange_2bandit_b.png","68","68","test","","","","5","",""
"null","269736","pSARL_v2","pSARL_v2cnoya3kk","5ac4c730f69e940001d977e1","fixation","img/fixation.png","null","","test","","","","","",""
"359.90000009536743","270103","pSARL_v2","pSARL_v2cnoya3kk","5ac4c730f69e940001d977e1","freq","img/green_2bandit_b2.png","70","70","test","1","99","99","5","",""
"null","270558","pSARL_v2","pSARL_v2cnoya3kk","5ac4c730f69e940001d977e1","freq_resp","img/green_2bandit_b.png","70","70","test","","","","5","",""
"null","270719","pSARL_v2","pSARL_v2cnoya3kk","5ac4c730f69e940001d977e1","fixation","img/fixation.png","null","","test","","","","","",""
"337","271065","pSARL_v2","pSARL_v2cnoya3kk","5ac4c730f69e940001d977e1","freq","img/green_2bandit_b2.png","70","70","test","1","100","100","5","",""
"null","271538","pSARL_v2","pSARL_v2cnoya3kk","5ac4c730f69e940001d977e1","freq_resp","img/green_2bandit_b.png","70","70","test","","","","5","",""
"null","271703","pSARL_v2","pSARL_v2cnoya3kk","5ac4c730f69e940001d977e1","fixation","img/fixation.png","null","","test","","","","","",""
"280.60000014305115","271991","pSARL_v2","pSARL_v2cnoya3kk","5ac4c730f69e940001d977e1","freq","img/green_2bandit_b2.png","70","70","test","1","101","101","5","",""
"null","272532","pSARL_v2","pSARL_v2cnoya3kk","5ac4c730f69e940001d977e1","freq_resp","img/green_2bandit_b.png","70","70","test","","","","5","",""
"null","272693","pSARL_v2","pSARL_v2cnoya3kk","5ac4c730f69e940001d977e1","fixation","img/fixation.png","null","","test","","","","","",""
"325.69999980926514","273027","pSARL_v2","pSARL_v2cnoya3kk","5ac4c730f69e940001d977e1","freq","img/green_2bandit_b2.png","70","70","test","1","102","102","5","",""
"null","273519","pSARL_v2","pSARL_v2cnoya3kk","5ac4c730f69e940001d977e1","freq_resp","img/green_2bandit_b.png","70","70","test","","","","5","",""
"null","273684","pSARL_v2","pSARL_v2cnoya3kk","5ac4c730f69e940001d977e1","fixation","img/fixation.png","null","","test","","","","","",""
"308.5","274000","pSARL_v2","pSARL_v2cnoya3kk","5ac4c730f69e940001d977e1","freq","img/green_2bandit_b2.png","70","70","test","1","103","103","5","",""
"null","274526","pSARL_v2","pSARL_v2cnoya3kk","5ac4c730f69e940001d977e1","freq_resp","img/green_2bandit_b.png","70","70","test","","","","5","",""
"null","274692","pSARL_v2","pSARL_v2cnoya3kk","5ac4c730f69e940001d977e1","fixation","img/fixation.png","null","","test","","","","","",""
"340","275040","pSARL_v2","pSARL_v2cnoya3kk","5ac4c730f69e940001d977e1","freq","img/green_2bandit_b2.png","70","70","test","1","104","104","5","",""
"null","275521","pSARL_v2","pSARL_v2cnoya3kk","5ac4c730f69e940001d977e1","freq_resp","img/green_2bandit_b.png","70","70","test","","","","5","",""
"null","275686","pSARL_v2","pSARL_v2cnoya3kk","5ac4c730f69e940001d977e1","fixation","img/fixation.png","null","","test","","","","","",""
"441.2000000476837","276134","pSARL_v2","pSARL_v2cnoya3kk","5ac4c730f69e940001d977e1","freq","img/green_2bandit_b2.png","70","70","test","1","105","105","5","",""
"null","276506","pSARL_v2","pSARL_v2cnoya3kk","5ac4c730f69e940001d977e1","freq_resp","img/green_2bandit_b.png","70","70","test","","","","5","",""
"null","276670","pSARL_v2","pSARL_v2cnoya3kk","5ac4c730f69e940001d977e1","fixation","img/fixation.png","null","","test","","","","","",""
"395.7999999523163","277074","pSARL_v2","pSARL_v2cnoya3kk","5ac4c730f69e940001d977e1","freq","img/green_2bandit_b2.png","70","70","test","1","106","106","5","",""
"null","277491","pSARL_v2","pSARL_v2cnoya3kk","5ac4c730f69e940001d977e1","freq_resp","img/green_2bandit_b.png","70","70","test","","","","5","",""
"null","277654","pSARL_v2","pSARL_v2cnoya3kk","5ac4c730f69e940001d977e1","fixation","img/fixation.png","null","","test","","","","","",""
"382.59999990463257","278044","pSARL_v2","pSARL_v2cnoya3kk","5ac4c730f69e940001d977e1","freq","img/green_2bandit_b2.png","70","70","test","1","107","107","5","",""
"null","278470","pSARL_v2","pSARL_v2cnoya3kk","5ac4c730f69e940001d977e1","freq_resp","img/green_2bandit_b.png","70","70","test","","","","5","",""
"null","278635","pSARL_v2","pSARL_v2cnoya3kk","5ac4c730f69e940001d977e1","fixation","img/fixation.png","null","","test","","","","","",""
"428.40000009536743","279071","pSARL_v2","pSARL_v2cnoya3kk","5ac4c730f69e940001d977e1","freq","img/green_2bandit_b2.png","70","70","test","1","108","108","5","",""
"null","279458","pSARL_v2","pSARL_v2cnoya3kk","5ac4c730f69e940001d977e1","freq_resp","img/green_2bandit_b.png","70","70","test","","","","5","",""
"null","279622","pSARL_v2","pSARL_v2cnoya3kk","5ac4c730f69e940001d977e1","fixation","img/fixation.png","null","","test","","","","","",""
"315.09999990463257","279945","pSARL_v2","pSARL_v2cnoya3kk","5ac4c730f69e940001d977e1","freq","img/green_2bandit_b2.png","70","70","test","1","109","109","5","",""
"null","280441","pSARL_v2","pSARL_v2cnoya3kk","5ac4c730f69e940001d977e1","freq_resp","img/green_2bandit_b.png","70","70","test","","","","5","",""
"null","280609","pSARL_v2","pSARL_v2cnoya3kk","5ac4c730f69e940001d977e1","fixation","img/fixation.png","null","","test","","","","","",""
"446.5","281063","pSARL_v2","pSARL_v2cnoya3kk","5ac4c730f69e940001d977e1","infreq","img/orange_2bandit_b2.png","68","68","test","1","110","110","5","",""
"null","281429","pSARL_v2","pSARL_v2cnoya3kk","5ac4c730f69e940001d977e1","infreq_resp","img/orange_2bandit_b.png","68","68","test","","","","5","",""
"null","281603","pSARL_v2","pSARL_v2cnoya3kk","5ac4c730f69e940001d977e1","fixation","img/fixation.png","null","","test","","","","","",""
"479.69999980926514","282089","pSARL_v2","pSARL_v2cnoya3kk","5ac4c730f69e940001d977e1","freq","img/green_2bandit_b2.png","70","70","test","1","111","111","5","",""
"null","282422","pSARL_v2","pSARL_v2cnoya3kk","5ac4c730f69e940001d977e1","freq_resp","img/green_2bandit_b.png","70","70","test","","","","5","",""
"null","282594","pSARL_v2","pSARL_v2cnoya3kk","5ac4c730f69e940001d977e1","fixation","img/fixation.png","null","","test","","","","","",""
"329","282929","pSARL_v2","pSARL_v2cnoya3kk","5ac4c730f69e940001d977e1","freq","img/green_2bandit_b2.png","70","70","test","1","112","112","5","",""
"null","283413","pSARL_v2","pSARL_v2cnoya3kk","5ac4c730f69e940001d977e1","freq_resp","img/green_2bandit_b.png","70","70","test","","","","5","",""
"null","283585","pSARL_v2","pSARL_v2cnoya3kk","5ac4c730f69e940001d977e1","fixation","img/fixation.png","null","","test","","","","","",""
"430.90000009536743","284023","pSARL_v2","pSARL_v2cnoya3kk","5ac4c730f69e940001d977e1","reward","img/slot.png","74","","test","","","","","",""
"null","284796","pSARL_v2","pSARL_v2cnoya3kk","5ac4c730f69e940001d977e1","points","<div class=""veryhighPoints""> +1 </div>","null","na","test","","","","5","1","4"
"482.5","285286","pSARL_v2","pSARL_v2cnoya3kk","5ac4c730f69e940001d977e1","freq","img/green_2bandit_b2.png","70","70","test","1","113","113","6","",""
"null","285613","pSARL_v2","pSARL_v2cnoya3kk","5ac4c730f69e940001d977e1","freq_resp","img/green_2bandit_b.png","70","70","test","","","","6","",""
"null","285785","pSARL_v2","pSARL_v2cnoya3kk","5ac4c730f69e940001d977e1","fixation","img/fixation.png","null","","test","","","","","",""
"370.7000000476837","286165","pSARL_v2","pSARL_v2cnoya3kk","5ac4c730f69e940001d977e1","freq","img/green_2bandit_b2.png","70","70","test","1","114","114","6","",""
"null","286604","pSARL_v2","pSARL_v2cnoya3kk","5ac4c730f69e940001d977e1","freq_resp","img/green_2bandit_b.png","70","70","test","","","","6","",""
"null","286777","pSARL_v2","pSARL_v2cnoya3kk","5ac4c730f69e940001d977e1","fixation","img/fixation.png","null","","test","","","","","",""
"392.7999999523163","287178","pSARL_v2","pSARL_v2cnoya3kk","5ac4c730f69e940001d977e1","freq","img/green_2bandit_b2.png","70","70","test","1","115","115","6","",""
"null","287605","pSARL_v2","pSARL_v2cnoya3kk","5ac4c730f69e940001d977e1","freq_resp","img/green_2bandit_b.png","70","70","test","","","","6","",""
"null","287776","pSARL_v2","pSARL_v2cnoya3kk","5ac4c730f69e940001d977e1","fixation","img/fixation.png","null","","test","","","","","",""
"368.40000009536743","288152","pSARL_v2","pSARL_v2cnoya3kk","5ac4c730f69e940001d977e1","freq","img/green_2bandit_b2.png","70","70","test","1","116","116","6","",""
"null","288604","pSARL_v2","pSARL_v2cnoya3kk","5ac4c730f69e940001d977e1","freq_resp","img/green_2bandit_b.png","70","70","test","","","","6","",""
"null","288773","pSARL_v2","pSARL_v2cnoya3kk","5ac4c730f69e940001d977e1","fixation","img/fixation.png","null","","test","","","","","",""
"323.60000014305115","289104","pSARL_v2","pSARL_v2cnoya3kk","5ac4c730f69e940001d977e1","freq","img/green_2bandit_b2.png","70","70","test","1","117","117","6","",""
"null","289594","pSARL_v2","pSARL_v2cnoya3kk","5ac4c730f69e940001d977e1","freq_resp","img/green_2bandit_b.png","70","70","test","","","","6","",""
"null","289767","pSARL_v2","pSARL_v2cnoya3kk","5ac4c730f69e940001d977e1","fixation","img/fixation.png","null","","test","","","","","",""
"290.5","290065","pSARL_v2","pSARL_v2cnoya3kk","5ac4c730f69e940001d977e1","freq","img/green_2bandit_b2.png","70","70","test","1","118","118","6","",""
"null","290599","pSARL_v2","pSARL_v2cnoya3kk","5ac4c730f69e940001d977e1","freq_resp","img/green_2bandit_b.png","70","70","test","","","","6","",""
"null","290768","pSARL_v2","pSARL_v2cnoya3kk","5ac4c730f69e940001d977e1","fixation","img/fixation.png","null","","test","","","","","",""
"332.89999985694885","291108","pSARL_v2","pSARL_v2cnoya3kk","5ac4c730f69e940001d977e1","freq","img/green_2bandit_b2.png","70","70","test","1","119","119","6","",""
"null","291595","pSARL_v2","pSARL_v2cnoya3kk","5ac4c730f69e940001d977e1","freq_resp","img/green_2bandit_b.png","70","70","test","","","","6","",""
"null","291761","pSARL_v2","pSARL_v2cnoya3kk","5ac4c730f69e940001d977e1","fixation","img/fixation.png","null","","test","","","","","",""
"382.19999980926514","292151","pSARL_v2","pSARL_v2cnoya3kk","5ac4c730f69e940001d977e1","freq","img/green_2bandit_b2.png","70","70","test","1","120","120","6","",""
"null","292583","pSARL_v2","pSARL_v2cnoya3kk","5ac4c730f69e940001d977e1","freq_resp","img/green_2bandit_b.png","70","70","test","","","","6","",""
"null","292753","pSARL_v2","pSARL_v2cnoya3kk","5ac4c730f69e940001d977e1","fixation","img/fixation.png","null","","test","","","","","",""
"372.90000009536743","293134","pSARL_v2","pSARL_v2cnoya3kk","5ac4c730f69e940001d977e1","freq","img/green_2bandit_b2.png","70","70","test","1","121","121","6","",""
"null","293573","pSARL_v2","pSARL_v2cnoya3kk","5ac4c730f69e940001d977e1","freq_resp","img/green_2bandit_b.png","70","70","test","","","","6","",""
"null","293744","pSARL_v2","pSARL_v2cnoya3kk","5ac4c730f69e940001d977e1","fixation","img/fixation.png","null","","test","","","","","",""
"355.2000000476837","294107","pSARL_v2","pSARL_v2cnoya3kk","5ac4c730f69e940001d977e1","freq","img/green_2bandit_b2.png","70","70","test","1","122","122","6","",""
"null","294564","pSARL_v2","pSARL_v2cnoya3kk","5ac4c730f69e940001d977e1","freq_resp","img/green_2bandit_b.png","70","70","test","","","","6","",""
"null","294734","pSARL_v2","pSARL_v2cnoya3kk","5ac4c730f69e940001d977e1","fixation","img/fixation.png","null","","test","","","","","",""
"311","295052","pSARL_v2","pSARL_v2cnoya3kk","5ac4c730f69e940001d977e1","freq","img/green_2bandit_b2.png","70","70","test","1","123","123","6","",""
"null","295564","pSARL_v2","pSARL_v2cnoya3kk","5ac4c730f69e940001d977e1","freq_resp","img/green_2bandit_b.png","70","70","test","","","","6","",""
"null","295726","pSARL_v2","pSARL_v2cnoya3kk","5ac4c730f69e940001d977e1","fixation","img/fixation.png","null","","test","","","","","",""
"328","296061","pSARL_v2","pSARL_v2cnoya3kk","5ac4c730f69e940001d977e1","freq","img/green_2bandit_b2.png","70","70","test","1","124","124","6","",""
"null","296549","pSARL_v2","pSARL_v2cnoya3kk","5ac4c730f69e940001d977e1","freq_resp","img/green_2bandit_b.png","70","70","test","","","","6","",""
"null","296710","pSARL_v2","pSARL_v2cnoya3kk","5ac4c730f69e940001d977e1","fixation","img/fixation.png","null","","test","","","","","",""
"313.5","297032","pSARL_v2","pSARL_v2cnoya3kk","5ac4c730f69e940001d977e1","freq","img/green_2bandit_b2.png","70","70","test","1","125","125","6","",""
"null","297534","pSARL_v2","pSARL_v2cnoya3kk","5ac4c730f69e940001d977e1","freq_resp","img/green_2bandit_b.png","70","70","test","","","","6","",""
"null","297703","pSARL_v2","pSARL_v2cnoya3kk","5ac4c730f69e940001d977e1","fixation","img/fixation.png","null","","test","","","","","",""
"419.2000000476837","298130","pSARL_v2","pSARL_v2cnoya3kk","5ac4c730f69e940001d977e1","infreq","img/orange_2bandit_b2.png","68","68","test","1","126","126","6","",""
"null","298534","pSARL_v2","pSARL_v2cnoya3kk","5ac4c730f69e940001d977e1","infreq_resp","img/orange_2bandit_b.png","68","68","test","","","","6","",""
"null","298701","pSARL_v2","pSARL_v2cnoya3kk","5ac4c730f69e940001d977e1","fixation","img/fixation.png","null","","test","","","","","",""
"369.90000009536743","299078","pSARL_v2","pSARL_v2cnoya3kk","5ac4c730f69e940001d977e1","freq","img/green_2bandit_b2.png","70","70","test","1","127","127","6","",""
"null","299524","pSARL_v2","pSARL_v2cnoya3kk","5ac4c730f69e940001d977e1","freq_resp","img/green_2bandit_b.png","70","70","test","","","","6","",""
"null","299691","pSARL_v2","pSARL_v2cnoya3kk","5ac4c730f69e940001d977e1","fixation","img/fixation.png","null","","test","","","","","",""
"411.39999985694885","300110","pSARL_v2","pSARL_v2cnoya3kk","5ac4c730f69e940001d977e1","infreq","img/orange_2bandit_b2.png","68","68","test","1","128","128","6","",""
"null","300508","pSARL_v2","pSARL_v2cnoya3kk","5ac4c730f69e940001d977e1","infreq_resp","img/orange_2bandit_b.png","68","68","test","","","","6","",""
"null","300676","pSARL_v2","pSARL_v2cnoya3kk","5ac4c730f69e940001d977e1","fixation","img/fixation.png","null","","test","","","","","",""
"356.7999999523163","301040","pSARL_v2","pSARL_v2cnoya3kk","5ac4c730f69e940001d977e1","freq","img/green_2bandit_b2.png","70","70","test","1","129","129","6","",""
"null","301518","pSARL_v2","pSARL_v2cnoya3kk","5ac4c730f69e940001d977e1","freq_resp","img/green_2bandit_b.png","70","70","test","","","","6","",""
"null","301689","pSARL_v2","pSARL_v2cnoya3kk","5ac4c730f69e940001d977e1","fixation","img/fixation.png","null","","test","","","","","",""
"403.90000009536743","302101","pSARL_v2","pSARL_v2cnoya3kk","5ac4c730f69e940001d977e1","infreq","img/orange_2bandit_b2.png","68","68","test","1","130","130","6","",""
"null","302517","pSARL_v2","pSARL_v2cnoya3kk","5ac4c730f69e940001d977e1","infreq_resp","img/orange_2bandit_b.png","68","68","test","","","","6","",""
"null","302675","pSARL_v2","pSARL_v2cnoya3kk","5ac4c730f69e940001d977e1","fixation","img/fixation.png","null","","test","","","","","",""
"379.59999990463257","303064","pSARL_v2","pSARL_v2cnoya3kk","5ac4c730f69e940001d977e1","freq","img/green_2bandit_b2.png","70","70","test","1","131","131","6","",""
"null","303498","pSARL_v2","pSARL_v2cnoya3kk","5ac4c730f69e940001d977e1","freq_resp","img/green_2bandit_b.png","70","70","test","","","","6","",""
"null","303660","pSARL_v2","pSARL_v2cnoya3kk","5ac4c730f69e940001d977e1","fixation","img/fixation.png","null","","test","","","","","",""
"422.7000000476837","304090","pSARL_v2","pSARL_v2cnoya3kk","5ac4c730f69e940001d977e1","freq","img/green_2bandit_b2.png","70","70","test","1","132","132","6","",""
"null","304476","pSARL_v2","pSARL_v2cnoya3kk","5ac4c730f69e940001d977e1","freq_resp","img/green_2bandit_b.png","70","70","test","","","","6","",""
"null","304643","pSARL_v2","pSARL_v2cnoya3kk","5ac4c730f69e940001d977e1","fixation","img/fixation.png","null","","test","","","","","",""
"377.5","305028","pSARL_v2","pSARL_v2cnoya3kk","5ac4c730f69e940001d977e1","freq","img/green_2bandit_b2.png","70","70","test","1","133","133","6","",""
"null","305465","pSARL_v2","pSARL_v2cnoya3kk","5ac4c730f69e940001d977e1","freq_resp","img/green_2bandit_b.png","70","70","test","","","","6","",""
"null","305636","pSARL_v2","pSARL_v2cnoya3kk","5ac4c730f69e940001d977e1","fixation","img/fixation.png","null","","test","","","","","",""
"349.7000000476837","305993","pSARL_v2","pSARL_v2cnoya3kk","5ac4c730f69e940001d977e1","freq","img/green_2bandit_b2.png","70","70","test","1","134","134","6","",""
"null","306463","pSARL_v2","pSARL_v2cnoya3kk","5ac4c730f69e940001d977e1","freq_resp","img/green_2bandit_b.png","70","70","test","","","","6","",""
"null","306636","pSARL_v2","pSARL_v2cnoya3kk","5ac4c730f69e940001d977e1","fixation","img/fixation.png","null","","test","","","","","",""
"376.40000009536743","307021","pSARL_v2","pSARL_v2cnoya3kk","5ac4c730f69e940001d977e1","freq","img/green_2bandit_b2.png","70","70","test","1","135","135","6","",""
"null","307453","pSARL_v2","pSARL_v2cnoya3kk","5ac4c730f69e940001d977e1","freq_resp","img/green_2bandit_b.png","70","70","test","","","","6","",""
"null","307621","pSARL_v2","pSARL_v2cnoya3kk","5ac4c730f69e940001d977e1","fixation","img/fixation.png","null","","test","","","","","",""
"305.2000000476837","307935","pSARL_v2","pSARL_v2cnoya3kk","5ac4c730f69e940001d977e1","freq","img/green_2bandit_b2.png","70","70","test","1","136","136","6","",""
"null","308451","pSARL_v2","pSARL_v2cnoya3kk","5ac4c730f69e940001d977e1","freq_resp","img/green_2bandit_b.png","70","70","test","","","","6","",""
"null","308610","pSARL_v2","pSARL_v2cnoya3kk","5ac4c730f69e940001d977e1","fixation","img/fixation.png","null","","test","","","","","",""
"394.89999985694885","309012","pSARL_v2","pSARL_v2cnoya3kk","5ac4c730f69e940001d977e1","freq","img/green_2bandit_b2.png","70","70","test","1","137","137","6","",""
"null","309437","pSARL_v2","pSARL_v2cnoya3kk","5ac4c730f69e940001d977e1","freq_resp","img/green_2bandit_b.png","70","70","test","","","","6","",""
"null","309608","pSARL_v2","pSARL_v2cnoya3kk","5ac4c730f69e940001d977e1","fixation","img/fixation.png","null","","test","","","","","",""
"376.5","309991","pSARL_v2","pSARL_v2cnoya3kk","5ac4c730f69e940001d977e1","freq","img/green_2bandit_b2.png","70","70","test","1","138","138","6","",""
"null","310435","pSARL_v2","pSARL_v2cnoya3kk","5ac4c730f69e940001d977e1","freq_resp","img/green_2bandit_b.png","70","70","test","","","","6","",""
"null","310606","pSARL_v2","pSARL_v2cnoya3kk","5ac4c730f69e940001d977e1","fixation","img/fixation.png","null","","test","","","","","",""
"543.5","311156","pSARL_v2","pSARL_v2cnoya3kk","5ac4c730f69e940001d977e1","reward","img/slot.png","74","","test","","","","","",""
"null","311917","pSARL_v2","pSARL_v2cnoya3kk","5ac4c730f69e940001d977e1","points","<div class=""verylowPoints""> -7 </div>","null","na","test","","","","6","-7","5"
"536","312461","pSARL_v2","pSARL_v2cnoya3kk","5ac4c730f69e940001d977e1","freq","img/green_2bandit_b2.png","70","70","test","1","139","139","7","",""
"null","312746","pSARL_v2","pSARL_v2cnoya3kk","5ac4c730f69e940001d977e1","freq_resp","img/green_2bandit_b.png","70","70","test","","","","7","",""
"null","312904","pSARL_v2","pSARL_v2cnoya3kk","5ac4c730f69e940001d977e1","fixation","img/fixation.png","null","","test","","","","","",""
"388.2000000476837","313300","pSARL_v2","pSARL_v2cnoya3kk","5ac4c730f69e940001d977e1","freq","img/green_2bandit_b2.png","70","70","test","1","140","140","7","",""
"null","313733","pSARL_v2","pSARL_v2cnoya3kk","5ac4c730f69e940001d977e1","freq_resp","img/green_2bandit_b.png","70","70","test","","","","7","",""
"null","313901","pSARL_v2","pSARL_v2cnoya3kk","5ac4c730f69e940001d977e1","fixation","img/fixation.png","null","","test","","","","","",""
"407.89999985694885","314316","pSARL_v2","pSARL_v2cnoya3kk","5ac4c730f69e940001d977e1","freq","img/green_2bandit_b2.png","70","70","test","1","141","141","7","",""
"null","314721","pSARL_v2","pSARL_v2cnoya3kk","5ac4c730f69e940001d977e1","freq_resp","img/green_2bandit_b.png","70","70","test","","","","7","",""
"null","314892","pSARL_v2","pSARL_v2cnoya3kk","5ac4c730f69e940001d977e1","fixation","img/fixation.png","null","","test","","","","","",""
"409.7999999523163","315310","pSARL_v2","pSARL_v2cnoya3kk","5ac4c730f69e940001d977e1","freq","img/green_2bandit_b2.png","70","70","test","1","142","142","7","",""
"null","315719","pSARL_v2","pSARL_v2cnoya3kk","5ac4c730f69e940001d977e1","freq_resp","img/green_2bandit_b.png","70","70","test","","","","7","",""
"null","315892","pSARL_v2","pSARL_v2cnoya3kk","5ac4c730f69e940001d977e1","fixation","img/fixation.png","null","","test","","","","","",""
"458.90000009536743","316359","pSARL_v2","pSARL_v2cnoya3kk","5ac4c730f69e940001d977e1","freq","img/green_2bandit_b2.png","70","70","test","1","143","143","7","",""
"null","316710","pSARL_v2","pSARL_v2cnoya3kk","5ac4c730f69e940001d977e1","freq_resp","img/green_2bandit_b.png","70","70","test","","","","7","",""
"null","316870","pSARL_v2","pSARL_v2cnoya3kk","5ac4c730f69e940001d977e1","fixation","img/fixation.png","null","","test","","","","","",""
"387.40000009536743","317265","pSARL_v2","pSARL_v2cnoya3kk","5ac4c730f69e940001d977e1","freq","img/green_2bandit_b2.png","70","70","test","1","144","144","7","",""
"null","317722","pSARL_v2","pSARL_v2cnoya3kk","5ac4c730f69e940001d977e1","freq_resp","img/green_2bandit_b.png","70","70","test","","","","7","",""
"null","317892","pSARL_v2","pSARL_v2cnoya3kk","5ac4c730f69e940001d977e1","fixation","img/fixation.png","null","","test","","","","","",""
"345.2000000476837","318244","pSARL_v2","pSARL_v2cnoya3kk","5ac4c730f69e940001d977e1","freq","img/green_2bandit_b2.png","70","70","test","1","145","145","7","",""
"null","318719","pSARL_v2","pSARL_v2cnoya3kk","5ac4c730f69e940001d977e1","freq_resp","img/green_2bandit_b.png","70","70","test","","","","7","",""
"null","318891","pSARL_v2","pSARL_v2cnoya3kk","5ac4c730f69e940001d977e1","fixation","img/fixation.png","null","","test","","","","","",""
"384.7000000476837","319284","pSARL_v2","pSARL_v2cnoya3kk","5ac4c730f69e940001d977e1","freq","img/green_2bandit_b2.png","70","70","test","1","146","146","7","",""
"null","319718","pSARL_v2","pSARL_v2cnoya3kk","5ac4c730f69e940001d977e1","freq_resp","img/green_2bandit_b.png","70","70","test","","","","7","",""
"null","319876","pSARL_v2","pSARL_v2cnoya3kk","5ac4c730f69e940001d977e1","fixation","img/fixation.png","null","","test","","","","","",""
"318","320200","pSARL_v2","pSARL_v2cnoya3kk","5ac4c730f69e940001d977e1","freq","img/green_2bandit_b2.png","70","70","test","1","147","147","7","",""
"null","320703","pSARL_v2","pSARL_v2cnoya3kk","5ac4c730f69e940001d977e1","freq_resp","img/green_2bandit_b.png","70","70","test","","","","7","",""
"null","320869","pSARL_v2","pSARL_v2cnoya3kk","5ac4c730f69e940001d977e1","fixation","img/fixation.png","null","","test","","","","","",""
"352.10000014305115","321228","pSARL_v2","pSARL_v2cnoya3kk","5ac4c730f69e940001d977e1","freq","img/green_2bandit_b2.png","70","70","test","1","148","148","7","",""
"null","321697","pSARL_v2","pSARL_v2cnoya3kk","5ac4c730f69e940001d977e1","freq_resp","img/green_2bandit_b.png","70","70","test","","","","7","",""
"null","321859","pSARL_v2","pSARL_v2cnoya3kk","5ac4c730f69e940001d977e1","fixation","img/fixation.png","null","","test","","","","","",""
"328.30000019073486","322195","pSARL_v2","pSARL_v2cnoya3kk","5ac4c730f69e940001d977e1","freq","img/green_2bandit_b2.png","70","70","test","1","149","149","7","",""
"null","322689","pSARL_v2","pSARL_v2cnoya3kk","5ac4c730f69e940001d977e1","freq_resp","img/green_2bandit_b.png","70","70","test","","","","7","",""
"null","322860","pSARL_v2","pSARL_v2cnoya3kk","5ac4c730f69e940001d977e1","fixation","img/fixation.png","null","","test","","","","","",""
"330.59999990463257","323200","pSARL_v2","pSARL_v2cnoya3kk","5ac4c730f69e940001d977e1","freq","img/green_2bandit_b2.png","70","70","test","1","150","150","7","",""
"null","323690","pSARL_v2","pSARL_v2cnoya3kk","5ac4c730f69e940001d977e1","freq_resp","img/green_2bandit_b.png","70","70","test","","","","7","",""
"null","323850","pSARL_v2","pSARL_v2cnoya3kk","5ac4c730f69e940001d977e1","fixation","img/fixation.png","null","","test","","","","","",""
"333.39999985694885","324191","pSARL_v2","pSARL_v2cnoya3kk","5ac4c730f69e940001d977e1","freq","img/green_2bandit_b2.png","70","70","test","1","151","151","7","",""
"null","324669","pSARL_v2","pSARL_v2cnoya3kk","5ac4c730f69e940001d977e1","freq_resp","img/green_2bandit_b.png","70","70","test","","","","7","",""
"null","324835","pSARL_v2","pSARL_v2cnoya3kk","5ac4c730f69e940001d977e1","fixation","img/fixation.png","null","","test","","","","","",""
"335.60000014305115","325178","pSARL_v2","pSARL_v2cnoya3kk","5ac4c730f69e940001d977e1","freq","img/green_2bandit_b2.png","70","70","test","1","152","152","7","",""
"null","325654","pSARL_v2","pSARL_v2cnoya3kk","5ac4c730f69e940001d977e1","freq_resp","img/green_2bandit_b.png","70","70","test","","","","7","",""
"null","325826","pSARL_v2","pSARL_v2cnoya3kk","5ac4c730f69e940001d977e1","fixation","img/fixation.png","null","","test","","","","","",""
"283.60000014305115","326117","pSARL_v2","pSARL_v2cnoya3kk","5ac4c730f69e940001d977e1","freq","img/green_2bandit_b2.png","70","70","test","1","153","153","7","",""
"null","326653","pSARL_v2","pSARL_v2cnoya3kk","5ac4c730f69e940001d977e1","freq_resp","img/green_2bandit_b.png","70","70","test","","","","7","",""
"null","326826","pSARL_v2","pSARL_v2cnoya3kk","5ac4c730f69e940001d977e1","fixation","img/fixation.png","null","","test","","","","","",""
"306.89999985694885","327141","pSARL_v2","pSARL_v2cnoya3kk","5ac4c730f69e940001d977e1","freq","img/green_2bandit_b2.png","70","70","test","1","154","154","7","",""
"null","327651","pSARL_v2","pSARL_v2cnoya3kk","5ac4c730f69e940001d977e1","freq_resp","img/green_2bandit_b.png","70","70","test","","","","7","",""
"null","327824","pSARL_v2","pSARL_v2cnoya3kk","5ac4c730f69e940001d977e1","fixation","img/fixation.png","null","","test","","","","","",""
"317.2000000476837","328149","pSARL_v2","pSARL_v2cnoya3kk","5ac4c730f69e940001d977e1","freq","img/green_2bandit_b2.png","70","70","test","1","155","155","7","",""
"null","328668","pSARL_v2","pSARL_v2cnoya3kk","5ac4c730f69e940001d977e1","freq_resp","img/green_2bandit_b.png","70","70","test","","","","7","",""
"null","328842","pSARL_v2","pSARL_v2cnoya3kk","5ac4c730f69e940001d977e1","fixation","img/fixation.png","null","","test","","","","","",""
"324.5","329174","pSARL_v2","pSARL_v2cnoya3kk","5ac4c730f69e940001d977e1","freq","img/green_2bandit_b2.png","70","70","test","1","156","156","7","",""
"null","329667","pSARL_v2","pSARL_v2cnoya3kk","5ac4c730f69e940001d977e1","freq_resp","img/green_2bandit_b.png","70","70","test","","","","7","",""
"null","329835","pSARL_v2","pSARL_v2cnoya3kk","5ac4c730f69e940001d977e1","fixation","img/fixation.png","null","","test","","","","","",""
"330.90000009536743","330175","pSARL_v2","pSARL_v2cnoya3kk","5ac4c730f69e940001d977e1","freq","img/green_2bandit_b2.png","70","70","test","1","157","157","7","",""
"null","330660","pSARL_v2","pSARL_v2cnoya3kk","5ac4c730f69e940001d977e1","freq_resp","img/green_2bandit_b.png","70","70","test","","","","7","",""
"null","330827","pSARL_v2","pSARL_v2cnoya3kk","5ac4c730f69e940001d977e1","fixation","img/fixation.png","null","","test","","","","","",""
"324.40000009536743","331159","pSARL_v2","pSARL_v2cnoya3kk","5ac4c730f69e940001d977e1","freq","img/green_2bandit_b2.png","70","70","test","1","158","158","7","",""
"null","331652","pSARL_v2","pSARL_v2cnoya3kk","5ac4c730f69e940001d977e1","freq_resp","img/green_2bandit_b.png","70","70","test","","","","7","",""
"null","331817","pSARL_v2","pSARL_v2cnoya3kk","5ac4c730f69e940001d977e1","fixation","img/fixation.png","null","","test","","","","","",""
"325","332149","pSARL_v2","pSARL_v2cnoya3kk","5ac4c730f69e940001d977e1","freq","img/green_2bandit_b2.png","70","70","test","1","159","159","7","",""
"null","332634","pSARL_v2","pSARL_v2cnoya3kk","5ac4c730f69e940001d977e1","freq_resp","img/green_2bandit_b.png","70","70","test","","","","7","",""
"null","332808","pSARL_v2","pSARL_v2cnoya3kk","5ac4c730f69e940001d977e1","fixation","img/fixation.png","null","","test","","","","","",""
"291","333107","pSARL_v2","pSARL_v2cnoya3kk","5ac4c730f69e940001d977e1","freq","img/green_2bandit_b2.png","70","70","test","1","160","160","7","",""
"null","333634","pSARL_v2","pSARL_v2cnoya3kk","5ac4c730f69e940001d977e1","freq_resp","img/green_2bandit_b.png","70","70","test","","","","7","",""
"null","333799","pSARL_v2","pSARL_v2cnoya3kk","5ac4c730f69e940001d977e1","fixation","img/fixation.png","null","","test","","","","","",""
"null","334618","pSARL_v2","pSARL_v2cnoya3kk","5ac4c730f69e940001d977e1","infreq","img/orange_2bandit_b2.png","null","68","test","0","161","161","7","",""
"null","334787","pSARL_v2","pSARL_v2cnoya3kk","5ac4c730f69e940001d977e1","fixation","img/fixation.png","null","","test","","","","","",""
"503","335299","pSARL_v2","pSARL_v2cnoya3kk","5ac4c730f69e940001d977e1","infreq","img/orange_2bandit_b2.png","68","68","test","1","162","162","7","",""
"null","335613","pSARL_v2","pSARL_v2cnoya3kk","5ac4c730f69e940001d977e1","infreq_resp","img/orange_2bandit_b.png","68","68","test","","","","7","",""
"null","335775","pSARL_v2","pSARL_v2cnoya3kk","5ac4c730f69e940001d977e1","fixation","img/fixation.png","null","","test","","","","","",""
"558.8000001907349","336342","pSARL_v2","pSARL_v2cnoya3kk","5ac4c730f69e940001d977e1","freq","img/green_2bandit_b2.png","70","70","test","1","163","163","7","",""
"null","336599","pSARL_v2","pSARL_v2cnoya3kk","5ac4c730f69e940001d977e1","freq_resp","img/green_2bandit_b.png","70","70","test","","","","7","",""
"null","336769","pSARL_v2","pSARL_v2cnoya3kk","5ac4c730f69e940001d977e1","fixation","img/fixation.png","null","","test","","","","","",""
"481.2000000476837","337257","pSARL_v2","pSARL_v2cnoya3kk","5ac4c730f69e940001d977e1","reward","img/slot.png","74","","test","","","","","",""
"null","338030","pSARL_v2","pSARL_v2cnoya3kk","5ac4c730f69e940001d977e1","points","<div class=""verylowPoints""> -6 </div>","null","na","test","","","","7","-6","6"
"555.4000000953674","338593","pSARL_v2","pSARL_v2cnoya3kk","5ac4c730f69e940001d977e1","freq","img/green_2bandit_b2.png","70","70","test","1","164","164","8","",""
"null","338849","pSARL_v2","pSARL_v2cnoya3kk","5ac4c730f69e940001d977e1","freq_resp","img/green_2bandit_b.png","70","70","test","","","","8","",""
"null","339008","pSARL_v2","pSARL_v2cnoya3kk","5ac4c730f69e940001d977e1","fixation","img/fixation.png","null","","test","","","","","",""
"376.40000009536743","339392","pSARL_v2","pSARL_v2cnoya3kk","5ac4c730f69e940001d977e1","freq","img/green_2bandit_b2.png","70","70","test","1","165","165","8","",""
"null","339838","pSARL_v2","pSARL_v2cnoya3kk","5ac4c730f69e940001d977e1","freq_resp","img/green_2bandit_b.png","70","70","test","","","","8","",""
"null","340008","pSARL_v2","pSARL_v2cnoya3kk","5ac4c730f69e940001d977e1","fixation","img/fixation.png","null","","test","","","","","",""
"320.40000009536743","340336","pSARL_v2","pSARL_v2cnoya3kk","5ac4c730f69e940001d977e1","freq","img/green_2bandit_b2.png","70","70","test","1","166","166","8","",""
"null","340831","pSARL_v2","pSARL_v2cnoya3kk","5ac4c730f69e940001d977e1","freq_resp","img/green_2bandit_b.png","70","70","test","","","","8","",""
"null","341002","pSARL_v2","pSARL_v2cnoya3kk","5ac4c730f69e940001d977e1","fixation","img/fixation.png","null","","test","","","","","",""
"352.5","341363","pSARL_v2","pSARL_v2cnoya3kk","5ac4c730f69e940001d977e1","freq","img/green_2bandit_b2.png","70","70","test","1","167","167","8","",""
"null","341832","pSARL_v2","pSARL_v2cnoya3kk","5ac4c730f69e940001d977e1","freq_resp","img/green_2bandit_b.png","70","70","test","","","","8","",""
"null","342005","pSARL_v2","pSARL_v2cnoya3kk","5ac4c730f69e940001d977e1","fixation","img/fixation.png","null","","test","","","","","",""
"361.90000009536743","342374","pSARL_v2","pSARL_v2cnoya3kk","5ac4c730f69e940001d977e1","freq","img/green_2bandit_b2.png","70","70","test","1","168","168","8","",""
"null","342822","pSARL_v2","pSARL_v2cnoya3kk","5ac4c730f69e940001d977e1","freq_resp","img/green_2bandit_b.png","70","70","test","","","","8","",""
"null","342992","pSARL_v2","pSARL_v2cnoya3kk","5ac4c730f69e940001d977e1","fixation","img/fixation.png","null","","test","","","","","",""
"322.2999999523163","343321","pSARL_v2","pSARL_v2cnoya3kk","5ac4c730f69e940001d977e1","freq","img/green_2bandit_b2.png","70","70","test","1","169","169","8","",""
"null","343816","pSARL_v2","pSARL_v2cnoya3kk","5ac4c730f69e940001d977e1","freq_resp","img/green_2bandit_b.png","70","70","test","","","","8","",""
"null","343983","pSARL_v2","pSARL_v2cnoya3kk","5ac4c730f69e940001d977e1","fixation","img/fixation.png","null","","test","","","","","",""
"300.40000009536743","344292","pSARL_v2","pSARL_v2cnoya3kk","5ac4c730f69e940001d977e1","freq","img/green_2bandit_b2.png","70","70","test","1","170","170","8","",""
"null","344830","pSARL_v2","pSARL_v2cnoya3kk","5ac4c730f69e940001d977e1","freq_resp","img/green_2bandit_b.png","70","70","test","","","","8","",""
"null","345015","pSARL_v2","pSARL_v2cnoya3kk","5ac4c730f69e940001d977e1","fixation","img/fixation.png","null","","test","","","","","",""
"264.7999999523163","345288","pSARL_v2","pSARL_v2cnoya3kk","5ac4c730f69e940001d977e1","freq","img/green_2bandit_b2.png","70","70","test","1","171","171","8","",""
"null","345841","pSARL_v2","pSARL_v2cnoya3kk","5ac4c730f69e940001d977e1","freq_resp","img/green_2bandit_b.png","70","70","test","","","","8","",""
"null","346001","pSARL_v2","pSARL_v2cnoya3kk","5ac4c730f69e940001d977e1","fixation","img/fixation.png","null","","test","","","","","",""
"320.2000000476837","346329","pSARL_v2","pSARL_v2cnoya3kk","5ac4c730f69e940001d977e1","freq","img/green_2bandit_b2.png","70","70","test","1","172","172","8","",""
"null","346818","pSARL_v2","pSARL_v2cnoya3kk","5ac4c730f69e940001d977e1","freq_resp","img/green_2bandit_b.png","70","70","test","","","","8","",""
"null","346993","pSARL_v2","pSARL_v2cnoya3kk","5ac4c730f69e940001d977e1","fixation","img/fixation.png","null","","test","","","","","",""
"430.30000019073486","347432","pSARL_v2","pSARL_v2cnoya3kk","5ac4c730f69e940001d977e1","infreq","img/orange_2bandit_b2.png","68","68","test","1","173","173","8","",""
"null","347819","pSARL_v2","pSARL_v2cnoya3kk","5ac4c730f69e940001d977e1","infreq_resp","img/orange_2bandit_b.png","68","68","test","","","","8","",""
"null","347991","pSARL_v2","pSARL_v2cnoya3kk","5ac4c730f69e940001d977e1","fixation","img/fixation.png","null","","test","","","","","",""
"447.2000000476837","348446","pSARL_v2","pSARL_v2cnoya3kk","5ac4c730f69e940001d977e1","freq","img/green_2bandit_b2.png","70","70","test","1","174","174","8","",""
"null","348809","pSARL_v2","pSARL_v2cnoya3kk","5ac4c730f69e940001d977e1","freq_resp","img/green_2bandit_b.png","70","70","test","","","","8","",""
"null","348975","pSARL_v2","pSARL_v2cnoya3kk","5ac4c730f69e940001d977e1","fixation","img/fixation.png","null","","test","","","","","",""
"382.5","349366","pSARL_v2","pSARL_v2cnoya3kk","5ac4c730f69e940001d977e1","infreq","img/orange_2bandit_b2.png","68","68","test","1","175","175","8","",""
"null","349800","pSARL_v2","pSARL_v2cnoya3kk","5ac4c730f69e940001d977e1","infreq_resp","img/orange_2bandit_b.png","68","68","test","","","","8","",""
"null","349970","pSARL_v2","pSARL_v2cnoya3kk","5ac4c730f69e940001d977e1","fixation","img/fixation.png","null","","test","","","","","",""
"301.5","350280","pSARL_v2","pSARL_v2cnoya3kk","5ac4c730f69e940001d977e1","freq","img/green_2bandit_b2.png","70","70","test","1","176","176","8","",""
"null","350796","pSARL_v2","pSARL_v2cnoya3kk","5ac4c730f69e940001d977e1","freq_resp","img/green_2bandit_b.png","70","70","test","","","","8","",""
"null","350959","pSARL_v2","pSARL_v2cnoya3kk","5ac4c730f69e940001d977e1","fixation","img/fixation.png","null","","test","","","","","",""
"288.40000009536743","351255","pSARL_v2","pSARL_v2cnoya3kk","5ac4c730f69e940001d977e1","freq","img/green_2bandit_b2.png","70","70","test","1","177","177","8","",""
"null","351783","pSARL_v2","pSARL_v2cnoya3kk","5ac4c730f69e940001d977e1","freq_resp","img/green_2bandit_b.png","70","70","test","","","","8","",""
"null","351951","pSARL_v2","pSARL_v2cnoya3kk","5ac4c730f69e940001d977e1","fixation","img/fixation.png","null","","test","","","","","",""
"270.7000000476837","352230","pSARL_v2","pSARL_v2cnoya3kk","5ac4c730f69e940001d977e1","freq","img/green_2bandit_b2.png","70","70","test","1","178","178","8","",""
"null","352767","pSARL_v2","pSARL_v2cnoya3kk","5ac4c730f69e940001d977e1","freq_resp","img/green_2bandit_b.png","70","70","test","","","","8","",""
"null","352935","pSARL_v2","pSARL_v2cnoya3kk","5ac4c730f69e940001d977e1","fixation","img/fixation.png","null","","test","","","","","",""
"292.5","353234","pSARL_v2","pSARL_v2cnoya3kk","5ac4c730f69e940001d977e1","freq","img/green_2bandit_b2.png","70","70","test","1","179","179","8","",""
"null","353760","pSARL_v2","pSARL_v2cnoya3kk","5ac4c730f69e940001d977e1","freq_resp","img/green_2bandit_b.png","70","70","test","","","","8","",""
"null","353932","pSARL_v2","pSARL_v2cnoya3kk","5ac4c730f69e940001d977e1","fixation","img/fixation.png","null","","test","","","","","",""
"359.2999999523163","354300","pSARL_v2","pSARL_v2cnoya3kk","5ac4c730f69e940001d977e1","freq","img/green_2bandit_b2.png","70","70","test","1","180","180","8","",""
"null","354752","pSARL_v2","pSARL_v2cnoya3kk","5ac4c730f69e940001d977e1","freq_resp","img/green_2bandit_b.png","70","70","test","","","","8","",""
"null","354924","pSARL_v2","pSARL_v2cnoya3kk","5ac4c730f69e940001d977e1","fixation","img/fixation.png","null","","test","","","","","",""
"444.69999980926514","355377","pSARL_v2","pSARL_v2cnoya3kk","5ac4c730f69e940001d977e1","freq","img/green_2bandit_b2.png","70","70","test","1","181","181","8","",""
"null","355743","pSARL_v2","pSARL_v2cnoya3kk","5ac4c730f69e940001d977e1","freq_resp","img/green_2bandit_b.png","70","70","test","","","","8","",""
"null","355908","pSARL_v2","pSARL_v2cnoya3kk","5ac4c730f69e940001d977e1","fixation","img/fixation.png","null","","test","","","","","",""
"339.7000000476837","356255","pSARL_v2","pSARL_v2cnoya3kk","5ac4c730f69e940001d977e1","freq","img/green_2bandit_b2.png","70","70","test","1","182","182","8","",""
"null","356736","pSARL_v2","pSARL_v2cnoya3kk","5ac4c730f69e940001d977e1","freq_resp","img/green_2bandit_b.png","70","70","test","","","","8","",""
"null","356901","pSARL_v2","pSARL_v2cnoya3kk","5ac4c730f69e940001d977e1","fixation","img/fixation.png","null","","test","","","","","",""
"313.60000014305115","357224","pSARL_v2","pSARL_v2cnoya3kk","5ac4c730f69e940001d977e1","freq","img/green_2bandit_b2.png","70","70","test","1","183","183","8","",""
"null","357720","pSARL_v2","pSARL_v2cnoya3kk","5ac4c730f69e940001d977e1","freq_resp","img/green_2bandit_b.png","70","70","test","","","","8","",""
"null","357892","pSARL_v2","pSARL_v2cnoya3kk","5ac4c730f69e940001d977e1","fixation","img/fixation.png","null","","test","","","","","",""
"391","358292","pSARL_v2","pSARL_v2cnoya3kk","5ac4c730f69e940001d977e1","freq","img/green_2bandit_b2.png","70","70","test","1","184","184","8","",""
"null","358723","pSARL_v2","pSARL_v2cnoya3kk","5ac4c730f69e940001d977e1","freq_resp","img/green_2bandit_b.png","70","70","test","","","","8","",""
"null","358891","pSARL_v2","pSARL_v2cnoya3kk","5ac4c730f69e940001d977e1","fixation","img/fixation.png","null","","test","","","","","",""
"670.6999998092651","359571","pSARL_v2","pSARL_v2cnoya3kk","5ac4c730f69e940001d977e1","infreq","img/orange_2bandit_b2.png","68","68","test","1","185","185","8","",""
"null","359722","pSARL_v2","pSARL_v2cnoya3kk","5ac4c730f69e940001d977e1","infreq_resp","img/orange_2bandit_b.png","68","68","test","","","","8","",""
"null","359890","pSARL_v2","pSARL_v2cnoya3kk","5ac4c730f69e940001d977e1","fixation","img/fixation.png","null","","test","","","","","",""
"560.2999999523163","360458","pSARL_v2","pSARL_v2cnoya3kk","5ac4c730f69e940001d977e1","freq","img/green_2bandit_b2.png","70","70","test","1","186","186","8","",""
"null","360717","pSARL_v2","pSARL_v2cnoya3kk","5ac4c730f69e940001d977e1","freq_resp","img/green_2bandit_b.png","70","70","test","","","","8","",""
"null","360884","pSARL_v2","pSARL_v2cnoya3kk","5ac4c730f69e940001d977e1","fixation","img/fixation.png","null","","test","","","","","",""
"467.7999999523163","361359","pSARL_v2","pSARL_v2cnoya3kk","5ac4c730f69e940001d977e1","freq","img/green_2bandit_b2.png","70","70","test","1","187","187","8","",""
"null","361712","pSARL_v2","pSARL_v2cnoya3kk","5ac4c730f69e940001d977e1","freq_resp","img/green_2bandit_b.png","70","70","test","","","","8","",""
"null","361882","pSARL_v2","pSARL_v2cnoya3kk","5ac4c730f69e940001d977e1","fixation","img/fixation.png","null","","test","","","","","",""
"362.69999980926514","362254","pSARL_v2","pSARL_v2cnoya3kk","5ac4c730f69e940001d977e1","freq","img/green_2bandit_b2.png","70","70","test","1","188","188","8","",""
"null","362711","pSARL_v2","pSARL_v2cnoya3kk","5ac4c730f69e940001d977e1","freq_resp","img/green_2bandit_b.png","70","70","test","","","","8","",""
"null","362883","pSARL_v2","pSARL_v2cnoya3kk","5ac4c730f69e940001d977e1","fixation","img/fixation.png","null","","test","","","","","",""
"516.8999998569489","363407","pSARL_v2","pSARL_v2cnoya3kk","5ac4c730f69e940001d977e1","reward","img/slot.png","74","","test","","","","","",""
"null","364177","pSARL_v2","pSARL_v2cnoya3kk","5ac4c730f69e940001d977e1","points","<div class=""verylowPoints""> -4 </div>","null","na","test","","","","8","-4","7"
"434.2000000476837","364619","pSARL_v2","pSARL_v2cnoya3kk","5ac4c730f69e940001d977e1","freq","img/green_2bandit_b2.png","70","70","test","1","189","189","9","",""
"null","365002","pSARL_v2","pSARL_v2cnoya3kk","5ac4c730f69e940001d977e1","freq_resp","img/green_2bandit_b.png","70","70","test","","","","9","",""
"null","365168","pSARL_v2","pSARL_v2cnoya3kk","5ac4c730f69e940001d977e1","fixation","img/fixation.png","null","","test","","","","","",""
"321.09999990463257","365496","pSARL_v2","pSARL_v2cnoya3kk","5ac4c730f69e940001d977e1","freq","img/green_2bandit_b2.png","70","70","test","1","190","190","9","",""
"null","365983","pSARL_v2","pSARL_v2cnoya3kk","5ac4c730f69e940001d977e1","freq_resp","img/green_2bandit_b.png","70","70","test","","","","9","",""
"null","366154","pSARL_v2","pSARL_v2cnoya3kk","5ac4c730f69e940001d977e1","fixation","img/fixation.png","null","","test","","","","","",""
"231.10000014305115","366393","pSARL_v2","pSARL_v2cnoya3kk","5ac4c730f69e940001d977e1","freq","img/green_2bandit_b2.png","70","70","test","1","191","191","9","",""
"null","366973","pSARL_v2","pSARL_v2cnoya3kk","5ac4c730f69e940001d977e1","freq_resp","img/green_2bandit_b.png","70","70","test","","","","9","",""
"null","367142","pSARL_v2","pSARL_v2cnoya3kk","5ac4c730f69e940001d977e1","fixation","img/fixation.png","null","","test","","","","","",""
"335.10000014305115","367485","pSARL_v2","pSARL_v2cnoya3kk","5ac4c730f69e940001d977e1","freq","img/green_2bandit_b2.png","70","70","test","1","192","192","9","",""
"null","367969","pSARL_v2","pSARL_v2cnoya3kk","5ac4c730f69e940001d977e1","freq_resp","img/green_2bandit_b.png","70","70","test","","","","9","",""
"null","368133","pSARL_v2","pSARL_v2cnoya3kk","5ac4c730f69e940001d977e1","fixation","img/fixation.png","null","","test","","","","","",""
"295.40000009536743","368436","pSARL_v2","pSARL_v2cnoya3kk","5ac4c730f69e940001d977e1","freq","img/green_2bandit_b2.png","70","70","test","1","193","193","9","",""
"null","368960","pSARL_v2","pSARL_v2cnoya3kk","5ac4c730f69e940001d977e1","freq_resp","img/green_2bandit_b.png","70","70","test","","","","9","",""
"null","369123","pSARL_v2","pSARL_v2cnoya3kk","5ac4c730f69e940001d977e1","fixation","img/fixation.png","null","","test","","","","","",""
"327.09999990463257","369457","pSARL_v2","pSARL_v2cnoya3kk","5ac4c730f69e940001d977e1","freq","img/green_2bandit_b2.png","70","70","test","1","194","194","9","",""
"null","369951","pSARL_v2","pSARL_v2cnoya3kk","5ac4c730f69e940001d977e1","freq_resp","img/green_2bandit_b.png","70","70","test","","","","9","",""
"null","370115","pSARL_v2","pSARL_v2cnoya3kk","5ac4c730f69e940001d977e1","fixation","img/fixation.png","null","","test","","","","","",""
"442.2999999523163","370566","pSARL_v2","pSARL_v2cnoya3kk","5ac4c730f69e940001d977e1","infreq","img/orange_2bandit_b2.png","68","68","test","1","195","195","9","",""
"null","370942","pSARL_v2","pSARL_v2cnoya3kk","5ac4c730f69e940001d977e1","infreq_resp","img/orange_2bandit_b.png","68","68","test","","","","9","",""
"null","371106","pSARL_v2","pSARL_v2cnoya3kk","5ac4c730f69e940001d977e1","fixation","img/fixation.png","null","","test","","","","","",""
"363.40000009536743","371479","pSARL_v2","pSARL_v2cnoya3kk","5ac4c730f69e940001d977e1","freq","img/green_2bandit_b2.png","70","70","test","1","196","196","9","",""
"null","371933","pSARL_v2","pSARL_v2cnoya3kk","5ac4c730f69e940001d977e1","freq_resp","img/green_2bandit_b.png","70","70","test","","","","9","",""
"null","372107","pSARL_v2","pSARL_v2cnoya3kk","5ac4c730f69e940001d977e1","fixation","img/fixation.png","null","","test","","","","","",""
"354.40000009536743","372469","pSARL_v2","pSARL_v2cnoya3kk","5ac4c730f69e940001d977e1","freq","img/green_2bandit_b2.png","70","70","test","1","197","197","9","",""
"null","372937","pSARL_v2","pSARL_v2cnoya3kk","5ac4c730f69e940001d977e1","freq_resp","img/green_2bandit_b.png","70","70","test","","","","9","",""
"null","373100","pSARL_v2","pSARL_v2cnoya3kk","5ac4c730f69e940001d977e1","fixation","img/fixation.png","null","","test","","","","","",""
"303.7000000476837","373412","pSARL_v2","pSARL_v2cnoya3kk","5ac4c730f69e940001d977e1","freq","img/green_2bandit_b2.png","70","70","test","1","198","198","9","",""
"null","373930","pSARL_v2","pSARL_v2cnoya3kk","5ac4c730f69e940001d977e1","freq_resp","img/green_2bandit_b.png","70","70","test","","","","9","",""
"null","374100","pSARL_v2","pSARL_v2cnoya3kk","5ac4c730f69e940001d977e1","fixation","img/fixation.png","null","","test","","","","","",""
"331","374438","pSARL_v2","pSARL_v2cnoya3kk","5ac4c730f69e940001d977e1","freq","img/green_2bandit_b2.png","70","70","test","1","199","199","9","",""
"null","374919","pSARL_v2","pSARL_v2cnoya3kk","5ac4c730f69e940001d977e1","freq_resp","img/green_2bandit_b.png","70","70","test","","","","9","",""
"null","375091","pSARL_v2","pSARL_v2cnoya3kk","5ac4c730f69e940001d977e1","fixation","img/fixation.png","null","","test","","","","","",""
"307","375407","pSARL_v2","pSARL_v2cnoya3kk","5ac4c730f69e940001d977e1","freq","img/green_2bandit_b2.png","70","70","test","1","200","200","9","",""
"null","375949","pSARL_v2","pSARL_v2cnoya3kk","5ac4c730f69e940001d977e1","freq_resp","img/green_2bandit_b.png","70","70","test","","","","9","",""
"null","376124","pSARL_v2","pSARL_v2cnoya3kk","5ac4c730f69e940001d977e1","fixation","img/fixation.png","null","","test","","","","","",""
"348","376480","pSARL_v2","pSARL_v2cnoya3kk","5ac4c730f69e940001d977e1","freq","img/green_2bandit_b2.png","70","70","test","1","201","201","9","",""
"null","376949","pSARL_v2","pSARL_v2cnoya3kk","5ac4c730f69e940001d977e1","freq_resp","img/green_2bandit_b.png","70","70","test","","","","9","",""
"null","377107","pSARL_v2","pSARL_v2cnoya3kk","5ac4c730f69e940001d977e1","fixation","img/fixation.png","null","","test","","","","","",""
"328.7999999523163","377444","pSARL_v2","pSARL_v2cnoya3kk","5ac4c730f69e940001d977e1","freq","img/green_2bandit_b2.png","70","70","test","1","202","202","9","",""
"null","377927","pSARL_v2","pSARL_v2cnoya3kk","5ac4c730f69e940001d977e1","freq_resp","img/green_2bandit_b.png","70","70","test","","","","9","",""
"null","378099","pSARL_v2","pSARL_v2cnoya3kk","5ac4c730f69e940001d977e1","fixation","img/fixation.png","null","","test","","","","","",""
"397","378506","pSARL_v2","pSARL_v2cnoya3kk","5ac4c730f69e940001d977e1","infreq","img/orange_2bandit_b2.png","68","68","test","1","203","203","9","",""
"null","378923","pSARL_v2","pSARL_v2cnoya3kk","5ac4c730f69e940001d977e1","infreq_resp","img/orange_2bandit_b.png","68","68","test","","","","9","",""
"null","379091","pSARL_v2","pSARL_v2cnoya3kk","5ac4c730f69e940001d977e1","fixation","img/fixation.png","null","","test","","","","","",""
"410.60000014305115","379509","pSARL_v2","pSARL_v2cnoya3kk","5ac4c730f69e940001d977e1","freq","img/green_2bandit_b2.png","70","70","test","1","204","204","9","",""
"null","379908","pSARL_v2","pSARL_v2cnoya3kk","5ac4c730f69e940001d977e1","freq_resp","img/green_2bandit_b.png","70","70","test","","","","9","",""
"null","380073","pSARL_v2","pSARL_v2cnoya3kk","5ac4c730f69e940001d977e1","fixation","img/fixation.png","null","","test","","","","","",""
"362.2999999523163","380443","pSARL_v2","pSARL_v2cnoya3kk","5ac4c730f69e940001d977e1","freq","img/green_2bandit_b2.png","70","70","test","1","205","205","9","",""
"null","380904","pSARL_v2","pSARL_v2cnoya3kk","5ac4c730f69e940001d977e1","freq_resp","img/green_2bandit_b.png","70","70","test","","","","9","",""
"null","381074","pSARL_v2","pSARL_v2cnoya3kk","5ac4c730f69e940001d977e1","fixation","img/fixation.png","null","","test","","","","","",""
"348.7000000476837","381432","pSARL_v2","pSARL_v2cnoya3kk","5ac4c730f69e940001d977e1","freq","img/green_2bandit_b2.png","70","70","test","1","206","206","9","",""
"null","381902","pSARL_v2","pSARL_v2cnoya3kk","5ac4c730f69e940001d977e1","freq_resp","img/green_2bandit_b.png","70","70","test","","","","9","",""
"null","382067","pSARL_v2","pSARL_v2cnoya3kk","5ac4c730f69e940001d977e1","fixation","img/fixation.png","null","","test","","","","","",""
"340.5","382416","pSARL_v2","pSARL_v2cnoya3kk","5ac4c730f69e940001d977e1","freq","img/green_2bandit_b2.png","70","70","test","1","207","207","9","",""
"null","382895","pSARL_v2","pSARL_v2cnoya3kk","5ac4c730f69e940001d977e1","freq_resp","img/green_2bandit_b.png","70","70","test","","","","9","",""
"null","383066","pSARL_v2","pSARL_v2cnoya3kk","5ac4c730f69e940001d977e1","fixation","img/fixation.png","null","","test","","","","","",""
