"rt","time_elapsed","expId","subject","prolificID","trialType","stimulus","key_press","corrresp","phase","corr","trialNum","attentionRunNum","blockNum","points","rlNum"
"6955.200000000186","6959","pSARL_v2","pSARL_v2ua7g8xsh","62c4b2239cc3b1f5f6194362","","","","","","","","","","",""
"","9807","pSARL_v2","pSARL_v2ua7g8xsh","62c4b2239cc3b1f5f6194362","fullscreen","","","","","","","","","",""
"71822.59999999986","81632","pSARL_v2","pSARL_v2ua7g8xsh","62c4b2239cc3b1f5f6194362","","","","","","","","","","",""
"null","82448","pSARL_v2","pSARL_v2ua7g8xsh","62c4b2239cc3b1f5f6194362","freqPrac","img/orange_2bandit_a2.png","null","70","prac","0","","","","",""
"null","83455","pSARL_v2","pSARL_v2ua7g8xsh","62c4b2239cc3b1f5f6194362","feedback","img/tooSlow.png","null","na","prac","","","","","",""
"null","83608","pSARL_v2","pSARL_v2ua7g8xsh","62c4b2239cc3b1f5f6194362","fixation","img/fixation.png","null","","prac","","","","","",""
"null","84412","pSARL_v2","pSARL_v2ua7g8xsh","62c4b2239cc3b1f5f6194362","infreqPrac","img/green_2bandit_a2.png","null","68","prac","0","","","","",""
"null","85418","pSARL_v2","pSARL_v2ua7g8xsh","62c4b2239cc3b1f5f6194362","feedback","img/tooSlow.png","null","na","prac","","","","","",""
"null","85584","pSARL_v2","pSARL_v2ua7g8xsh","62c4b2239cc3b1f5f6194362","fixation","img/fixation.png","null","","prac","","","","","",""
"384","85970","pSARL_v2","pSARL_v2ua7g8xsh","62c4b2239cc3b1f5f6194362","freqPrac","img/orange_2bandit_a2.png","68","70","prac","0","","","","",""
"384","86397","pSARL_v2","pSARL_v2ua7g8xsh","62c4b2239cc3b1f5f6194362","freqPrac_resp","img/orange_2bandit_a.png","68","70","prac","","","","","",""
"null","87403","pSARL_v2","pSARL_v2ua7g8xsh","62c4b2239cc3b1f5f6194362","feedback","img/wrongKey.png","null","na","prac","","","","","",""
"null","87569","pSARL_v2","pSARL_v2ua7g8xsh","62c4b2239cc3b1f5f6194362","fixation","img/fixation.png","null","","prac","","","","","",""
"688.5","88259","pSARL_v2","pSARL_v2ua7g8xsh","62c4b2239cc3b1f5f6194362","infreqPrac","img/green_2bandit_a2.png","70","68","prac","0","","","","",""
"688.5","88386","pSARL_v2","pSARL_v2ua7g8xsh","62c4b2239cc3b1f5f6194362","infreqPrac_resp","img/green_2bandit_a.png","70","68","prac","","","","","",""
"null","89393","pSARL_v2","pSARL_v2ua7g8xsh","62c4b2239cc3b1f5f6194362","feedback","img/wrongKey.png","null","na","prac","","","","","",""
"null","89545","pSARL_v2","pSARL_v2ua7g8xsh","62c4b2239cc3b1f5f6194362","fixation","img/fixation.png","null","","prac","","","","","",""
"573.3999999999069","90121","pSARL_v2","pSARL_v2ua7g8xsh","62c4b2239cc3b1f5f6194362","infreqPrac","img/green_2bandit_a2.png","70","68","prac","0","","","","",""
"573.3999999999069","90360","pSARL_v2","pSARL_v2ua7g8xsh","62c4b2239cc3b1f5f6194362","infreqPrac_resp","img/green_2bandit_a.png","70","68","prac","","","","","",""
"null","91385","pSARL_v2","pSARL_v2ua7g8xsh","62c4b2239cc3b1f5f6194362","feedback","img/wrongKey.png","null","na","prac","","","","","",""
"null","91540","pSARL_v2","pSARL_v2ua7g8xsh","62c4b2239cc3b1f5f6194362","fixation","img/fixation.png","null","","prac","","","","","",""
"521.5","92063","pSARL_v2","pSARL_v2ua7g8xsh","62c4b2239cc3b1f5f6194362","infreqPrac","img/green_2bandit_a2.png","68","68","prac","1","","","","",""
"521.5","92348","pSARL_v2","pSARL_v2ua7g8xsh","62c4b2239cc3b1f5f6194362","infreqPrac_resp","img/green_2bandit_a.png","68","68","prac","","","","","",""
"null","92514","pSARL_v2","pSARL_v2ua7g8xsh","62c4b2239cc3b1f5f6194362","fixation","img/fixation.png","null","","prac","","","","","",""
"580.8000000000466","93097","pSARL_v2","pSARL_v2ua7g8xsh","62c4b2239cc3b1f5f6194362","freqPrac","img/orange_2bandit_a2.png","70","70","prac","1","","","","",""
"580.8000000000466","93320","pSARL_v2","pSARL_v2ua7g8xsh","62c4b2239cc3b1f5f6194362","freqPrac_resp","img/orange_2bandit_a.png","70","70","prac","","","","","",""
"null","93484","pSARL_v2","pSARL_v2ua7g8xsh","62c4b2239cc3b1f5f6194362","fixation","img/fixation.png","null","","prac","","","","","",""
"null","94297","pSARL_v2","pSARL_v2ua7g8xsh","62c4b2239cc3b1f5f6194362","infreqPrac","img/green_2bandit_a2.png","null","68","prac","0","","","","",""
"null","95313","pSARL_v2","pSARL_v2ua7g8xsh","62c4b2239cc3b1f5f6194362","feedback","img/tooSlow.png","null","na","prac","","","","","",""
"null","95469","pSARL_v2","pSARL_v2ua7g8xsh","62c4b2239cc3b1f5f6194362","fixation","img/fixation.png","null","","prac","","","","","",""
"402.0999999998603","95874","pSARL_v2","pSARL_v2ua7g8xsh","62c4b2239cc3b1f5f6194362","freqPrac","img/orange_2bandit_a2.png","70","70","prac","1","","","","",""
"402.0999999998603","96281","pSARL_v2","pSARL_v2ua7g8xsh","62c4b2239cc3b1f5f6194362","freqPrac_resp","img/orange_2bandit_a.png","70","70","prac","","","","","",""
"null","96442","pSARL_v2","pSARL_v2ua7g8xsh","62c4b2239cc3b1f5f6194362","fixation","img/fixation.png","null","","prac","","","","","",""
"395.89999999990687","96840","pSARL_v2","pSARL_v2ua7g8xsh","62c4b2239cc3b1f5f6194362","freqPrac","img/orange_2bandit_a2.png","70","70","prac","1","","","","",""
"395.89999999990687","97252","pSARL_v2","pSARL_v2ua7g8xsh","62c4b2239cc3b1f5f6194362","freqPrac_resp","img/orange_2bandit_a.png","70","70","prac","","","","","",""
"null","97415","pSARL_v2","pSARL_v2ua7g8xsh","62c4b2239cc3b1f5f6194362","fixation","img/fixation.png","null","","prac","","","","","",""
"22039.90000000014","119456","pSARL_v2","pSARL_v2ua7g8xsh","62c4b2239cc3b1f5f6194362","","","","","prac","","","","","",""
"595.0999999998603","120053","pSARL_v2","pSARL_v2ua7g8xsh","62c4b2239cc3b1f5f6194362","rewardPractice","img/slot.png","74","","prac","","","","","",""
"null","120809","pSARL_v2","pSARL_v2ua7g8xsh","62c4b2239cc3b1f5f6194362","feedback","<div class=""veryhighPoints""> +15 </div>","null","na","prac","","","","","",""
"null","120974","pSARL_v2","pSARL_v2ua7g8xsh","62c4b2239cc3b1f5f6194362","fixation","img/fixation.png","null","","prac","","","","","",""
"22080.800000000047","143056","pSARL_v2","pSARL_v2ua7g8xsh","62c4b2239cc3b1f5f6194362","","","","","prac","","","","","",""
"450.19999999995343","143509","pSARL_v2","pSARL_v2ua7g8xsh","62c4b2239cc3b1f5f6194362","freq","img/orange_2bandit_a2.png","70","70","test","1","1","1","1","",""
"null","143862","pSARL_v2","pSARL_v2ua7g8xsh","62c4b2239cc3b1f5f6194362","freq_resp","img/orange_2bandit_a.png","70","70","test","","","","1","",""
"null","144020","pSARL_v2","pSARL_v2ua7g8xsh","62c4b2239cc3b1f5f6194362","fixation","img/fixation.png","null","","test","","","","","",""
"334","144356","pSARL_v2","pSARL_v2ua7g8xsh","62c4b2239cc3b1f5f6194362","freq","img/orange_2bandit_a2.png","70","70","test","1","2","2","1","",""
"null","144832","pSARL_v2","pSARL_v2ua7g8xsh","62c4b2239cc3b1f5f6194362","freq_resp","img/orange_2bandit_a.png","70","70","test","","","","1","",""
"null","144987","pSARL_v2","pSARL_v2ua7g8xsh","62c4b2239cc3b1f5f6194362","fixation","img/fixation.png","null","","test","","","","","",""
"571.5","145560","pSARL_v2","pSARL_v2ua7g8xsh","62c4b2239cc3b1f5f6194362","freq","img/orange_2bandit_a2.png","70","70","test","1","3","3","1","",""
"null","145800","pSARL_v2","pSARL_v2ua7g8xsh","62c4b2239cc3b1f5f6194362","freq_resp","img/orange_2bandit_a.png","70","70","test","","","","1","",""
"null","145966","pSARL_v2","pSARL_v2ua7g8xsh","62c4b2239cc3b1f5f6194362","fixation","img/fixation.png","null","","test","","","","","",""
"394.10000000009313","146362","pSARL_v2","pSARL_v2ua7g8xsh","62c4b2239cc3b1f5f6194362","freq","img/orange_2bandit_a2.png","70","70","test","1","4","4","1","",""
"null","146779","pSARL_v2","pSARL_v2ua7g8xsh","62c4b2239cc3b1f5f6194362","freq_resp","img/orange_2bandit_a.png","70","70","test","","","","1","",""
"null","146947","pSARL_v2","pSARL_v2ua7g8xsh","62c4b2239cc3b1f5f6194362","fixation","img/fixation.png","null","","test","","","","","",""
"403","147352","pSARL_v2","pSARL_v2ua7g8xsh","62c4b2239cc3b1f5f6194362","freq","img/orange_2bandit_a2.png","70","70","test","1","5","5","1","",""
"null","147761","pSARL_v2","pSARL_v2ua7g8xsh","62c4b2239cc3b1f5f6194362","freq_resp","img/orange_2bandit_a.png","70","70","test","","","","1","",""
"null","147930","pSARL_v2","pSARL_v2ua7g8xsh","62c4b2239cc3b1f5f6194362","fixation","img/fixation.png","null","","test","","","","","",""
"311.19999999995343","148243","pSARL_v2","pSARL_v2ua7g8xsh","62c4b2239cc3b1f5f6194362","freq","img/orange_2bandit_a2.png","70","70","test","1","6","6","1","",""
"null","148742","pSARL_v2","pSARL_v2ua7g8xsh","62c4b2239cc3b1f5f6194362","freq_resp","img/orange_2bandit_a.png","70","70","test","","","","1","",""
"null","148897","pSARL_v2","pSARL_v2ua7g8xsh","62c4b2239cc3b1f5f6194362","fixation","img/fixation.png","null","","test","","","","","",""
"318.19999999995343","149217","pSARL_v2","pSARL_v2ua7g8xsh","62c4b2239cc3b1f5f6194362","freq","img/orange_2bandit_a2.png","70","70","test","1","7","7","1","",""
"null","149713","pSARL_v2","pSARL_v2ua7g8xsh","62c4b2239cc3b1f5f6194362","freq_resp","img/orange_2bandit_a.png","70","70","test","","","","1","",""
"null","149882","pSARL_v2","pSARL_v2ua7g8xsh","62c4b2239cc3b1f5f6194362","fixation","img/fixation.png","null","","test","","","","","",""
"569.3999999999069","150454","pSARL_v2","pSARL_v2ua7g8xsh","62c4b2239cc3b1f5f6194362","infreq","img/green_2bandit_a2.png","68","68","test","1","8","8","1","",""
"null","150688","pSARL_v2","pSARL_v2ua7g8xsh","62c4b2239cc3b1f5f6194362","infreq_resp","img/green_2bandit_a.png","68","68","test","","","","1","",""
"null","150848","pSARL_v2","pSARL_v2ua7g8xsh","62c4b2239cc3b1f5f6194362","fixation","img/fixation.png","null","","test","","","","","",""
"364.69999999995343","151216","pSARL_v2","pSARL_v2ua7g8xsh","62c4b2239cc3b1f5f6194362","freq","img/orange_2bandit_a2.png","68","70","test","0","9","9","1","",""
"null","151661","pSARL_v2","pSARL_v2ua7g8xsh","62c4b2239cc3b1f5f6194362","freq_resp","img/orange_2bandit_a.png","68","70","test","","","","1","",""
"null","151823","pSARL_v2","pSARL_v2ua7g8xsh","62c4b2239cc3b1f5f6194362","fixation","img/fixation.png","null","","test","","","","","",""
"560.1999999999534","152385","pSARL_v2","pSARL_v2ua7g8xsh","62c4b2239cc3b1f5f6194362","freq","img/orange_2bandit_a2.png","70","70","test","1","10","10","1","",""
"null","152638","pSARL_v2","pSARL_v2ua7g8xsh","62c4b2239cc3b1f5f6194362","freq_resp","img/orange_2bandit_a.png","70","70","test","","","","1","",""
"null","152791","pSARL_v2","pSARL_v2ua7g8xsh","62c4b2239cc3b1f5f6194362","fixation","img/fixation.png","null","","test","","","","","",""
"446.0999999998603","153239","pSARL_v2","pSARL_v2ua7g8xsh","62c4b2239cc3b1f5f6194362","freq","img/orange_2bandit_a2.png","70","70","test","1","11","11","1","",""
"null","153600","pSARL_v2","pSARL_v2ua7g8xsh","62c4b2239cc3b1f5f6194362","freq_resp","img/orange_2bandit_a.png","70","70","test","","","","1","",""
"null","153779","pSARL_v2","pSARL_v2ua7g8xsh","62c4b2239cc3b1f5f6194362","fixation","img/fixation.png","null","","test","","","","","",""
"433.80000000004657","154214","pSARL_v2","pSARL_v2ua7g8xsh","62c4b2239cc3b1f5f6194362","freq","img/orange_2bandit_a2.png","70","70","test","1","12","12","1","",""
"null","154593","pSARL_v2","pSARL_v2ua7g8xsh","62c4b2239cc3b1f5f6194362","freq_resp","img/orange_2bandit_a.png","70","70","test","","","","1","",""
"null","154752","pSARL_v2","pSARL_v2ua7g8xsh","62c4b2239cc3b1f5f6194362","fixation","img/fixation.png","null","","test","","","","","",""
"390.69999999995343","155144","pSARL_v2","pSARL_v2ua7g8xsh","62c4b2239cc3b1f5f6194362","freq","img/orange_2bandit_a2.png","70","70","test","1","13","13","1","",""
"null","155557","pSARL_v2","pSARL_v2ua7g8xsh","62c4b2239cc3b1f5f6194362","freq_resp","img/orange_2bandit_a.png","70","70","test","","","","1","",""
"null","155719","pSARL_v2","pSARL_v2ua7g8xsh","62c4b2239cc3b1f5f6194362","fixation","img/fixation.png","null","","test","","","","","",""
"354.89999999990687","156076","pSARL_v2","pSARL_v2ua7g8xsh","62c4b2239cc3b1f5f6194362","freq","img/orange_2bandit_a2.png","70","70","test","1","14","14","1","",""
"null","156533","pSARL_v2","pSARL_v2ua7g8xsh","62c4b2239cc3b1f5f6194362","freq_resp","img/orange_2bandit_a.png","70","70","test","","","","1","",""
"null","156686","pSARL_v2","pSARL_v2ua7g8xsh","62c4b2239cc3b1f5f6194362","fixation","img/fixation.png","null","","test","","","","","",""
"327.30000000004657","157016","pSARL_v2","pSARL_v2ua7g8xsh","62c4b2239cc3b1f5f6194362","freq","img/orange_2bandit_a2.png","70","70","test","1","15","15","1","",""
"null","157500","pSARL_v2","pSARL_v2ua7g8xsh","62c4b2239cc3b1f5f6194362","freq_resp","img/orange_2bandit_a.png","70","70","test","","","","1","",""
"null","157653","pSARL_v2","pSARL_v2ua7g8xsh","62c4b2239cc3b1f5f6194362","fixation","img/fixation.png","null","","test","","","","","",""
"347.5999999998603","158003","pSARL_v2","pSARL_v2ua7g8xsh","62c4b2239cc3b1f5f6194362","freq","img/orange_2bandit_a2.png","70","70","test","1","16","16","1","",""
"null","158460","pSARL_v2","pSARL_v2ua7g8xsh","62c4b2239cc3b1f5f6194362","freq_resp","img/orange_2bandit_a.png","70","70","test","","","","1","",""
"null","158614","pSARL_v2","pSARL_v2ua7g8xsh","62c4b2239cc3b1f5f6194362","fixation","img/fixation.png","null","","test","","","","","",""
"351.19999999995343","158967","pSARL_v2","pSARL_v2ua7g8xsh","62c4b2239cc3b1f5f6194362","freq","img/orange_2bandit_a2.png","70","70","test","1","17","17","1","",""
"null","159430","pSARL_v2","pSARL_v2ua7g8xsh","62c4b2239cc3b1f5f6194362","freq_resp","img/orange_2bandit_a.png","70","70","test","","","","1","",""
"null","159593","pSARL_v2","pSARL_v2ua7g8xsh","62c4b2239cc3b1f5f6194362","fixation","img/fixation.png","null","","test","","","","","",""
"316.5999999998603","159911","pSARL_v2","pSARL_v2ua7g8xsh","62c4b2239cc3b1f5f6194362","freq","img/orange_2bandit_a2.png","70","70","test","1","18","18","1","",""
"null","160402","pSARL_v2","pSARL_v2ua7g8xsh","62c4b2239cc3b1f5f6194362","freq_resp","img/orange_2bandit_a.png","70","70","test","","","","1","",""
"null","160565","pSARL_v2","pSARL_v2ua7g8xsh","62c4b2239cc3b1f5f6194362","fixation","img/fixation.png","null","","test","","","","","",""
"306.60000000009313","160873","pSARL_v2","pSARL_v2ua7g8xsh","62c4b2239cc3b1f5f6194362","freq","img/orange_2bandit_a2.png","70","70","test","1","19","19","1","",""
"null","161374","pSARL_v2","pSARL_v2ua7g8xsh","62c4b2239cc3b1f5f6194362","freq_resp","img/orange_2bandit_a.png","70","70","test","","","","1","",""
"null","161540","pSARL_v2","pSARL_v2ua7g8xsh","62c4b2239cc3b1f5f6194362","fixation","img/fixation.png","null","","test","","","","","",""
"415.29999999981374","161958","pSARL_v2","pSARL_v2ua7g8xsh","62c4b2239cc3b1f5f6194362","infreq","img/green_2bandit_a2.png","68","68","test","1","20","20","1","",""
"null","162345","pSARL_v2","pSARL_v2ua7g8xsh","62c4b2239cc3b1f5f6194362","infreq_resp","img/green_2bandit_a.png","68","68","test","","","","1","",""
"null","162498","pSARL_v2","pSARL_v2ua7g8xsh","62c4b2239cc3b1f5f6194362","fixation","img/fixation.png","null","","test","","","","","",""
"453.30000000004657","162954","pSARL_v2","pSARL_v2ua7g8xsh","62c4b2239cc3b1f5f6194362","freq","img/orange_2bandit_a2.png","70","70","test","1","21","21","1","",""
"null","163312","pSARL_v2","pSARL_v2ua7g8xsh","62c4b2239cc3b1f5f6194362","freq_resp","img/orange_2bandit_a.png","70","70","test","","","","1","",""
"null","163477","pSARL_v2","pSARL_v2ua7g8xsh","62c4b2239cc3b1f5f6194362","fixation","img/fixation.png","null","","test","","","","","",""
"538.1000000000931","164017","pSARL_v2","pSARL_v2ua7g8xsh","62c4b2239cc3b1f5f6194362","reward","img/slot.png","74","","test","","","","","",""
"null","164792","pSARL_v2","pSARL_v2ua7g8xsh","62c4b2239cc3b1f5f6194362","points","<div class=""verylowPoints""> -6 </div>","null","na","test","","","","1","-6","0"
"734.6000000000931","165529","pSARL_v2","pSARL_v2ua7g8xsh","62c4b2239cc3b1f5f6194362","freq","img/orange_2bandit_a2.png","70","70","test","1","22","22","2","",""
"null","165600","pSARL_v2","pSARL_v2ua7g8xsh","62c4b2239cc3b1f5f6194362","freq_resp","img/orange_2bandit_a.png","70","70","test","","","","2","",""
"null","165761","pSARL_v2","pSARL_v2ua7g8xsh","62c4b2239cc3b1f5f6194362","fixation","img/fixation.png","null","","test","","","","","",""
"382.19999999995343","166145","pSARL_v2","pSARL_v2ua7g8xsh","62c4b2239cc3b1f5f6194362","freq","img/orange_2bandit_a2.png","70","70","test","1","23","23","2","",""
"null","166589","pSARL_v2","pSARL_v2ua7g8xsh","62c4b2239cc3b1f5f6194362","freq_resp","img/orange_2bandit_a.png","70","70","test","","","","2","",""
"null","166757","pSARL_v2","pSARL_v2ua7g8xsh","62c4b2239cc3b1f5f6194362","fixation","img/fixation.png","null","","test","","","","","",""
"484.70000000018626","167244","pSARL_v2","pSARL_v2ua7g8xsh","62c4b2239cc3b1f5f6194362","infreq","img/green_2bandit_a2.png","68","68","test","1","24","24","2","",""
"null","167565","pSARL_v2","pSARL_v2ua7g8xsh","62c4b2239cc3b1f5f6194362","infreq_resp","img/green_2bandit_a.png","68","68","test","","","","2","",""
"null","167730","pSARL_v2","pSARL_v2ua7g8xsh","62c4b2239cc3b1f5f6194362","fixation","img/fixation.png","null","","test","","","","","",""
"603.3000000000466","168335","pSARL_v2","pSARL_v2ua7g8xsh","62c4b2239cc3b1f5f6194362","freq","img/orange_2bandit_a2.png","70","70","test","1","25","25","2","",""
"null","168538","pSARL_v2","pSARL_v2ua7g8xsh","62c4b2239cc3b1f5f6194362","freq_resp","img/orange_2bandit_a.png","70","70","test","","","","2","",""
"null","168692","pSARL_v2","pSARL_v2ua7g8xsh","62c4b2239cc3b1f5f6194362","fixation","img/fixation.png","null","","test","","","","","",""
"535.5","169229","pSARL_v2","pSARL_v2ua7g8xsh","62c4b2239cc3b1f5f6194362","infreq","img/green_2bandit_a2.png","68","68","test","1","26","26","2","",""
"null","169498","pSARL_v2","pSARL_v2ua7g8xsh","62c4b2239cc3b1f5f6194362","infreq_resp","img/green_2bandit_a.png","68","68","test","","","","2","",""
"null","169651","pSARL_v2","pSARL_v2ua7g8xsh","62c4b2239cc3b1f5f6194362","fixation","img/fixation.png","null","","test","","","","","",""
"411.20000000018626","170064","pSARL_v2","pSARL_v2ua7g8xsh","62c4b2239cc3b1f5f6194362","freq","img/orange_2bandit_a2.png","70","70","test","1","27","27","2","",""
"null","170467","pSARL_v2","pSARL_v2ua7g8xsh","62c4b2239cc3b1f5f6194362","freq_resp","img/orange_2bandit_a.png","70","70","test","","","","2","",""
"null","170622","pSARL_v2","pSARL_v2ua7g8xsh","62c4b2239cc3b1f5f6194362","fixation","img/fixation.png","null","","test","","","","","",""
"342.80000000004657","170966","pSARL_v2","pSARL_v2ua7g8xsh","62c4b2239cc3b1f5f6194362","freq","img/orange_2bandit_a2.png","70","70","test","1","28","28","2","",""
"null","171438","pSARL_v2","pSARL_v2ua7g8xsh","62c4b2239cc3b1f5f6194362","freq_resp","img/orange_2bandit_a.png","70","70","test","","","","2","",""
"null","171596","pSARL_v2","pSARL_v2ua7g8xsh","62c4b2239cc3b1f5f6194362","fixation","img/fixation.png","null","","test","","","","","",""
"382","171980","pSARL_v2","pSARL_v2ua7g8xsh","62c4b2239cc3b1f5f6194362","freq","img/orange_2bandit_a2.png","70","70","test","1","29","29","2","",""
"null","172416","pSARL_v2","pSARL_v2ua7g8xsh","62c4b2239cc3b1f5f6194362","freq_resp","img/orange_2bandit_a.png","70","70","test","","","","2","",""
"null","172589","pSARL_v2","pSARL_v2ua7g8xsh","62c4b2239cc3b1f5f6194362","fixation","img/fixation.png","null","","test","","","","","",""
"469.60000000009313","173061","pSARL_v2","pSARL_v2ua7g8xsh","62c4b2239cc3b1f5f6194362","freq","img/orange_2bandit_a2.png","70","70","test","1","30","30","2","",""
"null","173397","pSARL_v2","pSARL_v2ua7g8xsh","62c4b2239cc3b1f5f6194362","freq_resp","img/orange_2bandit_a.png","70","70","test","","","","2","",""
"null","173553","pSARL_v2","pSARL_v2ua7g8xsh","62c4b2239cc3b1f5f6194362","fixation","img/fixation.png","null","","test","","","","","",""
"null","174381","pSARL_v2","pSARL_v2ua7g8xsh","62c4b2239cc3b1f5f6194362","freq","img/orange_2bandit_a2.png","null","70","test","0","31","31","2","",""
"null","174538","pSARL_v2","pSARL_v2ua7g8xsh","62c4b2239cc3b1f5f6194362","fixation","img/fixation.png","null","","test","","","","","",""
"75.39999999990687","174615","pSARL_v2","pSARL_v2ua7g8xsh","62c4b2239cc3b1f5f6194362","freq","img/orange_2bandit_a2.png","70","70","test","1","32","32","2","",""
"null","175344","pSARL_v2","pSARL_v2ua7g8xsh","62c4b2239cc3b1f5f6194362","freq_resp","img/orange_2bandit_a.png","70","70","test","","","","2","",""
"null","175519","pSARL_v2","pSARL_v2ua7g8xsh","62c4b2239cc3b1f5f6194362","fixation","img/fixation.png","null","","test","","","","","",""
"261.79999999981374","175783","pSARL_v2","pSARL_v2ua7g8xsh","62c4b2239cc3b1f5f6194362","freq","img/orange_2bandit_a2.png","70","70","test","1","33","33","2","",""
"null","176335","pSARL_v2","pSARL_v2ua7g8xsh","62c4b2239cc3b1f5f6194362","freq_resp","img/orange_2bandit_a.png","70","70","test","","","","2","",""
"null","176500","pSARL_v2","pSARL_v2ua7g8xsh","62c4b2239cc3b1f5f6194362","fixation","img/fixation.png","null","","test","","","","","",""
"358.89999999990687","176861","pSARL_v2","pSARL_v2ua7g8xsh","62c4b2239cc3b1f5f6194362","freq","img/orange_2bandit_a2.png","70","70","test","1","34","34","2","",""
"null","177318","pSARL_v2","pSARL_v2ua7g8xsh","62c4b2239cc3b1f5f6194362","freq_resp","img/orange_2bandit_a.png","70","70","test","","","","2","",""
"null","177491","pSARL_v2","pSARL_v2ua7g8xsh","62c4b2239cc3b1f5f6194362","fixation","img/fixation.png","null","","test","","","","","",""
"320.0999999998603","177813","pSARL_v2","pSARL_v2ua7g8xsh","62c4b2239cc3b1f5f6194362","freq","img/orange_2bandit_a2.png","70","70","test","1","35","35","2","",""
"null","178306","pSARL_v2","pSARL_v2ua7g8xsh","62c4b2239cc3b1f5f6194362","freq_resp","img/orange_2bandit_a.png","70","70","test","","","","2","",""
"null","178464","pSARL_v2","pSARL_v2ua7g8xsh","62c4b2239cc3b1f5f6194362","fixation","img/fixation.png","null","","test","","","","","",""
"301","178767","pSARL_v2","pSARL_v2ua7g8xsh","62c4b2239cc3b1f5f6194362","freq","img/orange_2bandit_a2.png","70","70","test","1","36","36","2","",""
"null","179283","pSARL_v2","pSARL_v2ua7g8xsh","62c4b2239cc3b1f5f6194362","freq_resp","img/orange_2bandit_a.png","70","70","test","","","","2","",""
"null","179443","pSARL_v2","pSARL_v2ua7g8xsh","62c4b2239cc3b1f5f6194362","fixation","img/fixation.png","null","","test","","","","","",""
"305.30000000004657","179750","pSARL_v2","pSARL_v2ua7g8xsh","62c4b2239cc3b1f5f6194362","freq","img/orange_2bandit_a2.png","70","70","test","1","37","37","2","",""
"null","180249","pSARL_v2","pSARL_v2ua7g8xsh","62c4b2239cc3b1f5f6194362","freq_resp","img/orange_2bandit_a.png","70","70","test","","","","2","",""
"null","180412","pSARL_v2","pSARL_v2ua7g8xsh","62c4b2239cc3b1f5f6194362","fixation","img/fixation.png","null","","test","","","","","",""
"315.60000000009313","180730","pSARL_v2","pSARL_v2ua7g8xsh","62c4b2239cc3b1f5f6194362","freq","img/orange_2bandit_a2.png","70","70","test","1","38","38","2","",""
"null","181229","pSARL_v2","pSARL_v2ua7g8xsh","62c4b2239cc3b1f5f6194362","freq_resp","img/orange_2bandit_a.png","70","70","test","","","","2","",""
"null","181387","pSARL_v2","pSARL_v2ua7g8xsh","62c4b2239cc3b1f5f6194362","fixation","img/fixation.png","null","","test","","","","","",""
"308.89999999990687","181697","pSARL_v2","pSARL_v2ua7g8xsh","62c4b2239cc3b1f5f6194362","freq","img/orange_2bandit_a2.png","70","70","test","1","39","39","2","",""
"null","182194","pSARL_v2","pSARL_v2ua7g8xsh","62c4b2239cc3b1f5f6194362","freq_resp","img/orange_2bandit_a.png","70","70","test","","","","2","",""
"null","182360","pSARL_v2","pSARL_v2ua7g8xsh","62c4b2239cc3b1f5f6194362","fixation","img/fixation.png","null","","test","","","","","",""
"293.69999999995343","182656","pSARL_v2","pSARL_v2ua7g8xsh","62c4b2239cc3b1f5f6194362","freq","img/orange_2bandit_a2.png","70","70","test","1","40","40","2","",""
"null","183166","pSARL_v2","pSARL_v2ua7g8xsh","62c4b2239cc3b1f5f6194362","freq_resp","img/orange_2bandit_a.png","70","70","test","","","","2","",""
"null","183330","pSARL_v2","pSARL_v2ua7g8xsh","62c4b2239cc3b1f5f6194362","fixation","img/fixation.png","null","","test","","","","","",""
"412.30000000004657","183745","pSARL_v2","pSARL_v2ua7g8xsh","62c4b2239cc3b1f5f6194362","reward","img/slot.png","74","","test","","","","","",""
"null","184499","pSARL_v2","pSARL_v2ua7g8xsh","62c4b2239cc3b1f5f6194362","points","<div class=""verylowPoints""> -11 </div>","null","na","test","","","","2","-11","1"
"523.1999999999534","185024","pSARL_v2","pSARL_v2ua7g8xsh","62c4b2239cc3b1f5f6194362","freq","img/orange_2bandit_a2.png","70","70","test","1","41","41","3","",""
"null","185305","pSARL_v2","pSARL_v2ua7g8xsh","62c4b2239cc3b1f5f6194362","freq_resp","img/orange_2bandit_a.png","70","70","test","","","","3","",""
"null","185458","pSARL_v2","pSARL_v2ua7g8xsh","62c4b2239cc3b1f5f6194362","fixation","img/fixation.png","null","","test","","","","","",""
"380","185840","pSARL_v2","pSARL_v2ua7g8xsh","62c4b2239cc3b1f5f6194362","freq","img/orange_2bandit_a2.png","70","70","test","1","42","42","3","",""
"null","186289","pSARL_v2","pSARL_v2ua7g8xsh","62c4b2239cc3b1f5f6194362","freq_resp","img/orange_2bandit_a.png","70","70","test","","","","3","",""
"null","186441","pSARL_v2","pSARL_v2ua7g8xsh","62c4b2239cc3b1f5f6194362","fixation","img/fixation.png","null","","test","","","","","",""
"303.89999999990687","186747","pSARL_v2","pSARL_v2ua7g8xsh","62c4b2239cc3b1f5f6194362","freq","img/orange_2bandit_a2.png","70","70","test","1","43","43","3","",""
"null","187260","pSARL_v2","pSARL_v2ua7g8xsh","62c4b2239cc3b1f5f6194362","freq_resp","img/orange_2bandit_a.png","70","70","test","","","","3","",""
"null","187415","pSARL_v2","pSARL_v2ua7g8xsh","62c4b2239cc3b1f5f6194362","fixation","img/fixation.png","null","","test","","","","","",""
"281.39999999990687","187699","pSARL_v2","pSARL_v2ua7g8xsh","62c4b2239cc3b1f5f6194362","freq","img/orange_2bandit_a2.png","70","70","test","1","44","44","3","",""
"null","188221","pSARL_v2","pSARL_v2ua7g8xsh","62c4b2239cc3b1f5f6194362","freq_resp","img/orange_2bandit_a.png","70","70","test","","","","3","",""
"null","188393","pSARL_v2","pSARL_v2ua7g8xsh","62c4b2239cc3b1f5f6194362","fixation","img/fixation.png","null","","test","","","","","",""
"283.10000000009313","188678","pSARL_v2","pSARL_v2ua7g8xsh","62c4b2239cc3b1f5f6194362","freq","img/orange_2bandit_a2.png","70","70","test","1","45","45","3","",""
"null","189210","pSARL_v2","pSARL_v2ua7g8xsh","62c4b2239cc3b1f5f6194362","freq_resp","img/orange_2bandit_a.png","70","70","test","","","","3","",""
"null","189386","pSARL_v2","pSARL_v2ua7g8xsh","62c4b2239cc3b1f5f6194362","fixation","img/fixation.png","null","","test","","","","","",""
"206.30000000004657","189594","pSARL_v2","pSARL_v2ua7g8xsh","62c4b2239cc3b1f5f6194362","freq","img/orange_2bandit_a2.png","70","70","test","1","46","46","3","",""
"null","190195","pSARL_v2","pSARL_v2ua7g8xsh","62c4b2239cc3b1f5f6194362","freq_resp","img/orange_2bandit_a.png","70","70","test","","","","3","",""
"null","190348","pSARL_v2","pSARL_v2ua7g8xsh","62c4b2239cc3b1f5f6194362","fixation","img/fixation.png","null","","test","","","","","",""
"453.5","190804","pSARL_v2","pSARL_v2ua7g8xsh","62c4b2239cc3b1f5f6194362","freq","img/orange_2bandit_a2.png","70","70","test","1","47","47","3","",""
"null","191165","pSARL_v2","pSARL_v2ua7g8xsh","62c4b2239cc3b1f5f6194362","freq_resp","img/orange_2bandit_a.png","70","70","test","","","","3","",""
"null","191327","pSARL_v2","pSARL_v2ua7g8xsh","62c4b2239cc3b1f5f6194362","fixation","img/fixation.png","null","","test","","","","","",""
"272.39999999990687","191601","pSARL_v2","pSARL_v2ua7g8xsh","62c4b2239cc3b1f5f6194362","freq","img/orange_2bandit_a2.png","70","70","test","1","48","48","3","",""
"null","192134","pSARL_v2","pSARL_v2ua7g8xsh","62c4b2239cc3b1f5f6194362","freq_resp","img/orange_2bandit_a.png","70","70","test","","","","3","",""
"null","192288","pSARL_v2","pSARL_v2ua7g8xsh","62c4b2239cc3b1f5f6194362","fixation","img/fixation.png","null","","test","","","","","",""
"285.5999999998603","192575","pSARL_v2","pSARL_v2ua7g8xsh","62c4b2239cc3b1f5f6194362","freq","img/orange_2bandit_a2.png","70","70","test","1","49","49","3","",""
"null","193103","pSARL_v2","pSARL_v2ua7g8xsh","62c4b2239cc3b1f5f6194362","freq_resp","img/orange_2bandit_a.png","70","70","test","","","","3","",""
"null","193268","pSARL_v2","pSARL_v2ua7g8xsh","62c4b2239cc3b1f5f6194362","fixation","img/fixation.png","null","","test","","","","","",""
"261.5","193531","pSARL_v2","pSARL_v2ua7g8xsh","62c4b2239cc3b1f5f6194362","freq","img/orange_2bandit_a2.png","70","70","test","1","50","50","3","",""
"null","194094","pSARL_v2","pSARL_v2ua7g8xsh","62c4b2239cc3b1f5f6194362","freq_resp","img/orange_2bandit_a.png","70","70","test","","","","3","",""
"null","194255","pSARL_v2","pSARL_v2ua7g8xsh","62c4b2239cc3b1f5f6194362","fixation","img/fixation.png","null","","test","","","","","",""
"261.5999999998603","194518","pSARL_v2","pSARL_v2ua7g8xsh","62c4b2239cc3b1f5f6194362","freq","img/orange_2bandit_a2.png","70","70","test","1","51","51","3","",""
"null","195062","pSARL_v2","pSARL_v2ua7g8xsh","62c4b2239cc3b1f5f6194362","freq_resp","img/orange_2bandit_a.png","70","70","test","","","","3","",""
"null","195223","pSARL_v2","pSARL_v2ua7g8xsh","62c4b2239cc3b1f5f6194362","fixation","img/fixation.png","null","","test","","","","","",""
"262.0999999998603","195487","pSARL_v2","pSARL_v2ua7g8xsh","62c4b2239cc3b1f5f6194362","freq","img/orange_2bandit_a2.png","70","70","test","1","52","52","3","",""
"null","196038","pSARL_v2","pSARL_v2ua7g8xsh","62c4b2239cc3b1f5f6194362","freq_resp","img/orange_2bandit_a.png","70","70","test","","","","3","",""
"null","196201","pSARL_v2","pSARL_v2ua7g8xsh","62c4b2239cc3b1f5f6194362","fixation","img/fixation.png","null","","test","","","","","",""
"247.4000000001397","196450","pSARL_v2","pSARL_v2ua7g8xsh","62c4b2239cc3b1f5f6194362","freq","img/orange_2bandit_a2.png","70","70","test","1","53","53","3","",""
"null","197006","pSARL_v2","pSARL_v2ua7g8xsh","62c4b2239cc3b1f5f6194362","freq_resp","img/orange_2bandit_a.png","70","70","test","","","","3","",""
"null","197171","pSARL_v2","pSARL_v2ua7g8xsh","62c4b2239cc3b1f5f6194362","fixation","img/fixation.png","null","","test","","","","","",""
"260.10000000009313","197433","pSARL_v2","pSARL_v2ua7g8xsh","62c4b2239cc3b1f5f6194362","freq","img/orange_2bandit_a2.png","70","70","test","1","54","54","3","",""
"null","197978","pSARL_v2","pSARL_v2ua7g8xsh","62c4b2239cc3b1f5f6194362","freq_resp","img/orange_2bandit_a.png","70","70","test","","","","3","",""
"null","198134","pSARL_v2","pSARL_v2ua7g8xsh","62c4b2239cc3b1f5f6194362","fixation","img/fixation.png","null","","test","","","","","",""
"268.70000000018626","198404","pSARL_v2","pSARL_v2ua7g8xsh","62c4b2239cc3b1f5f6194362","freq","img/orange_2bandit_a2.png","70","70","test","1","55","55","3","",""
"null","198949","pSARL_v2","pSARL_v2ua7g8xsh","62c4b2239cc3b1f5f6194362","freq_resp","img/orange_2bandit_a.png","70","70","test","","","","3","",""
"null","199110","pSARL_v2","pSARL_v2ua7g8xsh","62c4b2239cc3b1f5f6194362","fixation","img/fixation.png","null","","test","","","","","",""
"295.69999999995343","199407","pSARL_v2","pSARL_v2ua7g8xsh","62c4b2239cc3b1f5f6194362","infreq","img/green_2bandit_a2.png","70","68","test","0","56","56","3","",""
"null","199926","pSARL_v2","pSARL_v2ua7g8xsh","62c4b2239cc3b1f5f6194362","infreq_resp","img/green_2bandit_a.png","70","68","test","","","","3","",""
"null","200079","pSARL_v2","pSARL_v2ua7g8xsh","62c4b2239cc3b1f5f6194362","fixation","img/fixation.png","null","","test","","","","","",""
"499.79999999981374","200580","pSARL_v2","pSARL_v2ua7g8xsh","62c4b2239cc3b1f5f6194362","freq","img/orange_2bandit_a2.png","70","70","test","1","57","57","3","",""
"null","200886","pSARL_v2","pSARL_v2ua7g8xsh","62c4b2239cc3b1f5f6194362","freq_resp","img/orange_2bandit_a.png","70","70","test","","","","3","",""
"null","201052","pSARL_v2","pSARL_v2ua7g8xsh","62c4b2239cc3b1f5f6194362","fixation","img/fixation.png","null","","test","","","","","",""
"345.19999999995343","201399","pSARL_v2","pSARL_v2ua7g8xsh","62c4b2239cc3b1f5f6194362","freq","img/orange_2bandit_a2.png","70","70","test","1","58","58","3","",""
"null","201879","pSARL_v2","pSARL_v2ua7g8xsh","62c4b2239cc3b1f5f6194362","freq_resp","img/orange_2bandit_a.png","70","70","test","","","","3","",""
"null","202045","pSARL_v2","pSARL_v2ua7g8xsh","62c4b2239cc3b1f5f6194362","fixation","img/fixation.png","null","","test","","","","","",""
"353.30000000004657","202401","pSARL_v2","pSARL_v2ua7g8xsh","62c4b2239cc3b1f5f6194362","freq","img/orange_2bandit_a2.png","70","70","test","1","59","59","3","",""
"null","202850","pSARL_v2","pSARL_v2ua7g8xsh","62c4b2239cc3b1f5f6194362","freq_resp","img/orange_2bandit_a.png","70","70","test","","","","3","",""
"null","203013","pSARL_v2","pSARL_v2ua7g8xsh","62c4b2239cc3b1f5f6194362","fixation","img/fixation.png","null","","test","","","","","",""
"274.60000000009313","203290","pSARL_v2","pSARL_v2ua7g8xsh","62c4b2239cc3b1f5f6194362","infreq","img/green_2bandit_a2.png","70","68","test","0","60","60","3","",""
"null","203828","pSARL_v2","pSARL_v2ua7g8xsh","62c4b2239cc3b1f5f6194362","infreq_resp","img/green_2bandit_a.png","70","68","test","","","","3","",""
"null","203986","pSARL_v2","pSARL_v2ua7g8xsh","62c4b2239cc3b1f5f6194362","fixation","img/fixation.png","null","","test","","","","","",""
"459.5","204448","pSARL_v2","pSARL_v2ua7g8xsh","62c4b2239cc3b1f5f6194362","freq","img/orange_2bandit_a2.png","70","70","test","1","61","61","3","",""
"null","204798","pSARL_v2","pSARL_v2ua7g8xsh","62c4b2239cc3b1f5f6194362","freq_resp","img/orange_2bandit_a.png","70","70","test","","","","3","",""
"null","204957","pSARL_v2","pSARL_v2ua7g8xsh","62c4b2239cc3b1f5f6194362","fixation","img/fixation.png","null","","test","","","","","",""
"321.80000000004657","205280","pSARL_v2","pSARL_v2ua7g8xsh","62c4b2239cc3b1f5f6194362","freq","img/orange_2bandit_a2.png","70","70","test","1","62","62","3","",""
"null","205762","pSARL_v2","pSARL_v2ua7g8xsh","62c4b2239cc3b1f5f6194362","freq_resp","img/orange_2bandit_a.png","70","70","test","","","","3","",""
"null","205917","pSARL_v2","pSARL_v2ua7g8xsh","62c4b2239cc3b1f5f6194362","fixation","img/fixation.png","null","","test","","","","","",""
"441.80000000004657","206361","pSARL_v2","pSARL_v2ua7g8xsh","62c4b2239cc3b1f5f6194362","reward","img/slot.png","74","","test","","","","","",""
"null","207126","pSARL_v2","pSARL_v2ua7g8xsh","62c4b2239cc3b1f5f6194362","points","<div class=""verylowPoints""> -7 </div>","null","na","test","","","","3","-7","2"
"639.8999999999069","207768","pSARL_v2","pSARL_v2ua7g8xsh","62c4b2239cc3b1f5f6194362","freq","img/orange_2bandit_a2.png","70","70","test","1","63","63","4","",""
"null","207934","pSARL_v2","pSARL_v2ua7g8xsh","62c4b2239cc3b1f5f6194362","freq_resp","img/orange_2bandit_a.png","70","70","test","","","","4","",""
"null","208099","pSARL_v2","pSARL_v2ua7g8xsh","62c4b2239cc3b1f5f6194362","fixation","img/fixation.png","null","","test","","","","","",""
"535.3999999999069","208636","pSARL_v2","pSARL_v2ua7g8xsh","62c4b2239cc3b1f5f6194362","infreq","img/green_2bandit_a2.png","68","68","test","1","64","64","4","",""
"null","208912","pSARL_v2","pSARL_v2ua7g8xsh","62c4b2239cc3b1f5f6194362","infreq_resp","img/green_2bandit_a.png","68","68","test","","","","4","",""
"null","209066","pSARL_v2","pSARL_v2ua7g8xsh","62c4b2239cc3b1f5f6194362","fixation","img/fixation.png","null","","test","","","","","",""
"518.2000000001863","209587","pSARL_v2","pSARL_v2ua7g8xsh","62c4b2239cc3b1f5f6194362","freq","img/orange_2bandit_a2.png","70","70","test","1","65","65","4","",""
"null","209878","pSARL_v2","pSARL_v2ua7g8xsh","62c4b2239cc3b1f5f6194362","freq_resp","img/orange_2bandit_a.png","70","70","test","","","","4","",""
"null","210045","pSARL_v2","pSARL_v2ua7g8xsh","62c4b2239cc3b1f5f6194362","fixation","img/fixation.png","null","","test","","","","","",""
"502","210549","pSARL_v2","pSARL_v2ua7g8xsh","62c4b2239cc3b1f5f6194362","freq","img/orange_2bandit_a2.png","70","70","test","1","66","66","4","",""
"null","210860","pSARL_v2","pSARL_v2ua7g8xsh","62c4b2239cc3b1f5f6194362","freq_resp","img/orange_2bandit_a.png","70","70","test","","","","4","",""
"null","211014","pSARL_v2","pSARL_v2ua7g8xsh","62c4b2239cc3b1f5f6194362","fixation","img/fixation.png","null","","test","","","","","",""
"331.10000000009313","211347","pSARL_v2","pSARL_v2ua7g8xsh","62c4b2239cc3b1f5f6194362","freq","img/orange_2bandit_a2.png","70","70","test","1","67","67","4","",""
"null","211830","pSARL_v2","pSARL_v2ua7g8xsh","62c4b2239cc3b1f5f6194362","freq_resp","img/orange_2bandit_a.png","70","70","test","","","","4","",""
"null","211988","pSARL_v2","pSARL_v2ua7g8xsh","62c4b2239cc3b1f5f6194362","fixation","img/fixation.png","null","","test","","","","","",""
"429.30000000004657","212419","pSARL_v2","pSARL_v2ua7g8xsh","62c4b2239cc3b1f5f6194362","infreq","img/green_2bandit_a2.png","68","68","test","1","68","68","4","",""
"null","212801","pSARL_v2","pSARL_v2ua7g8xsh","62c4b2239cc3b1f5f6194362","infreq_resp","img/green_2bandit_a.png","68","68","test","","","","4","",""
"null","212954","pSARL_v2","pSARL_v2ua7g8xsh","62c4b2239cc3b1f5f6194362","fixation","img/fixation.png","null","","test","","","","","",""
"405.70000000018626","213362","pSARL_v2","pSARL_v2ua7g8xsh","62c4b2239cc3b1f5f6194362","freq","img/orange_2bandit_a2.png","70","70","test","1","69","69","4","",""
"null","213761","pSARL_v2","pSARL_v2ua7g8xsh","62c4b2239cc3b1f5f6194362","freq_resp","img/orange_2bandit_a.png","70","70","test","","","","4","",""
"null","213917","pSARL_v2","pSARL_v2ua7g8xsh","62c4b2239cc3b1f5f6194362","fixation","img/fixation.png","null","","test","","","","","",""
"418.60000000009313","214338","pSARL_v2","pSARL_v2ua7g8xsh","62c4b2239cc3b1f5f6194362","freq","img/orange_2bandit_a2.png","70","70","test","1","70","70","4","",""
"null","214722","pSARL_v2","pSARL_v2ua7g8xsh","62c4b2239cc3b1f5f6194362","freq_resp","img/orange_2bandit_a.png","70","70","test","","","","4","",""
"null","214885","pSARL_v2","pSARL_v2ua7g8xsh","62c4b2239cc3b1f5f6194362","fixation","img/fixation.png","null","","test","","","","","",""
"320.5999999998603","215208","pSARL_v2","pSARL_v2ua7g8xsh","62c4b2239cc3b1f5f6194362","freq","img/orange_2bandit_a2.png","70","70","test","1","71","71","4","",""
"null","215699","pSARL_v2","pSARL_v2ua7g8xsh","62c4b2239cc3b1f5f6194362","freq_resp","img/orange_2bandit_a.png","70","70","test","","","","4","",""
"null","215853","pSARL_v2","pSARL_v2ua7g8xsh","62c4b2239cc3b1f5f6194362","fixation","img/fixation.png","null","","test","","","","","",""
"301.29999999981374","216156","pSARL_v2","pSARL_v2ua7g8xsh","62c4b2239cc3b1f5f6194362","freq","img/orange_2bandit_a2.png","70","70","test","1","72","72","4","",""
"null","216670","pSARL_v2","pSARL_v2ua7g8xsh","62c4b2239cc3b1f5f6194362","freq_resp","img/orange_2bandit_a.png","70","70","test","","","","4","",""
"null","216835","pSARL_v2","pSARL_v2ua7g8xsh","62c4b2239cc3b1f5f6194362","fixation","img/fixation.png","null","","test","","","","","",""
"285.30000000004657","217122","pSARL_v2","pSARL_v2ua7g8xsh","62c4b2239cc3b1f5f6194362","freq","img/orange_2bandit_a2.png","70","70","test","1","73","73","4","",""
"null","217646","pSARL_v2","pSARL_v2ua7g8xsh","62c4b2239cc3b1f5f6194362","freq_resp","img/orange_2bandit_a.png","70","70","test","","","","4","",""
"null","217799","pSARL_v2","pSARL_v2ua7g8xsh","62c4b2239cc3b1f5f6194362","fixation","img/fixation.png","null","","test","","","","","",""
"263.0999999998603","218064","pSARL_v2","pSARL_v2ua7g8xsh","62c4b2239cc3b1f5f6194362","freq","img/orange_2bandit_a2.png","70","70","test","1","74","74","4","",""
"null","218606","pSARL_v2","pSARL_v2ua7g8xsh","62c4b2239cc3b1f5f6194362","freq_resp","img/orange_2bandit_a.png","70","70","test","","","","4","",""
"null","218780","pSARL_v2","pSARL_v2ua7g8xsh","62c4b2239cc3b1f5f6194362","fixation","img/fixation.png","null","","test","","","","","",""
"286.5999999998603","219068","pSARL_v2","pSARL_v2ua7g8xsh","62c4b2239cc3b1f5f6194362","freq","img/orange_2bandit_a2.png","70","70","test","1","75","75","4","",""
"null","219589","pSARL_v2","pSARL_v2ua7g8xsh","62c4b2239cc3b1f5f6194362","freq_resp","img/orange_2bandit_a.png","70","70","test","","","","4","",""
"null","219753","pSARL_v2","pSARL_v2ua7g8xsh","62c4b2239cc3b1f5f6194362","fixation","img/fixation.png","null","","test","","","","","",""
"280.19999999995343","220036","pSARL_v2","pSARL_v2ua7g8xsh","62c4b2239cc3b1f5f6194362","freq","img/orange_2bandit_a2.png","70","70","test","1","76","76","4","",""
"null","220572","pSARL_v2","pSARL_v2ua7g8xsh","62c4b2239cc3b1f5f6194362","freq_resp","img/orange_2bandit_a.png","70","70","test","","","","4","",""
"null","220737","pSARL_v2","pSARL_v2ua7g8xsh","62c4b2239cc3b1f5f6194362","fixation","img/fixation.png","null","","test","","","","","",""
"275","221013","pSARL_v2","pSARL_v2ua7g8xsh","62c4b2239cc3b1f5f6194362","freq","img/orange_2bandit_a2.png","70","70","test","1","77","77","4","",""
"null","221551","pSARL_v2","pSARL_v2ua7g8xsh","62c4b2239cc3b1f5f6194362","freq_resp","img/orange_2bandit_a.png","70","70","test","","","","4","",""
"null","221714","pSARL_v2","pSARL_v2ua7g8xsh","62c4b2239cc3b1f5f6194362","fixation","img/fixation.png","null","","test","","","","","",""
"247.80000000004657","221964","pSARL_v2","pSARL_v2ua7g8xsh","62c4b2239cc3b1f5f6194362","freq","img/orange_2bandit_a2.png","70","70","test","1","78","78","4","",""
"null","222529","pSARL_v2","pSARL_v2ua7g8xsh","62c4b2239cc3b1f5f6194362","freq_resp","img/orange_2bandit_a.png","70","70","test","","","","4","",""
"null","222696","pSARL_v2","pSARL_v2ua7g8xsh","62c4b2239cc3b1f5f6194362","fixation","img/fixation.png","null","","test","","","","","",""
"272.89999999990687","222971","pSARL_v2","pSARL_v2ua7g8xsh","62c4b2239cc3b1f5f6194362","freq","img/orange_2bandit_a2.png","70","70","test","1","79","79","4","",""
"null","223502","pSARL_v2","pSARL_v2ua7g8xsh","62c4b2239cc3b1f5f6194362","freq_resp","img/orange_2bandit_a.png","70","70","test","","","","4","",""
"null","223671","pSARL_v2","pSARL_v2ua7g8xsh","62c4b2239cc3b1f5f6194362","fixation","img/fixation.png","null","","test","","","","","",""
"291","223964","pSARL_v2","pSARL_v2ua7g8xsh","62c4b2239cc3b1f5f6194362","freq","img/orange_2bandit_a2.png","70","70","test","1","80","80","4","",""
"null","224481","pSARL_v2","pSARL_v2ua7g8xsh","62c4b2239cc3b1f5f6194362","freq_resp","img/orange_2bandit_a.png","70","70","test","","","","4","",""
"null","224649","pSARL_v2","pSARL_v2ua7g8xsh","62c4b2239cc3b1f5f6194362","fixation","img/fixation.png","null","","test","","","","","",""
"301.69999999995343","224952","pSARL_v2","pSARL_v2ua7g8xsh","62c4b2239cc3b1f5f6194362","freq","img/orange_2bandit_a2.png","70","70","test","1","81","81","4","",""
"null","225454","pSARL_v2","pSARL_v2ua7g8xsh","62c4b2239cc3b1f5f6194362","freq_resp","img/orange_2bandit_a.png","70","70","test","","","","4","",""
"null","225620","pSARL_v2","pSARL_v2ua7g8xsh","62c4b2239cc3b1f5f6194362","fixation","img/fixation.png","null","","test","","","","","",""
"310","225932","pSARL_v2","pSARL_v2ua7g8xsh","62c4b2239cc3b1f5f6194362","freq","img/orange_2bandit_a2.png","70","70","test","1","82","82","4","",""
"null","226438","pSARL_v2","pSARL_v2ua7g8xsh","62c4b2239cc3b1f5f6194362","freq_resp","img/orange_2bandit_a.png","70","70","test","","","","4","",""
"null","226591","pSARL_v2","pSARL_v2ua7g8xsh","62c4b2239cc3b1f5f6194362","fixation","img/fixation.png","null","","test","","","","","",""
"279.69999999995343","226872","pSARL_v2","pSARL_v2ua7g8xsh","62c4b2239cc3b1f5f6194362","freq","img/orange_2bandit_a2.png","70","70","test","1","83","83","4","",""
"null","227408","pSARL_v2","pSARL_v2ua7g8xsh","62c4b2239cc3b1f5f6194362","freq_resp","img/orange_2bandit_a.png","70","70","test","","","","4","",""
"null","227563","pSARL_v2","pSARL_v2ua7g8xsh","62c4b2239cc3b1f5f6194362","fixation","img/fixation.png","null","","test","","","","","",""
"428","227993","pSARL_v2","pSARL_v2ua7g8xsh","62c4b2239cc3b1f5f6194362","reward","img/slot.png","74","","test","","","","","",""
"null","228759","pSARL_v2","pSARL_v2ua7g8xsh","62c4b2239cc3b1f5f6194362","points","<div class=""verylowPoints""> -3 </div>","null","na","test","","","","4","-3","3"
"482.10000000009313","229243","pSARL_v2","pSARL_v2ua7g8xsh","62c4b2239cc3b1f5f6194362","freq","img/orange_2bandit_a2.png","70","70","test","1","84","84","5","",""
"null","229578","pSARL_v2","pSARL_v2ua7g8xsh","62c4b2239cc3b1f5f6194362","freq_resp","img/orange_2bandit_a.png","70","70","test","","","","5","",""
"null","229738","pSARL_v2","pSARL_v2ua7g8xsh","62c4b2239cc3b1f5f6194362","fixation","img/fixation.png","null","","test","","","","","",""
"452.29999999981374","230193","pSARL_v2","pSARL_v2ua7g8xsh","62c4b2239cc3b1f5f6194362","freq","img/orange_2bandit_a2.png","70","70","test","1","85","85","5","",""
"null","230548","pSARL_v2","pSARL_v2ua7g8xsh","62c4b2239cc3b1f5f6194362","freq_resp","img/orange_2bandit_a.png","70","70","test","","","","5","",""
"null","230713","pSARL_v2","pSARL_v2ua7g8xsh","62c4b2239cc3b1f5f6194362","fixation","img/fixation.png","null","","test","","","","","",""
"310.5","231025","pSARL_v2","pSARL_v2ua7g8xsh","62c4b2239cc3b1f5f6194362","freq","img/orange_2bandit_a2.png","70","70","test","1","86","86","5","",""
"null","231525","pSARL_v2","pSARL_v2ua7g8xsh","62c4b2239cc3b1f5f6194362","freq_resp","img/orange_2bandit_a.png","70","70","test","","","","5","",""
"null","231682","pSARL_v2","pSARL_v2ua7g8xsh","62c4b2239cc3b1f5f6194362","fixation","img/fixation.png","null","","test","","","","","",""
"259.4000000001397","231943","pSARL_v2","pSARL_v2ua7g8xsh","62c4b2239cc3b1f5f6194362","freq","img/orange_2bandit_a2.png","70","70","test","1","87","87","5","",""
"null","232491","pSARL_v2","pSARL_v2ua7g8xsh","62c4b2239cc3b1f5f6194362","freq_resp","img/orange_2bandit_a.png","70","70","test","","","","5","",""
"null","232647","pSARL_v2","pSARL_v2ua7g8xsh","62c4b2239cc3b1f5f6194362","fixation","img/fixation.png","null","","test","","","","","",""
"288.30000000004657","232937","pSARL_v2","pSARL_v2ua7g8xsh","62c4b2239cc3b1f5f6194362","freq","img/orange_2bandit_a2.png","70","70","test","1","88","88","5","",""
"null","233453","pSARL_v2","pSARL_v2ua7g8xsh","62c4b2239cc3b1f5f6194362","freq_resp","img/orange_2bandit_a.png","70","70","test","","","","5","",""
"null","233620","pSARL_v2","pSARL_v2ua7g8xsh","62c4b2239cc3b1f5f6194362","fixation","img/fixation.png","null","","test","","","","","",""
"280.5","233902","pSARL_v2","pSARL_v2ua7g8xsh","62c4b2239cc3b1f5f6194362","freq","img/orange_2bandit_a2.png","70","70","test","1","89","89","5","",""
"null","234426","pSARL_v2","pSARL_v2ua7g8xsh","62c4b2239cc3b1f5f6194362","freq_resp","img/orange_2bandit_a.png","70","70","test","","","","5","",""
"null","234584","pSARL_v2","pSARL_v2ua7g8xsh","62c4b2239cc3b1f5f6194362","fixation","img/fixation.png","null","","test","","","","","",""
"282.29999999981374","234868","pSARL_v2","pSARL_v2ua7g8xsh","62c4b2239cc3b1f5f6194362","freq","img/orange_2bandit_a2.png","70","70","test","1","90","90","5","",""
"null","235396","pSARL_v2","pSARL_v2ua7g8xsh","62c4b2239cc3b1f5f6194362","freq_resp","img/orange_2bandit_a.png","70","70","test","","","","5","",""
"null","235559","pSARL_v2","pSARL_v2ua7g8xsh","62c4b2239cc3b1f5f6194362","fixation","img/fixation.png","null","","test","","","","","",""
"285.5999999998603","235846","pSARL_v2","pSARL_v2ua7g8xsh","62c4b2239cc3b1f5f6194362","freq","img/orange_2bandit_a2.png","70","70","test","1","91","91","5","",""
"null","236364","pSARL_v2","pSARL_v2ua7g8xsh","62c4b2239cc3b1f5f6194362","freq_resp","img/orange_2bandit_a.png","70","70","test","","","","5","",""
"null","236526","pSARL_v2","pSARL_v2ua7g8xsh","62c4b2239cc3b1f5f6194362","fixation","img/fixation.png","null","","test","","","","","",""
"346.69999999995343","236874","pSARL_v2","pSARL_v2ua7g8xsh","62c4b2239cc3b1f5f6194362","freq","img/orange_2bandit_a2.png","70","70","test","1","92","92","5","",""
"null","237345","pSARL_v2","pSARL_v2ua7g8xsh","62c4b2239cc3b1f5f6194362","freq_resp","img/orange_2bandit_a.png","70","70","test","","","","5","",""
"null","237512","pSARL_v2","pSARL_v2ua7g8xsh","62c4b2239cc3b1f5f6194362","fixation","img/fixation.png","null","","test","","","","","",""
"467","237981","pSARL_v2","pSARL_v2ua7g8xsh","62c4b2239cc3b1f5f6194362","freq","img/orange_2bandit_a2.png","70","70","test","1","93","93","5","",""
"null","238317","pSARL_v2","pSARL_v2ua7g8xsh","62c4b2239cc3b1f5f6194362","freq_resp","img/orange_2bandit_a.png","70","70","test","","","","5","",""
"null","238487","pSARL_v2","pSARL_v2ua7g8xsh","62c4b2239cc3b1f5f6194362","fixation","img/fixation.png","null","","test","","","","","",""
"497.69999999995343","238986","pSARL_v2","pSARL_v2ua7g8xsh","62c4b2239cc3b1f5f6194362","freq","img/orange_2bandit_a2.png","70","70","test","1","94","94","5","",""
"null","239291","pSARL_v2","pSARL_v2ua7g8xsh","62c4b2239cc3b1f5f6194362","freq_resp","img/orange_2bandit_a.png","70","70","test","","","","5","",""
"null","239445","pSARL_v2","pSARL_v2ua7g8xsh","62c4b2239cc3b1f5f6194362","fixation","img/fixation.png","null","","test","","","","","",""
"375","239822","pSARL_v2","pSARL_v2ua7g8xsh","62c4b2239cc3b1f5f6194362","freq","img/orange_2bandit_a2.png","70","70","test","1","95","95","5","",""
"null","240252","pSARL_v2","pSARL_v2ua7g8xsh","62c4b2239cc3b1f5f6194362","freq_resp","img/orange_2bandit_a.png","70","70","test","","","","5","",""
"null","240419","pSARL_v2","pSARL_v2ua7g8xsh","62c4b2239cc3b1f5f6194362","fixation","img/fixation.png","null","","test","","","","","",""
"264.89999999990687","240686","pSARL_v2","pSARL_v2ua7g8xsh","62c4b2239cc3b1f5f6194362","freq","img/orange_2bandit_a2.png","70","70","test","1","96","96","5","",""
"null","241228","pSARL_v2","pSARL_v2ua7g8xsh","62c4b2239cc3b1f5f6194362","freq_resp","img/orange_2bandit_a.png","70","70","test","","","","5","",""
"null","241390","pSARL_v2","pSARL_v2ua7g8xsh","62c4b2239cc3b1f5f6194362","fixation","img/fixation.png","null","","test","","","","","",""
"306","241698","pSARL_v2","pSARL_v2ua7g8xsh","62c4b2239cc3b1f5f6194362","freq","img/orange_2bandit_a2.png","70","70","test","1","97","97","5","",""
"null","242210","pSARL_v2","pSARL_v2ua7g8xsh","62c4b2239cc3b1f5f6194362","freq_resp","img/orange_2bandit_a.png","70","70","test","","","","5","",""
"null","242376","pSARL_v2","pSARL_v2ua7g8xsh","62c4b2239cc3b1f5f6194362","fixation","img/fixation.png","null","","test","","","","","",""
"731","243109","pSARL_v2","pSARL_v2ua7g8xsh","62c4b2239cc3b1f5f6194362","freq","img/orange_2bandit_a2.png","70","70","test","1","98","98","5","",""
"null","243181","pSARL_v2","pSARL_v2ua7g8xsh","62c4b2239cc3b1f5f6194362","freq_resp","img/orange_2bandit_a.png","70","70","test","","","","5","",""
"null","243337","pSARL_v2","pSARL_v2ua7g8xsh","62c4b2239cc3b1f5f6194362","fixation","img/fixation.png","null","","test","","","","","",""
"479","243818","pSARL_v2","pSARL_v2ua7g8xsh","62c4b2239cc3b1f5f6194362","freq","img/orange_2bandit_a2.png","70","70","test","1","99","99","5","",""
"null","244156","pSARL_v2","pSARL_v2ua7g8xsh","62c4b2239cc3b1f5f6194362","freq_resp","img/orange_2bandit_a.png","70","70","test","","","","5","",""
"null","244324","pSARL_v2","pSARL_v2ua7g8xsh","62c4b2239cc3b1f5f6194362","fixation","img/fixation.png","null","","test","","","","","",""
"617.9000000001397","244943","pSARL_v2","pSARL_v2ua7g8xsh","62c4b2239cc3b1f5f6194362","infreq","img/green_2bandit_a2.png","68","68","test","1","100","100","5","",""
"null","245138","pSARL_v2","pSARL_v2ua7g8xsh","62c4b2239cc3b1f5f6194362","infreq_resp","img/green_2bandit_a.png","68","68","test","","","","5","",""
"null","245298","pSARL_v2","pSARL_v2ua7g8xsh","62c4b2239cc3b1f5f6194362","fixation","img/fixation.png","null","","test","","","","","",""
"393.10000000009313","245693","pSARL_v2","pSARL_v2ua7g8xsh","62c4b2239cc3b1f5f6194362","infreq","img/green_2bandit_a2.png","68","68","test","1","101","101","5","",""
"null","246115","pSARL_v2","pSARL_v2ua7g8xsh","62c4b2239cc3b1f5f6194362","infreq_resp","img/green_2bandit_a.png","68","68","test","","","","5","",""
"null","246293","pSARL_v2","pSARL_v2ua7g8xsh","62c4b2239cc3b1f5f6194362","fixation","img/fixation.png","null","","test","","","","","",""
"417.80000000004657","246713","pSARL_v2","pSARL_v2ua7g8xsh","62c4b2239cc3b1f5f6194362","freq","img/orange_2bandit_a2.png","70","70","test","1","102","102","5","",""
"null","247111","pSARL_v2","pSARL_v2ua7g8xsh","62c4b2239cc3b1f5f6194362","freq_resp","img/orange_2bandit_a.png","70","70","test","","","","5","",""
"null","247279","pSARL_v2","pSARL_v2ua7g8xsh","62c4b2239cc3b1f5f6194362","fixation","img/fixation.png","null","","test","","","","","",""
"383.80000000004657","247665","pSARL_v2","pSARL_v2ua7g8xsh","62c4b2239cc3b1f5f6194362","infreq","img/green_2bandit_a2.png","70","68","test","0","103","103","5","",""
"null","248095","pSARL_v2","pSARL_v2ua7g8xsh","62c4b2239cc3b1f5f6194362","infreq_resp","img/green_2bandit_a.png","70","68","test","","","","5","",""
"null","248251","pSARL_v2","pSARL_v2ua7g8xsh","62c4b2239cc3b1f5f6194362","fixation","img/fixation.png","null","","test","","","","","",""
"395.5","248649","pSARL_v2","pSARL_v2ua7g8xsh","62c4b2239cc3b1f5f6194362","freq","img/orange_2bandit_a2.png","70","70","test","1","104","104","5","",""
"null","249076","pSARL_v2","pSARL_v2ua7g8xsh","62c4b2239cc3b1f5f6194362","freq_resp","img/orange_2bandit_a.png","70","70","test","","","","5","",""
"null","249247","pSARL_v2","pSARL_v2ua7g8xsh","62c4b2239cc3b1f5f6194362","fixation","img/fixation.png","null","","test","","","","","",""
"310","249559","pSARL_v2","pSARL_v2ua7g8xsh","62c4b2239cc3b1f5f6194362","freq","img/orange_2bandit_a2.png","70","70","test","1","105","105","5","",""
"null","250054","pSARL_v2","pSARL_v2ua7g8xsh","62c4b2239cc3b1f5f6194362","freq_resp","img/orange_2bandit_a.png","70","70","test","","","","5","",""
"null","250220","pSARL_v2","pSARL_v2ua7g8xsh","62c4b2239cc3b1f5f6194362","fixation","img/fixation.png","null","","test","","","","","",""
"367.10000000009313","250589","pSARL_v2","pSARL_v2ua7g8xsh","62c4b2239cc3b1f5f6194362","freq","img/orange_2bandit_a2.png","70","70","test","1","106","106","5","",""
"null","251038","pSARL_v2","pSARL_v2ua7g8xsh","62c4b2239cc3b1f5f6194362","freq_resp","img/orange_2bandit_a.png","70","70","test","","","","5","",""
"null","251195","pSARL_v2","pSARL_v2ua7g8xsh","62c4b2239cc3b1f5f6194362","fixation","img/fixation.png","null","","test","","","","","",""
"377","251574","pSARL_v2","pSARL_v2ua7g8xsh","62c4b2239cc3b1f5f6194362","reward","img/slot.png","74","","test","","","","","",""
"null","252333","pSARL_v2","pSARL_v2ua7g8xsh","62c4b2239cc3b1f5f6194362","points","<div class=""veryhighPoints""> +1 </div>","null","na","test","","","","5","1","4"
"488.30000000004657","252823","pSARL_v2","pSARL_v2ua7g8xsh","62c4b2239cc3b1f5f6194362","freq","img/orange_2bandit_a2.png","70","70","test","1","107","107","6","",""
"null","253146","pSARL_v2","pSARL_v2ua7g8xsh","62c4b2239cc3b1f5f6194362","freq_resp","img/orange_2bandit_a.png","70","70","test","","","","6","",""
"null","253307","pSARL_v2","pSARL_v2ua7g8xsh","62c4b2239cc3b1f5f6194362","fixation","img/fixation.png","null","","test","","","","","",""
"450.19999999995343","253759","pSARL_v2","pSARL_v2ua7g8xsh","62c4b2239cc3b1f5f6194362","freq","img/orange_2bandit_a2.png","70","70","test","1","108","108","6","",""
"null","254122","pSARL_v2","pSARL_v2ua7g8xsh","62c4b2239cc3b1f5f6194362","freq_resp","img/orange_2bandit_a.png","70","70","test","","","","6","",""
"null","254274","pSARL_v2","pSARL_v2ua7g8xsh","62c4b2239cc3b1f5f6194362","fixation","img/fixation.png","null","","test","","","","","",""
"407.29999999981374","254683","pSARL_v2","pSARL_v2ua7g8xsh","62c4b2239cc3b1f5f6194362","freq","img/orange_2bandit_a2.png","70","70","test","1","109","109","6","",""
"null","255083","pSARL_v2","pSARL_v2ua7g8xsh","62c4b2239cc3b1f5f6194362","freq_resp","img/orange_2bandit_a.png","70","70","test","","","","6","",""
"null","255254","pSARL_v2","pSARL_v2ua7g8xsh","62c4b2239cc3b1f5f6194362","fixation","img/fixation.png","null","","test","","","","","",""
"345.5","255601","pSARL_v2","pSARL_v2ua7g8xsh","62c4b2239cc3b1f5f6194362","freq","img/orange_2bandit_a2.png","70","70","test","1","110","110","6","",""
"null","256083","pSARL_v2","pSARL_v2ua7g8xsh","62c4b2239cc3b1f5f6194362","freq_resp","img/orange_2bandit_a.png","70","70","test","","","","6","",""
"null","256252","pSARL_v2","pSARL_v2ua7g8xsh","62c4b2239cc3b1f5f6194362","fixation","img/fixation.png","null","","test","","","","","",""
"328.5","256582","pSARL_v2","pSARL_v2ua7g8xsh","62c4b2239cc3b1f5f6194362","freq","img/orange_2bandit_a2.png","70","70","test","1","111","111","6","",""
"null","257064","pSARL_v2","pSARL_v2ua7g8xsh","62c4b2239cc3b1f5f6194362","freq_resp","img/orange_2bandit_a.png","70","70","test","","","","6","",""
"null","257229","pSARL_v2","pSARL_v2ua7g8xsh","62c4b2239cc3b1f5f6194362","fixation","img/fixation.png","null","","test","","","","","",""
"334.20000000018626","257566","pSARL_v2","pSARL_v2ua7g8xsh","62c4b2239cc3b1f5f6194362","freq","img/orange_2bandit_a2.png","70","70","test","1","112","112","6","",""
"null","258049","pSARL_v2","pSARL_v2ua7g8xsh","62c4b2239cc3b1f5f6194362","freq_resp","img/orange_2bandit_a.png","70","70","test","","","","6","",""
"null","258212","pSARL_v2","pSARL_v2ua7g8xsh","62c4b2239cc3b1f5f6194362","fixation","img/fixation.png","null","","test","","","","","",""
"415.5","258630","pSARL_v2","pSARL_v2ua7g8xsh","62c4b2239cc3b1f5f6194362","freq","img/orange_2bandit_a2.png","70","70","test","1","113","113","6","",""
"null","259028","pSARL_v2","pSARL_v2ua7g8xsh","62c4b2239cc3b1f5f6194362","freq_resp","img/orange_2bandit_a.png","70","70","test","","","","6","",""
"null","259188","pSARL_v2","pSARL_v2ua7g8xsh","62c4b2239cc3b1f5f6194362","fixation","img/fixation.png","null","","test","","","","","",""
"312.60000000009313","259503","pSARL_v2","pSARL_v2ua7g8xsh","62c4b2239cc3b1f5f6194362","freq","img/orange_2bandit_a2.png","70","70","test","1","114","114","6","",""
"null","259995","pSARL_v2","pSARL_v2ua7g8xsh","62c4b2239cc3b1f5f6194362","freq_resp","img/orange_2bandit_a.png","70","70","test","","","","6","",""
"null","260159","pSARL_v2","pSARL_v2ua7g8xsh","62c4b2239cc3b1f5f6194362","fixation","img/fixation.png","null","","test","","","","","",""
"257.69999999995343","260418","pSARL_v2","pSARL_v2ua7g8xsh","62c4b2239cc3b1f5f6194362","freq","img/orange_2bandit_a2.png","70","70","test","1","115","115","6","",""
"null","260972","pSARL_v2","pSARL_v2ua7g8xsh","62c4b2239cc3b1f5f6194362","freq_resp","img/orange_2bandit_a.png","70","70","test","","","","6","",""
"null","261134","pSARL_v2","pSARL_v2ua7g8xsh","62c4b2239cc3b1f5f6194362","fixation","img/fixation.png","null","","test","","","","","",""
"287.20000000018626","261423","pSARL_v2","pSARL_v2ua7g8xsh","62c4b2239cc3b1f5f6194362","infreq","img/green_2bandit_a2.png","70","68","test","0","116","116","6","",""
"null","261947","pSARL_v2","pSARL_v2ua7g8xsh","62c4b2239cc3b1f5f6194362","infreq_resp","img/green_2bandit_a.png","70","68","test","","","","6","",""
"null","262109","pSARL_v2","pSARL_v2ua7g8xsh","62c4b2239cc3b1f5f6194362","fixation","img/fixation.png","null","","test","","","","","",""
"466.30000000004657","262577","pSARL_v2","pSARL_v2ua7g8xsh","62c4b2239cc3b1f5f6194362","freq","img/orange_2bandit_a2.png","70","70","test","1","117","117","6","",""
"null","262927","pSARL_v2","pSARL_v2ua7g8xsh","62c4b2239cc3b1f5f6194362","freq_resp","img/orange_2bandit_a.png","70","70","test","","","","6","",""
"null","263080","pSARL_v2","pSARL_v2ua7g8xsh","62c4b2239cc3b1f5f6194362","fixation","img/fixation.png","null","","test","","","","","",""
"412.39999999990687","263495","pSARL_v2","pSARL_v2ua7g8xsh","62c4b2239cc3b1f5f6194362","infreq","img/green_2bandit_a2.png","68","68","test","1","118","118","6","",""
"null","263888","pSARL_v2","pSARL_v2ua7g8xsh","62c4b2239cc3b1f5f6194362","infreq_resp","img/green_2bandit_a.png","68","68","test","","","","6","",""
"null","264041","pSARL_v2","pSARL_v2ua7g8xsh","62c4b2239cc3b1f5f6194362","fixation","img/fixation.png","null","","test","","","","","",""
"499.5999999998603","264543","pSARL_v2","pSARL_v2ua7g8xsh","62c4b2239cc3b1f5f6194362","freq","img/orange_2bandit_a2.png","70","70","test","1","119","119","6","",""
"null","264856","pSARL_v2","pSARL_v2ua7g8xsh","62c4b2239cc3b1f5f6194362","freq_resp","img/orange_2bandit_a.png","70","70","test","","","","6","",""
"null","265017","pSARL_v2","pSARL_v2ua7g8xsh","62c4b2239cc3b1f5f6194362","fixation","img/fixation.png","null","","test","","","","","",""
"369.4000000001397","265388","pSARL_v2","pSARL_v2ua7g8xsh","62c4b2239cc3b1f5f6194362","freq","img/orange_2bandit_a2.png","70","70","test","1","120","120","6","",""
"null","265832","pSARL_v2","pSARL_v2ua7g8xsh","62c4b2239cc3b1f5f6194362","freq_resp","img/orange_2bandit_a.png","70","70","test","","","","6","",""
"null","265993","pSARL_v2","pSARL_v2ua7g8xsh","62c4b2239cc3b1f5f6194362","fixation","img/fixation.png","null","","test","","","","","",""
"348.39999999990687","266343","pSARL_v2","pSARL_v2ua7g8xsh","62c4b2239cc3b1f5f6194362","freq","img/orange_2bandit_a2.png","70","70","test","1","121","121","6","",""
"null","266808","pSARL_v2","pSARL_v2ua7g8xsh","62c4b2239cc3b1f5f6194362","freq_resp","img/orange_2bandit_a.png","70","70","test","","","","6","",""
"null","266963","pSARL_v2","pSARL_v2ua7g8xsh","62c4b2239cc3b1f5f6194362","fixation","img/fixation.png","null","","test","","","","","",""
"282.10000000009313","267247","pSARL_v2","pSARL_v2ua7g8xsh","62c4b2239cc3b1f5f6194362","freq","img/orange_2bandit_a2.png","70","70","test","1","122","122","6","",""
"null","267771","pSARL_v2","pSARL_v2ua7g8xsh","62c4b2239cc3b1f5f6194362","freq_resp","img/orange_2bandit_a.png","70","70","test","","","","6","",""
"null","267936","pSARL_v2","pSARL_v2ua7g8xsh","62c4b2239cc3b1f5f6194362","fixation","img/fixation.png","null","","test","","","","","",""
"246.9000000001397","268186","pSARL_v2","pSARL_v2ua7g8xsh","62c4b2239cc3b1f5f6194362","freq","img/orange_2bandit_a2.png","70","70","test","1","123","123","6","",""
"null","268756","pSARL_v2","pSARL_v2ua7g8xsh","62c4b2239cc3b1f5f6194362","freq_resp","img/orange_2bandit_a.png","70","70","test","","","","6","",""
"null","268919","pSARL_v2","pSARL_v2ua7g8xsh","62c4b2239cc3b1f5f6194362","fixation","img/fixation.png","null","","test","","","","","",""
"260.30000000004657","269182","pSARL_v2","pSARL_v2ua7g8xsh","62c4b2239cc3b1f5f6194362","freq","img/orange_2bandit_a2.png","70","70","test","1","124","124","6","",""
"null","269734","pSARL_v2","pSARL_v2ua7g8xsh","62c4b2239cc3b1f5f6194362","freq_resp","img/orange_2bandit_a.png","70","70","test","","","","6","",""
"null","269894","pSARL_v2","pSARL_v2ua7g8xsh","62c4b2239cc3b1f5f6194362","fixation","img/fixation.png","null","","test","","","","","",""
"264.5","270161","pSARL_v2","pSARL_v2ua7g8xsh","62c4b2239cc3b1f5f6194362","freq","img/orange_2bandit_a2.png","70","70","test","1","125","125","6","",""
"null","270703","pSARL_v2","pSARL_v2ua7g8xsh","62c4b2239cc3b1f5f6194362","freq_resp","img/orange_2bandit_a.png","70","70","test","","","","6","",""
"null","270881","pSARL_v2","pSARL_v2ua7g8xsh","62c4b2239cc3b1f5f6194362","fixation","img/fixation.png","null","","test","","","","","",""
"311.30000000004657","271195","pSARL_v2","pSARL_v2ua7g8xsh","62c4b2239cc3b1f5f6194362","freq","img/orange_2bandit_a2.png","70","70","test","1","126","126","6","",""
"null","271696","pSARL_v2","pSARL_v2ua7g8xsh","62c4b2239cc3b1f5f6194362","freq_resp","img/orange_2bandit_a.png","70","70","test","","","","6","",""
"null","271862","pSARL_v2","pSARL_v2ua7g8xsh","62c4b2239cc3b1f5f6194362","fixation","img/fixation.png","null","","test","","","","","",""
"263","272127","pSARL_v2","pSARL_v2ua7g8xsh","62c4b2239cc3b1f5f6194362","freq","img/orange_2bandit_a2.png","70","70","test","1","127","127","6","",""
"null","272675","pSARL_v2","pSARL_v2ua7g8xsh","62c4b2239cc3b1f5f6194362","freq_resp","img/orange_2bandit_a.png","70","70","test","","","","6","",""
"null","272830","pSARL_v2","pSARL_v2ua7g8xsh","62c4b2239cc3b1f5f6194362","fixation","img/fixation.png","null","","test","","","","","",""
"346.19999999995343","273179","pSARL_v2","pSARL_v2ua7g8xsh","62c4b2239cc3b1f5f6194362","freq","img/orange_2bandit_a2.png","70","70","test","1","128","128","6","",""
"null","273651","pSARL_v2","pSARL_v2ua7g8xsh","62c4b2239cc3b1f5f6194362","freq_resp","img/orange_2bandit_a.png","70","70","test","","","","6","",""
"null","273807","pSARL_v2","pSARL_v2ua7g8xsh","62c4b2239cc3b1f5f6194362","fixation","img/fixation.png","null","","test","","","","","",""
"337.69999999995343","274147","pSARL_v2","pSARL_v2ua7g8xsh","62c4b2239cc3b1f5f6194362","freq","img/orange_2bandit_a2.png","70","70","test","1","129","129","6","",""
"null","274624","pSARL_v2","pSARL_v2ua7g8xsh","62c4b2239cc3b1f5f6194362","freq_resp","img/orange_2bandit_a.png","70","70","test","","","","6","",""
"null","274783","pSARL_v2","pSARL_v2ua7g8xsh","62c4b2239cc3b1f5f6194362","fixation","img/fixation.png","null","","test","","","","","",""
"381.89999999990687","275167","pSARL_v2","pSARL_v2ua7g8xsh","62c4b2239cc3b1f5f6194362","reward","img/slot.png","74","","test","","","","","",""
"null","275927","pSARL_v2","pSARL_v2ua7g8xsh","62c4b2239cc3b1f5f6194362","points","<div class=""verylowPoints""> -7 </div>","null","na","test","","","","6","-7","5"
"491.79999999981374","276421","pSARL_v2","pSARL_v2ua7g8xsh","62c4b2239cc3b1f5f6194362","freq","img/orange_2bandit_a2.png","70","70","test","1","130","130","7","",""
"null","276733","pSARL_v2","pSARL_v2ua7g8xsh","62c4b2239cc3b1f5f6194362","freq_resp","img/orange_2bandit_a.png","70","70","test","","","","7","",""
"null","276888","pSARL_v2","pSARL_v2ua7g8xsh","62c4b2239cc3b1f5f6194362","fixation","img/fixation.png","null","","test","","","","","",""
"419.19999999995343","277309","pSARL_v2","pSARL_v2ua7g8xsh","62c4b2239cc3b1f5f6194362","freq","img/orange_2bandit_a2.png","70","70","test","1","131","131","7","",""
"null","277693","pSARL_v2","pSARL_v2ua7g8xsh","62c4b2239cc3b1f5f6194362","freq_resp","img/orange_2bandit_a.png","70","70","test","","","","7","",""
"null","277846","pSARL_v2","pSARL_v2ua7g8xsh","62c4b2239cc3b1f5f6194362","fixation","img/fixation.png","null","","test","","","","","",""
"351.10000000009313","278199","pSARL_v2","pSARL_v2ua7g8xsh","62c4b2239cc3b1f5f6194362","freq","img/orange_2bandit_a2.png","70","70","test","1","132","132","7","",""
"null","278650","pSARL_v2","pSARL_v2ua7g8xsh","62c4b2239cc3b1f5f6194362","freq_resp","img/orange_2bandit_a.png","70","70","test","","","","7","",""
"null","278818","pSARL_v2","pSARL_v2ua7g8xsh","62c4b2239cc3b1f5f6194362","fixation","img/fixation.png","null","","test","","","","","",""
"319.89999999990687","279140","pSARL_v2","pSARL_v2ua7g8xsh","62c4b2239cc3b1f5f6194362","freq","img/orange_2bandit_a2.png","70","70","test","1","133","133","7","",""
"null","279633","pSARL_v2","pSARL_v2ua7g8xsh","62c4b2239cc3b1f5f6194362","freq_resp","img/orange_2bandit_a.png","70","70","test","","","","7","",""
"null","279798","pSARL_v2","pSARL_v2ua7g8xsh","62c4b2239cc3b1f5f6194362","fixation","img/fixation.png","null","","test","","","","","",""
"290.10000000009313","280091","pSARL_v2","pSARL_v2ua7g8xsh","62c4b2239cc3b1f5f6194362","freq","img/orange_2bandit_a2.png","70","70","test","1","134","134","7","",""
"null","280616","pSARL_v2","pSARL_v2ua7g8xsh","62c4b2239cc3b1f5f6194362","freq_resp","img/orange_2bandit_a.png","70","70","test","","","","7","",""
"null","280784","pSARL_v2","pSARL_v2ua7g8xsh","62c4b2239cc3b1f5f6194362","fixation","img/fixation.png","null","","test","","","","","",""
"313.10000000009313","281099","pSARL_v2","pSARL_v2ua7g8xsh","62c4b2239cc3b1f5f6194362","freq","img/orange_2bandit_a2.png","70","70","test","1","135","135","7","",""
"null","281591","pSARL_v2","pSARL_v2ua7g8xsh","62c4b2239cc3b1f5f6194362","freq_resp","img/orange_2bandit_a.png","70","70","test","","","","7","",""
"null","281758","pSARL_v2","pSARL_v2ua7g8xsh","62c4b2239cc3b1f5f6194362","fixation","img/fixation.png","null","","test","","","","","",""
"281.69999999995343","282041","pSARL_v2","pSARL_v2ua7g8xsh","62c4b2239cc3b1f5f6194362","freq","img/orange_2bandit_a2.png","70","70","test","1","136","136","7","",""
"null","282570","pSARL_v2","pSARL_v2ua7g8xsh","62c4b2239cc3b1f5f6194362","freq_resp","img/orange_2bandit_a.png","70","70","test","","","","7","",""
"null","282734","pSARL_v2","pSARL_v2ua7g8xsh","62c4b2239cc3b1f5f6194362","fixation","img/fixation.png","null","","test","","","","","",""
"251.10000000009313","282987","pSARL_v2","pSARL_v2ua7g8xsh","62c4b2239cc3b1f5f6194362","freq","img/orange_2bandit_a2.png","70","70","test","1","137","137","7","",""
"null","283539","pSARL_v2","pSARL_v2ua7g8xsh","62c4b2239cc3b1f5f6194362","freq_resp","img/orange_2bandit_a.png","70","70","test","","","","7","",""
"null","283692","pSARL_v2","pSARL_v2ua7g8xsh","62c4b2239cc3b1f5f6194362","fixation","img/fixation.png","null","","test","","","","","",""
"238","283932","pSARL_v2","pSARL_v2ua7g8xsh","62c4b2239cc3b1f5f6194362","infreq","img/green_2bandit_a2.png","70","68","test","0","138","138","7","",""
"null","284498","pSARL_v2","pSARL_v2ua7g8xsh","62c4b2239cc3b1f5f6194362","infreq_resp","img/green_2bandit_a.png","70","68","test","","","","7","",""
"null","284654","pSARL_v2","pSARL_v2ua7g8xsh","62c4b2239cc3b1f5f6194362","fixation","img/fixation.png","null","","test","","","","","",""
"457.5","285113","pSARL_v2","pSARL_v2ua7g8xsh","62c4b2239cc3b1f5f6194362","freq","img/orange_2bandit_a2.png","70","70","test","1","139","139","7","",""
"null","285471","pSARL_v2","pSARL_v2ua7g8xsh","62c4b2239cc3b1f5f6194362","freq_resp","img/orange_2bandit_a.png","70","70","test","","","","7","",""
"null","285637","pSARL_v2","pSARL_v2ua7g8xsh","62c4b2239cc3b1f5f6194362","fixation","img/fixation.png","null","","test","","","","","",""
"341.10000000009313","285980","pSARL_v2","pSARL_v2ua7g8xsh","62c4b2239cc3b1f5f6194362","freq","img/orange_2bandit_a2.png","70","70","test","1","140","140","7","",""
"null","286450","pSARL_v2","pSARL_v2ua7g8xsh","62c4b2239cc3b1f5f6194362","freq_resp","img/orange_2bandit_a.png","70","70","test","","","","7","",""
"null","286617","pSARL_v2","pSARL_v2ua7g8xsh","62c4b2239cc3b1f5f6194362","fixation","img/fixation.png","null","","test","","","","","",""
"326.5","286945","pSARL_v2","pSARL_v2ua7g8xsh","62c4b2239cc3b1f5f6194362","freq","img/orange_2bandit_a2.png","70","70","test","1","141","141","7","",""
"null","287431","pSARL_v2","pSARL_v2ua7g8xsh","62c4b2239cc3b1f5f6194362","freq_resp","img/orange_2bandit_a.png","70","70","test","","","","7","",""
"null","287595","pSARL_v2","pSARL_v2ua7g8xsh","62c4b2239cc3b1f5f6194362","fixation","img/fixation.png","null","","test","","","","","",""
"291.89999999990687","287889","pSARL_v2","pSARL_v2ua7g8xsh","62c4b2239cc3b1f5f6194362","freq","img/orange_2bandit_a2.png","70","70","test","1","142","142","7","",""
"null","288410","pSARL_v2","pSARL_v2ua7g8xsh","62c4b2239cc3b1f5f6194362","freq_resp","img/orange_2bandit_a.png","70","70","test","","","","7","",""
"null","288566","pSARL_v2","pSARL_v2ua7g8xsh","62c4b2239cc3b1f5f6194362","fixation","img/fixation.png","null","","test","","","","","",""
"284.9000000001397","288852","pSARL_v2","pSARL_v2ua7g8xsh","62c4b2239cc3b1f5f6194362","freq","img/orange_2bandit_a2.png","70","70","test","1","143","143","7","",""
"null","289380","pSARL_v2","pSARL_v2ua7g8xsh","62c4b2239cc3b1f5f6194362","freq_resp","img/orange_2bandit_a.png","70","70","test","","","","7","",""
"null","289547","pSARL_v2","pSARL_v2ua7g8xsh","62c4b2239cc3b1f5f6194362","fixation","img/fixation.png","null","","test","","","","","",""
"326.10000000009313","289875","pSARL_v2","pSARL_v2ua7g8xsh","62c4b2239cc3b1f5f6194362","freq","img/orange_2bandit_a2.png","70","70","test","1","144","144","7","",""
"null","290352","pSARL_v2","pSARL_v2ua7g8xsh","62c4b2239cc3b1f5f6194362","freq_resp","img/orange_2bandit_a.png","70","70","test","","","","7","",""
"null","290513","pSARL_v2","pSARL_v2ua7g8xsh","62c4b2239cc3b1f5f6194362","fixation","img/fixation.png","null","","test","","","","","",""
"261.4000000001397","290776","pSARL_v2","pSARL_v2ua7g8xsh","62c4b2239cc3b1f5f6194362","freq","img/orange_2bandit_a2.png","70","70","test","1","145","145","7","",""
"null","291319","pSARL_v2","pSARL_v2ua7g8xsh","62c4b2239cc3b1f5f6194362","freq_resp","img/orange_2bandit_a.png","70","70","test","","","","7","",""
"null","291483","pSARL_v2","pSARL_v2ua7g8xsh","62c4b2239cc3b1f5f6194362","fixation","img/fixation.png","null","","test","","","","","",""
"275.39999999990687","291761","pSARL_v2","pSARL_v2ua7g8xsh","62c4b2239cc3b1f5f6194362","freq","img/orange_2bandit_a2.png","70","70","test","1","146","146","7","",""
"null","292301","pSARL_v2","pSARL_v2ua7g8xsh","62c4b2239cc3b1f5f6194362","freq_resp","img/orange_2bandit_a.png","70","70","test","","","","7","",""
"null","292455","pSARL_v2","pSARL_v2ua7g8xsh","62c4b2239cc3b1f5f6194362","fixation","img/fixation.png","null","","test","","","","","",""
"262.69999999995343","292719","pSARL_v2","pSARL_v2ua7g8xsh","62c4b2239cc3b1f5f6194362","freq","img/orange_2bandit_a2.png","70","70","test","1","147","147","7","",""
"null","293263","pSARL_v2","pSARL_v2ua7g8xsh","62c4b2239cc3b1f5f6194362","freq_resp","img/orange_2bandit_a.png","70","70","test","","","","7","",""
"null","293427","pSARL_v2","pSARL_v2ua7g8xsh","62c4b2239cc3b1f5f6194362","fixation","img/fixation.png","null","","test","","","","","",""
"256.39999999990687","293686","pSARL_v2","pSARL_v2ua7g8xsh","62c4b2239cc3b1f5f6194362","freq","img/orange_2bandit_a2.png","70","70","test","1","148","148","7","",""
"null","294232","pSARL_v2","pSARL_v2ua7g8xsh","62c4b2239cc3b1f5f6194362","freq_resp","img/orange_2bandit_a.png","70","70","test","","","","7","",""
"null","294386","pSARL_v2","pSARL_v2ua7g8xsh","62c4b2239cc3b1f5f6194362","fixation","img/fixation.png","null","","test","","","","","",""
"242","294630","pSARL_v2","pSARL_v2ua7g8xsh","62c4b2239cc3b1f5f6194362","freq","img/orange_2bandit_a2.png","70","70","test","1","149","149","7","",""
"null","295200","pSARL_v2","pSARL_v2ua7g8xsh","62c4b2239cc3b1f5f6194362","freq_resp","img/orange_2bandit_a.png","70","70","test","","","","7","",""
"null","295366","pSARL_v2","pSARL_v2ua7g8xsh","62c4b2239cc3b1f5f6194362","fixation","img/fixation.png","null","","test","","","","","",""
"235.69999999995343","295604","pSARL_v2","pSARL_v2ua7g8xsh","62c4b2239cc3b1f5f6194362","freq","img/orange_2bandit_a2.png","70","70","test","1","150","150","7","",""
"null","296176","pSARL_v2","pSARL_v2ua7g8xsh","62c4b2239cc3b1f5f6194362","freq_resp","img/orange_2bandit_a.png","70","70","test","","","","7","",""
"null","296330","pSARL_v2","pSARL_v2ua7g8xsh","62c4b2239cc3b1f5f6194362","fixation","img/fixation.png","null","","test","","","","","",""
"365.9000000001397","296697","pSARL_v2","pSARL_v2ua7g8xsh","62c4b2239cc3b1f5f6194362","freq","img/orange_2bandit_a2.png","70","70","test","1","151","151","7","",""
"null","297143","pSARL_v2","pSARL_v2ua7g8xsh","62c4b2239cc3b1f5f6194362","freq_resp","img/orange_2bandit_a.png","70","70","test","","","","7","",""
"null","297310","pSARL_v2","pSARL_v2ua7g8xsh","62c4b2239cc3b1f5f6194362","fixation","img/fixation.png","null","","test","","","","","",""
"362.60000000009313","297675","pSARL_v2","pSARL_v2ua7g8xsh","62c4b2239cc3b1f5f6194362","infreq","img/green_2bandit_a2.png","68","68","test","1","152","152","7","",""
"null","298125","pSARL_v2","pSARL_v2ua7g8xsh","62c4b2239cc3b1f5f6194362","infreq_resp","img/green_2bandit_a.png","68","68","test","","","","7","",""
"null","298289","pSARL_v2","pSARL_v2ua7g8xsh","62c4b2239cc3b1f5f6194362","fixation","img/fixation.png","null","","test","","","","","",""
"411.80000000004657","298702","pSARL_v2","pSARL_v2ua7g8xsh","62c4b2239cc3b1f5f6194362","freq","img/orange_2bandit_a2.png","70","70","test","1","153","153","7","",""
"null","299101","pSARL_v2","pSARL_v2ua7g8xsh","62c4b2239cc3b1f5f6194362","freq_resp","img/orange_2bandit_a.png","70","70","test","","","","7","",""
"null","299269","pSARL_v2","pSARL_v2ua7g8xsh","62c4b2239cc3b1f5f6194362","fixation","img/fixation.png","null","","test","","","","","",""
"359.9000000001397","299631","pSARL_v2","pSARL_v2ua7g8xsh","62c4b2239cc3b1f5f6194362","freq","img/orange_2bandit_a2.png","70","70","test","1","154","154","7","",""
"null","300088","pSARL_v2","pSARL_v2ua7g8xsh","62c4b2239cc3b1f5f6194362","freq_resp","img/orange_2bandit_a.png","70","70","test","","","","7","",""
"null","300249","pSARL_v2","pSARL_v2ua7g8xsh","62c4b2239cc3b1f5f6194362","fixation","img/fixation.png","null","","test","","","","","",""
"310.0999999998603","300561","pSARL_v2","pSARL_v2ua7g8xsh","62c4b2239cc3b1f5f6194362","freq","img/orange_2bandit_a2.png","70","70","test","1","155","155","7","",""
"null","301054","pSARL_v2","pSARL_v2ua7g8xsh","62c4b2239cc3b1f5f6194362","freq_resp","img/orange_2bandit_a.png","70","70","test","","","","7","",""
"null","301220","pSARL_v2","pSARL_v2ua7g8xsh","62c4b2239cc3b1f5f6194362","fixation","img/fixation.png","null","","test","","","","","",""
"453.89999999990687","301676","pSARL_v2","pSARL_v2ua7g8xsh","62c4b2239cc3b1f5f6194362","reward","img/slot.png","74","","test","","","","","",""
"null","302433","pSARL_v2","pSARL_v2ua7g8xsh","62c4b2239cc3b1f5f6194362","points","<div class=""verylowPoints""> -6 </div>","null","na","test","","","","7","-6","6"
"531.6999999999534","302967","pSARL_v2","pSARL_v2ua7g8xsh","62c4b2239cc3b1f5f6194362","freq","img/orange_2bandit_a2.png","70","70","test","1","156","156","8","",""
"null","303248","pSARL_v2","pSARL_v2ua7g8xsh","62c4b2239cc3b1f5f6194362","freq_resp","img/orange_2bandit_a.png","70","70","test","","","","8","",""
"null","303410","pSARL_v2","pSARL_v2ua7g8xsh","62c4b2239cc3b1f5f6194362","fixation","img/fixation.png","null","","test","","","","","",""
"510.19999999995343","303922","pSARL_v2","pSARL_v2ua7g8xsh","62c4b2239cc3b1f5f6194362","freq","img/orange_2bandit_a2.png","70","70","test","1","157","157","8","",""
"null","304221","pSARL_v2","pSARL_v2ua7g8xsh","62c4b2239cc3b1f5f6194362","freq_resp","img/orange_2bandit_a.png","70","70","test","","","","8","",""
"null","304383","pSARL_v2","pSARL_v2ua7g8xsh","62c4b2239cc3b1f5f6194362","fixation","img/fixation.png","null","","test","","","","","",""
"378.19999999995343","304764","pSARL_v2","pSARL_v2ua7g8xsh","62c4b2239cc3b1f5f6194362","freq","img/orange_2bandit_a2.png","70","70","test","1","158","158","8","",""
"null","305194","pSARL_v2","pSARL_v2ua7g8xsh","62c4b2239cc3b1f5f6194362","freq_resp","img/orange_2bandit_a.png","70","70","test","","","","8","",""
"null","305352","pSARL_v2","pSARL_v2ua7g8xsh","62c4b2239cc3b1f5f6194362","fixation","img/fixation.png","null","","test","","","","","",""
"296","305649","pSARL_v2","pSARL_v2ua7g8xsh","62c4b2239cc3b1f5f6194362","freq","img/orange_2bandit_a2.png","70","70","test","1","159","159","8","",""
"null","306167","pSARL_v2","pSARL_v2ua7g8xsh","62c4b2239cc3b1f5f6194362","freq_resp","img/orange_2bandit_a.png","70","70","test","","","","8","",""
"null","306322","pSARL_v2","pSARL_v2ua7g8xsh","62c4b2239cc3b1f5f6194362","fixation","img/fixation.png","null","","test","","","","","",""
"305","306629","pSARL_v2","pSARL_v2ua7g8xsh","62c4b2239cc3b1f5f6194362","freq","img/orange_2bandit_a2.png","70","70","test","1","160","160","8","",""
"null","307142","pSARL_v2","pSARL_v2ua7g8xsh","62c4b2239cc3b1f5f6194362","freq_resp","img/orange_2bandit_a.png","70","70","test","","","","8","",""
"null","307310","pSARL_v2","pSARL_v2ua7g8xsh","62c4b2239cc3b1f5f6194362","fixation","img/fixation.png","null","","test","","","","","",""
"313.5","307625","pSARL_v2","pSARL_v2ua7g8xsh","62c4b2239cc3b1f5f6194362","freq","img/orange_2bandit_a2.png","70","70","test","1","161","161","8","",""
"null","308127","pSARL_v2","pSARL_v2ua7g8xsh","62c4b2239cc3b1f5f6194362","freq_resp","img/orange_2bandit_a.png","70","70","test","","","","8","",""
"null","308289","pSARL_v2","pSARL_v2ua7g8xsh","62c4b2239cc3b1f5f6194362","fixation","img/fixation.png","null","","test","","","","","",""
"284","308574","pSARL_v2","pSARL_v2ua7g8xsh","62c4b2239cc3b1f5f6194362","freq","img/orange_2bandit_a2.png","70","70","test","1","162","162","8","",""
"null","309105","pSARL_v2","pSARL_v2ua7g8xsh","62c4b2239cc3b1f5f6194362","freq_resp","img/orange_2bandit_a.png","70","70","test","","","","8","",""
"null","309258","pSARL_v2","pSARL_v2ua7g8xsh","62c4b2239cc3b1f5f6194362","fixation","img/fixation.png","null","","test","","","","","",""
"240","309500","pSARL_v2","pSARL_v2ua7g8xsh","62c4b2239cc3b1f5f6194362","freq","img/orange_2bandit_a2.png","70","70","test","1","163","163","8","",""
"null","310074","pSARL_v2","pSARL_v2ua7g8xsh","62c4b2239cc3b1f5f6194362","freq_resp","img/orange_2bandit_a.png","70","70","test","","","","8","",""
"null","310242","pSARL_v2","pSARL_v2ua7g8xsh","62c4b2239cc3b1f5f6194362","fixation","img/fixation.png","null","","test","","","","","",""
"269.19999999995343","310513","pSARL_v2","pSARL_v2ua7g8xsh","62c4b2239cc3b1f5f6194362","freq","img/orange_2bandit_a2.png","70","70","test","1","164","164","8","",""
"null","311057","pSARL_v2","pSARL_v2ua7g8xsh","62c4b2239cc3b1f5f6194362","freq_resp","img/orange_2bandit_a.png","70","70","test","","","","8","",""
"null","311211","pSARL_v2","pSARL_v2ua7g8xsh","62c4b2239cc3b1f5f6194362","fixation","img/fixation.png","null","","test","","","","","",""
"518.1000000000931","311731","pSARL_v2","pSARL_v2ua7g8xsh","62c4b2239cc3b1f5f6194362","infreq","img/green_2bandit_a2.png","68","68","test","1","165","165","8","",""
"null","312021","pSARL_v2","pSARL_v2ua7g8xsh","62c4b2239cc3b1f5f6194362","infreq_resp","img/green_2bandit_a.png","68","68","test","","","","8","",""
"null","312188","pSARL_v2","pSARL_v2ua7g8xsh","62c4b2239cc3b1f5f6194362","fixation","img/fixation.png","null","","test","","","","","",""
"550.6999999999534","312741","pSARL_v2","pSARL_v2ua7g8xsh","62c4b2239cc3b1f5f6194362","freq","img/orange_2bandit_a2.png","70","70","test","1","166","166","8","",""
"null","313004","pSARL_v2","pSARL_v2ua7g8xsh","62c4b2239cc3b1f5f6194362","freq_resp","img/orange_2bandit_a.png","70","70","test","","","","8","",""
"null","313171","pSARL_v2","pSARL_v2ua7g8xsh","62c4b2239cc3b1f5f6194362","fixation","img/fixation.png","null","","test","","","","","",""
"556.3999999999069","313729","pSARL_v2","pSARL_v2ua7g8xsh","62c4b2239cc3b1f5f6194362","infreq","img/green_2bandit_a2.png","68","68","test","1","167","167","8","",""
"null","313976","pSARL_v2","pSARL_v2ua7g8xsh","62c4b2239cc3b1f5f6194362","infreq_resp","img/green_2bandit_a.png","68","68","test","","","","8","",""
"null","314143","pSARL_v2","pSARL_v2ua7g8xsh","62c4b2239cc3b1f5f6194362","fixation","img/fixation.png","null","","test","","","","","",""
"500.9000000001397","314646","pSARL_v2","pSARL_v2ua7g8xsh","62c4b2239cc3b1f5f6194362","freq","img/orange_2bandit_a2.png","70","70","test","1","168","168","8","",""
"null","314955","pSARL_v2","pSARL_v2ua7g8xsh","62c4b2239cc3b1f5f6194362","freq_resp","img/orange_2bandit_a.png","70","70","test","","","","8","",""
"null","315108","pSARL_v2","pSARL_v2ua7g8xsh","62c4b2239cc3b1f5f6194362","fixation","img/fixation.png","null","","test","","","","","",""
"569.3000000000466","315680","pSARL_v2","pSARL_v2ua7g8xsh","62c4b2239cc3b1f5f6194362","freq","img/orange_2bandit_a2.png","68","70","test","0","169","169","8","",""
"null","315923","pSARL_v2","pSARL_v2ua7g8xsh","62c4b2239cc3b1f5f6194362","freq_resp","img/orange_2bandit_a.png","68","70","test","","","","8","",""
"null","316087","pSARL_v2","pSARL_v2ua7g8xsh","62c4b2239cc3b1f5f6194362","fixation","img/fixation.png","null","","test","","","","","",""
"426.0999999998603","316516","pSARL_v2","pSARL_v2ua7g8xsh","62c4b2239cc3b1f5f6194362","freq","img/orange_2bandit_a2.png","70","70","test","1","170","170","8","",""
"null","316892","pSARL_v2","pSARL_v2ua7g8xsh","62c4b2239cc3b1f5f6194362","freq_resp","img/orange_2bandit_a.png","70","70","test","","","","8","",""
"null","317060","pSARL_v2","pSARL_v2ua7g8xsh","62c4b2239cc3b1f5f6194362","fixation","img/fixation.png","null","","test","","","","","",""
"366.10000000009313","317429","pSARL_v2","pSARL_v2ua7g8xsh","62c4b2239cc3b1f5f6194362","freq","img/orange_2bandit_a2.png","70","70","test","1","171","171","8","",""
"null","317874","pSARL_v2","pSARL_v2ua7g8xsh","62c4b2239cc3b1f5f6194362","freq_resp","img/orange_2bandit_a.png","70","70","test","","","","8","",""
"null","318039","pSARL_v2","pSARL_v2ua7g8xsh","62c4b2239cc3b1f5f6194362","fixation","img/fixation.png","null","","test","","","","","",""
"310.30000000004657","318351","pSARL_v2","pSARL_v2ua7g8xsh","62c4b2239cc3b1f5f6194362","freq","img/orange_2bandit_a2.png","70","70","test","1","172","172","8","",""
"null","318848","pSARL_v2","pSARL_v2ua7g8xsh","62c4b2239cc3b1f5f6194362","freq_resp","img/orange_2bandit_a.png","70","70","test","","","","8","",""
"null","319014","pSARL_v2","pSARL_v2ua7g8xsh","62c4b2239cc3b1f5f6194362","fixation","img/fixation.png","null","","test","","","","","",""
"302.80000000004657","319319","pSARL_v2","pSARL_v2ua7g8xsh","62c4b2239cc3b1f5f6194362","freq","img/orange_2bandit_a2.png","70","70","test","1","173","173","8","",""
"null","319833","pSARL_v2","pSARL_v2ua7g8xsh","62c4b2239cc3b1f5f6194362","freq_resp","img/orange_2bandit_a.png","70","70","test","","","","8","",""
"null","319994","pSARL_v2","pSARL_v2ua7g8xsh","62c4b2239cc3b1f5f6194362","fixation","img/fixation.png","null","","test","","","","","",""
"322.4000000001397","320319","pSARL_v2","pSARL_v2ua7g8xsh","62c4b2239cc3b1f5f6194362","freq","img/orange_2bandit_a2.png","70","70","test","1","174","174","8","",""
"null","320804","pSARL_v2","pSARL_v2ua7g8xsh","62c4b2239cc3b1f5f6194362","freq_resp","img/orange_2bandit_a.png","70","70","test","","","","8","",""
"null","320957","pSARL_v2","pSARL_v2ua7g8xsh","62c4b2239cc3b1f5f6194362","fixation","img/fixation.png","null","","test","","","","","",""
"281.9000000001397","321240","pSARL_v2","pSARL_v2ua7g8xsh","62c4b2239cc3b1f5f6194362","freq","img/orange_2bandit_a2.png","70","70","test","1","175","175","8","",""
"null","321771","pSARL_v2","pSARL_v2ua7g8xsh","62c4b2239cc3b1f5f6194362","freq_resp","img/orange_2bandit_a.png","70","70","test","","","","8","",""
"null","321925","pSARL_v2","pSARL_v2ua7g8xsh","62c4b2239cc3b1f5f6194362","fixation","img/fixation.png","null","","test","","","","","",""
"419.4000000001397","322346","pSARL_v2","pSARL_v2ua7g8xsh","62c4b2239cc3b1f5f6194362","reward","img/slot.png","74","","test","","","","","",""
"null","323101","pSARL_v2","pSARL_v2ua7g8xsh","62c4b2239cc3b1f5f6194362","points","<div class=""verylowPoints""> -4 </div>","null","na","test","","","","8","-4","7"
"673","323776","pSARL_v2","pSARL_v2ua7g8xsh","62c4b2239cc3b1f5f6194362","freq","img/orange_2bandit_a2.png","70","70","test","1","176","176","9","",""
"null","323915","pSARL_v2","pSARL_v2ua7g8xsh","62c4b2239cc3b1f5f6194362","freq_resp","img/orange_2bandit_a.png","70","70","test","","","","9","",""
"null","324071","pSARL_v2","pSARL_v2ua7g8xsh","62c4b2239cc3b1f5f6194362","fixation","img/fixation.png","null","","test","","","","","",""
"517.7999999998137","324591","pSARL_v2","pSARL_v2ua7g8xsh","62c4b2239cc3b1f5f6194362","freq","img/orange_2bandit_a2.png","70","70","test","1","177","177","9","",""
"null","324890","pSARL_v2","pSARL_v2ua7g8xsh","62c4b2239cc3b1f5f6194362","freq_resp","img/orange_2bandit_a.png","70","70","test","","","","9","",""
"null","325045","pSARL_v2","pSARL_v2ua7g8xsh","62c4b2239cc3b1f5f6194362","fixation","img/fixation.png","null","","test","","","","","",""
"436.69999999995343","325484","pSARL_v2","pSARL_v2ua7g8xsh","62c4b2239cc3b1f5f6194362","freq","img/orange_2bandit_a2.png","70","70","test","1","178","178","9","",""
"null","325850","pSARL_v2","pSARL_v2ua7g8xsh","62c4b2239cc3b1f5f6194362","freq_resp","img/orange_2bandit_a.png","70","70","test","","","","9","",""
"null","326016","pSARL_v2","pSARL_v2ua7g8xsh","62c4b2239cc3b1f5f6194362","fixation","img/fixation.png","null","","test","","","","","",""
"423.29999999981374","326442","pSARL_v2","pSARL_v2ua7g8xsh","62c4b2239cc3b1f5f6194362","infreq","img/green_2bandit_a2.png","68","68","test","1","179","179","9","",""
"null","326826","pSARL_v2","pSARL_v2ua7g8xsh","62c4b2239cc3b1f5f6194362","infreq_resp","img/green_2bandit_a.png","68","68","test","","","","9","",""
"null","326982","pSARL_v2","pSARL_v2ua7g8xsh","62c4b2239cc3b1f5f6194362","fixation","img/fixation.png","null","","test","","","","","",""
"415.5999999998603","327399","pSARL_v2","pSARL_v2ua7g8xsh","62c4b2239cc3b1f5f6194362","freq","img/orange_2bandit_a2.png","70","70","test","1","180","180","9","",""
"null","327797","pSARL_v2","pSARL_v2ua7g8xsh","62c4b2239cc3b1f5f6194362","freq_resp","img/orange_2bandit_a.png","70","70","test","","","","9","",""
"null","327963","pSARL_v2","pSARL_v2ua7g8xsh","62c4b2239cc3b1f5f6194362","fixation","img/fixation.png","null","","test","","","","","",""
"484.80000000004657","328450","pSARL_v2","pSARL_v2ua7g8xsh","62c4b2239cc3b1f5f6194362","freq","img/orange_2bandit_a2.png","70","70","test","1","181","181","9","",""
"null","328778","pSARL_v2","pSARL_v2ua7g8xsh","62c4b2239cc3b1f5f6194362","freq_resp","img/orange_2bandit_a.png","70","70","test","","","","9","",""
"null","328941","pSARL_v2","pSARL_v2ua7g8xsh","62c4b2239cc3b1f5f6194362","fixation","img/fixation.png","null","","test","","","","","",""
"382.9000000001397","329325","pSARL_v2","pSARL_v2ua7g8xsh","62c4b2239cc3b1f5f6194362","freq","img/orange_2bandit_a2.png","70","70","test","1","182","182","9","",""
"null","329747","pSARL_v2","pSARL_v2ua7g8xsh","62c4b2239cc3b1f5f6194362","freq_resp","img/orange_2bandit_a.png","70","70","test","","","","9","",""
"null","329909","pSARL_v2","pSARL_v2ua7g8xsh","62c4b2239cc3b1f5f6194362","fixation","img/fixation.png","null","","test","","","","","",""
"275.69999999995343","330187","pSARL_v2","pSARL_v2ua7g8xsh","62c4b2239cc3b1f5f6194362","freq","img/orange_2bandit_a2.png","70","70","test","1","183","183","9","",""
"null","330714","pSARL_v2","pSARL_v2ua7g8xsh","62c4b2239cc3b1f5f6194362","freq_resp","img/orange_2bandit_a.png","70","70","test","","","","9","",""
"null","330869","pSARL_v2","pSARL_v2ua7g8xsh","62c4b2239cc3b1f5f6194362","fixation","img/fixation.png","null","","test","","","","","",""
"297.39999999990687","331168","pSARL_v2","pSARL_v2ua7g8xsh","62c4b2239cc3b1f5f6194362","freq","img/orange_2bandit_a2.png","70","70","test","1","184","184","9","",""
"null","331682","pSARL_v2","pSARL_v2ua7g8xsh","62c4b2239cc3b1f5f6194362","freq_resp","img/orange_2bandit_a.png","70","70","test","","","","9","",""
"null","331842","pSARL_v2","pSARL_v2ua7g8xsh","62c4b2239cc3b1f5f6194362","fixation","img/fixation.png","null","","test","","","","","",""
"230.69999999995343","332075","pSARL_v2","pSARL_v2ua7g8xsh","62c4b2239cc3b1f5f6194362","freq","img/orange_2bandit_a2.png","70","70","test","1","185","185","9","",""
"null","332648","pSARL_v2","pSARL_v2ua7g8xsh","62c4b2239cc3b1f5f6194362","freq_resp","img/orange_2bandit_a.png","70","70","test","","","","9","",""
"null","332811","pSARL_v2","pSARL_v2ua7g8xsh","62c4b2239cc3b1f5f6194362","fixation","img/fixation.png","null","","test","","","","","",""
"139.5999999998603","332953","pSARL_v2","pSARL_v2ua7g8xsh","62c4b2239cc3b1f5f6194362","freq","img/orange_2bandit_a2.png","70","70","test","1","186","186","9","",""
"null","333624","pSARL_v2","pSARL_v2ua7g8xsh","62c4b2239cc3b1f5f6194362","freq_resp","img/orange_2bandit_a.png","70","70","test","","","","9","",""
"null","333779","pSARL_v2","pSARL_v2ua7g8xsh","62c4b2239cc3b1f5f6194362","fixation","img/fixation.png","null","","test","","","","","",""
"145.60000000009313","333927","pSARL_v2","pSARL_v2ua7g8xsh","62c4b2239cc3b1f5f6194362","freq","img/orange_2bandit_a2.png","70","70","test","1","187","187","9","",""
"null","334597","pSARL_v2","pSARL_v2ua7g8xsh","62c4b2239cc3b1f5f6194362","freq_resp","img/orange_2bandit_a.png","70","70","test","","","","9","",""
"null","334759","pSARL_v2","pSARL_v2ua7g8xsh","62c4b2239cc3b1f5f6194362","fixation","img/fixation.png","null","","test","","","","","",""
"239.5999999998603","335000","pSARL_v2","pSARL_v2ua7g8xsh","62c4b2239cc3b1f5f6194362","freq","img/orange_2bandit_a2.png","70","70","test","1","188","188","9","",""
"null","335585","pSARL_v2","pSARL_v2ua7g8xsh","62c4b2239cc3b1f5f6194362","freq_resp","img/orange_2bandit_a.png","70","70","test","","","","9","",""
"null","335745","pSARL_v2","pSARL_v2ua7g8xsh","62c4b2239cc3b1f5f6194362","fixation","img/fixation.png","null","","test","","","","","",""
"311.5","336058","pSARL_v2","pSARL_v2ua7g8xsh","62c4b2239cc3b1f5f6194362","freq","img/orange_2bandit_a2.png","70","70","test","1","189","189","9","",""
"null","336564","pSARL_v2","pSARL_v2ua7g8xsh","62c4b2239cc3b1f5f6194362","freq_resp","img/orange_2bandit_a.png","70","70","test","","","","9","",""
"null","336729","pSARL_v2","pSARL_v2ua7g8xsh","62c4b2239cc3b1f5f6194362","fixation","img/fixation.png","null","","test","","","","","",""
"481.5999999998603","337213","pSARL_v2","pSARL_v2ua7g8xsh","62c4b2239cc3b1f5f6194362","infreq","img/green_2bandit_a2.png","68","68","test","1","190","190","9","",""
"null","337549","pSARL_v2","pSARL_v2ua7g8xsh","62c4b2239cc3b1f5f6194362","infreq_resp","img/green_2bandit_a.png","68","68","test","","","","9","",""
"null","337714","pSARL_v2","pSARL_v2ua7g8xsh","62c4b2239cc3b1f5f6194362","fixation","img/fixation.png","null","","test","","","","","",""
"428.5","338145","pSARL_v2","pSARL_v2ua7g8xsh","62c4b2239cc3b1f5f6194362","freq","img/orange_2bandit_a2.png","70","70","test","1","191","191","9","",""
"null","338532","pSARL_v2","pSARL_v2ua7g8xsh","62c4b2239cc3b1f5f6194362","freq_resp","img/orange_2bandit_a.png","70","70","test","","","","9","",""
"null","338689","pSARL_v2","pSARL_v2ua7g8xsh","62c4b2239cc3b1f5f6194362","fixation","img/fixation.png","null","","test","","","","","",""
"388.39999999990687","339080","pSARL_v2","pSARL_v2ua7g8xsh","62c4b2239cc3b1f5f6194362","freq","img/orange_2bandit_a2.png","70","70","test","1","192","192","9","",""
"null","339501","pSARL_v2","pSARL_v2ua7g8xsh","62c4b2239cc3b1f5f6194362","freq_resp","img/orange_2bandit_a.png","70","70","test","","","","9","",""
"null","339655","pSARL_v2","pSARL_v2ua7g8xsh","62c4b2239cc3b1f5f6194362","fixation","img/fixation.png","null","","test","","","","","",""
"419.19999999995343","340076","pSARL_v2","pSARL_v2ua7g8xsh","62c4b2239cc3b1f5f6194362","infreq","img/green_2bandit_a2.png","68","68","test","1","193","193","9","",""
"null","340461","pSARL_v2","pSARL_v2ua7g8xsh","62c4b2239cc3b1f5f6194362","infreq_resp","img/green_2bandit_a.png","68","68","test","","","","9","",""
"null","340626","pSARL_v2","pSARL_v2ua7g8xsh","62c4b2239cc3b1f5f6194362","fixation","img/fixation.png","null","","test","","","","","",""
"404.89999999990687","341033","pSARL_v2","pSARL_v2ua7g8xsh","62c4b2239cc3b1f5f6194362","freq","img/orange_2bandit_a2.png","70","70","test","1","194","194","9","",""
"null","341433","pSARL_v2","pSARL_v2ua7g8xsh","62c4b2239cc3b1f5f6194362","freq_resp","img/orange_2bandit_a.png","70","70","test","","","","9","",""
"null","341593","pSARL_v2","pSARL_v2ua7g8xsh","62c4b2239cc3b1f5f6194362","fixation","img/fixation.png","null","","test","","","","","",""
"372.5","341968","pSARL_v2","pSARL_v2ua7g8xsh","62c4b2239cc3b1f5f6194362","freq","img/orange_2bandit_a2.png","70","70","test","1","195","195","9","",""
"null","342406","pSARL_v2","pSARL_v2ua7g8xsh","62c4b2239cc3b1f5f6194362","freq_resp","img/orange_2bandit_a.png","70","70","test","","","","9","",""
"null","342566","pSARL_v2","pSARL_v2ua7g8xsh","62c4b2239cc3b1f5f6194362","fixation","img/fixation.png","null","","test","","","","","",""
"329.69999999995343","342898","pSARL_v2","pSARL_v2ua7g8xsh","62c4b2239cc3b1f5f6194362","freq","img/orange_2bandit_a2.png","70","70","test","1","196","196","9","",""
"null","343377","pSARL_v2","pSARL_v2ua7g8xsh","62c4b2239cc3b1f5f6194362","freq_resp","img/orange_2bandit_a.png","70","70","test","","","","9","",""
"null","343543","pSARL_v2","pSARL_v2ua7g8xsh","62c4b2239cc3b1f5f6194362","fixation","img/fixation.png","null","","test","","","","","",""
"277.60000000009313","343823","pSARL_v2","pSARL_v2ua7g8xsh","62c4b2239cc3b1f5f6194362","freq","img/orange_2bandit_a2.png","70","70","test","1","197","197","9","",""
"null","344358","pSARL_v2","pSARL_v2ua7g8xsh","62c4b2239cc3b1f5f6194362","freq_resp","img/orange_2bandit_a.png","70","70","test","","","","9","",""
"null","344521","pSARL_v2","pSARL_v2ua7g8xsh","62c4b2239cc3b1f5f6194362","fixation","img/fixation.png","null","","test","","","","","",""
"457","344979","pSARL_v2","pSARL_v2ua7g8xsh","62c4b2239cc3b1f5f6194362","reward","img/slot.png","74","","test","","","","","",""
"null","345744","pSARL_v2","pSARL_v2ua7g8xsh","62c4b2239cc3b1f5f6194362","points","<div class=""verylowPoints""> -3 </div>","null","na","test","","","","9","-3","8"
"555.6999999999534","346301","pSARL_v2","pSARL_v2ua7g8xsh","62c4b2239cc3b1f5f6194362","freq","img/orange_2bandit_a2.png","70","70","test","1","198","198","10","",""
"null","346564","pSARL_v2","pSARL_v2ua7g8xsh","62c4b2239cc3b1f5f6194362","freq_resp","img/orange_2bandit_a.png","70","70","test","","","","10","",""
"null","346730","pSARL_v2","pSARL_v2ua7g8xsh","62c4b2239cc3b1f5f6194362","fixation","img/fixation.png","null","","test","","","","","",""
"376.10000000009313","347109","pSARL_v2","pSARL_v2ua7g8xsh","62c4b2239cc3b1f5f6194362","freq","img/orange_2bandit_a2.png","70","70","test","1","199","199","10","",""
"null","347539","pSARL_v2","pSARL_v2ua7g8xsh","62c4b2239cc3b1f5f6194362","freq_resp","img/orange_2bandit_a.png","70","70","test","","","","10","",""
"null","347698","pSARL_v2","pSARL_v2ua7g8xsh","62c4b2239cc3b1f5f6194362","fixation","img/fixation.png","null","","test","","","","","",""
"312.69999999995343","348012","pSARL_v2","pSARL_v2ua7g8xsh","62c4b2239cc3b1f5f6194362","freq","img/orange_2bandit_a2.png","70","70","test","1","200","200","10","",""
"null","348510","pSARL_v2","pSARL_v2ua7g8xsh","62c4b2239cc3b1f5f6194362","freq_resp","img/orange_2bandit_a.png","70","70","test","","","","10","",""
"null","348679","pSARL_v2","pSARL_v2ua7g8xsh","62c4b2239cc3b1f5f6194362","fixation","img/fixation.png","null","","test","","","","","",""
"219.0999999998603","348900","pSARL_v2","pSARL_v2ua7g8xsh","62c4b2239cc3b1f5f6194362","freq","img/orange_2bandit_a2.png","70","70","test","1","201","201","10","",""
"null","349491","pSARL_v2","pSARL_v2ua7g8xsh","62c4b2239cc3b1f5f6194362","freq_resp","img/orange_2bandit_a.png","70","70","test","","","","10","",""
"null","349656","pSARL_v2","pSARL_v2ua7g8xsh","62c4b2239cc3b1f5f6194362","fixation","img/fixation.png","null","","test","","","","","",""
"286.0999999998603","349944","pSARL_v2","pSARL_v2ua7g8xsh","62c4b2239cc3b1f5f6194362","freq","img/orange_2bandit_a2.png","70","70","test","1","202","202","10","",""
"null","350468","pSARL_v2","pSARL_v2ua7g8xsh","62c4b2239cc3b1f5f6194362","freq_resp","img/orange_2bandit_a.png","70","70","test","","","","10","",""
"null","350633","pSARL_v2","pSARL_v2ua7g8xsh","62c4b2239cc3b1f5f6194362","fixation","img/fixation.png","null","","test","","","","","",""
"296.30000000004657","350931","pSARL_v2","pSARL_v2ua7g8xsh","62c4b2239cc3b1f5f6194362","freq","img/orange_2bandit_a2.png","70","70","test","1","203","203","10","",""
"null","351439","pSARL_v2","pSARL_v2ua7g8xsh","62c4b2239cc3b1f5f6194362","freq_resp","img/orange_2bandit_a.png","70","70","test","","","","10","",""
"null","351599","pSARL_v2","pSARL_v2ua7g8xsh","62c4b2239cc3b1f5f6194362","fixation","img/fixation.png","null","","test","","","","","",""
"247.4000000001397","351848","pSARL_v2","pSARL_v2ua7g8xsh","62c4b2239cc3b1f5f6194362","freq","img/orange_2bandit_a2.png","70","70","test","1","204","204","10","",""
"null","352415","pSARL_v2","pSARL_v2ua7g8xsh","62c4b2239cc3b1f5f6194362","freq_resp","img/orange_2bandit_a.png","70","70","test","","","","10","",""
"null","352575","pSARL_v2","pSARL_v2ua7g8xsh","62c4b2239cc3b1f5f6194362","fixation","img/fixation.png","null","","test","","","","","",""
