"rt","time_elapsed","expId","subject","prolificID","trialType","stimulus","key_press","corrresp","phase","corr","trialNum","attentionRunNum","blockNum","points","rlNum"
"3004.399999856949","3013","pSARL_v2","pSARL_v2kfqty76y","628690801339eca9c44143cd","","","","","","","","","","",""
"","6399","pSARL_v2","pSARL_v2kfqty76y","628690801339eca9c44143cd","fullscreen","","","","","","","","","",""
"63635.699999809265","70045","pSARL_v2","pSARL_v2kfqty76y","628690801339eca9c44143cd","","","","","","","","","","",""
"null","70864","pSARL_v2","pSARL_v2kfqty76y","628690801339eca9c44143cd","freqPrac","img/green_2bandit_b2.png","null","70","prac","0","","","","",""
"null","71882","pSARL_v2","pSARL_v2kfqty76y","628690801339eca9c44143cd","feedback","img/tooSlow.png","null","na","prac","","","","","",""
"null","72047","pSARL_v2","pSARL_v2kfqty76y","628690801339eca9c44143cd","fixation","img/fixation.png","null","","prac","","","","","",""
"511.40000009536743","72564","pSARL_v2","pSARL_v2kfqty76y","628690801339eca9c44143cd","infreqPrac","img/orange_2bandit_b2.png","68","68","prac","1","","","","",""
"511.40000009536743","72864","pSARL_v2","pSARL_v2kfqty76y","628690801339eca9c44143cd","infreqPrac_resp","img/orange_2bandit_b.png","68","68","prac","","","","","",""
"null","73037","pSARL_v2","pSARL_v2kfqty76y","628690801339eca9c44143cd","fixation","img/fixation.png","null","","prac","","","","","",""
"446.5","73489","pSARL_v2","pSARL_v2kfqty76y","628690801339eca9c44143cd","freqPrac","img/green_2bandit_b2.png","70","70","prac","1","","","","",""
"446.5","73861","pSARL_v2","pSARL_v2kfqty76y","628690801339eca9c44143cd","freqPrac_resp","img/green_2bandit_b.png","70","70","prac","","","","","",""
"136.39999985694885","74034","pSARL_v2","pSARL_v2kfqty76y","628690801339eca9c44143cd","fixation","img/fixation.png","70","","prac","","","","","",""
"524.3999998569489","74565","pSARL_v2","pSARL_v2kfqty76y","628690801339eca9c44143cd","infreqPrac","img/orange_2bandit_b2.png","68","68","prac","1","","","","",""
"524.3999998569489","74850","pSARL_v2","pSARL_v2kfqty76y","628690801339eca9c44143cd","infreqPrac_resp","img/orange_2bandit_b.png","68","68","prac","","","","","",""
"null","75018","pSARL_v2","pSARL_v2kfqty76y","628690801339eca9c44143cd","fixation","img/fixation.png","null","","prac","","","","","",""
"289.7000000476837","75313","pSARL_v2","pSARL_v2kfqty76y","628690801339eca9c44143cd","infreqPrac","img/orange_2bandit_b2.png","68","68","prac","1","","","","",""
"289.7000000476837","75836","pSARL_v2","pSARL_v2kfqty76y","628690801339eca9c44143cd","infreqPrac_resp","img/orange_2bandit_b.png","68","68","prac","","","","","",""
"null","75992","pSARL_v2","pSARL_v2kfqty76y","628690801339eca9c44143cd","fixation","img/fixation.png","null","","prac","","","","","",""
"439.40000009536743","76436","pSARL_v2","pSARL_v2kfqty76y","628690801339eca9c44143cd","infreqPrac","img/orange_2bandit_b2.png","68","68","prac","1","","","","",""
"439.40000009536743","76807","pSARL_v2","pSARL_v2kfqty76y","628690801339eca9c44143cd","infreqPrac_resp","img/orange_2bandit_b.png","68","68","prac","","","","","",""
"null","76973","pSARL_v2","pSARL_v2kfqty76y","628690801339eca9c44143cd","fixation","img/fixation.png","null","","prac","","","","","",""
"17.100000143051147","76995","pSARL_v2","pSARL_v2kfqty76y","628690801339eca9c44143cd","freqPrac","img/green_2bandit_b2.png","68","70","prac","0","","","","",""
"17.100000143051147","77787","pSARL_v2","pSARL_v2kfqty76y","628690801339eca9c44143cd","freqPrac_resp","img/green_2bandit_b.png","68","70","prac","","","","","",""
"null","78799","pSARL_v2","pSARL_v2kfqty76y","628690801339eca9c44143cd","feedback","img/wrongKey.png","null","na","prac","","","","","",""
"null","78968","pSARL_v2","pSARL_v2kfqty76y","628690801339eca9c44143cd","fixation","img/fixation.png","null","","prac","","","","","",""
"576.3999998569489","79551","pSARL_v2","pSARL_v2kfqty76y","628690801339eca9c44143cd","infreqPrac","img/orange_2bandit_b2.png","68","68","prac","1","","","","",""
"576.3999998569489","79782","pSARL_v2","pSARL_v2kfqty76y","628690801339eca9c44143cd","infreqPrac_resp","img/orange_2bandit_b.png","68","68","prac","","","","","",""
"null","79952","pSARL_v2","pSARL_v2kfqty76y","628690801339eca9c44143cd","fixation","img/fixation.png","null","","prac","","","","","",""
"244.5","80203","pSARL_v2","pSARL_v2kfqty76y","628690801339eca9c44143cd","freqPrac","img/green_2bandit_b2.png","68","70","prac","0","","","","",""
"244.5","80778","pSARL_v2","pSARL_v2kfqty76y","628690801339eca9c44143cd","freqPrac_resp","img/green_2bandit_b.png","68","70","prac","","","","","",""
"null","81801","pSARL_v2","pSARL_v2kfqty76y","628690801339eca9c44143cd","feedback","img/wrongKey.png","null","na","prac","","","","","",""
"null","81973","pSARL_v2","pSARL_v2kfqty76y","628690801339eca9c44143cd","fixation","img/fixation.png","null","","prac","","","","","",""
"386.5","82378","pSARL_v2","pSARL_v2kfqty76y","628690801339eca9c44143cd","freqPrac","img/green_2bandit_b2.png","70","70","prac","1","","","","",""
"386.5","82815","pSARL_v2","pSARL_v2kfqty76y","628690801339eca9c44143cd","freqPrac_resp","img/green_2bandit_b.png","70","70","prac","","","","","",""
"null","82983","pSARL_v2","pSARL_v2kfqty76y","628690801339eca9c44143cd","fixation","img/fixation.png","null","","prac","","","","","",""
"90381","173374","pSARL_v2","pSARL_v2kfqty76y","628690801339eca9c44143cd","","","","","prac","","","","","",""
"725.5","174108","pSARL_v2","pSARL_v2kfqty76y","628690801339eca9c44143cd","rewardPractice","img/slot.png","74","","prac","","","","","",""
"null","174871","pSARL_v2","pSARL_v2kfqty76y","628690801339eca9c44143cd","feedback","<div class=""veryhighPoints""> +15 </div>","null","na","prac","","","","","",""
"null","175042","pSARL_v2","pSARL_v2kfqty76y","628690801339eca9c44143cd","fixation","img/fixation.png","null","","prac","","","","","",""
"12601.299999952316","187651","pSARL_v2","pSARL_v2kfqty76y","628690801339eca9c44143cd","","","","","prac","","","","","",""
"628.7999999523163","188289","pSARL_v2","pSARL_v2kfqty76y","628690801339eca9c44143cd","freq","img/green_2bandit_b2.png","70","70","test","1","1","1","1","",""
"null","188471","pSARL_v2","pSARL_v2kfqty76y","628690801339eca9c44143cd","freq_resp","img/green_2bandit_b.png","70","70","test","","","","1","",""
"null","188642","pSARL_v2","pSARL_v2kfqty76y","628690801339eca9c44143cd","fixation","img/fixation.png","null","","test","","","","","",""
"283.7999999523163","188936","pSARL_v2","pSARL_v2kfqty76y","628690801339eca9c44143cd","freq","img/green_2bandit_b2.png","70","70","test","1","2","2","1","",""
"null","189466","pSARL_v2","pSARL_v2kfqty76y","628690801339eca9c44143cd","freq_resp","img/green_2bandit_b.png","70","70","test","","","","1","",""
"null","189626","pSARL_v2","pSARL_v2kfqty76y","628690801339eca9c44143cd","fixation","img/fixation.png","null","","test","","","","","",""
"288","189924","pSARL_v2","pSARL_v2kfqty76y","628690801339eca9c44143cd","infreq","img/orange_2bandit_b2.png","70","68","test","0","3","3","1","",""
"null","190456","pSARL_v2","pSARL_v2kfqty76y","628690801339eca9c44143cd","infreq_resp","img/orange_2bandit_b.png","70","68","test","","","","1","",""
"null","190627","pSARL_v2","pSARL_v2kfqty76y","628690801339eca9c44143cd","fixation","img/fixation.png","null","","test","","","","","",""
"421.09999990463257","191058","pSARL_v2","pSARL_v2kfqty76y","628690801339eca9c44143cd","freq","img/green_2bandit_b2.png","70","70","test","1","4","4","1","",""
"null","191459","pSARL_v2","pSARL_v2kfqty76y","628690801339eca9c44143cd","freq_resp","img/green_2bandit_b.png","70","70","test","","","","1","",""
"null","191629","pSARL_v2","pSARL_v2kfqty76y","628690801339eca9c44143cd","fixation","img/fixation.png","null","","test","","","","","",""
"349.2999999523163","191985","pSARL_v2","pSARL_v2kfqty76y","628690801339eca9c44143cd","freq","img/green_2bandit_b2.png","70","70","test","1","5","5","1","",""
"null","192442","pSARL_v2","pSARL_v2kfqty76y","628690801339eca9c44143cd","freq_resp","img/green_2bandit_b.png","70","70","test","","","","1","",""
"null","192606","pSARL_v2","pSARL_v2kfqty76y","628690801339eca9c44143cd","fixation","img/fixation.png","null","","test","","","","","",""
"256.5","192868","pSARL_v2","pSARL_v2kfqty76y","628690801339eca9c44143cd","freq","img/green_2bandit_b2.png","70","70","test","1","6","6","1","",""
"null","193425","pSARL_v2","pSARL_v2kfqty76y","628690801339eca9c44143cd","freq_resp","img/green_2bandit_b.png","70","70","test","","","","1","",""
"null","193594","pSARL_v2","pSARL_v2kfqty76y","628690801339eca9c44143cd","fixation","img/fixation.png","null","","test","","","","","",""
"211.70000004768372","193815","pSARL_v2","pSARL_v2kfqty76y","628690801339eca9c44143cd","infreq","img/orange_2bandit_b2.png","70","68","test","0","7","7","1","",""
"null","194427","pSARL_v2","pSARL_v2kfqty76y","628690801339eca9c44143cd","infreq_resp","img/orange_2bandit_b.png","70","68","test","","","","1","",""
"null","194597","pSARL_v2","pSARL_v2kfqty76y","628690801339eca9c44143cd","fixation","img/fixation.png","null","","test","","","","","",""
"492.2000000476837","195095","pSARL_v2","pSARL_v2kfqty76y","628690801339eca9c44143cd","freq","img/green_2bandit_b2.png","70","70","test","1","8","8","1","",""
"null","195421","pSARL_v2","pSARL_v2kfqty76y","628690801339eca9c44143cd","freq_resp","img/green_2bandit_b.png","70","70","test","","","","1","",""
"null","195595","pSARL_v2","pSARL_v2kfqty76y","628690801339eca9c44143cd","fixation","img/fixation.png","null","","test","","","","","",""
"345","195950","pSARL_v2","pSARL_v2kfqty76y","628690801339eca9c44143cd","freq","img/green_2bandit_b2.png","70","70","test","1","9","9","1","",""
"null","196425","pSARL_v2","pSARL_v2kfqty76y","628690801339eca9c44143cd","freq_resp","img/green_2bandit_b.png","70","70","test","","","","1","",""
"null","196596","pSARL_v2","pSARL_v2kfqty76y","628690801339eca9c44143cd","fixation","img/fixation.png","null","","test","","","","","",""
"328.90000009536743","196932","pSARL_v2","pSARL_v2kfqty76y","628690801339eca9c44143cd","freq","img/green_2bandit_b2.png","70","70","test","1","10","10","1","",""
"null","197424","pSARL_v2","pSARL_v2kfqty76y","628690801339eca9c44143cd","freq_resp","img/green_2bandit_b.png","70","70","test","","","","1","",""
"null","197593","pSARL_v2","pSARL_v2kfqty76y","628690801339eca9c44143cd","fixation","img/fixation.png","null","","test","","","","","",""
"236.79999995231628","197840","pSARL_v2","pSARL_v2kfqty76y","628690801339eca9c44143cd","freq","img/green_2bandit_b2.png","70","70","test","1","11","11","1","",""
"null","198420","pSARL_v2","pSARL_v2kfqty76y","628690801339eca9c44143cd","freq_resp","img/green_2bandit_b.png","70","70","test","","","","1","",""
"null","198593","pSARL_v2","pSARL_v2kfqty76y","628690801339eca9c44143cd","fixation","img/fixation.png","null","","test","","","","","",""
"234","198837","pSARL_v2","pSARL_v2kfqty76y","628690801339eca9c44143cd","freq","img/green_2bandit_b2.png","70","70","test","1","12","12","1","",""
"null","199425","pSARL_v2","pSARL_v2kfqty76y","628690801339eca9c44143cd","freq_resp","img/green_2bandit_b.png","70","70","test","","","","1","",""
"null","199596","pSARL_v2","pSARL_v2kfqty76y","628690801339eca9c44143cd","fixation","img/fixation.png","null","","test","","","","","",""
"295","199903","pSARL_v2","pSARL_v2kfqty76y","628690801339eca9c44143cd","freq","img/green_2bandit_b2.png","70","70","test","1","13","13","1","",""
"null","200423","pSARL_v2","pSARL_v2kfqty76y","628690801339eca9c44143cd","freq_resp","img/green_2bandit_b.png","70","70","test","","","","1","",""
"null","200583","pSARL_v2","pSARL_v2kfqty76y","628690801339eca9c44143cd","fixation","img/fixation.png","null","","test","","","","","",""
"274.10000014305115","200866","pSARL_v2","pSARL_v2kfqty76y","628690801339eca9c44143cd","freq","img/green_2bandit_b2.png","70","70","test","1","14","14","1","",""
"null","201402","pSARL_v2","pSARL_v2kfqty76y","628690801339eca9c44143cd","freq_resp","img/green_2bandit_b.png","70","70","test","","","","1","",""
"null","201575","pSARL_v2","pSARL_v2kfqty76y","628690801339eca9c44143cd","fixation","img/fixation.png","null","","test","","","","","",""
"249.69999980926514","201834","pSARL_v2","pSARL_v2kfqty76y","628690801339eca9c44143cd","freq","img/green_2bandit_b2.png","70","70","test","1","15","15","1","",""
"null","202393","pSARL_v2","pSARL_v2kfqty76y","628690801339eca9c44143cd","freq_resp","img/green_2bandit_b.png","70","70","test","","","","1","",""
"null","202562","pSARL_v2","pSARL_v2kfqty76y","628690801339eca9c44143cd","fixation","img/fixation.png","null","","test","","","","","",""
"184.10000014305115","202751","pSARL_v2","pSARL_v2kfqty76y","628690801339eca9c44143cd","freq","img/green_2bandit_b2.png","70","70","test","1","16","16","1","",""
"null","203377","pSARL_v2","pSARL_v2kfqty76y","628690801339eca9c44143cd","freq_resp","img/green_2bandit_b.png","70","70","test","","","","1","",""
"null","203547","pSARL_v2","pSARL_v2kfqty76y","628690801339eca9c44143cd","fixation","img/fixation.png","null","","test","","","","","",""
"451.7999999523163","204006","pSARL_v2","pSARL_v2kfqty76y","628690801339eca9c44143cd","infreq","img/orange_2bandit_b2.png","68","68","test","1","17","17","1","",""
"null","204372","pSARL_v2","pSARL_v2kfqty76y","628690801339eca9c44143cd","infreq_resp","img/orange_2bandit_b.png","68","68","test","","","","1","",""
"null","204529","pSARL_v2","pSARL_v2kfqty76y","628690801339eca9c44143cd","fixation","img/fixation.png","null","","test","","","","","",""
"371.39999985694885","204908","pSARL_v2","pSARL_v2kfqty76y","628690801339eca9c44143cd","freq","img/green_2bandit_b2.png","70","70","test","1","18","18","1","",""
"null","205355","pSARL_v2","pSARL_v2kfqty76y","628690801339eca9c44143cd","freq_resp","img/green_2bandit_b.png","70","70","test","","","","1","",""
"null","205525","pSARL_v2","pSARL_v2kfqty76y","628690801339eca9c44143cd","fixation","img/fixation.png","null","","test","","","","","",""
"389","205921","pSARL_v2","pSARL_v2kfqty76y","628690801339eca9c44143cd","freq","img/green_2bandit_b2.png","70","70","test","1","19","19","1","",""
"null","206352","pSARL_v2","pSARL_v2kfqty76y","628690801339eca9c44143cd","freq_resp","img/green_2bandit_b.png","70","70","test","","","","1","",""
"null","206511","pSARL_v2","pSARL_v2kfqty76y","628690801339eca9c44143cd","fixation","img/fixation.png","null","","test","","","","","",""
"300.2000000476837","206820","pSARL_v2","pSARL_v2kfqty76y","628690801339eca9c44143cd","freq","img/green_2bandit_b2.png","70","70","test","1","20","20","1","",""
"null","207336","pSARL_v2","pSARL_v2kfqty76y","628690801339eca9c44143cd","freq_resp","img/green_2bandit_b.png","70","70","test","","","","1","",""
"null","207505","pSARL_v2","pSARL_v2kfqty76y","628690801339eca9c44143cd","fixation","img/fixation.png","null","","test","","","","","",""
"974.7000000476837","208485","pSARL_v2","pSARL_v2kfqty76y","628690801339eca9c44143cd","reward","img/slot.png","74","","test","","","","","",""
"null","209253","pSARL_v2","pSARL_v2kfqty76y","628690801339eca9c44143cd","points","<div class=""verylowPoints""> -6 </div>","null","na","test","","","","1","-6","0"
"579.7000000476837","209843","pSARL_v2","pSARL_v2kfqty76y","628690801339eca9c44143cd","freq","img/green_2bandit_b2.png","70","70","test","1","21","21","2","",""
"null","210081","pSARL_v2","pSARL_v2kfqty76y","628690801339eca9c44143cd","freq_resp","img/green_2bandit_b.png","70","70","test","","","","2","",""
"null","210254","pSARL_v2","pSARL_v2kfqty76y","628690801339eca9c44143cd","fixation","img/fixation.png","null","","test","","","","","",""
"460.7999999523163","210725","pSARL_v2","pSARL_v2kfqty76y","628690801339eca9c44143cd","freq","img/green_2bandit_b2.png","70","70","test","1","22","22","2","",""
"null","211078","pSARL_v2","pSARL_v2kfqty76y","628690801339eca9c44143cd","freq_resp","img/green_2bandit_b.png","70","70","test","","","","2","",""
"null","211249","pSARL_v2","pSARL_v2kfqty76y","628690801339eca9c44143cd","fixation","img/fixation.png","null","","test","","","","","",""
"347.7000000476837","211607","pSARL_v2","pSARL_v2kfqty76y","628690801339eca9c44143cd","freq","img/green_2bandit_b2.png","70","70","test","1","23","23","2","",""
"null","212079","pSARL_v2","pSARL_v2kfqty76y","628690801339eca9c44143cd","freq_resp","img/green_2bandit_b.png","70","70","test","","","","2","",""
"null","212251","pSARL_v2","pSARL_v2kfqty76y","628690801339eca9c44143cd","fixation","img/fixation.png","null","","test","","","","","",""
"284.2999999523163","212545","pSARL_v2","pSARL_v2kfqty76y","628690801339eca9c44143cd","freq","img/green_2bandit_b2.png","70","70","test","1","24","24","2","",""
"null","213082","pSARL_v2","pSARL_v2kfqty76y","628690801339eca9c44143cd","freq_resp","img/green_2bandit_b.png","70","70","test","","","","2","",""
"null","213255","pSARL_v2","pSARL_v2kfqty76y","628690801339eca9c44143cd","fixation","img/fixation.png","null","","test","","","","","",""
"266.30000019073486","213532","pSARL_v2","pSARL_v2kfqty76y","628690801339eca9c44143cd","freq","img/green_2bandit_b2.png","70","70","test","1","25","25","2","",""
"null","214083","pSARL_v2","pSARL_v2kfqty76y","628690801339eca9c44143cd","freq_resp","img/green_2bandit_b.png","70","70","test","","","","2","",""
"null","214252","pSARL_v2","pSARL_v2kfqty76y","628690801339eca9c44143cd","fixation","img/fixation.png","null","","test","","","","","",""
"275","214534","pSARL_v2","pSARL_v2kfqty76y","628690801339eca9c44143cd","freq","img/green_2bandit_b2.png","70","70","test","1","26","26","2","",""
"null","215067","pSARL_v2","pSARL_v2kfqty76y","628690801339eca9c44143cd","freq_resp","img/green_2bandit_b.png","70","70","test","","","","2","",""
"null","215240","pSARL_v2","pSARL_v2kfqty76y","628690801339eca9c44143cd","fixation","img/fixation.png","null","","test","","","","","",""
"282.5","215530","pSARL_v2","pSARL_v2kfqty76y","628690801339eca9c44143cd","freq","img/green_2bandit_b2.png","70","70","test","1","27","27","2","",""
"null","216069","pSARL_v2","pSARL_v2kfqty76y","628690801339eca9c44143cd","freq_resp","img/green_2bandit_b.png","70","70","test","","","","2","",""
"null","216239","pSARL_v2","pSARL_v2kfqty76y","628690801339eca9c44143cd","fixation","img/fixation.png","null","","test","","","","","",""
"406.5","216653","pSARL_v2","pSARL_v2kfqty76y","628690801339eca9c44143cd","infreq","img/orange_2bandit_b2.png","68","68","test","1","28","28","2","",""
"null","217067","pSARL_v2","pSARL_v2kfqty76y","628690801339eca9c44143cd","infreq_resp","img/orange_2bandit_b.png","68","68","test","","","","2","",""
"null","217240","pSARL_v2","pSARL_v2kfqty76y","628690801339eca9c44143cd","fixation","img/fixation.png","null","","test","","","","","",""
"451.80000019073486","217701","pSARL_v2","pSARL_v2kfqty76y","628690801339eca9c44143cd","infreq","img/orange_2bandit_b2.png","68","68","test","1","29","29","2","",""
"null","218069","pSARL_v2","pSARL_v2kfqty76y","628690801339eca9c44143cd","infreq_resp","img/orange_2bandit_b.png","68","68","test","","","","2","",""
"null","218241","pSARL_v2","pSARL_v2kfqty76y","628690801339eca9c44143cd","fixation","img/fixation.png","null","","test","","","","","",""
"475.90000009536743","218727","pSARL_v2","pSARL_v2kfqty76y","628690801339eca9c44143cd","freq","img/green_2bandit_b2.png","70","70","test","1","30","30","2","",""
"null","219066","pSARL_v2","pSARL_v2kfqty76y","628690801339eca9c44143cd","freq_resp","img/green_2bandit_b.png","70","70","test","","","","2","",""
"null","219240","pSARL_v2","pSARL_v2kfqty76y","628690801339eca9c44143cd","fixation","img/fixation.png","null","","test","","","","","",""
"526.4000000953674","219776","pSARL_v2","pSARL_v2kfqty76y","628690801339eca9c44143cd","infreq","img/orange_2bandit_b2.png","68","68","test","1","31","31","2","",""
"null","220066","pSARL_v2","pSARL_v2kfqty76y","628690801339eca9c44143cd","infreq_resp","img/orange_2bandit_b.png","68","68","test","","","","2","",""
"null","220238","pSARL_v2","pSARL_v2kfqty76y","628690801339eca9c44143cd","fixation","img/fixation.png","null","","test","","","","","",""
"381.80000019073486","220629","pSARL_v2","pSARL_v2kfqty76y","628690801339eca9c44143cd","freq","img/green_2bandit_b2.png","70","70","test","1","32","32","2","",""
"null","221063","pSARL_v2","pSARL_v2kfqty76y","628690801339eca9c44143cd","freq_resp","img/green_2bandit_b.png","70","70","test","","","","2","",""
"null","221235","pSARL_v2","pSARL_v2kfqty76y","628690801339eca9c44143cd","fixation","img/fixation.png","null","","test","","","","","",""
"332.39999985694885","221577","pSARL_v2","pSARL_v2kfqty76y","628690801339eca9c44143cd","freq","img/green_2bandit_b2.png","70","70","test","1","33","33","2","",""
"null","222063","pSARL_v2","pSARL_v2kfqty76y","628690801339eca9c44143cd","freq_resp","img/green_2bandit_b.png","70","70","test","","","","2","",""
"null","222232","pSARL_v2","pSARL_v2kfqty76y","628690801339eca9c44143cd","fixation","img/fixation.png","null","","test","","","","","",""
"297.5","222540","pSARL_v2","pSARL_v2kfqty76y","628690801339eca9c44143cd","freq","img/green_2bandit_b2.png","70","70","test","1","34","34","2","",""
"null","223058","pSARL_v2","pSARL_v2kfqty76y","628690801339eca9c44143cd","freq_resp","img/green_2bandit_b.png","70","70","test","","","","2","",""
"null","223215","pSARL_v2","pSARL_v2kfqty76y","628690801339eca9c44143cd","fixation","img/fixation.png","null","","test","","","","","",""
"281.30000019073486","223504","pSARL_v2","pSARL_v2kfqty76y","628690801339eca9c44143cd","freq","img/green_2bandit_b2.png","70","70","test","1","35","35","2","",""
"null","224041","pSARL_v2","pSARL_v2kfqty76y","628690801339eca9c44143cd","freq_resp","img/green_2bandit_b.png","70","70","test","","","","2","",""
"null","224201","pSARL_v2","pSARL_v2kfqty76y","628690801339eca9c44143cd","fixation","img/fixation.png","null","","test","","","","","",""
"335.5","224544","pSARL_v2","pSARL_v2kfqty76y","628690801339eca9c44143cd","freq","img/green_2bandit_b2.png","70","70","test","1","36","36","2","",""
"null","225018","pSARL_v2","pSARL_v2kfqty76y","628690801339eca9c44143cd","freq_resp","img/green_2bandit_b.png","70","70","test","","","","2","",""
"null","225186","pSARL_v2","pSARL_v2kfqty76y","628690801339eca9c44143cd","fixation","img/fixation.png","null","","test","","","","","",""
"255.90000009536743","225451","pSARL_v2","pSARL_v2kfqty76y","628690801339eca9c44143cd","freq","img/green_2bandit_b2.png","70","70","test","1","37","37","2","",""
"null","226018","pSARL_v2","pSARL_v2kfqty76y","628690801339eca9c44143cd","freq_resp","img/green_2bandit_b.png","70","70","test","","","","2","",""
"null","226187","pSARL_v2","pSARL_v2kfqty76y","628690801339eca9c44143cd","fixation","img/fixation.png","null","","test","","","","","",""
"262.2999999523163","226462","pSARL_v2","pSARL_v2kfqty76y","628690801339eca9c44143cd","freq","img/green_2bandit_b2.png","70","70","test","1","38","38","2","",""
"null","227021","pSARL_v2","pSARL_v2kfqty76y","628690801339eca9c44143cd","freq_resp","img/green_2bandit_b.png","70","70","test","","","","2","",""
"null","227193","pSARL_v2","pSARL_v2kfqty76y","628690801339eca9c44143cd","fixation","img/fixation.png","null","","test","","","","","",""
"263.59999990463257","227468","pSARL_v2","pSARL_v2kfqty76y","628690801339eca9c44143cd","freq","img/green_2bandit_b2.png","70","70","test","1","39","39","2","",""
"null","228016","pSARL_v2","pSARL_v2kfqty76y","628690801339eca9c44143cd","freq_resp","img/green_2bandit_b.png","70","70","test","","","","2","",""
"null","228187","pSARL_v2","pSARL_v2kfqty76y","628690801339eca9c44143cd","fixation","img/fixation.png","null","","test","","","","","",""
"133.5","228331","pSARL_v2","pSARL_v2kfqty76y","628690801339eca9c44143cd","freq","img/green_2bandit_b2.png","70","70","test","1","40","40","2","",""
"null","229013","pSARL_v2","pSARL_v2kfqty76y","628690801339eca9c44143cd","freq_resp","img/green_2bandit_b.png","70","70","test","","","","2","",""
"null","229170","pSARL_v2","pSARL_v2kfqty76y","628690801339eca9c44143cd","fixation","img/fixation.png","null","","test","","","","","",""
"216.70000004768372","229396","pSARL_v2","pSARL_v2kfqty76y","628690801339eca9c44143cd","freq","img/green_2bandit_b2.png","70","70","test","1","41","41","2","",""
"null","229999","pSARL_v2","pSARL_v2kfqty76y","628690801339eca9c44143cd","freq_resp","img/green_2bandit_b.png","70","70","test","","","","2","",""
"null","230171","pSARL_v2","pSARL_v2kfqty76y","628690801339eca9c44143cd","fixation","img/fixation.png","null","","test","","","","","",""
"197.70000004768372","230378","pSARL_v2","pSARL_v2kfqty76y","628690801339eca9c44143cd","freq","img/green_2bandit_b2.png","70","70","test","1","42","42","2","",""
"null","231004","pSARL_v2","pSARL_v2kfqty76y","628690801339eca9c44143cd","freq_resp","img/green_2bandit_b.png","70","70","test","","","","2","",""
"null","231177","pSARL_v2","pSARL_v2kfqty76y","628690801339eca9c44143cd","fixation","img/fixation.png","null","","test","","","","","",""
"439.59999990463257","231624","pSARL_v2","pSARL_v2kfqty76y","628690801339eca9c44143cd","reward","img/slot.png","74","","test","","","","","",""
"null","232384","pSARL_v2","pSARL_v2kfqty76y","628690801339eca9c44143cd","points","<div class=""verylowPoints""> -11 </div>","null","na","test","","","","2","-11","1"
"390.2000000476837","232785","pSARL_v2","pSARL_v2kfqty76y","628690801339eca9c44143cd","freq","img/green_2bandit_b2.png","70","70","test","1","43","43","3","",""
"null","233211","pSARL_v2","pSARL_v2kfqty76y","628690801339eca9c44143cd","freq_resp","img/green_2bandit_b.png","70","70","test","","","","3","",""
"null","233379","pSARL_v2","pSARL_v2kfqty76y","628690801339eca9c44143cd","fixation","img/fixation.png","null","","test","","","","","",""
"261","233649","pSARL_v2","pSARL_v2kfqty76y","628690801339eca9c44143cd","freq","img/green_2bandit_b2.png","70","70","test","1","44","44","3","",""
"null","234208","pSARL_v2","pSARL_v2kfqty76y","628690801339eca9c44143cd","freq_resp","img/green_2bandit_b.png","70","70","test","","","","3","",""
"null","234380","pSARL_v2","pSARL_v2kfqty76y","628690801339eca9c44143cd","fixation","img/fixation.png","null","","test","","","","","",""
"228.5","234619","pSARL_v2","pSARL_v2kfqty76y","628690801339eca9c44143cd","freq","img/green_2bandit_b2.png","70","70","test","1","45","45","3","",""
"null","235210","pSARL_v2","pSARL_v2kfqty76y","628690801339eca9c44143cd","freq_resp","img/green_2bandit_b.png","70","70","test","","","","3","",""
"null","235383","pSARL_v2","pSARL_v2kfqty76y","628690801339eca9c44143cd","fixation","img/fixation.png","null","","test","","","","","",""
"209.40000009536743","235601","pSARL_v2","pSARL_v2kfqty76y","628690801339eca9c44143cd","freq","img/green_2bandit_b2.png","70","70","test","1","46","46","3","",""
"null","236212","pSARL_v2","pSARL_v2kfqty76y","628690801339eca9c44143cd","freq_resp","img/green_2bandit_b.png","70","70","test","","","","3","",""
"null","236383","pSARL_v2","pSARL_v2kfqty76y","628690801339eca9c44143cd","fixation","img/fixation.png","null","","test","","","","","",""
"289.10000014305115","236682","pSARL_v2","pSARL_v2kfqty76y","628690801339eca9c44143cd","freq","img/green_2bandit_b2.png","70","70","test","1","47","47","3","",""
"null","237215","pSARL_v2","pSARL_v2kfqty76y","628690801339eca9c44143cd","freq_resp","img/green_2bandit_b.png","70","70","test","","","","3","",""
"null","237387","pSARL_v2","pSARL_v2kfqty76y","628690801339eca9c44143cd","fixation","img/fixation.png","null","","test","","","","","",""
"293.7000000476837","237691","pSARL_v2","pSARL_v2kfqty76y","628690801339eca9c44143cd","infreq","img/orange_2bandit_b2.png","70","68","test","0","48","48","3","",""
"null","238214","pSARL_v2","pSARL_v2kfqty76y","628690801339eca9c44143cd","infreq_resp","img/orange_2bandit_b.png","70","68","test","","","","3","",""
"null","238384","pSARL_v2","pSARL_v2kfqty76y","628690801339eca9c44143cd","fixation","img/fixation.png","null","","test","","","","","",""
"404.89999985694885","238795","pSARL_v2","pSARL_v2kfqty76y","628690801339eca9c44143cd","freq","img/green_2bandit_b2.png","70","70","test","1","49","49","3","",""
"null","239214","pSARL_v2","pSARL_v2kfqty76y","628690801339eca9c44143cd","freq_resp","img/green_2bandit_b.png","70","70","test","","","","3","",""
"null","239386","pSARL_v2","pSARL_v2kfqty76y","628690801339eca9c44143cd","fixation","img/fixation.png","null","","test","","","","","",""
"539.2999999523163","239934","pSARL_v2","pSARL_v2kfqty76y","628690801339eca9c44143cd","infreq","img/orange_2bandit_b2.png","68","68","test","1","50","50","3","",""
"null","240206","pSARL_v2","pSARL_v2kfqty76y","628690801339eca9c44143cd","infreq_resp","img/orange_2bandit_b.png","68","68","test","","","","3","",""
"null","240373","pSARL_v2","pSARL_v2kfqty76y","628690801339eca9c44143cd","fixation","img/fixation.png","null","","test","","","","","",""
"476.39999985694885","240859","pSARL_v2","pSARL_v2kfqty76y","628690801339eca9c44143cd","freq","img/green_2bandit_b2.png","70","70","test","1","51","51","3","",""
"null","241200","pSARL_v2","pSARL_v2kfqty76y","628690801339eca9c44143cd","freq_resp","img/green_2bandit_b.png","70","70","test","","","","3","",""
"null","241369","pSARL_v2","pSARL_v2kfqty76y","628690801339eca9c44143cd","fixation","img/fixation.png","null","","test","","","","","",""
"311.09999990463257","241690","pSARL_v2","pSARL_v2kfqty76y","628690801339eca9c44143cd","freq","img/green_2bandit_b2.png","70","70","test","1","52","52","3","",""
"null","242193","pSARL_v2","pSARL_v2kfqty76y","628690801339eca9c44143cd","freq_resp","img/green_2bandit_b.png","70","70","test","","","","3","",""
"null","242365","pSARL_v2","pSARL_v2kfqty76y","628690801339eca9c44143cd","fixation","img/fixation.png","null","","test","","","","","",""
"395.7999999523163","242770","pSARL_v2","pSARL_v2kfqty76y","628690801339eca9c44143cd","freq","img/green_2bandit_b2.png","70","70","test","1","53","53","3","",""
"null","243198","pSARL_v2","pSARL_v2kfqty76y","628690801339eca9c44143cd","freq_resp","img/green_2bandit_b.png","70","70","test","","","","3","",""
"null","243370","pSARL_v2","pSARL_v2kfqty76y","628690801339eca9c44143cd","fixation","img/fixation.png","null","","test","","","","","",""
"273.09999990463257","243653","pSARL_v2","pSARL_v2kfqty76y","628690801339eca9c44143cd","freq","img/green_2bandit_b2.png","70","70","test","1","54","54","3","",""
"null","244192","pSARL_v2","pSARL_v2kfqty76y","628690801339eca9c44143cd","freq_resp","img/green_2bandit_b.png","70","70","test","","","","3","",""
"null","244352","pSARL_v2","pSARL_v2kfqty76y","628690801339eca9c44143cd","fixation","img/fixation.png","null","","test","","","","","",""
"238.70000004768372","244601","pSARL_v2","pSARL_v2kfqty76y","628690801339eca9c44143cd","freq","img/green_2bandit_b2.png","70","70","test","1","55","55","3","",""
"null","245179","pSARL_v2","pSARL_v2kfqty76y","628690801339eca9c44143cd","freq_resp","img/green_2bandit_b.png","70","70","test","","","","3","",""
"null","245352","pSARL_v2","pSARL_v2kfqty76y","628690801339eca9c44143cd","fixation","img/fixation.png","null","","test","","","","","",""
"287","245649","pSARL_v2","pSARL_v2kfqty76y","628690801339eca9c44143cd","freq","img/green_2bandit_b2.png","70","70","test","1","56","56","3","",""
"null","246177","pSARL_v2","pSARL_v2kfqty76y","628690801339eca9c44143cd","freq_resp","img/green_2bandit_b.png","70","70","test","","","","3","",""
"null","246336","pSARL_v2","pSARL_v2kfqty76y","628690801339eca9c44143cd","fixation","img/fixation.png","null","","test","","","","","",""
"294.2000000476837","246639","pSARL_v2","pSARL_v2kfqty76y","628690801339eca9c44143cd","freq","img/green_2bandit_b2.png","70","70","test","1","57","57","3","",""
"null","247166","pSARL_v2","pSARL_v2kfqty76y","628690801339eca9c44143cd","freq_resp","img/green_2bandit_b.png","70","70","test","","","","3","",""
"null","247338","pSARL_v2","pSARL_v2kfqty76y","628690801339eca9c44143cd","fixation","img/fixation.png","null","","test","","","","","",""
"315.7999999523163","247663","pSARL_v2","pSARL_v2kfqty76y","628690801339eca9c44143cd","freq","img/green_2bandit_b2.png","70","70","test","1","58","58","3","",""
"null","248166","pSARL_v2","pSARL_v2kfqty76y","628690801339eca9c44143cd","freq_resp","img/green_2bandit_b.png","70","70","test","","","","3","",""
"null","248337","pSARL_v2","pSARL_v2kfqty76y","628690801339eca9c44143cd","fixation","img/fixation.png","null","","test","","","","","",""
"256.59999990463257","248603","pSARL_v2","pSARL_v2kfqty76y","628690801339eca9c44143cd","freq","img/green_2bandit_b2.png","70","70","test","1","59","59","3","",""
"null","249165","pSARL_v2","pSARL_v2kfqty76y","628690801339eca9c44143cd","freq_resp","img/green_2bandit_b.png","70","70","test","","","","3","",""
"null","249337","pSARL_v2","pSARL_v2kfqty76y","628690801339eca9c44143cd","fixation","img/fixation.png","null","","test","","","","","",""
"235.90000009536743","249583","pSARL_v2","pSARL_v2kfqty76y","628690801339eca9c44143cd","freq","img/green_2bandit_b2.png","70","70","test","1","60","60","3","",""
"null","250167","pSARL_v2","pSARL_v2kfqty76y","628690801339eca9c44143cd","freq_resp","img/green_2bandit_b.png","70","70","test","","","","3","",""
"null","250339","pSARL_v2","pSARL_v2kfqty76y","628690801339eca9c44143cd","fixation","img/fixation.png","null","","test","","","","","",""
"249.39999985694885","250596","pSARL_v2","pSARL_v2kfqty76y","628690801339eca9c44143cd","freq","img/green_2bandit_b2.png","70","70","test","1","61","61","3","",""
"null","251167","pSARL_v2","pSARL_v2kfqty76y","628690801339eca9c44143cd","freq_resp","img/green_2bandit_b.png","70","70","test","","","","3","",""
"null","251340","pSARL_v2","pSARL_v2kfqty76y","628690801339eca9c44143cd","fixation","img/fixation.png","null","","test","","","","","",""
"303.39999985694885","251653","pSARL_v2","pSARL_v2kfqty76y","628690801339eca9c44143cd","freq","img/green_2bandit_b2.png","70","70","test","1","62","62","3","",""
"null","252165","pSARL_v2","pSARL_v2kfqty76y","628690801339eca9c44143cd","freq_resp","img/green_2bandit_b.png","70","70","test","","","","3","",""
"null","252331","pSARL_v2","pSARL_v2kfqty76y","628690801339eca9c44143cd","fixation","img/fixation.png","null","","test","","","","","",""
"246.20000004768372","252581","pSARL_v2","pSARL_v2kfqty76y","628690801339eca9c44143cd","freq","img/green_2bandit_b2.png","70","70","test","1","63","63","3","",""
"null","253148","pSARL_v2","pSARL_v2kfqty76y","628690801339eca9c44143cd","freq_resp","img/green_2bandit_b.png","70","70","test","","","","3","",""
"null","253320","pSARL_v2","pSARL_v2kfqty76y","628690801339eca9c44143cd","fixation","img/fixation.png","null","","test","","","","","",""
"257.7999999523163","253586","pSARL_v2","pSARL_v2kfqty76y","628690801339eca9c44143cd","freq","img/green_2bandit_b2.png","70","70","test","1","64","64","3","",""
"null","254142","pSARL_v2","pSARL_v2kfqty76y","628690801339eca9c44143cd","freq_resp","img/green_2bandit_b.png","70","70","test","","","","3","",""
"null","254313","pSARL_v2","pSARL_v2kfqty76y","628690801339eca9c44143cd","fixation","img/fixation.png","null","","test","","","","","",""
"206.70000004768372","254526","pSARL_v2","pSARL_v2kfqty76y","628690801339eca9c44143cd","freq","img/green_2bandit_b2.png","70","70","test","1","65","65","3","",""
"null","255129","pSARL_v2","pSARL_v2kfqty76y","628690801339eca9c44143cd","freq_resp","img/green_2bandit_b.png","70","70","test","","","","3","",""
"null","255302","pSARL_v2","pSARL_v2kfqty76y","628690801339eca9c44143cd","fixation","img/fixation.png","null","","test","","","","","",""
"86.29999995231628","255398","pSARL_v2","pSARL_v2kfqty76y","628690801339eca9c44143cd","freq","img/green_2bandit_b2.png","70","70","test","1","66","66","3","",""
"null","256132","pSARL_v2","pSARL_v2kfqty76y","628690801339eca9c44143cd","freq_resp","img/green_2bandit_b.png","70","70","test","","","","3","",""
"null","256297","pSARL_v2","pSARL_v2kfqty76y","628690801339eca9c44143cd","fixation","img/fixation.png","null","","test","","","","","",""
"490.90000009536743","256796","pSARL_v2","pSARL_v2kfqty76y","628690801339eca9c44143cd","reward","img/slot.png","74","","test","","","","","",""
"null","257557","pSARL_v2","pSARL_v2kfqty76y","628690801339eca9c44143cd","points","<div class=""verylowPoints""> -7 </div>","null","na","test","","","","3","-7","2"
"377.90000009536743","257941","pSARL_v2","pSARL_v2kfqty76y","628690801339eca9c44143cd","freq","img/green_2bandit_b2.png","70","70","test","1","67","67","4","",""
"null","258376","pSARL_v2","pSARL_v2kfqty76y","628690801339eca9c44143cd","freq_resp","img/green_2bandit_b.png","70","70","test","","","","4","",""
"null","258544","pSARL_v2","pSARL_v2kfqty76y","628690801339eca9c44143cd","fixation","img/fixation.png","null","","test","","","","","",""
"376.39999985694885","258927","pSARL_v2","pSARL_v2kfqty76y","628690801339eca9c44143cd","freq","img/green_2bandit_b2.png","70","70","test","1","68","68","4","",""
"null","259373","pSARL_v2","pSARL_v2kfqty76y","628690801339eca9c44143cd","freq_resp","img/green_2bandit_b.png","70","70","test","","","","4","",""
"null","259530","pSARL_v2","pSARL_v2kfqty76y","628690801339eca9c44143cd","fixation","img/fixation.png","null","","test","","","","","",""
"209.79999995231628","259748","pSARL_v2","pSARL_v2kfqty76y","628690801339eca9c44143cd","freq","img/green_2bandit_b2.png","70","70","test","1","69","69","4","",""
"null","260358","pSARL_v2","pSARL_v2kfqty76y","628690801339eca9c44143cd","freq_resp","img/green_2bandit_b.png","70","70","test","","","","4","",""
"null","260516","pSARL_v2","pSARL_v2kfqty76y","628690801339eca9c44143cd","fixation","img/fixation.png","null","","test","","","","","",""
"483","261009","pSARL_v2","pSARL_v2kfqty76y","628690801339eca9c44143cd","infreq","img/orange_2bandit_b2.png","68","68","test","1","70","70","4","",""
"null","261345","pSARL_v2","pSARL_v2kfqty76y","628690801339eca9c44143cd","infreq_resp","img/orange_2bandit_b.png","68","68","test","","","","4","",""
"null","261510","pSARL_v2","pSARL_v2kfqty76y","628690801339eca9c44143cd","fixation","img/fixation.png","null","","test","","","","","",""
"244.40000009536743","261763","pSARL_v2","pSARL_v2kfqty76y","628690801339eca9c44143cd","freq","img/green_2bandit_b2.png","68","70","test","0","71","71","4","",""
"null","262341","pSARL_v2","pSARL_v2kfqty76y","628690801339eca9c44143cd","freq_resp","img/green_2bandit_b.png","68","70","test","","","","4","",""
"null","262509","pSARL_v2","pSARL_v2kfqty76y","628690801339eca9c44143cd","fixation","img/fixation.png","null","","test","","","","","",""
"306.5","262823","pSARL_v2","pSARL_v2kfqty76y","628690801339eca9c44143cd","freq","img/green_2bandit_b2.png","70","70","test","1","72","72","4","",""
"null","263331","pSARL_v2","pSARL_v2kfqty76y","628690801339eca9c44143cd","freq_resp","img/green_2bandit_b.png","70","70","test","","","","4","",""
"null","263500","pSARL_v2","pSARL_v2kfqty76y","628690801339eca9c44143cd","fixation","img/fixation.png","null","","test","","","","","",""
"251.39999985694885","263756","pSARL_v2","pSARL_v2kfqty76y","628690801339eca9c44143cd","freq","img/green_2bandit_b2.png","70","70","test","1","73","73","4","",""
"null","264322","pSARL_v2","pSARL_v2kfqty76y","628690801339eca9c44143cd","freq_resp","img/green_2bandit_b.png","70","70","test","","","","4","",""
"null","264480","pSARL_v2","pSARL_v2kfqty76y","628690801339eca9c44143cd","fixation","img/fixation.png","null","","test","","","","","",""
"287.10000014305115","264777","pSARL_v2","pSARL_v2kfqty76y","628690801339eca9c44143cd","freq","img/green_2bandit_b2.png","70","70","test","1","74","74","4","",""
"null","265310","pSARL_v2","pSARL_v2kfqty76y","628690801339eca9c44143cd","freq_resp","img/green_2bandit_b.png","70","70","test","","","","4","",""
"null","265476","pSARL_v2","pSARL_v2kfqty76y","628690801339eca9c44143cd","fixation","img/fixation.png","null","","test","","","","","",""
"290.7000000476837","265774","pSARL_v2","pSARL_v2kfqty76y","628690801339eca9c44143cd","freq","img/green_2bandit_b2.png","70","70","test","1","75","75","4","",""
"null","266307","pSARL_v2","pSARL_v2kfqty76y","628690801339eca9c44143cd","freq_resp","img/green_2bandit_b.png","70","70","test","","","","4","",""
"null","266478","pSARL_v2","pSARL_v2kfqty76y","628690801339eca9c44143cd","fixation","img/fixation.png","null","","test","","","","","",""
"316.89999985694885","266803","pSARL_v2","pSARL_v2kfqty76y","628690801339eca9c44143cd","freq","img/green_2bandit_b2.png","70","70","test","1","76","76","4","",""
"null","267296","pSARL_v2","pSARL_v2kfqty76y","628690801339eca9c44143cd","freq_resp","img/green_2bandit_b.png","70","70","test","","","","4","",""
"null","267466","pSARL_v2","pSARL_v2kfqty76y","628690801339eca9c44143cd","fixation","img/fixation.png","null","","test","","","","","",""
"473.60000014305115","267949","pSARL_v2","pSARL_v2kfqty76y","628690801339eca9c44143cd","infreq","img/orange_2bandit_b2.png","68","68","test","1","77","77","4","",""
"null","268286","pSARL_v2","pSARL_v2kfqty76y","628690801339eca9c44143cd","infreq_resp","img/orange_2bandit_b.png","68","68","test","","","","4","",""
"null","268459","pSARL_v2","pSARL_v2kfqty76y","628690801339eca9c44143cd","fixation","img/fixation.png","null","","test","","","","","",""
"425","268892","pSARL_v2","pSARL_v2kfqty76y","628690801339eca9c44143cd","infreq","img/orange_2bandit_b2.png","68","68","test","1","78","78","4","",""
"null","269282","pSARL_v2","pSARL_v2kfqty76y","628690801339eca9c44143cd","infreq_resp","img/orange_2bandit_b.png","68","68","test","","","","4","",""
"null","269453","pSARL_v2","pSARL_v2kfqty76y","628690801339eca9c44143cd","fixation","img/fixation.png","null","","test","","","","","",""
"459.90000009536743","269923","pSARL_v2","pSARL_v2kfqty76y","628690801339eca9c44143cd","freq","img/green_2bandit_b2.png","70","70","test","1","79","79","4","",""
"null","270277","pSARL_v2","pSARL_v2kfqty76y","628690801339eca9c44143cd","freq_resp","img/green_2bandit_b.png","70","70","test","","","","4","",""
"null","270436","pSARL_v2","pSARL_v2kfqty76y","628690801339eca9c44143cd","fixation","img/fixation.png","null","","test","","","","","",""
"331.90000009536743","270778","pSARL_v2","pSARL_v2kfqty76y","628690801339eca9c44143cd","freq","img/green_2bandit_b2.png","70","70","test","1","80","80","4","",""
"null","271265","pSARL_v2","pSARL_v2kfqty76y","628690801339eca9c44143cd","freq_resp","img/green_2bandit_b.png","70","70","test","","","","4","",""
"null","271434","pSARL_v2","pSARL_v2kfqty76y","628690801339eca9c44143cd","fixation","img/fixation.png","null","","test","","","","","",""
"372.09999990463257","271815","pSARL_v2","pSARL_v2kfqty76y","628690801339eca9c44143cd","freq","img/green_2bandit_b2.png","70","70","test","1","81","81","4","",""
"null","272260","pSARL_v2","pSARL_v2kfqty76y","628690801339eca9c44143cd","freq_resp","img/green_2bandit_b.png","70","70","test","","","","4","",""
"null","272430","pSARL_v2","pSARL_v2kfqty76y","628690801339eca9c44143cd","fixation","img/fixation.png","null","","test","","","","","",""
"276.59999990463257","272716","pSARL_v2","pSARL_v2kfqty76y","628690801339eca9c44143cd","freq","img/green_2bandit_b2.png","70","70","test","1","82","82","4","",""
"null","273258","pSARL_v2","pSARL_v2kfqty76y","628690801339eca9c44143cd","freq_resp","img/green_2bandit_b.png","70","70","test","","","","4","",""
"null","273430","pSARL_v2","pSARL_v2kfqty76y","628690801339eca9c44143cd","fixation","img/fixation.png","null","","test","","","","","",""
"239.5","273677","pSARL_v2","pSARL_v2kfqty76y","628690801339eca9c44143cd","freq","img/green_2bandit_b2.png","70","70","test","1","83","83","4","",""
"null","274256","pSARL_v2","pSARL_v2kfqty76y","628690801339eca9c44143cd","freq_resp","img/green_2bandit_b.png","70","70","test","","","","4","",""
"null","274426","pSARL_v2","pSARL_v2kfqty76y","628690801339eca9c44143cd","fixation","img/fixation.png","null","","test","","","","","",""
"264.90000009536743","274701","pSARL_v2","pSARL_v2kfqty76y","628690801339eca9c44143cd","freq","img/green_2bandit_b2.png","70","70","test","1","84","84","4","",""
"null","275245","pSARL_v2","pSARL_v2kfqty76y","628690801339eca9c44143cd","freq_resp","img/green_2bandit_b.png","70","70","test","","","","4","",""
"null","275417","pSARL_v2","pSARL_v2kfqty76y","628690801339eca9c44143cd","fixation","img/fixation.png","null","","test","","","","","",""
"106.59999990463257","275532","pSARL_v2","pSARL_v2kfqty76y","628690801339eca9c44143cd","freq","img/green_2bandit_b2.png","70","70","test","1","85","85","4","",""
"null","276236","pSARL_v2","pSARL_v2kfqty76y","628690801339eca9c44143cd","freq_resp","img/green_2bandit_b.png","70","70","test","","","","4","",""
"null","276405","pSARL_v2","pSARL_v2kfqty76y","628690801339eca9c44143cd","fixation","img/fixation.png","null","","test","","","","","",""
"240.20000004768372","276654","pSARL_v2","pSARL_v2kfqty76y","628690801339eca9c44143cd","freq","img/green_2bandit_b2.png","70","70","test","1","86","86","4","",""
"null","277223","pSARL_v2","pSARL_v2kfqty76y","628690801339eca9c44143cd","freq_resp","img/green_2bandit_b.png","70","70","test","","","","4","",""
"null","277396","pSARL_v2","pSARL_v2kfqty76y","628690801339eca9c44143cd","fixation","img/fixation.png","null","","test","","","","","",""
"503.7999999523163","277908","pSARL_v2","pSARL_v2kfqty76y","628690801339eca9c44143cd","reward","img/slot.png","74","","test","","","","","",""
"null","278677","pSARL_v2","pSARL_v2kfqty76y","628690801339eca9c44143cd","points","<div class=""verylowPoints""> -3 </div>","null","na","test","","","","4","-3","3"
"459.40000009536743","279145","pSARL_v2","pSARL_v2kfqty76y","628690801339eca9c44143cd","freq","img/green_2bandit_b2.png","70","70","test","1","87","87","5","",""
"null","279495","pSARL_v2","pSARL_v2kfqty76y","628690801339eca9c44143cd","freq_resp","img/green_2bandit_b.png","70","70","test","","","","5","",""
"null","279653","pSARL_v2","pSARL_v2kfqty76y","628690801339eca9c44143cd","fixation","img/fixation.png","null","","test","","","","","",""
"282.2000000476837","279943","pSARL_v2","pSARL_v2kfqty76y","628690801339eca9c44143cd","freq","img/green_2bandit_b2.png","70","70","test","1","88","88","5","",""
"null","280477","pSARL_v2","pSARL_v2kfqty76y","628690801339eca9c44143cd","freq_resp","img/green_2bandit_b.png","70","70","test","","","","5","",""
"null","280639","pSARL_v2","pSARL_v2kfqty76y","628690801339eca9c44143cd","fixation","img/fixation.png","null","","test","","","","","",""
"629.7000000476837","281279","pSARL_v2","pSARL_v2kfqty76y","628690801339eca9c44143cd","infreq","img/orange_2bandit_b2.png","68","68","test","1","89","89","5","",""
"null","281462","pSARL_v2","pSARL_v2kfqty76y","628690801339eca9c44143cd","infreq_resp","img/orange_2bandit_b.png","68","68","test","","","","5","",""
"null","281632","pSARL_v2","pSARL_v2kfqty76y","628690801339eca9c44143cd","fixation","img/fixation.png","null","","test","","","","","",""
"361.5","282004","pSARL_v2","pSARL_v2kfqty76y","628690801339eca9c44143cd","freq","img/green_2bandit_b2.png","70","70","test","1","90","90","5","",""
"null","282464","pSARL_v2","pSARL_v2kfqty76y","628690801339eca9c44143cd","freq_resp","img/green_2bandit_b.png","70","70","test","","","","5","",""
"null","282633","pSARL_v2","pSARL_v2kfqty76y","628690801339eca9c44143cd","fixation","img/fixation.png","null","","test","","","","","",""
"618.2999999523163","283261","pSARL_v2","pSARL_v2kfqty76y","628690801339eca9c44143cd","freq","img/green_2bandit_b2.png","70","70","test","1","91","91","5","",""
"null","283460","pSARL_v2","pSARL_v2kfqty76y","628690801339eca9c44143cd","freq_resp","img/green_2bandit_b.png","70","70","test","","","","5","",""
"null","283628","pSARL_v2","pSARL_v2kfqty76y","628690801339eca9c44143cd","fixation","img/fixation.png","null","","test","","","","","",""
"275.7999999523163","283913","pSARL_v2","pSARL_v2kfqty76y","628690801339eca9c44143cd","freq","img/green_2bandit_b2.png","70","70","test","1","92","92","5","",""
"null","284454","pSARL_v2","pSARL_v2kfqty76y","628690801339eca9c44143cd","freq_resp","img/green_2bandit_b.png","70","70","test","","","","5","",""
"null","284630","pSARL_v2","pSARL_v2kfqty76y","628690801339eca9c44143cd","fixation","img/fixation.png","null","","test","","","","","",""
"263.7999999523163","284903","pSARL_v2","pSARL_v2kfqty76y","628690801339eca9c44143cd","freq","img/green_2bandit_b2.png","70","70","test","1","93","93","5","",""
"null","285452","pSARL_v2","pSARL_v2kfqty76y","628690801339eca9c44143cd","freq_resp","img/green_2bandit_b.png","70","70","test","","","","5","",""
"null","285623","pSARL_v2","pSARL_v2kfqty76y","628690801339eca9c44143cd","fixation","img/fixation.png","null","","test","","","","","",""
"216.5","285849","pSARL_v2","pSARL_v2kfqty76y","628690801339eca9c44143cd","freq","img/green_2bandit_b2.png","70","70","test","1","94","94","5","",""
"null","286449","pSARL_v2","pSARL_v2kfqty76y","628690801339eca9c44143cd","freq_resp","img/green_2bandit_b.png","70","70","test","","","","5","",""
"null","286620","pSARL_v2","pSARL_v2kfqty76y","628690801339eca9c44143cd","fixation","img/fixation.png","null","","test","","","","","",""
"382.40000009536743","287014","pSARL_v2","pSARL_v2kfqty76y","628690801339eca9c44143cd","freq","img/green_2bandit_b2.png","70","70","test","1","95","95","5","",""
"null","287449","pSARL_v2","pSARL_v2kfqty76y","628690801339eca9c44143cd","freq_resp","img/green_2bandit_b.png","70","70","test","","","","5","",""
"null","287618","pSARL_v2","pSARL_v2kfqty76y","628690801339eca9c44143cd","fixation","img/fixation.png","null","","test","","","","","",""
"194.79999995231628","287822","pSARL_v2","pSARL_v2kfqty76y","628690801339eca9c44143cd","freq","img/green_2bandit_b2.png","70","70","test","1","96","96","5","",""
"null","288443","pSARL_v2","pSARL_v2kfqty76y","628690801339eca9c44143cd","freq_resp","img/green_2bandit_b.png","70","70","test","","","","5","",""
"null","288613","pSARL_v2","pSARL_v2kfqty76y","628690801339eca9c44143cd","fixation","img/fixation.png","null","","test","","","","","",""
"246.90000009536743","288866","pSARL_v2","pSARL_v2kfqty76y","628690801339eca9c44143cd","freq","img/green_2bandit_b2.png","70","70","test","1","97","97","5","",""
"null","289427","pSARL_v2","pSARL_v2kfqty76y","628690801339eca9c44143cd","freq_resp","img/green_2bandit_b.png","70","70","test","","","","5","",""
"null","289598","pSARL_v2","pSARL_v2kfqty76y","628690801339eca9c44143cd","fixation","img/fixation.png","null","","test","","","","","",""
"168.29999995231628","289773","pSARL_v2","pSARL_v2kfqty76y","628690801339eca9c44143cd","freq","img/green_2bandit_b2.png","70","70","test","1","98","98","5","",""
"null","290424","pSARL_v2","pSARL_v2kfqty76y","628690801339eca9c44143cd","freq_resp","img/green_2bandit_b.png","70","70","test","","","","5","",""
"null","290595","pSARL_v2","pSARL_v2kfqty76y","628690801339eca9c44143cd","fixation","img/fixation.png","null","","test","","","","","",""
"127.19999980926514","290730","pSARL_v2","pSARL_v2kfqty76y","628690801339eca9c44143cd","freq","img/green_2bandit_b2.png","70","70","test","1","99","99","5","",""
"null","291423","pSARL_v2","pSARL_v2kfqty76y","628690801339eca9c44143cd","freq_resp","img/green_2bandit_b.png","70","70","test","","","","5","",""
"null","291594","pSARL_v2","pSARL_v2kfqty76y","628690801339eca9c44143cd","fixation","img/fixation.png","null","","test","","","","","",""
"246.29999995231628","291847","pSARL_v2","pSARL_v2kfqty76y","628690801339eca9c44143cd","freq","img/green_2bandit_b2.png","70","70","test","1","100","100","5","",""
"null","292419","pSARL_v2","pSARL_v2kfqty76y","628690801339eca9c44143cd","freq_resp","img/green_2bandit_b.png","70","70","test","","","","5","",""
"null","292592","pSARL_v2","pSARL_v2kfqty76y","628690801339eca9c44143cd","fixation","img/fixation.png","null","","test","","","","","",""
"72.89999985694885","292672","pSARL_v2","pSARL_v2kfqty76y","628690801339eca9c44143cd","freq","img/green_2bandit_b2.png","70","70","test","1","101","101","5","",""
"null","293417","pSARL_v2","pSARL_v2kfqty76y","628690801339eca9c44143cd","freq_resp","img/green_2bandit_b.png","70","70","test","","","","5","",""
"null","293588","pSARL_v2","pSARL_v2kfqty76y","628690801339eca9c44143cd","fixation","img/fixation.png","null","","test","","","","","",""
"151.79999995231628","293747","pSARL_v2","pSARL_v2kfqty76y","628690801339eca9c44143cd","freq","img/green_2bandit_b2.png","70","70","test","1","102","102","5","",""
"null","294412","pSARL_v2","pSARL_v2kfqty76y","628690801339eca9c44143cd","freq_resp","img/green_2bandit_b.png","70","70","test","","","","5","",""
"null","294583","pSARL_v2","pSARL_v2kfqty76y","628690801339eca9c44143cd","fixation","img/fixation.png","null","","test","","","","","",""
"311.30000019073486","294900","pSARL_v2","pSARL_v2kfqty76y","628690801339eca9c44143cd","freq","img/green_2bandit_b2.png","70","70","test","1","103","103","5","",""
"null","295407","pSARL_v2","pSARL_v2kfqty76y","628690801339eca9c44143cd","freq_resp","img/green_2bandit_b.png","70","70","test","","","","5","",""
"null","295577","pSARL_v2","pSARL_v2kfqty76y","628690801339eca9c44143cd","fixation","img/fixation.png","null","","test","","","","","",""
"421.2999999523163","296006","pSARL_v2","pSARL_v2kfqty76y","628690801339eca9c44143cd","infreq","img/orange_2bandit_b2.png","68","68","test","1","104","104","5","",""
"null","296402","pSARL_v2","pSARL_v2kfqty76y","628690801339eca9c44143cd","infreq_resp","img/orange_2bandit_b.png","68","68","test","","","","5","",""
"null","296572","pSARL_v2","pSARL_v2kfqty76y","628690801339eca9c44143cd","fixation","img/fixation.png","null","","test","","","","","",""
"405.7999999523163","296987","pSARL_v2","pSARL_v2kfqty76y","628690801339eca9c44143cd","freq","img/green_2bandit_b2.png","70","70","test","1","105","105","5","",""
"null","297392","pSARL_v2","pSARL_v2kfqty76y","628690801339eca9c44143cd","freq_resp","img/green_2bandit_b.png","70","70","test","","","","5","",""
"null","297560","pSARL_v2","pSARL_v2kfqty76y","628690801339eca9c44143cd","fixation","img/fixation.png","null","","test","","","","","",""
"286.2999999523163","297857","pSARL_v2","pSARL_v2kfqty76y","628690801339eca9c44143cd","freq","img/green_2bandit_b2.png","70","70","test","1","106","106","5","",""
"null","298391","pSARL_v2","pSARL_v2kfqty76y","628690801339eca9c44143cd","freq_resp","img/green_2bandit_b.png","70","70","test","","","","5","",""
"null","298563","pSARL_v2","pSARL_v2kfqty76y","628690801339eca9c44143cd","fixation","img/fixation.png","null","","test","","","","","",""
"461","299034","pSARL_v2","pSARL_v2kfqty76y","628690801339eca9c44143cd","freq","img/green_2bandit_b2.png","70","70","test","1","107","107","5","",""
"null","299389","pSARL_v2","pSARL_v2kfqty76y","628690801339eca9c44143cd","freq_resp","img/green_2bandit_b.png","70","70","test","","","","5","",""
"null","299558","pSARL_v2","pSARL_v2kfqty76y","628690801339eca9c44143cd","fixation","img/fixation.png","null","","test","","","","","",""
"381.90000009536743","299951","pSARL_v2","pSARL_v2kfqty76y","628690801339eca9c44143cd","freq","img/green_2bandit_b2.png","70","70","test","1","108","108","5","",""
"null","300385","pSARL_v2","pSARL_v2kfqty76y","628690801339eca9c44143cd","freq_resp","img/green_2bandit_b.png","70","70","test","","","","5","",""
"null","300553","pSARL_v2","pSARL_v2kfqty76y","628690801339eca9c44143cd","fixation","img/fixation.png","null","","test","","","","","",""
"440.19999980926514","301001","pSARL_v2","pSARL_v2kfqty76y","628690801339eca9c44143cd","reward","img/slot.png","74","","test","","","","","",""
"null","301761","pSARL_v2","pSARL_v2kfqty76y","628690801339eca9c44143cd","points","<div class=""veryhighPoints""> +1 </div>","null","na","test","","","","5","1","4"
"303.5","302074","pSARL_v2","pSARL_v2kfqty76y","628690801339eca9c44143cd","freq","img/green_2bandit_b2.png","70","70","test","1","109","109","6","",""
"null","302590","pSARL_v2","pSARL_v2kfqty76y","628690801339eca9c44143cd","freq_resp","img/green_2bandit_b.png","70","70","test","","","","6","",""
"null","302762","pSARL_v2","pSARL_v2kfqty76y","628690801339eca9c44143cd","fixation","img/fixation.png","null","","test","","","","","",""
"334.2999999523163","303106","pSARL_v2","pSARL_v2kfqty76y","628690801339eca9c44143cd","freq","img/green_2bandit_b2.png","70","70","test","1","110","110","6","",""
"null","303587","pSARL_v2","pSARL_v2kfqty76y","628690801339eca9c44143cd","freq_resp","img/green_2bandit_b.png","70","70","test","","","","6","",""
"null","303757","pSARL_v2","pSARL_v2kfqty76y","628690801339eca9c44143cd","fixation","img/fixation.png","null","","test","","","","","",""
"258.59999990463257","304025","pSARL_v2","pSARL_v2kfqty76y","628690801339eca9c44143cd","freq","img/green_2bandit_b2.png","70","70","test","1","111","111","6","",""
"null","304578","pSARL_v2","pSARL_v2kfqty76y","628690801339eca9c44143cd","freq_resp","img/green_2bandit_b.png","70","70","test","","","","6","",""
"null","304741","pSARL_v2","pSARL_v2kfqty76y","628690801339eca9c44143cd","fixation","img/fixation.png","null","","test","","","","","",""
"475","305225","pSARL_v2","pSARL_v2kfqty76y","628690801339eca9c44143cd","infreq","img/orange_2bandit_b2.png","68","68","test","1","112","112","6","",""
"null","305561","pSARL_v2","pSARL_v2kfqty76y","628690801339eca9c44143cd","infreq_resp","img/orange_2bandit_b.png","68","68","test","","","","6","",""
"null","305730","pSARL_v2","pSARL_v2kfqty76y","628690801339eca9c44143cd","fixation","img/fixation.png","null","","test","","","","","",""
"472.80000019073486","306212","pSARL_v2","pSARL_v2kfqty76y","628690801339eca9c44143cd","freq","img/green_2bandit_b2.png","70","70","test","1","113","113","6","",""
"null","306558","pSARL_v2","pSARL_v2kfqty76y","628690801339eca9c44143cd","freq_resp","img/green_2bandit_b.png","70","70","test","","","","6","",""
"null","306729","pSARL_v2","pSARL_v2kfqty76y","628690801339eca9c44143cd","fixation","img/fixation.png","null","","test","","","","","",""
"311.40000009536743","307050","pSARL_v2","pSARL_v2kfqty76y","628690801339eca9c44143cd","freq","img/green_2bandit_b2.png","70","70","test","1","114","114","6","",""
"null","307557","pSARL_v2","pSARL_v2kfqty76y","628690801339eca9c44143cd","freq_resp","img/green_2bandit_b.png","70","70","test","","","","6","",""
"null","307729","pSARL_v2","pSARL_v2kfqty76y","628690801339eca9c44143cd","fixation","img/fixation.png","null","","test","","","","","",""
"248.19999980926514","307987","pSARL_v2","pSARL_v2kfqty76y","628690801339eca9c44143cd","freq","img/green_2bandit_b2.png","70","70","test","1","115","115","6","",""
"null","308554","pSARL_v2","pSARL_v2kfqty76y","628690801339eca9c44143cd","freq_resp","img/green_2bandit_b.png","70","70","test","","","","6","",""
"null","308728","pSARL_v2","pSARL_v2kfqty76y","628690801339eca9c44143cd","fixation","img/fixation.png","null","","test","","","","","",""
"312.5","309052","pSARL_v2","pSARL_v2kfqty76y","628690801339eca9c44143cd","freq","img/green_2bandit_b2.png","70","70","test","1","116","116","6","",""
"null","309559","pSARL_v2","pSARL_v2kfqty76y","628690801339eca9c44143cd","freq_resp","img/green_2bandit_b.png","70","70","test","","","","6","",""
"null","309732","pSARL_v2","pSARL_v2kfqty76y","628690801339eca9c44143cd","fixation","img/fixation.png","null","","test","","","","","",""
"303.60000014305115","310045","pSARL_v2","pSARL_v2kfqty76y","628690801339eca9c44143cd","freq","img/green_2bandit_b2.png","70","70","test","1","117","117","6","",""
"null","310557","pSARL_v2","pSARL_v2kfqty76y","628690801339eca9c44143cd","freq_resp","img/green_2bandit_b.png","70","70","test","","","","6","",""
"null","310730","pSARL_v2","pSARL_v2kfqty76y","628690801339eca9c44143cd","fixation","img/fixation.png","null","","test","","","","","",""
"483.19999980926514","311223","pSARL_v2","pSARL_v2kfqty76y","628690801339eca9c44143cd","freq","img/green_2bandit_b2.png","70","70","test","1","118","118","6","",""
"null","311558","pSARL_v2","pSARL_v2kfqty76y","628690801339eca9c44143cd","freq_resp","img/green_2bandit_b.png","70","70","test","","","","6","",""
"null","311730","pSARL_v2","pSARL_v2kfqty76y","628690801339eca9c44143cd","fixation","img/fixation.png","null","","test","","","","","",""
"285.10000014305115","312022","pSARL_v2","pSARL_v2kfqty76y","628690801339eca9c44143cd","freq","img/green_2bandit_b2.png","70","70","test","1","119","119","6","",""
"null","312545","pSARL_v2","pSARL_v2kfqty76y","628690801339eca9c44143cd","freq_resp","img/green_2bandit_b.png","70","70","test","","","","6","",""
"null","312705","pSARL_v2","pSARL_v2kfqty76y","628690801339eca9c44143cd","fixation","img/fixation.png","null","","test","","","","","",""
"232.20000004768372","312945","pSARL_v2","pSARL_v2kfqty76y","628690801339eca9c44143cd","freq","img/green_2bandit_b2.png","70","70","test","1","120","120","6","",""
"null","313522","pSARL_v2","pSARL_v2kfqty76y","628690801339eca9c44143cd","freq_resp","img/green_2bandit_b.png","70","70","test","","","","6","",""
"null","313694","pSARL_v2","pSARL_v2kfqty76y","628690801339eca9c44143cd","fixation","img/fixation.png","null","","test","","","","","",""
"237.20000004768372","313941","pSARL_v2","pSARL_v2kfqty76y","628690801339eca9c44143cd","freq","img/green_2bandit_b2.png","70","70","test","1","121","121","6","",""
"null","314513","pSARL_v2","pSARL_v2kfqty76y","628690801339eca9c44143cd","freq_resp","img/green_2bandit_b.png","70","70","test","","","","6","",""
"null","314683","pSARL_v2","pSARL_v2kfqty76y","628690801339eca9c44143cd","fixation","img/fixation.png","null","","test","","","","","",""
"211.30000019073486","314904","pSARL_v2","pSARL_v2kfqty76y","628690801339eca9c44143cd","freq","img/green_2bandit_b2.png","70","70","test","1","122","122","6","",""
"null","315507","pSARL_v2","pSARL_v2kfqty76y","628690801339eca9c44143cd","freq_resp","img/green_2bandit_b.png","70","70","test","","","","6","",""
"null","315679","pSARL_v2","pSARL_v2kfqty76y","628690801339eca9c44143cd","fixation","img/fixation.png","null","","test","","","","","",""
"169.29999995231628","315855","pSARL_v2","pSARL_v2kfqty76y","628690801339eca9c44143cd","infreq","img/orange_2bandit_b2.png","70","68","test","0","123","123","6","",""
"null","316492","pSARL_v2","pSARL_v2kfqty76y","628690801339eca9c44143cd","infreq_resp","img/orange_2bandit_b.png","70","68","test","","","","6","",""
"null","316650","pSARL_v2","pSARL_v2kfqty76y","628690801339eca9c44143cd","fixation","img/fixation.png","null","","test","","","","","",""
"441.90000009536743","317101","pSARL_v2","pSARL_v2kfqty76y","628690801339eca9c44143cd","freq","img/green_2bandit_b2.png","70","70","test","1","124","124","6","",""
"null","317479","pSARL_v2","pSARL_v2kfqty76y","628690801339eca9c44143cd","freq_resp","img/green_2bandit_b.png","70","70","test","","","","6","",""
"null","317651","pSARL_v2","pSARL_v2kfqty76y","628690801339eca9c44143cd","fixation","img/fixation.png","null","","test","","","","","",""
"434.5","318095","pSARL_v2","pSARL_v2kfqty76y","628690801339eca9c44143cd","freq","img/green_2bandit_b2.png","70","70","test","1","125","125","6","",""
"null","318476","pSARL_v2","pSARL_v2kfqty76y","628690801339eca9c44143cd","freq_resp","img/green_2bandit_b.png","70","70","test","","","","6","",""
"null","318644","pSARL_v2","pSARL_v2kfqty76y","628690801339eca9c44143cd","fixation","img/fixation.png","null","","test","","","","","",""
"294.09999990463257","318947","pSARL_v2","pSARL_v2kfqty76y","628690801339eca9c44143cd","freq","img/green_2bandit_b2.png","70","70","test","1","126","126","6","",""
"null","319468","pSARL_v2","pSARL_v2kfqty76y","628690801339eca9c44143cd","freq_resp","img/green_2bandit_b.png","70","70","test","","","","6","",""
"null","319640","pSARL_v2","pSARL_v2kfqty76y","628690801339eca9c44143cd","fixation","img/fixation.png","null","","test","","","","","",""
"207.90000009536743","319858","pSARL_v2","pSARL_v2kfqty76y","628690801339eca9c44143cd","freq","img/green_2bandit_b2.png","70","70","test","1","127","127","6","",""
"null","320466","pSARL_v2","pSARL_v2kfqty76y","628690801339eca9c44143cd","freq_resp","img/green_2bandit_b.png","70","70","test","","","","6","",""
"null","320639","pSARL_v2","pSARL_v2kfqty76y","628690801339eca9c44143cd","fixation","img/fixation.png","null","","test","","","","","",""
"216","320862","pSARL_v2","pSARL_v2kfqty76y","628690801339eca9c44143cd","freq","img/green_2bandit_b2.png","70","70","test","1","128","128","6","",""
"null","321464","pSARL_v2","pSARL_v2kfqty76y","628690801339eca9c44143cd","freq_resp","img/green_2bandit_b.png","70","70","test","","","","6","",""
"null","321637","pSARL_v2","pSARL_v2kfqty76y","628690801339eca9c44143cd","fixation","img/fixation.png","null","","test","","","","","",""
"422.69999980926514","322069","pSARL_v2","pSARL_v2kfqty76y","628690801339eca9c44143cd","reward","img/slot.png","74","","test","","","","","",""
"null","322843","pSARL_v2","pSARL_v2kfqty76y","628690801339eca9c44143cd","points","<div class=""verylowPoints""> -7 </div>","null","na","test","","","","6","-7","5"
"471.40000009536743","323326","pSARL_v2","pSARL_v2kfqty76y","628690801339eca9c44143cd","freq","img/green_2bandit_b2.png","70","70","test","1","129","129","7","",""
"null","323671","pSARL_v2","pSARL_v2kfqty76y","628690801339eca9c44143cd","freq_resp","img/green_2bandit_b.png","70","70","test","","","","7","",""
"null","323842","pSARL_v2","pSARL_v2kfqty76y","628690801339eca9c44143cd","fixation","img/fixation.png","null","","test","","","","","",""
"355.2000000476837","324206","pSARL_v2","pSARL_v2kfqty76y","628690801339eca9c44143cd","freq","img/green_2bandit_b2.png","70","70","test","1","130","130","7","",""
"null","324663","pSARL_v2","pSARL_v2kfqty76y","628690801339eca9c44143cd","freq_resp","img/green_2bandit_b.png","70","70","test","","","","7","",""
"null","324834","pSARL_v2","pSARL_v2kfqty76y","628690801339eca9c44143cd","fixation","img/fixation.png","null","","test","","","","","",""
"283.39999985694885","325125","pSARL_v2","pSARL_v2kfqty76y","628690801339eca9c44143cd","freq","img/green_2bandit_b2.png","70","70","test","1","131","131","7","",""
"null","325662","pSARL_v2","pSARL_v2kfqty76y","628690801339eca9c44143cd","freq_resp","img/green_2bandit_b.png","70","70","test","","","","7","",""
"null","325839","pSARL_v2","pSARL_v2kfqty76y","628690801339eca9c44143cd","fixation","img/fixation.png","null","","test","","","","","",""
"253.90000009536743","326104","pSARL_v2","pSARL_v2kfqty76y","628690801339eca9c44143cd","freq","img/green_2bandit_b2.png","70","70","test","1","132","132","7","",""
"null","326664","pSARL_v2","pSARL_v2kfqty76y","628690801339eca9c44143cd","freq_resp","img/green_2bandit_b.png","70","70","test","","","","7","",""
"null","326833","pSARL_v2","pSARL_v2kfqty76y","628690801339eca9c44143cd","fixation","img/fixation.png","null","","test","","","","","",""
"293.69999980926514","327135","pSARL_v2","pSARL_v2kfqty76y","628690801339eca9c44143cd","freq","img/green_2bandit_b2.png","70","70","test","1","133","133","7","",""
"null","327660","pSARL_v2","pSARL_v2kfqty76y","628690801339eca9c44143cd","freq_resp","img/green_2bandit_b.png","70","70","test","","","","7","",""
"null","327832","pSARL_v2","pSARL_v2kfqty76y","628690801339eca9c44143cd","fixation","img/fixation.png","null","","test","","","","","",""
"268.60000014305115","328113","pSARL_v2","pSARL_v2kfqty76y","628690801339eca9c44143cd","freq","img/green_2bandit_b2.png","70","70","test","1","134","134","7","",""
"null","328660","pSARL_v2","pSARL_v2kfqty76y","628690801339eca9c44143cd","freq_resp","img/green_2bandit_b.png","70","70","test","","","","7","",""
"null","328830","pSARL_v2","pSARL_v2kfqty76y","628690801339eca9c44143cd","fixation","img/fixation.png","null","","test","","","","","",""
"195.10000014305115","329034","pSARL_v2","pSARL_v2kfqty76y","628690801339eca9c44143cd","freq","img/green_2bandit_b2.png","70","70","test","1","135","135","7","",""
"null","329657","pSARL_v2","pSARL_v2kfqty76y","628690801339eca9c44143cd","freq_resp","img/green_2bandit_b.png","70","70","test","","","","7","",""
"null","329829","pSARL_v2","pSARL_v2kfqty76y","628690801339eca9c44143cd","fixation","img/fixation.png","null","","test","","","","","",""
"218.09999990463257","330056","pSARL_v2","pSARL_v2kfqty76y","628690801339eca9c44143cd","freq","img/green_2bandit_b2.png","70","70","test","1","136","136","7","",""
"null","330655","pSARL_v2","pSARL_v2kfqty76y","628690801339eca9c44143cd","freq_resp","img/green_2bandit_b.png","70","70","test","","","","7","",""
"null","330823","pSARL_v2","pSARL_v2kfqty76y","628690801339eca9c44143cd","fixation","img/fixation.png","null","","test","","","","","",""
"183","331015","pSARL_v2","pSARL_v2kfqty76y","628690801339eca9c44143cd","freq","img/green_2bandit_b2.png","70","70","test","1","137","137","7","",""
"null","331654","pSARL_v2","pSARL_v2kfqty76y","628690801339eca9c44143cd","freq_resp","img/green_2bandit_b.png","70","70","test","","","","7","",""
"null","331826","pSARL_v2","pSARL_v2kfqty76y","628690801339eca9c44143cd","fixation","img/fixation.png","null","","test","","","","","",""
"222.69999980926514","332059","pSARL_v2","pSARL_v2kfqty76y","628690801339eca9c44143cd","freq","img/green_2bandit_b2.png","70","70","test","1","138","138","7","",""
"null","332646","pSARL_v2","pSARL_v2kfqty76y","628690801339eca9c44143cd","freq_resp","img/green_2bandit_b.png","70","70","test","","","","7","",""
"null","332804","pSARL_v2","pSARL_v2kfqty76y","628690801339eca9c44143cd","fixation","img/fixation.png","null","","test","","","","","",""
"112.29999995231628","332927","pSARL_v2","pSARL_v2kfqty76y","628690801339eca9c44143cd","freq","img/green_2bandit_b2.png","70","70","test","1","139","139","7","",""
"null","333634","pSARL_v2","pSARL_v2kfqty76y","628690801339eca9c44143cd","freq_resp","img/green_2bandit_b.png","70","70","test","","","","7","",""
"null","333804","pSARL_v2","pSARL_v2kfqty76y","628690801339eca9c44143cd","fixation","img/fixation.png","null","","test","","","","","",""
"199.69999980926514","334010","pSARL_v2","pSARL_v2kfqty76y","628690801339eca9c44143cd","freq","img/green_2bandit_b2.png","70","70","test","1","140","140","7","",""
"null","334619","pSARL_v2","pSARL_v2kfqty76y","628690801339eca9c44143cd","freq_resp","img/green_2bandit_b.png","70","70","test","","","","7","",""
"null","334778","pSARL_v2","pSARL_v2kfqty76y","628690801339eca9c44143cd","fixation","img/fixation.png","null","","test","","","","","",""
"177.89999985694885","334965","pSARL_v2","pSARL_v2kfqty76y","628690801339eca9c44143cd","freq","img/green_2bandit_b2.png","70","70","test","1","141","141","7","",""
"null","335596","pSARL_v2","pSARL_v2kfqty76y","628690801339eca9c44143cd","freq_resp","img/green_2bandit_b.png","70","70","test","","","","7","",""
"null","335754","pSARL_v2","pSARL_v2kfqty76y","628690801339eca9c44143cd","fixation","img/fixation.png","null","","test","","","","","",""
"121.09999990463257","335885","pSARL_v2","pSARL_v2kfqty76y","628690801339eca9c44143cd","freq","img/green_2bandit_b2.png","70","70","test","1","142","142","7","",""
"null","336585","pSARL_v2","pSARL_v2kfqty76y","628690801339eca9c44143cd","freq_resp","img/green_2bandit_b.png","70","70","test","","","","7","",""
"null","336757","pSARL_v2","pSARL_v2kfqty76y","628690801339eca9c44143cd","fixation","img/fixation.png","null","","test","","","","","",""
"72.89999985694885","336836","pSARL_v2","pSARL_v2kfqty76y","628690801339eca9c44143cd","infreq","img/orange_2bandit_b2.png","70","68","test","0","143","143","7","",""
"null","337586","pSARL_v2","pSARL_v2kfqty76y","628690801339eca9c44143cd","infreq_resp","img/orange_2bandit_b.png","70","68","test","","","","7","",""
"null","337754","pSARL_v2","pSARL_v2kfqty76y","628690801339eca9c44143cd","fixation","img/fixation.png","null","","test","","","","","",""
"308.10000014305115","338071","pSARL_v2","pSARL_v2kfqty76y","628690801339eca9c44143cd","freq","img/green_2bandit_b2.png","70","70","test","1","144","144","7","",""
"null","338580","pSARL_v2","pSARL_v2kfqty76y","628690801339eca9c44143cd","freq_resp","img/green_2bandit_b.png","70","70","test","","","","7","",""
"null","338753","pSARL_v2","pSARL_v2kfqty76y","628690801339eca9c44143cd","fixation","img/fixation.png","null","","test","","","","","",""
"265.09999990463257","339028","pSARL_v2","pSARL_v2kfqty76y","628690801339eca9c44143cd","freq","img/green_2bandit_b2.png","70","70","test","1","145","145","7","",""
"null","339581","pSARL_v2","pSARL_v2kfqty76y","628690801339eca9c44143cd","freq_resp","img/green_2bandit_b.png","70","70","test","","","","7","",""
"null","339752","pSARL_v2","pSARL_v2kfqty76y","628690801339eca9c44143cd","fixation","img/fixation.png","null","","test","","","","","",""
"227.70000004768372","339990","pSARL_v2","pSARL_v2kfqty76y","628690801339eca9c44143cd","freq","img/green_2bandit_b2.png","70","70","test","1","146","146","7","",""
"null","340583","pSARL_v2","pSARL_v2kfqty76y","628690801339eca9c44143cd","freq_resp","img/green_2bandit_b.png","70","70","test","","","","7","",""
"null","340754","pSARL_v2","pSARL_v2kfqty76y","628690801339eca9c44143cd","fixation","img/fixation.png","null","","test","","","","","",""
"93.19999980926514","340853","pSARL_v2","pSARL_v2kfqty76y","628690801339eca9c44143cd","freq","img/green_2bandit_b2.png","70","70","test","1","147","147","7","",""
"null","341581","pSARL_v2","pSARL_v2kfqty76y","628690801339eca9c44143cd","freq_resp","img/green_2bandit_b.png","70","70","test","","","","7","",""
"null","341753","pSARL_v2","pSARL_v2kfqty76y","628690801339eca9c44143cd","fixation","img/fixation.png","null","","test","","","","","",""
"171.79999995231628","341934","pSARL_v2","pSARL_v2kfqty76y","628690801339eca9c44143cd","freq","img/green_2bandit_b2.png","70","70","test","1","148","148","7","",""
"null","342583","pSARL_v2","pSARL_v2kfqty76y","628690801339eca9c44143cd","freq_resp","img/green_2bandit_b.png","70","70","test","","","","7","",""
"null","342753","pSARL_v2","pSARL_v2kfqty76y","628690801339eca9c44143cd","fixation","img/fixation.png","null","","test","","","","","",""
"206.40000009536743","342969","pSARL_v2","pSARL_v2kfqty76y","628690801339eca9c44143cd","infreq","img/orange_2bandit_b2.png","70","68","test","0","149","149","7","",""
"null","343580","pSARL_v2","pSARL_v2kfqty76y","628690801339eca9c44143cd","infreq_resp","img/orange_2bandit_b.png","70","68","test","","","","7","",""
"null","343751","pSARL_v2","pSARL_v2kfqty76y","628690801339eca9c44143cd","fixation","img/fixation.png","null","","test","","","","","",""
"409.90000009536743","344168","pSARL_v2","pSARL_v2kfqty76y","628690801339eca9c44143cd","freq","img/green_2bandit_b2.png","70","70","test","1","150","150","7","",""
"null","344576","pSARL_v2","pSARL_v2kfqty76y","628690801339eca9c44143cd","freq_resp","img/green_2bandit_b.png","70","70","test","","","","7","",""
"null","344740","pSARL_v2","pSARL_v2kfqty76y","628690801339eca9c44143cd","fixation","img/fixation.png","null","","test","","","","","",""
"326.39999985694885","345073","pSARL_v2","pSARL_v2kfqty76y","628690801339eca9c44143cd","freq","img/green_2bandit_b2.png","70","70","test","1","151","151","7","",""
"null","345568","pSARL_v2","pSARL_v2kfqty76y","628690801339eca9c44143cd","freq_resp","img/green_2bandit_b.png","70","70","test","","","","7","",""
"null","345741","pSARL_v2","pSARL_v2kfqty76y","628690801339eca9c44143cd","fixation","img/fixation.png","null","","test","","","","","",""
"246.20000004768372","345995","pSARL_v2","pSARL_v2kfqty76y","628690801339eca9c44143cd","freq","img/green_2bandit_b2.png","70","70","test","1","152","152","7","",""
"null","346563","pSARL_v2","pSARL_v2kfqty76y","628690801339eca9c44143cd","freq_resp","img/green_2bandit_b.png","70","70","test","","","","7","",""
"null","346728","pSARL_v2","pSARL_v2kfqty76y","628690801339eca9c44143cd","fixation","img/fixation.png","null","","test","","","","","",""
"221.40000009536743","346957","pSARL_v2","pSARL_v2kfqty76y","628690801339eca9c44143cd","freq","img/green_2bandit_b2.png","70","70","test","1","153","153","7","",""
"null","347556","pSARL_v2","pSARL_v2kfqty76y","628690801339eca9c44143cd","freq_resp","img/green_2bandit_b.png","70","70","test","","","","7","",""
"null","347728","pSARL_v2","pSARL_v2kfqty76y","628690801339eca9c44143cd","fixation","img/fixation.png","null","","test","","","","","",""
"69.59999990463257","347804","pSARL_v2","pSARL_v2kfqty76y","628690801339eca9c44143cd","freq","img/green_2bandit_b2.png","70","70","test","1","154","154","7","",""
"null","348557","pSARL_v2","pSARL_v2kfqty76y","628690801339eca9c44143cd","freq_resp","img/green_2bandit_b.png","70","70","test","","","","7","",""
"null","348727","pSARL_v2","pSARL_v2kfqty76y","628690801339eca9c44143cd","fixation","img/fixation.png","null","","test","","","","","",""
"489","349223","pSARL_v2","pSARL_v2kfqty76y","628690801339eca9c44143cd","reward","img/slot.png","74","","test","","","","","",""
"null","349989","pSARL_v2","pSARL_v2kfqty76y","628690801339eca9c44143cd","points","<div class=""verylowPoints""> -6 </div>","null","na","test","","","","7","-6","6"
"430.89999985694885","350428","pSARL_v2","pSARL_v2kfqty76y","628690801339eca9c44143cd","freq","img/green_2bandit_b2.png","70","70","test","1","155","155","8","",""
"null","350811","pSARL_v2","pSARL_v2kfqty76y","628690801339eca9c44143cd","freq_resp","img/green_2bandit_b.png","70","70","test","","","","8","",""
"null","350970","pSARL_v2","pSARL_v2kfqty76y","628690801339eca9c44143cd","fixation","img/fixation.png","null","","test","","","","","",""
"279.2000000476837","351257","pSARL_v2","pSARL_v2kfqty76y","628690801339eca9c44143cd","freq","img/green_2bandit_b2.png","70","70","test","1","156","156","8","",""
"null","351798","pSARL_v2","pSARL_v2kfqty76y","628690801339eca9c44143cd","freq_resp","img/green_2bandit_b.png","70","70","test","","","","8","",""
"null","351959","pSARL_v2","pSARL_v2kfqty76y","628690801339eca9c44143cd","fixation","img/fixation.png","null","","test","","","","","",""
"408.60000014305115","352375","pSARL_v2","pSARL_v2kfqty76y","628690801339eca9c44143cd","freq","img/green_2bandit_b2.png","70","70","test","1","157","157","8","",""
"null","352780","pSARL_v2","pSARL_v2kfqty76y","628690801339eca9c44143cd","freq_resp","img/green_2bandit_b.png","70","70","test","","","","8","",""
"null","352949","pSARL_v2","pSARL_v2kfqty76y","628690801339eca9c44143cd","fixation","img/fixation.png","null","","test","","","","","",""
"307.40000009536743","353262","pSARL_v2","pSARL_v2kfqty76y","628690801339eca9c44143cd","freq","img/green_2bandit_b2.png","70","70","test","1","158","158","8","",""
"null","353760","pSARL_v2","pSARL_v2kfqty76y","628690801339eca9c44143cd","freq_resp","img/green_2bandit_b.png","70","70","test","","","","8","",""
"null","353934","pSARL_v2","pSARL_v2kfqty76y","628690801339eca9c44143cd","fixation","img/fixation.png","null","","test","","","","","",""
"289.40000009536743","354230","pSARL_v2","pSARL_v2kfqty76y","628690801339eca9c44143cd","freq","img/green_2bandit_b2.png","70","70","test","1","159","159","8","",""
"null","354760","pSARL_v2","pSARL_v2kfqty76y","628690801339eca9c44143cd","freq_resp","img/green_2bandit_b.png","70","70","test","","","","8","",""
"null","354931","pSARL_v2","pSARL_v2kfqty76y","628690801339eca9c44143cd","fixation","img/fixation.png","null","","test","","","","","",""
"470","355407","pSARL_v2","pSARL_v2kfqty76y","628690801339eca9c44143cd","infreq","img/orange_2bandit_b2.png","68","68","test","1","160","160","8","",""
"null","355750","pSARL_v2","pSARL_v2kfqty76y","628690801339eca9c44143cd","infreq_resp","img/orange_2bandit_b.png","68","68","test","","","","8","",""
"null","355920","pSARL_v2","pSARL_v2kfqty76y","628690801339eca9c44143cd","fixation","img/fixation.png","null","","test","","","","","",""
"445.60000014305115","356372","pSARL_v2","pSARL_v2kfqty76y","628690801339eca9c44143cd","freq","img/green_2bandit_b2.png","70","70","test","1","161","161","8","",""
"null","356743","pSARL_v2","pSARL_v2kfqty76y","628690801339eca9c44143cd","freq_resp","img/green_2bandit_b.png","70","70","test","","","","8","",""
"null","356914","pSARL_v2","pSARL_v2kfqty76y","628690801339eca9c44143cd","fixation","img/fixation.png","null","","test","","","","","",""
"298.39999985694885","357221","pSARL_v2","pSARL_v2kfqty76y","628690801339eca9c44143cd","freq","img/green_2bandit_b2.png","70","70","test","1","162","162","8","",""
"null","357739","pSARL_v2","pSARL_v2kfqty76y","628690801339eca9c44143cd","freq_resp","img/green_2bandit_b.png","70","70","test","","","","8","",""
"null","357908","pSARL_v2","pSARL_v2kfqty76y","628690801339eca9c44143cd","fixation","img/fixation.png","null","","test","","","","","",""
"573.7000000476837","358487","pSARL_v2","pSARL_v2kfqty76y","628690801339eca9c44143cd","freq","img/green_2bandit_b2.png","70","70","test","1","163","163","8","",""
"null","358720","pSARL_v2","pSARL_v2kfqty76y","628690801339eca9c44143cd","freq_resp","img/green_2bandit_b.png","70","70","test","","","","8","",""
"null","358891","pSARL_v2","pSARL_v2kfqty76y","628690801339eca9c44143cd","fixation","img/fixation.png","null","","test","","","","","",""
"375.60000014305115","359274","pSARL_v2","pSARL_v2kfqty76y","628690801339eca9c44143cd","freq","img/green_2bandit_b2.png","70","70","test","1","164","164","8","",""
"null","359711","pSARL_v2","pSARL_v2kfqty76y","628690801339eca9c44143cd","freq_resp","img/green_2bandit_b.png","70","70","test","","","","8","",""
"null","359882","pSARL_v2","pSARL_v2kfqty76y","628690801339eca9c44143cd","fixation","img/fixation.png","null","","test","","","","","",""
"293.7000000476837","360182","pSARL_v2","pSARL_v2kfqty76y","628690801339eca9c44143cd","freq","img/green_2bandit_b2.png","70","70","test","1","165","165","8","",""
"null","360697","pSARL_v2","pSARL_v2kfqty76y","628690801339eca9c44143cd","freq_resp","img/green_2bandit_b.png","70","70","test","","","","8","",""
"null","360867","pSARL_v2","pSARL_v2kfqty76y","628690801339eca9c44143cd","fixation","img/fixation.png","null","","test","","","","","",""
"240.59999990463257","361116","pSARL_v2","pSARL_v2kfqty76y","628690801339eca9c44143cd","freq","img/green_2bandit_b2.png","70","70","test","1","166","166","8","",""
"null","361695","pSARL_v2","pSARL_v2kfqty76y","628690801339eca9c44143cd","freq_resp","img/green_2bandit_b.png","70","70","test","","","","8","",""
"null","361863","pSARL_v2","pSARL_v2kfqty76y","628690801339eca9c44143cd","fixation","img/fixation.png","null","","test","","","","","",""
"304.39999985694885","362174","pSARL_v2","pSARL_v2kfqty76y","628690801339eca9c44143cd","freq","img/green_2bandit_b2.png","70","70","test","1","167","167","8","",""
"null","362691","pSARL_v2","pSARL_v2kfqty76y","628690801339eca9c44143cd","freq_resp","img/green_2bandit_b.png","70","70","test","","","","8","",""
"null","362848","pSARL_v2","pSARL_v2kfqty76y","628690801339eca9c44143cd","fixation","img/fixation.png","null","","test","","","","","",""
"297.7000000476837","363152","pSARL_v2","pSARL_v2kfqty76y","628690801339eca9c44143cd","freq","img/green_2bandit_b2.png","70","70","test","1","168","168","8","",""
"null","363673","pSARL_v2","pSARL_v2kfqty76y","628690801339eca9c44143cd","freq_resp","img/green_2bandit_b.png","70","70","test","","","","8","",""
"null","363843","pSARL_v2","pSARL_v2kfqty76y","628690801339eca9c44143cd","fixation","img/fixation.png","null","","test","","","","","",""
"256.2999999523163","364106","pSARL_v2","pSARL_v2kfqty76y","628690801339eca9c44143cd","freq","img/green_2bandit_b2.png","70","70","test","1","169","169","8","",""
"null","364668","pSARL_v2","pSARL_v2kfqty76y","628690801339eca9c44143cd","freq_resp","img/green_2bandit_b.png","70","70","test","","","","8","",""
"null","364825","pSARL_v2","pSARL_v2kfqty76y","628690801339eca9c44143cd","fixation","img/fixation.png","null","","test","","","","","",""
"245.10000014305115","365077","pSARL_v2","pSARL_v2kfqty76y","628690801339eca9c44143cd","freq","img/green_2bandit_b2.png","70","70","test","1","170","170","8","",""
"null","365654","pSARL_v2","pSARL_v2kfqty76y","628690801339eca9c44143cd","freq_resp","img/green_2bandit_b.png","70","70","test","","","","8","",""
"null","365825","pSARL_v2","pSARL_v2kfqty76y","628690801339eca9c44143cd","fixation","img/fixation.png","null","","test","","","","","",""
"236.09999990463257","366068","pSARL_v2","pSARL_v2kfqty76y","628690801339eca9c44143cd","infreq","img/orange_2bandit_b2.png","70","68","test","0","171","171","8","",""
"null","366649","pSARL_v2","pSARL_v2kfqty76y","628690801339eca9c44143cd","infreq_resp","img/orange_2bandit_b.png","70","68","test","","","","8","",""
"null","366821","pSARL_v2","pSARL_v2kfqty76y","628690801339eca9c44143cd","fixation","img/fixation.png","null","","test","","","","","",""
"520.1000001430511","367352","pSARL_v2","pSARL_v2kfqty76y","628690801339eca9c44143cd","freq","img/green_2bandit_b2.png","70","70","test","1","172","172","8","",""
"null","367648","pSARL_v2","pSARL_v2kfqty76y","628690801339eca9c44143cd","freq_resp","img/green_2bandit_b.png","70","70","test","","","","8","",""
"null","367816","pSARL_v2","pSARL_v2kfqty76y","628690801339eca9c44143cd","fixation","img/fixation.png","null","","test","","","","","",""
"348.80000019073486","368173","pSARL_v2","pSARL_v2kfqty76y","628690801339eca9c44143cd","freq","img/green_2bandit_b2.png","70","70","test","1","173","173","8","",""
"null","368645","pSARL_v2","pSARL_v2kfqty76y","628690801339eca9c44143cd","freq_resp","img/green_2bandit_b.png","70","70","test","","","","8","",""
"null","368816","pSARL_v2","pSARL_v2kfqty76y","628690801339eca9c44143cd","fixation","img/fixation.png","null","","test","","","","","",""
"300.2999999523163","369125","pSARL_v2","pSARL_v2kfqty76y","628690801339eca9c44143cd","freq","img/green_2bandit_b2.png","70","70","test","1","174","174","8","",""
"null","369641","pSARL_v2","pSARL_v2kfqty76y","628690801339eca9c44143cd","freq_resp","img/green_2bandit_b.png","70","70","test","","","","8","",""
"null","369811","pSARL_v2","pSARL_v2kfqty76y","628690801339eca9c44143cd","fixation","img/fixation.png","null","","test","","","","","",""
"346.09999990463257","370166","pSARL_v2","pSARL_v2kfqty76y","628690801339eca9c44143cd","freq","img/green_2bandit_b2.png","70","70","test","1","175","175","8","",""
"null","370635","pSARL_v2","pSARL_v2kfqty76y","628690801339eca9c44143cd","freq_resp","img/green_2bandit_b.png","70","70","test","","","","8","",""
"null","370796","pSARL_v2","pSARL_v2kfqty76y","628690801339eca9c44143cd","fixation","img/fixation.png","null","","test","","","","","",""
"300.80000019073486","371104","pSARL_v2","pSARL_v2kfqty76y","628690801339eca9c44143cd","freq","img/green_2bandit_b2.png","70","70","test","1","176","176","8","",""
"null","371612","pSARL_v2","pSARL_v2kfqty76y","628690801339eca9c44143cd","freq_resp","img/green_2bandit_b.png","70","70","test","","","","8","",""
"null","371768","pSARL_v2","pSARL_v2kfqty76y","628690801339eca9c44143cd","fixation","img/fixation.png","null","","test","","","","","",""
"508.30000019073486","372282","pSARL_v2","pSARL_v2kfqty76y","628690801339eca9c44143cd","reward","img/slot.png","74","","test","","","","","",""
"null","373040","pSARL_v2","pSARL_v2kfqty76y","628690801339eca9c44143cd","points","<div class=""verylowPoints""> -4 </div>","null","na","test","","","","8","-4","7"
"314","373362","pSARL_v2","pSARL_v2kfqty76y","628690801339eca9c44143cd","freq","img/green_2bandit_b2.png","70","70","test","1","177","177","9","",""
"null","373869","pSARL_v2","pSARL_v2kfqty76y","628690801339eca9c44143cd","freq_resp","img/green_2bandit_b.png","70","70","test","","","","9","",""
"null","374040","pSARL_v2","pSARL_v2kfqty76y","628690801339eca9c44143cd","fixation","img/fixation.png","null","","test","","","","","",""
"440.59999990463257","374488","pSARL_v2","pSARL_v2kfqty76y","628690801339eca9c44143cd","infreq","img/orange_2bandit_b2.png","68","68","test","1","178","178","9","",""
"null","374868","pSARL_v2","pSARL_v2kfqty76y","628690801339eca9c44143cd","infreq_resp","img/orange_2bandit_b.png","68","68","test","","","","9","",""
"null","375039","pSARL_v2","pSARL_v2kfqty76y","628690801339eca9c44143cd","fixation","img/fixation.png","null","","test","","","","","",""
"420.7000000476837","375466","pSARL_v2","pSARL_v2kfqty76y","628690801339eca9c44143cd","freq","img/green_2bandit_b2.png","70","70","test","1","179","179","9","",""
"null","375866","pSARL_v2","pSARL_v2kfqty76y","628690801339eca9c44143cd","freq_resp","img/green_2bandit_b.png","70","70","test","","","","9","",""
"null","376024","pSARL_v2","pSARL_v2kfqty76y","628690801339eca9c44143cd","fixation","img/fixation.png","null","","test","","","","","",""
"280.39999985694885","376311","pSARL_v2","pSARL_v2kfqty76y","628690801339eca9c44143cd","freq","img/green_2bandit_b2.png","70","70","test","1","180","180","9","",""
"null","376849","pSARL_v2","pSARL_v2kfqty76y","628690801339eca9c44143cd","freq_resp","img/green_2bandit_b.png","70","70","test","","","","9","",""
"null","377021","pSARL_v2","pSARL_v2kfqty76y","628690801339eca9c44143cd","fixation","img/fixation.png","null","","test","","","","","",""
"231.20000004768372","377261","pSARL_v2","pSARL_v2kfqty76y","628690801339eca9c44143cd","freq","img/green_2bandit_b2.png","70","70","test","1","181","181","9","",""
"null","377838","pSARL_v2","pSARL_v2kfqty76y","628690801339eca9c44143cd","freq_resp","img/green_2bandit_b.png","70","70","test","","","","9","",""
"null","378007","pSARL_v2","pSARL_v2kfqty76y","628690801339eca9c44143cd","fixation","img/fixation.png","null","","test","","","","","",""
"102.59999990463257","378119","pSARL_v2","pSARL_v2kfqty76y","628690801339eca9c44143cd","freq","img/green_2bandit_b2.png","70","70","test","1","182","182","9","",""
"null","378833","pSARL_v2","pSARL_v2kfqty76y","628690801339eca9c44143cd","freq_resp","img/green_2bandit_b.png","70","70","test","","","","9","",""
"null","379001","pSARL_v2","pSARL_v2kfqty76y","628690801339eca9c44143cd","fixation","img/fixation.png","null","","test","","","","","",""
"216.20000004768372","379224","pSARL_v2","pSARL_v2kfqty76y","628690801339eca9c44143cd","infreq","img/orange_2bandit_b2.png","70","68","test","0","183","183","9","",""
"null","379829","pSARL_v2","pSARL_v2kfqty76y","628690801339eca9c44143cd","infreq_resp","img/orange_2bandit_b.png","70","68","test","","","","9","",""
"null","379986","pSARL_v2","pSARL_v2kfqty76y","628690801339eca9c44143cd","fixation","img/fixation.png","null","","test","","","","","",""
"286.09999990463257","380280","pSARL_v2","pSARL_v2kfqty76y","628690801339eca9c44143cd","freq","img/green_2bandit_b2.png","70","70","test","1","184","184","9","",""
"null","380815","pSARL_v2","pSARL_v2kfqty76y","628690801339eca9c44143cd","freq_resp","img/green_2bandit_b.png","70","70","test","","","","9","",""
"null","380985","pSARL_v2","pSARL_v2kfqty76y","628690801339eca9c44143cd","fixation","img/fixation.png","null","","test","","","","","",""
"483.5","381476","pSARL_v2","pSARL_v2kfqty76y","628690801339eca9c44143cd","freq","img/green_2bandit_b2.png","70","70","test","1","185","185","9","",""
"null","381813","pSARL_v2","pSARL_v2kfqty76y","628690801339eca9c44143cd","freq_resp","img/green_2bandit_b.png","70","70","test","","","","9","",""
"null","381981","pSARL_v2","pSARL_v2kfqty76y","628690801339eca9c44143cd","fixation","img/fixation.png","null","","test","","","","","",""
"312.30000019073486","382299","pSARL_v2","pSARL_v2kfqty76y","628690801339eca9c44143cd","freq","img/green_2bandit_b2.png","68","70","test","0","186","186","9","",""
"null","382807","pSARL_v2","pSARL_v2kfqty76y","628690801339eca9c44143cd","freq_resp","img/green_2bandit_b.png","68","70","test","","","","9","",""
"null","382979","pSARL_v2","pSARL_v2kfqty76y","628690801339eca9c44143cd","fixation","img/fixation.png","null","","test","","","","","",""
"300.5","383287","pSARL_v2","pSARL_v2kfqty76y","628690801339eca9c44143cd","freq","img/green_2bandit_b2.png","70","70","test","1","187","187","9","",""
"null","383806","pSARL_v2","pSARL_v2kfqty76y","628690801339eca9c44143cd","freq_resp","img/green_2bandit_b.png","70","70","test","","","","9","",""
"null","383976","pSARL_v2","pSARL_v2kfqty76y","628690801339eca9c44143cd","fixation","img/fixation.png","null","","test","","","","","",""
"234.40000009536743","384217","pSARL_v2","pSARL_v2kfqty76y","628690801339eca9c44143cd","freq","img/green_2bandit_b2.png","70","70","test","1","188","188","9","",""
"null","384803","pSARL_v2","pSARL_v2kfqty76y","628690801339eca9c44143cd","freq_resp","img/green_2bandit_b.png","70","70","test","","","","9","",""
"null","384973","pSARL_v2","pSARL_v2kfqty76y","628690801339eca9c44143cd","fixation","img/fixation.png","null","","test","","","","","",""
"211","385190","pSARL_v2","pSARL_v2kfqty76y","628690801339eca9c44143cd","freq","img/green_2bandit_b2.png","70","70","test","1","189","189","9","",""
"null","385797","pSARL_v2","pSARL_v2kfqty76y","628690801339eca9c44143cd","freq_resp","img/green_2bandit_b.png","70","70","test","","","","9","",""
"null","385969","pSARL_v2","pSARL_v2kfqty76y","628690801339eca9c44143cd","fixation","img/fixation.png","null","","test","","","","","",""
"293.2999999523163","386270","pSARL_v2","pSARL_v2kfqty76y","628690801339eca9c44143cd","freq","img/green_2bandit_b2.png","70","70","test","1","190","190","9","",""
"null","386793","pSARL_v2","pSARL_v2kfqty76y","628690801339eca9c44143cd","freq_resp","img/green_2bandit_b.png","70","70","test","","","","9","",""
"null","386949","pSARL_v2","pSARL_v2kfqty76y","628690801339eca9c44143cd","fixation","img/fixation.png","null","","test","","","","","",""
"270.5","387226","pSARL_v2","pSARL_v2kfqty76y","628690801339eca9c44143cd","freq","img/green_2bandit_b2.png","70","70","test","1","191","191","9","",""
"null","387767","pSARL_v2","pSARL_v2kfqty76y","628690801339eca9c44143cd","freq_resp","img/green_2bandit_b.png","70","70","test","","","","9","",""
"null","387925","pSARL_v2","pSARL_v2kfqty76y","628690801339eca9c44143cd","fixation","img/fixation.png","null","","test","","","","","",""
"321.10000014305115","388251","pSARL_v2","pSARL_v2kfqty76y","628690801339eca9c44143cd","freq","img/green_2bandit_b2.png","70","70","test","1","192","192","9","",""
"null","388735","pSARL_v2","pSARL_v2kfqty76y","628690801339eca9c44143cd","freq_resp","img/green_2bandit_b.png","70","70","test","","","","9","",""
"null","388891","pSARL_v2","pSARL_v2kfqty76y","628690801339eca9c44143cd","fixation","img/fixation.png","null","","test","","","","","",""
"329.59999990463257","389226","pSARL_v2","pSARL_v2kfqty76y","628690801339eca9c44143cd","freq","img/green_2bandit_b2.png","70","70","test","1","193","193","9","",""
"null","389702","pSARL_v2","pSARL_v2kfqty76y","628690801339eca9c44143cd","freq_resp","img/green_2bandit_b.png","70","70","test","","","","9","",""
"null","389860","pSARL_v2","pSARL_v2kfqty76y","628690801339eca9c44143cd","fixation","img/fixation.png","null","","test","","","","","",""
"296","390162","pSARL_v2","pSARL_v2kfqty76y","628690801339eca9c44143cd","freq","img/green_2bandit_b2.png","70","70","test","1","194","194","9","",""
"null","390682","pSARL_v2","pSARL_v2kfqty76y","628690801339eca9c44143cd","freq_resp","img/green_2bandit_b.png","70","70","test","","","","9","",""
"null","390839","pSARL_v2","pSARL_v2kfqty76y","628690801339eca9c44143cd","fixation","img/fixation.png","null","","test","","","","","",""
"313.7000000476837","391159","pSARL_v2","pSARL_v2kfqty76y","628690801339eca9c44143cd","freq","img/green_2bandit_b2.png","70","70","test","1","195","195","9","",""
"null","391662","pSARL_v2","pSARL_v2kfqty76y","628690801339eca9c44143cd","freq_resp","img/green_2bandit_b.png","70","70","test","","","","9","",""
"null","391820","pSARL_v2","pSARL_v2kfqty76y","628690801339eca9c44143cd","fixation","img/fixation.png","null","","test","","","","","",""
"394.2000000476837","392220","pSARL_v2","pSARL_v2kfqty76y","628690801339eca9c44143cd","freq","img/green_2bandit_b2.png","70","70","test","1","196","196","9","",""
"null","392646","pSARL_v2","pSARL_v2kfqty76y","628690801339eca9c44143cd","freq_resp","img/green_2bandit_b.png","70","70","test","","","","9","",""
"null","392817","pSARL_v2","pSARL_v2kfqty76y","628690801339eca9c44143cd","fixation","img/fixation.png","null","","test","","","","","",""
"270.7000000476837","393094","pSARL_v2","pSARL_v2kfqty76y","628690801339eca9c44143cd","freq","img/green_2bandit_b2.png","70","70","test","1","197","197","9","",""
"null","393630","pSARL_v2","pSARL_v2kfqty76y","628690801339eca9c44143cd","freq_resp","img/green_2bandit_b.png","70","70","test","","","","9","",""
"null","393787","pSARL_v2","pSARL_v2kfqty76y","628690801339eca9c44143cd","fixation","img/fixation.png","null","","test","","","","","",""
"207.90000009536743","394001","pSARL_v2","pSARL_v2kfqty76y","628690801339eca9c44143cd","freq","img/green_2bandit_b2.png","70","70","test","1","198","198","9","",""
"null","394604","pSARL_v2","pSARL_v2kfqty76y","628690801339eca9c44143cd","freq_resp","img/green_2bandit_b.png","70","70","test","","","","9","",""
"null","394772","pSARL_v2","pSARL_v2kfqty76y","628690801339eca9c44143cd","fixation","img/fixation.png","null","","test","","","","","",""
"362.89999985694885","395140","pSARL_v2","pSARL_v2kfqty76y","628690801339eca9c44143cd","freq","img/green_2bandit_b2.png","70","70","test","1","199","199","9","",""
"null","395599","pSARL_v2","pSARL_v2kfqty76y","628690801339eca9c44143cd","freq_resp","img/green_2bandit_b.png","70","70","test","","","","9","",""
"null","395770","pSARL_v2","pSARL_v2kfqty76y","628690801339eca9c44143cd","fixation","img/fixation.png","null","","test","","","","","",""
"443.09999990463257","396220","pSARL_v2","pSARL_v2kfqty76y","628690801339eca9c44143cd","infreq","img/orange_2bandit_b2.png","68","68","test","1","200","200","9","",""
"null","396599","pSARL_v2","pSARL_v2kfqty76y","628690801339eca9c44143cd","infreq_resp","img/orange_2bandit_b.png","68","68","test","","","","9","",""
"null","396769","pSARL_v2","pSARL_v2kfqty76y","628690801339eca9c44143cd","fixation","img/fixation.png","null","","test","","","","","",""
"478.90000009536743","397254","pSARL_v2","pSARL_v2kfqty76y","628690801339eca9c44143cd","freq","img/green_2bandit_b2.png","70","70","test","1","201","201","9","",""
"null","397592","pSARL_v2","pSARL_v2kfqty76y","628690801339eca9c44143cd","freq_resp","img/green_2bandit_b.png","70","70","test","","","","9","",""
"null","397764","pSARL_v2","pSARL_v2kfqty76y","628690801339eca9c44143cd","fixation","img/fixation.png","null","","test","","","","","",""
"345.10000014305115","398116","pSARL_v2","pSARL_v2kfqty76y","628690801339eca9c44143cd","freq","img/green_2bandit_b2.png","70","70","test","1","202","202","9","",""
"null","398591","pSARL_v2","pSARL_v2kfqty76y","628690801339eca9c44143cd","freq_resp","img/green_2bandit_b.png","70","70","test","","","","9","",""
"null","398762","pSARL_v2","pSARL_v2kfqty76y","628690801339eca9c44143cd","fixation","img/fixation.png","null","","test","","","","","",""
"270.39999985694885","399039","pSARL_v2","pSARL_v2kfqty76y","628690801339eca9c44143cd","freq","img/green_2bandit_b2.png","70","70","test","1","203","203","9","",""
"null","399591","pSARL_v2","pSARL_v2kfqty76y","628690801339eca9c44143cd","freq_resp","img/green_2bandit_b.png","70","70","test","","","","9","",""
"null","399762","pSARL_v2","pSARL_v2kfqty76y","628690801339eca9c44143cd","fixation","img/fixation.png","null","","test","","","","","",""
"446.80000019073486","400214","pSARL_v2","pSARL_v2kfqty76y","628690801339eca9c44143cd","reward","img/slot.png","74","","test","","","","","",""
"null","400978","pSARL_v2","pSARL_v2kfqty76y","628690801339eca9c44143cd","points","<div class=""verylowPoints""> -3 </div>","null","na","test","","","","9","-3","8"
"363.2000000476837","401347","pSARL_v2","pSARL_v2kfqty76y","628690801339eca9c44143cd","freq","img/green_2bandit_b2.png","70","70","test","1","204","204","10","",""
"null","401794","pSARL_v2","pSARL_v2kfqty76y","628690801339eca9c44143cd","freq_resp","img/green_2bandit_b.png","70","70","test","","","","10","",""
"null","401965","pSARL_v2","pSARL_v2kfqty76y","628690801339eca9c44143cd","fixation","img/fixation.png","null","","test","","","","","",""
"264.60000014305115","402236","pSARL_v2","pSARL_v2kfqty76y","628690801339eca9c44143cd","freq","img/green_2bandit_b2.png","70","70","test","1","205","205","10","",""
