"rt","time_elapsed","expId","subject","prolificID","trialType","stimulus","key_press","corrresp","phase","corr","trialNum","attentionRunNum","blockNum","points","rlNum"
"16898","16906","pSARL_v2","pSARL_v2gz1q8v0h","63ea5b93d1c6d38e1f57dcfa","","","","","","","","","","",""
"","18994","pSARL_v2","pSARL_v2gz1q8v0h","63ea5b93d1c6d38e1f57dcfa","fullscreen","","","","","","","","","",""
"28615","47612","pSARL_v2","pSARL_v2gz1q8v0h","63ea5b93d1c6d38e1f57dcfa","","","","","","","","","","",""
"null","48422","pSARL_v2","pSARL_v2gz1q8v0h","63ea5b93d1c6d38e1f57dcfa","freqPrac","img/orange_2bandit_a2.png","null","70","prac","0","","","","",""
"null","49476","pSARL_v2","pSARL_v2gz1q8v0h","63ea5b93d1c6d38e1f57dcfa","feedback","img/tooSlow.png","null","na","prac","","","","","",""
"null","49641","pSARL_v2","pSARL_v2gz1q8v0h","63ea5b93d1c6d38e1f57dcfa","fixation","img/fixation.png","null","","prac","","","","","",""
"385","50029","pSARL_v2","pSARL_v2gz1q8v0h","63ea5b93d1c6d38e1f57dcfa","infreqPrac","img/green_2bandit_a2.png","68","68","prac","1","","","","",""
"385","50461","pSARL_v2","pSARL_v2gz1q8v0h","63ea5b93d1c6d38e1f57dcfa","infreqPrac_resp","img/green_2bandit_a.png","68","68","prac","","","","","",""
"null","50621","pSARL_v2","pSARL_v2gz1q8v0h","63ea5b93d1c6d38e1f57dcfa","fixation","img/fixation.png","null","","prac","","","","","",""
"407","51031","pSARL_v2","pSARL_v2gz1q8v0h","63ea5b93d1c6d38e1f57dcfa","freqPrac","img/orange_2bandit_a2.png","70","70","prac","1","","","","",""
"407","51441","pSARL_v2","pSARL_v2gz1q8v0h","63ea5b93d1c6d38e1f57dcfa","freqPrac_resp","img/orange_2bandit_a.png","70","70","prac","","","","","",""
"null","51599","pSARL_v2","pSARL_v2gz1q8v0h","63ea5b93d1c6d38e1f57dcfa","fixation","img/fixation.png","null","","prac","","","","","",""
"591","52194","pSARL_v2","pSARL_v2gz1q8v0h","63ea5b93d1c6d38e1f57dcfa","infreqPrac","img/green_2bandit_a2.png","68","68","prac","1","","","","",""
"591","52407","pSARL_v2","pSARL_v2gz1q8v0h","63ea5b93d1c6d38e1f57dcfa","infreqPrac_resp","img/green_2bandit_a.png","68","68","prac","","","","","",""
"null","52575","pSARL_v2","pSARL_v2gz1q8v0h","63ea5b93d1c6d38e1f57dcfa","fixation","img/fixation.png","null","","prac","","","","","",""
"434","53011","pSARL_v2","pSARL_v2gz1q8v0h","63ea5b93d1c6d38e1f57dcfa","infreqPrac","img/green_2bandit_a2.png","68","68","prac","1","","","","",""
"434","53383","pSARL_v2","pSARL_v2gz1q8v0h","63ea5b93d1c6d38e1f57dcfa","infreqPrac_resp","img/green_2bandit_a.png","68","68","prac","","","","","",""
"null","53541","pSARL_v2","pSARL_v2gz1q8v0h","63ea5b93d1c6d38e1f57dcfa","fixation","img/fixation.png","null","","prac","","","","","",""
"377","53920","pSARL_v2","pSARL_v2gz1q8v0h","63ea5b93d1c6d38e1f57dcfa","infreqPrac","img/green_2bandit_a2.png","68","68","prac","1","","","","",""
"377","54360","pSARL_v2","pSARL_v2gz1q8v0h","63ea5b93d1c6d38e1f57dcfa","infreqPrac_resp","img/green_2bandit_a.png","68","68","prac","","","","","",""
"null","54521","pSARL_v2","pSARL_v2gz1q8v0h","63ea5b93d1c6d38e1f57dcfa","fixation","img/fixation.png","null","","prac","","","","","",""
"421","54945","pSARL_v2","pSARL_v2gz1q8v0h","63ea5b93d1c6d38e1f57dcfa","freqPrac","img/orange_2bandit_a2.png","70","70","prac","1","","","","",""
"421","55340","pSARL_v2","pSARL_v2gz1q8v0h","63ea5b93d1c6d38e1f57dcfa","freqPrac_resp","img/orange_2bandit_a.png","70","70","prac","","","","","",""
"null","55501","pSARL_v2","pSARL_v2gz1q8v0h","63ea5b93d1c6d38e1f57dcfa","fixation","img/fixation.png","null","","prac","","","","","",""
"419","55922","pSARL_v2","pSARL_v2gz1q8v0h","63ea5b93d1c6d38e1f57dcfa","infreqPrac","img/green_2bandit_a2.png","68","68","prac","1","","","","",""
"419","56311","pSARL_v2","pSARL_v2gz1q8v0h","63ea5b93d1c6d38e1f57dcfa","infreqPrac_resp","img/green_2bandit_a.png","68","68","prac","","","","","",""
"null","56466","pSARL_v2","pSARL_v2gz1q8v0h","63ea5b93d1c6d38e1f57dcfa","fixation","img/fixation.png","null","","prac","","","","","",""
"433","56901","pSARL_v2","pSARL_v2gz1q8v0h","63ea5b93d1c6d38e1f57dcfa","freqPrac","img/orange_2bandit_a2.png","70","70","prac","1","","","","",""
"433","57272","pSARL_v2","pSARL_v2gz1q8v0h","63ea5b93d1c6d38e1f57dcfa","freqPrac_resp","img/orange_2bandit_a.png","70","70","prac","","","","","",""
"null","57428","pSARL_v2","pSARL_v2gz1q8v0h","63ea5b93d1c6d38e1f57dcfa","fixation","img/fixation.png","null","","prac","","","","","",""
"403","57833","pSARL_v2","pSARL_v2gz1q8v0h","63ea5b93d1c6d38e1f57dcfa","freqPrac","img/orange_2bandit_a2.png","70","70","prac","1","","","","",""
"403","58234","pSARL_v2","pSARL_v2gz1q8v0h","63ea5b93d1c6d38e1f57dcfa","freqPrac_resp","img/orange_2bandit_a.png","70","70","prac","","","","","",""
"null","58389","pSARL_v2","pSARL_v2gz1q8v0h","63ea5b93d1c6d38e1f57dcfa","fixation","img/fixation.png","null","","prac","","","","","",""
"19013","77406","pSARL_v2","pSARL_v2gz1q8v0h","63ea5b93d1c6d38e1f57dcfa","","","","","prac","","","","","",""
"675","78084","pSARL_v2","pSARL_v2gz1q8v0h","63ea5b93d1c6d38e1f57dcfa","rewardPractice","img/slot.png","74","","prac","","","","","",""
"null","78875","pSARL_v2","pSARL_v2gz1q8v0h","63ea5b93d1c6d38e1f57dcfa","feedback","<div class=""veryhighPoints""> +15 </div>","null","na","prac","","","","","",""
"null","79030","pSARL_v2","pSARL_v2gz1q8v0h","63ea5b93d1c6d38e1f57dcfa","fixation","img/fixation.png","null","","prac","","","","","",""
"3263","82295","pSARL_v2","pSARL_v2gz1q8v0h","63ea5b93d1c6d38e1f57dcfa","","","","","prac","","","","","",""
"509","82808","pSARL_v2","pSARL_v2gz1q8v0h","63ea5b93d1c6d38e1f57dcfa","freq","img/orange_2bandit_a2.png","68","70","test","0","1","1","1","",""
"null","83102","pSARL_v2","pSARL_v2gz1q8v0h","63ea5b93d1c6d38e1f57dcfa","freq_resp","img/orange_2bandit_a.png","68","70","test","","","","1","",""
"null","83257","pSARL_v2","pSARL_v2gz1q8v0h","63ea5b93d1c6d38e1f57dcfa","fixation","img/fixation.png","null","","test","","","","","",""
"420","83679","pSARL_v2","pSARL_v2gz1q8v0h","63ea5b93d1c6d38e1f57dcfa","freq","img/orange_2bandit_a2.png","70","70","test","1","2","2","1","",""
"null","84081","pSARL_v2","pSARL_v2gz1q8v0h","63ea5b93d1c6d38e1f57dcfa","freq_resp","img/orange_2bandit_a.png","70","70","test","","","","1","",""
"null","84242","pSARL_v2","pSARL_v2gz1q8v0h","63ea5b93d1c6d38e1f57dcfa","fixation","img/fixation.png","null","","test","","","","","",""
"344","84588","pSARL_v2","pSARL_v2gz1q8v0h","63ea5b93d1c6d38e1f57dcfa","freq","img/orange_2bandit_a2.png","70","70","test","1","3","3","1","",""
"null","85061","pSARL_v2","pSARL_v2gz1q8v0h","63ea5b93d1c6d38e1f57dcfa","freq_resp","img/orange_2bandit_a.png","70","70","test","","","","1","",""
"null","85221","pSARL_v2","pSARL_v2gz1q8v0h","63ea5b93d1c6d38e1f57dcfa","fixation","img/fixation.png","null","","test","","","","","",""
"296","85520","pSARL_v2","pSARL_v2gz1q8v0h","63ea5b93d1c6d38e1f57dcfa","freq","img/orange_2bandit_a2.png","70","70","test","1","4","4","1","",""
"null","86037","pSARL_v2","pSARL_v2gz1q8v0h","63ea5b93d1c6d38e1f57dcfa","freq_resp","img/orange_2bandit_a.png","70","70","test","","","","1","",""
"null","86193","pSARL_v2","pSARL_v2gz1q8v0h","63ea5b93d1c6d38e1f57dcfa","fixation","img/fixation.png","null","","test","","","","","",""
"257","86452","pSARL_v2","pSARL_v2gz1q8v0h","63ea5b93d1c6d38e1f57dcfa","freq","img/orange_2bandit_a2.png","70","70","test","1","5","5","1","",""
"null","87012","pSARL_v2","pSARL_v2gz1q8v0h","63ea5b93d1c6d38e1f57dcfa","freq_resp","img/orange_2bandit_a.png","70","70","test","","","","1","",""
"null","87168","pSARL_v2","pSARL_v2gz1q8v0h","63ea5b93d1c6d38e1f57dcfa","fixation","img/fixation.png","null","","test","","","","","",""
"307","87477","pSARL_v2","pSARL_v2gz1q8v0h","63ea5b93d1c6d38e1f57dcfa","freq","img/orange_2bandit_a2.png","70","70","test","1","6","6","1","",""
"null","87981","pSARL_v2","pSARL_v2gz1q8v0h","63ea5b93d1c6d38e1f57dcfa","freq_resp","img/orange_2bandit_a.png","70","70","test","","","","1","",""
"null","88141","pSARL_v2","pSARL_v2gz1q8v0h","63ea5b93d1c6d38e1f57dcfa","fixation","img/fixation.png","null","","test","","","","","",""
"290","88433","pSARL_v2","pSARL_v2gz1q8v0h","63ea5b93d1c6d38e1f57dcfa","freq","img/orange_2bandit_a2.png","70","70","test","1","7","7","1","",""
"null","88961","pSARL_v2","pSARL_v2gz1q8v0h","63ea5b93d1c6d38e1f57dcfa","freq_resp","img/orange_2bandit_a.png","70","70","test","","","","1","",""
"null","89121","pSARL_v2","pSARL_v2gz1q8v0h","63ea5b93d1c6d38e1f57dcfa","fixation","img/fixation.png","null","","test","","","","","",""
"286","89411","pSARL_v2","pSARL_v2gz1q8v0h","63ea5b93d1c6d38e1f57dcfa","freq","img/orange_2bandit_a2.png","70","70","test","1","8","8","1","",""
"null","89939","pSARL_v2","pSARL_v2gz1q8v0h","63ea5b93d1c6d38e1f57dcfa","freq_resp","img/orange_2bandit_a.png","70","70","test","","","","1","",""
"null","90094","pSARL_v2","pSARL_v2gz1q8v0h","63ea5b93d1c6d38e1f57dcfa","fixation","img/fixation.png","null","","test","","","","","",""
"291","90388","pSARL_v2","pSARL_v2gz1q8v0h","63ea5b93d1c6d38e1f57dcfa","infreq","img/green_2bandit_a2.png","70","68","test","0","9","9","1","",""
"null","90913","pSARL_v2","pSARL_v2gz1q8v0h","63ea5b93d1c6d38e1f57dcfa","infreq_resp","img/green_2bandit_a.png","70","68","test","","","","1","",""
"null","91068","pSARL_v2","pSARL_v2gz1q8v0h","63ea5b93d1c6d38e1f57dcfa","fixation","img/fixation.png","null","","test","","","","","",""
"490","91559","pSARL_v2","pSARL_v2gz1q8v0h","63ea5b93d1c6d38e1f57dcfa","freq","img/orange_2bandit_a2.png","70","70","test","1","10","10","1","",""
"null","91881","pSARL_v2","pSARL_v2gz1q8v0h","63ea5b93d1c6d38e1f57dcfa","freq_resp","img/orange_2bandit_a.png","70","70","test","","","","1","",""
"null","92040","pSARL_v2","pSARL_v2gz1q8v0h","63ea5b93d1c6d38e1f57dcfa","fixation","img/fixation.png","null","","test","","","","","",""
"334","92377","pSARL_v2","pSARL_v2gz1q8v0h","63ea5b93d1c6d38e1f57dcfa","freq","img/orange_2bandit_a2.png","70","70","test","1","11","11","1","",""
"null","92861","pSARL_v2","pSARL_v2gz1q8v0h","63ea5b93d1c6d38e1f57dcfa","freq_resp","img/orange_2bandit_a.png","70","70","test","","","","1","",""
"null","93020","pSARL_v2","pSARL_v2gz1q8v0h","63ea5b93d1c6d38e1f57dcfa","fixation","img/fixation.png","null","","test","","","","","",""
"308","93332","pSARL_v2","pSARL_v2gz1q8v0h","63ea5b93d1c6d38e1f57dcfa","freq","img/orange_2bandit_a2.png","70","70","test","1","12","12","1","",""
"null","93830","pSARL_v2","pSARL_v2gz1q8v0h","63ea5b93d1c6d38e1f57dcfa","freq_resp","img/orange_2bandit_a.png","70","70","test","","","","1","",""
"null","93985","pSARL_v2","pSARL_v2gz1q8v0h","63ea5b93d1c6d38e1f57dcfa","fixation","img/fixation.png","null","","test","","","","","",""
"299","94287","pSARL_v2","pSARL_v2gz1q8v0h","63ea5b93d1c6d38e1f57dcfa","freq","img/orange_2bandit_a2.png","70","70","test","1","13","13","1","",""
"null","94797","pSARL_v2","pSARL_v2gz1q8v0h","63ea5b93d1c6d38e1f57dcfa","freq_resp","img/orange_2bandit_a.png","70","70","test","","","","1","",""
"null","94952","pSARL_v2","pSARL_v2gz1q8v0h","63ea5b93d1c6d38e1f57dcfa","fixation","img/fixation.png","null","","test","","","","","",""
"286","95242","pSARL_v2","pSARL_v2gz1q8v0h","63ea5b93d1c6d38e1f57dcfa","freq","img/orange_2bandit_a2.png","70","70","test","1","14","14","1","",""
"null","95761","pSARL_v2","pSARL_v2gz1q8v0h","63ea5b93d1c6d38e1f57dcfa","freq_resp","img/orange_2bandit_a.png","70","70","test","","","","1","",""
"null","95921","pSARL_v2","pSARL_v2gz1q8v0h","63ea5b93d1c6d38e1f57dcfa","fixation","img/fixation.png","null","","test","","","","","",""
"296","96219","pSARL_v2","pSARL_v2gz1q8v0h","63ea5b93d1c6d38e1f57dcfa","freq","img/orange_2bandit_a2.png","70","70","test","1","15","15","1","",""
"null","96742","pSARL_v2","pSARL_v2gz1q8v0h","63ea5b93d1c6d38e1f57dcfa","freq_resp","img/orange_2bandit_a.png","70","70","test","","","","1","",""
"null","96901","pSARL_v2","pSARL_v2gz1q8v0h","63ea5b93d1c6d38e1f57dcfa","fixation","img/fixation.png","null","","test","","","","","",""
"387","97290","pSARL_v2","pSARL_v2gz1q8v0h","63ea5b93d1c6d38e1f57dcfa","freq","img/orange_2bandit_a2.png","70","70","test","1","16","16","1","",""
"null","97707","pSARL_v2","pSARL_v2gz1q8v0h","63ea5b93d1c6d38e1f57dcfa","freq_resp","img/orange_2bandit_a.png","70","70","test","","","","1","",""
"null","97861","pSARL_v2","pSARL_v2gz1q8v0h","63ea5b93d1c6d38e1f57dcfa","fixation","img/fixation.png","null","","test","","","","","",""
"336","98200","pSARL_v2","pSARL_v2gz1q8v0h","63ea5b93d1c6d38e1f57dcfa","infreq","img/green_2bandit_a2.png","70","68","test","0","17","17","1","",""
"null","98681","pSARL_v2","pSARL_v2gz1q8v0h","63ea5b93d1c6d38e1f57dcfa","infreq_resp","img/green_2bandit_a.png","70","68","test","","","","1","",""
"null","98836","pSARL_v2","pSARL_v2gz1q8v0h","63ea5b93d1c6d38e1f57dcfa","fixation","img/fixation.png","null","","test","","","","","",""
"440","99280","pSARL_v2","pSARL_v2gz1q8v0h","63ea5b93d1c6d38e1f57dcfa","freq","img/orange_2bandit_a2.png","70","70","test","1","18","18","1","",""
"null","99661","pSARL_v2","pSARL_v2gz1q8v0h","63ea5b93d1c6d38e1f57dcfa","freq_resp","img/orange_2bandit_a.png","70","70","test","","","","1","",""
"null","99821","pSARL_v2","pSARL_v2gz1q8v0h","63ea5b93d1c6d38e1f57dcfa","fixation","img/fixation.png","null","","test","","","","","",""
"434","100258","pSARL_v2","pSARL_v2gz1q8v0h","63ea5b93d1c6d38e1f57dcfa","freq","img/orange_2bandit_a2.png","70","70","test","1","19","19","1","",""
"null","100641","pSARL_v2","pSARL_v2gz1q8v0h","63ea5b93d1c6d38e1f57dcfa","freq_resp","img/orange_2bandit_a.png","70","70","test","","","","1","",""
"null","100800","pSARL_v2","pSARL_v2gz1q8v0h","63ea5b93d1c6d38e1f57dcfa","fixation","img/fixation.png","null","","test","","","","","",""
"529","101333","pSARL_v2","pSARL_v2gz1q8v0h","63ea5b93d1c6d38e1f57dcfa","reward","img/slot.png","74","","test","","","","","",""
"null","102093","pSARL_v2","pSARL_v2gz1q8v0h","63ea5b93d1c6d38e1f57dcfa","points","<div class=""verylowPoints""> -6 </div>","null","na","test","","","","1","-6","0"
"695","102792","pSARL_v2","pSARL_v2gz1q8v0h","63ea5b93d1c6d38e1f57dcfa","freq","img/orange_2bandit_a2.png","70","70","test","1","20","20","2","",""
"null","102913","pSARL_v2","pSARL_v2gz1q8v0h","63ea5b93d1c6d38e1f57dcfa","freq_resp","img/orange_2bandit_a.png","70","70","test","","","","2","",""
"null","103068","pSARL_v2","pSARL_v2gz1q8v0h","63ea5b93d1c6d38e1f57dcfa","fixation","img/fixation.png","null","","test","","","","","",""
"514","103584","pSARL_v2","pSARL_v2gz1q8v0h","63ea5b93d1c6d38e1f57dcfa","freq","img/orange_2bandit_a2.png","70","70","test","1","21","21","2","",""
"null","103874","pSARL_v2","pSARL_v2gz1q8v0h","63ea5b93d1c6d38e1f57dcfa","freq_resp","img/orange_2bandit_a.png","70","70","test","","","","2","",""
"null","104028","pSARL_v2","pSARL_v2gz1q8v0h","63ea5b93d1c6d38e1f57dcfa","fixation","img/fixation.png","null","","test","","","","","",""
"371","104402","pSARL_v2","pSARL_v2gz1q8v0h","63ea5b93d1c6d38e1f57dcfa","freq","img/orange_2bandit_a2.png","70","70","test","1","22","22","2","",""
"null","104846","pSARL_v2","pSARL_v2gz1q8v0h","63ea5b93d1c6d38e1f57dcfa","freq_resp","img/orange_2bandit_a.png","70","70","test","","","","2","",""
"null","105003","pSARL_v2","pSARL_v2gz1q8v0h","63ea5b93d1c6d38e1f57dcfa","fixation","img/fixation.png","null","","test","","","","","",""
"282","105288","pSARL_v2","pSARL_v2gz1q8v0h","63ea5b93d1c6d38e1f57dcfa","freq","img/orange_2bandit_a2.png","70","70","test","1","23","23","2","",""
"null","105820","pSARL_v2","pSARL_v2gz1q8v0h","63ea5b93d1c6d38e1f57dcfa","freq_resp","img/orange_2bandit_a.png","70","70","test","","","","2","",""
"null","105981","pSARL_v2","pSARL_v2gz1q8v0h","63ea5b93d1c6d38e1f57dcfa","fixation","img/fixation.png","null","","test","","","","","",""
"306","106289","pSARL_v2","pSARL_v2gz1q8v0h","63ea5b93d1c6d38e1f57dcfa","freq","img/orange_2bandit_a2.png","70","70","test","1","24","24","2","",""
"null","106801","pSARL_v2","pSARL_v2gz1q8v0h","63ea5b93d1c6d38e1f57dcfa","freq_resp","img/orange_2bandit_a.png","70","70","test","","","","2","",""
"null","106961","pSARL_v2","pSARL_v2gz1q8v0h","63ea5b93d1c6d38e1f57dcfa","fixation","img/fixation.png","null","","test","","","","","",""
"210","107174","pSARL_v2","pSARL_v2gz1q8v0h","63ea5b93d1c6d38e1f57dcfa","infreq","img/green_2bandit_a2.png","70","68","test","0","25","25","2","",""
"null","107830","pSARL_v2","pSARL_v2gz1q8v0h","63ea5b93d1c6d38e1f57dcfa","infreq_resp","img/green_2bandit_a.png","70","68","test","","","","2","",""
"null","107985","pSARL_v2","pSARL_v2gz1q8v0h","63ea5b93d1c6d38e1f57dcfa","fixation","img/fixation.png","null","","test","","","","","",""
"380","108368","pSARL_v2","pSARL_v2gz1q8v0h","63ea5b93d1c6d38e1f57dcfa","freq","img/orange_2bandit_a2.png","70","70","test","1","26","26","2","",""
"null","108794","pSARL_v2","pSARL_v2gz1q8v0h","63ea5b93d1c6d38e1f57dcfa","freq_resp","img/orange_2bandit_a.png","70","70","test","","","","2","",""
"null","108949","pSARL_v2","pSARL_v2gz1q8v0h","63ea5b93d1c6d38e1f57dcfa","fixation","img/fixation.png","null","","test","","","","","",""
"372","109323","pSARL_v2","pSARL_v2gz1q8v0h","63ea5b93d1c6d38e1f57dcfa","freq","img/orange_2bandit_a2.png","70","70","test","1","27","27","2","",""
"null","109761","pSARL_v2","pSARL_v2gz1q8v0h","63ea5b93d1c6d38e1f57dcfa","freq_resp","img/orange_2bandit_a.png","70","70","test","","","","2","",""
"null","109931","pSARL_v2","pSARL_v2gz1q8v0h","63ea5b93d1c6d38e1f57dcfa","fixation","img/fixation.png","null","","test","","","","","",""
"369","110301","pSARL_v2","pSARL_v2gz1q8v0h","63ea5b93d1c6d38e1f57dcfa","freq","img/orange_2bandit_a2.png","70","70","test","1","28","28","2","",""
"null","110751","pSARL_v2","pSARL_v2gz1q8v0h","63ea5b93d1c6d38e1f57dcfa","freq_resp","img/orange_2bandit_a.png","70","70","test","","","","2","",""
"null","110911","pSARL_v2","pSARL_v2gz1q8v0h","63ea5b93d1c6d38e1f57dcfa","fixation","img/fixation.png","null","","test","","","","","",""
"320","111233","pSARL_v2","pSARL_v2gz1q8v0h","63ea5b93d1c6d38e1f57dcfa","freq","img/orange_2bandit_a2.png","70","70","test","1","29","29","2","",""
"null","111728","pSARL_v2","pSARL_v2gz1q8v0h","63ea5b93d1c6d38e1f57dcfa","freq_resp","img/orange_2bandit_a.png","70","70","test","","","","2","",""
"null","111881","pSARL_v2","pSARL_v2gz1q8v0h","63ea5b93d1c6d38e1f57dcfa","fixation","img/fixation.png","null","","test","","","","","",""
"350","112234","pSARL_v2","pSARL_v2gz1q8v0h","63ea5b93d1c6d38e1f57dcfa","freq","img/orange_2bandit_a2.png","70","70","test","1","30","30","2","",""
"null","112689","pSARL_v2","pSARL_v2gz1q8v0h","63ea5b93d1c6d38e1f57dcfa","freq_resp","img/orange_2bandit_a.png","70","70","test","","","","2","",""
"null","112845","pSARL_v2","pSARL_v2gz1q8v0h","63ea5b93d1c6d38e1f57dcfa","fixation","img/fixation.png","null","","test","","","","","",""
"342","113191","pSARL_v2","pSARL_v2gz1q8v0h","63ea5b93d1c6d38e1f57dcfa","freq","img/orange_2bandit_a2.png","70","70","test","1","31","31","2","",""
"null","113661","pSARL_v2","pSARL_v2gz1q8v0h","63ea5b93d1c6d38e1f57dcfa","freq_resp","img/orange_2bandit_a.png","70","70","test","","","","2","",""
"null","113821","pSARL_v2","pSARL_v2gz1q8v0h","63ea5b93d1c6d38e1f57dcfa","fixation","img/fixation.png","null","","test","","","","","",""
"322","114145","pSARL_v2","pSARL_v2gz1q8v0h","63ea5b93d1c6d38e1f57dcfa","freq","img/orange_2bandit_a2.png","70","70","test","1","32","32","2","",""
"null","114641","pSARL_v2","pSARL_v2gz1q8v0h","63ea5b93d1c6d38e1f57dcfa","freq_resp","img/orange_2bandit_a.png","70","70","test","","","","2","",""
"null","114800","pSARL_v2","pSARL_v2gz1q8v0h","63ea5b93d1c6d38e1f57dcfa","fixation","img/fixation.png","null","","test","","","","","",""
"205","115008","pSARL_v2","pSARL_v2gz1q8v0h","63ea5b93d1c6d38e1f57dcfa","freq","img/orange_2bandit_a2.png","70","70","test","1","33","33","2","",""
"null","115607","pSARL_v2","pSARL_v2gz1q8v0h","63ea5b93d1c6d38e1f57dcfa","freq_resp","img/orange_2bandit_a.png","70","70","test","","","","2","",""
"null","115763","pSARL_v2","pSARL_v2gz1q8v0h","63ea5b93d1c6d38e1f57dcfa","fixation","img/fixation.png","null","","test","","","","","",""
"313","116079","pSARL_v2","pSARL_v2gz1q8v0h","63ea5b93d1c6d38e1f57dcfa","freq","img/orange_2bandit_a2.png","70","70","test","1","34","34","2","",""
"null","116571","pSARL_v2","pSARL_v2gz1q8v0h","63ea5b93d1c6d38e1f57dcfa","freq_resp","img/orange_2bandit_a.png","70","70","test","","","","2","",""
"null","116724","pSARL_v2","pSARL_v2gz1q8v0h","63ea5b93d1c6d38e1f57dcfa","fixation","img/fixation.png","null","","test","","","","","",""
"330","117057","pSARL_v2","pSARL_v2gz1q8v0h","63ea5b93d1c6d38e1f57dcfa","freq","img/orange_2bandit_a2.png","70","70","test","1","35","35","2","",""
"null","117541","pSARL_v2","pSARL_v2gz1q8v0h","63ea5b93d1c6d38e1f57dcfa","freq_resp","img/orange_2bandit_a.png","70","70","test","","","","2","",""
"null","117701","pSARL_v2","pSARL_v2gz1q8v0h","63ea5b93d1c6d38e1f57dcfa","fixation","img/fixation.png","null","","test","","","","","",""
"309","118012","pSARL_v2","pSARL_v2gz1q8v0h","63ea5b93d1c6d38e1f57dcfa","freq","img/orange_2bandit_a2.png","70","70","test","1","36","36","2","",""
"null","118521","pSARL_v2","pSARL_v2gz1q8v0h","63ea5b93d1c6d38e1f57dcfa","freq_resp","img/orange_2bandit_a.png","70","70","test","","","","2","",""
"null","118681","pSARL_v2","pSARL_v2gz1q8v0h","63ea5b93d1c6d38e1f57dcfa","fixation","img/fixation.png","null","","test","","","","","",""
"330","119013","pSARL_v2","pSARL_v2gz1q8v0h","63ea5b93d1c6d38e1f57dcfa","freq","img/orange_2bandit_a2.png","70","70","test","1","37","37","2","",""
"null","119501","pSARL_v2","pSARL_v2gz1q8v0h","63ea5b93d1c6d38e1f57dcfa","freq_resp","img/orange_2bandit_a.png","70","70","test","","","","2","",""
"null","119660","pSARL_v2","pSARL_v2gz1q8v0h","63ea5b93d1c6d38e1f57dcfa","fixation","img/fixation.png","null","","test","","","","","",""
"396","120060","pSARL_v2","pSARL_v2gz1q8v0h","63ea5b93d1c6d38e1f57dcfa","infreq","img/green_2bandit_a2.png","68","68","test","1","38","38","2","",""
"null","120481","pSARL_v2","pSARL_v2gz1q8v0h","63ea5b93d1c6d38e1f57dcfa","infreq_resp","img/green_2bandit_a.png","68","68","test","","","","2","",""
"null","120636","pSARL_v2","pSARL_v2gz1q8v0h","63ea5b93d1c6d38e1f57dcfa","fixation","img/fixation.png","null","","test","","","","","",""
"425","121062","pSARL_v2","pSARL_v2gz1q8v0h","63ea5b93d1c6d38e1f57dcfa","freq","img/orange_2bandit_a2.png","70","70","test","1","39","39","2","",""
"null","121456","pSARL_v2","pSARL_v2gz1q8v0h","63ea5b93d1c6d38e1f57dcfa","freq_resp","img/orange_2bandit_a.png","70","70","test","","","","2","",""
"null","121620","pSARL_v2","pSARL_v2gz1q8v0h","63ea5b93d1c6d38e1f57dcfa","fixation","img/fixation.png","null","","test","","","","","",""
"278","121901","pSARL_v2","pSARL_v2gz1q8v0h","63ea5b93d1c6d38e1f57dcfa","freq","img/orange_2bandit_a2.png","70","70","test","1","40","40","2","",""
"null","122441","pSARL_v2","pSARL_v2gz1q8v0h","63ea5b93d1c6d38e1f57dcfa","freq_resp","img/orange_2bandit_a.png","70","70","test","","","","2","",""
"null","122600","pSARL_v2","pSARL_v2gz1q8v0h","63ea5b93d1c6d38e1f57dcfa","fixation","img/fixation.png","null","","test","","","","","",""
"496","123100","pSARL_v2","pSARL_v2gz1q8v0h","63ea5b93d1c6d38e1f57dcfa","reward","img/slot.png","74","","test","","","","","",""
"null","123857","pSARL_v2","pSARL_v2gz1q8v0h","63ea5b93d1c6d38e1f57dcfa","points","<div class=""verylowPoints""> -11 </div>","null","na","test","","","","2","-11","1"
"376","124235","pSARL_v2","pSARL_v2gz1q8v0h","63ea5b93d1c6d38e1f57dcfa","freq","img/orange_2bandit_a2.png","70","70","test","1","41","41","3","",""
"null","124672","pSARL_v2","pSARL_v2gz1q8v0h","63ea5b93d1c6d38e1f57dcfa","freq_resp","img/orange_2bandit_a.png","70","70","test","","","","3","",""
"null","124827","pSARL_v2","pSARL_v2gz1q8v0h","63ea5b93d1c6d38e1f57dcfa","fixation","img/fixation.png","null","","test","","","","","",""
"360","125190","pSARL_v2","pSARL_v2gz1q8v0h","63ea5b93d1c6d38e1f57dcfa","freq","img/orange_2bandit_a2.png","70","70","test","1","42","42","3","",""
"null","125644","pSARL_v2","pSARL_v2gz1q8v0h","63ea5b93d1c6d38e1f57dcfa","freq_resp","img/orange_2bandit_a.png","70","70","test","","","","3","",""
"null","125800","pSARL_v2","pSARL_v2gz1q8v0h","63ea5b93d1c6d38e1f57dcfa","fixation","img/fixation.png","null","","test","","","","","",""
"344","126146","pSARL_v2","pSARL_v2gz1q8v0h","63ea5b93d1c6d38e1f57dcfa","freq","img/orange_2bandit_a2.png","70","70","test","1","43","43","3","",""
"null","126605","pSARL_v2","pSARL_v2gz1q8v0h","63ea5b93d1c6d38e1f57dcfa","freq_resp","img/orange_2bandit_a.png","70","70","test","","","","3","",""
"null","126769","pSARL_v2","pSARL_v2gz1q8v0h","63ea5b93d1c6d38e1f57dcfa","fixation","img/fixation.png","null","","test","","","","","",""
"328","127100","pSARL_v2","pSARL_v2gz1q8v0h","63ea5b93d1c6d38e1f57dcfa","freq","img/orange_2bandit_a2.png","70","70","test","1","44","44","3","",""
"null","127588","pSARL_v2","pSARL_v2gz1q8v0h","63ea5b93d1c6d38e1f57dcfa","freq_resp","img/orange_2bandit_a.png","70","70","test","","","","3","",""
"null","127742","pSARL_v2","pSARL_v2gz1q8v0h","63ea5b93d1c6d38e1f57dcfa","fixation","img/fixation.png","null","","test","","","","","",""
"425","128170","pSARL_v2","pSARL_v2gz1q8v0h","63ea5b93d1c6d38e1f57dcfa","infreq","img/green_2bandit_a2.png","68","68","test","1","45","45","3","",""
"null","128563","pSARL_v2","pSARL_v2gz1q8v0h","63ea5b93d1c6d38e1f57dcfa","infreq_resp","img/green_2bandit_a.png","68","68","test","","","","3","",""
"null","128718","pSARL_v2","pSARL_v2gz1q8v0h","63ea5b93d1c6d38e1f57dcfa","fixation","img/fixation.png","null","","test","","","","","",""
"289","129011","pSARL_v2","pSARL_v2gz1q8v0h","63ea5b93d1c6d38e1f57dcfa","freq","img/orange_2bandit_a2.png","70","70","test","1","46","46","3","",""
"null","129525","pSARL_v2","pSARL_v2gz1q8v0h","63ea5b93d1c6d38e1f57dcfa","freq_resp","img/orange_2bandit_a.png","70","70","test","","","","3","",""
"null","129679","pSARL_v2","pSARL_v2gz1q8v0h","63ea5b93d1c6d38e1f57dcfa","fixation","img/fixation.png","null","","test","","","","","",""
"307","129988","pSARL_v2","pSARL_v2gz1q8v0h","63ea5b93d1c6d38e1f57dcfa","freq","img/orange_2bandit_a2.png","70","70","test","1","47","47","3","",""
"null","130487","pSARL_v2","pSARL_v2gz1q8v0h","63ea5b93d1c6d38e1f57dcfa","freq_resp","img/orange_2bandit_a.png","70","70","test","","","","3","",""
"null","130654","pSARL_v2","pSARL_v2gz1q8v0h","63ea5b93d1c6d38e1f57dcfa","fixation","img/fixation.png","null","","test","","","","","",""
"310","130966","pSARL_v2","pSARL_v2gz1q8v0h","63ea5b93d1c6d38e1f57dcfa","freq","img/orange_2bandit_a2.png","70","70","test","1","48","48","3","",""
"null","131469","pSARL_v2","pSARL_v2gz1q8v0h","63ea5b93d1c6d38e1f57dcfa","freq_resp","img/orange_2bandit_a.png","70","70","test","","","","3","",""
"null","131623","pSARL_v2","pSARL_v2gz1q8v0h","63ea5b93d1c6d38e1f57dcfa","fixation","img/fixation.png","null","","test","","","","","",""
"320","131944","pSARL_v2","pSARL_v2gz1q8v0h","63ea5b93d1c6d38e1f57dcfa","freq","img/orange_2bandit_a2.png","70","70","test","1","49","49","3","",""
"null","132443","pSARL_v2","pSARL_v2gz1q8v0h","63ea5b93d1c6d38e1f57dcfa","freq_resp","img/orange_2bandit_a.png","70","70","test","","","","3","",""
"null","132596","pSARL_v2","pSARL_v2gz1q8v0h","63ea5b93d1c6d38e1f57dcfa","fixation","img/fixation.png","null","","test","","","","","",""
"462","133061","pSARL_v2","pSARL_v2gz1q8v0h","63ea5b93d1c6d38e1f57dcfa","infreq","img/green_2bandit_a2.png","68","68","test","1","50","50","3","",""
"null","133404","pSARL_v2","pSARL_v2gz1q8v0h","63ea5b93d1c6d38e1f57dcfa","infreq_resp","img/green_2bandit_a.png","68","68","test","","","","3","",""
"null","133569","pSARL_v2","pSARL_v2gz1q8v0h","63ea5b93d1c6d38e1f57dcfa","fixation","img/fixation.png","null","","test","","","","","",""
"375","133948","pSARL_v2","pSARL_v2gz1q8v0h","63ea5b93d1c6d38e1f57dcfa","freq","img/orange_2bandit_a2.png","70","70","test","1","51","51","3","",""
"null","134378","pSARL_v2","pSARL_v2gz1q8v0h","63ea5b93d1c6d38e1f57dcfa","freq_resp","img/orange_2bandit_a.png","70","70","test","","","","3","",""
"null","134535","pSARL_v2","pSARL_v2gz1q8v0h","63ea5b93d1c6d38e1f57dcfa","fixation","img/fixation.png","null","","test","","","","","",""
"343","134880","pSARL_v2","pSARL_v2gz1q8v0h","63ea5b93d1c6d38e1f57dcfa","freq","img/orange_2bandit_a2.png","70","70","test","1","52","52","3","",""
"null","135345","pSARL_v2","pSARL_v2gz1q8v0h","63ea5b93d1c6d38e1f57dcfa","freq_resp","img/orange_2bandit_a.png","70","70","test","","","","3","",""
"null","135500","pSARL_v2","pSARL_v2gz1q8v0h","63ea5b93d1c6d38e1f57dcfa","fixation","img/fixation.png","null","","test","","","","","",""
"308","135812","pSARL_v2","pSARL_v2gz1q8v0h","63ea5b93d1c6d38e1f57dcfa","freq","img/orange_2bandit_a2.png","70","70","test","1","53","53","3","",""
"null","136319","pSARL_v2","pSARL_v2gz1q8v0h","63ea5b93d1c6d38e1f57dcfa","freq_resp","img/orange_2bandit_a.png","70","70","test","","","","3","",""
"null","136472","pSARL_v2","pSARL_v2gz1q8v0h","63ea5b93d1c6d38e1f57dcfa","fixation","img/fixation.png","null","","test","","","","","",""
"315","136790","pSARL_v2","pSARL_v2gz1q8v0h","63ea5b93d1c6d38e1f57dcfa","freq","img/orange_2bandit_a2.png","70","70","test","1","54","54","3","",""
"null","137293","pSARL_v2","pSARL_v2gz1q8v0h","63ea5b93d1c6d38e1f57dcfa","freq_resp","img/orange_2bandit_a.png","70","70","test","","","","3","",""
"null","137450","pSARL_v2","pSARL_v2gz1q8v0h","63ea5b93d1c6d38e1f57dcfa","fixation","img/fixation.png","null","","test","","","","","",""
"315","137768","pSARL_v2","pSARL_v2gz1q8v0h","63ea5b93d1c6d38e1f57dcfa","freq","img/orange_2bandit_a2.png","70","70","test","1","55","55","3","",""
"null","138270","pSARL_v2","pSARL_v2gz1q8v0h","63ea5b93d1c6d38e1f57dcfa","freq_resp","img/orange_2bandit_a.png","70","70","test","","","","3","",""
"null","138428","pSARL_v2","pSARL_v2gz1q8v0h","63ea5b93d1c6d38e1f57dcfa","fixation","img/fixation.png","null","","test","","","","","",""
"339","138769","pSARL_v2","pSARL_v2gz1q8v0h","63ea5b93d1c6d38e1f57dcfa","freq","img/orange_2bandit_a2.png","70","70","test","1","56","56","3","",""
"null","139244","pSARL_v2","pSARL_v2gz1q8v0h","63ea5b93d1c6d38e1f57dcfa","freq_resp","img/orange_2bandit_a.png","70","70","test","","","","3","",""
"null","139401","pSARL_v2","pSARL_v2gz1q8v0h","63ea5b93d1c6d38e1f57dcfa","fixation","img/fixation.png","null","","test","","","","","",""
"321","139725","pSARL_v2","pSARL_v2gz1q8v0h","63ea5b93d1c6d38e1f57dcfa","freq","img/orange_2bandit_a2.png","70","70","test","1","57","57","3","",""
"null","140215","pSARL_v2","pSARL_v2gz1q8v0h","63ea5b93d1c6d38e1f57dcfa","freq_resp","img/orange_2bandit_a.png","70","70","test","","","","3","",""
"null","140370","pSARL_v2","pSARL_v2gz1q8v0h","63ea5b93d1c6d38e1f57dcfa","fixation","img/fixation.png","null","","test","","","","","",""
"445","140816","pSARL_v2","pSARL_v2gz1q8v0h","63ea5b93d1c6d38e1f57dcfa","infreq","img/green_2bandit_a2.png","68","68","test","1","58","58","3","",""
"null","141178","pSARL_v2","pSARL_v2gz1q8v0h","63ea5b93d1c6d38e1f57dcfa","infreq_resp","img/green_2bandit_a.png","68","68","test","","","","3","",""
"null","141332","pSARL_v2","pSARL_v2gz1q8v0h","63ea5b93d1c6d38e1f57dcfa","fixation","img/fixation.png","null","","test","","","","","",""
"346","141681","pSARL_v2","pSARL_v2gz1q8v0h","63ea5b93d1c6d38e1f57dcfa","freq","img/orange_2bandit_a2.png","70","70","test","1","59","59","3","",""
"null","142149","pSARL_v2","pSARL_v2gz1q8v0h","63ea5b93d1c6d38e1f57dcfa","freq_resp","img/orange_2bandit_a.png","70","70","test","","","","3","",""
"null","142314","pSARL_v2","pSARL_v2gz1q8v0h","63ea5b93d1c6d38e1f57dcfa","fixation","img/fixation.png","null","","test","","","","","",""
"320","142636","pSARL_v2","pSARL_v2gz1q8v0h","63ea5b93d1c6d38e1f57dcfa","freq","img/orange_2bandit_a2.png","70","70","test","1","60","60","3","",""
"null","143130","pSARL_v2","pSARL_v2gz1q8v0h","63ea5b93d1c6d38e1f57dcfa","freq_resp","img/orange_2bandit_a.png","70","70","test","","","","3","",""
"null","143294","pSARL_v2","pSARL_v2gz1q8v0h","63ea5b93d1c6d38e1f57dcfa","fixation","img/fixation.png","null","","test","","","","","",""
"295","143592","pSARL_v2","pSARL_v2gz1q8v0h","63ea5b93d1c6d38e1f57dcfa","freq","img/orange_2bandit_a2.png","70","70","test","1","61","61","3","",""
"null","144114","pSARL_v2","pSARL_v2gz1q8v0h","63ea5b93d1c6d38e1f57dcfa","freq_resp","img/orange_2bandit_a.png","70","70","test","","","","3","",""
"null","144269","pSARL_v2","pSARL_v2gz1q8v0h","63ea5b93d1c6d38e1f57dcfa","fixation","img/fixation.png","null","","test","","","","","",""
"321","144593","pSARL_v2","pSARL_v2gz1q8v0h","63ea5b93d1c6d38e1f57dcfa","freq","img/orange_2bandit_a2.png","70","70","test","1","62","62","3","",""
"null","145075","pSARL_v2","pSARL_v2gz1q8v0h","63ea5b93d1c6d38e1f57dcfa","freq_resp","img/orange_2bandit_a.png","70","70","test","","","","3","",""
"null","145232","pSARL_v2","pSARL_v2gz1q8v0h","63ea5b93d1c6d38e1f57dcfa","fixation","img/fixation.png","null","","test","","","","","",""
"291","145525","pSARL_v2","pSARL_v2gz1q8v0h","63ea5b93d1c6d38e1f57dcfa","freq","img/orange_2bandit_a2.png","70","70","test","1","63","63","3","",""
"null","146049","pSARL_v2","pSARL_v2gz1q8v0h","63ea5b93d1c6d38e1f57dcfa","freq_resp","img/orange_2bandit_a.png","70","70","test","","","","3","",""
"null","146204","pSARL_v2","pSARL_v2gz1q8v0h","63ea5b93d1c6d38e1f57dcfa","fixation","img/fixation.png","null","","test","","","","","",""
"273","146480","pSARL_v2","pSARL_v2gz1q8v0h","63ea5b93d1c6d38e1f57dcfa","freq","img/orange_2bandit_a2.png","70","70","test","1","64","64","3","",""
"null","147011","pSARL_v2","pSARL_v2gz1q8v0h","63ea5b93d1c6d38e1f57dcfa","freq_resp","img/orange_2bandit_a.png","70","70","test","","","","3","",""
"null","147165","pSARL_v2","pSARL_v2gz1q8v0h","63ea5b93d1c6d38e1f57dcfa","fixation","img/fixation.png","null","","test","","","","","",""
"292","147460","pSARL_v2","pSARL_v2gz1q8v0h","63ea5b93d1c6d38e1f57dcfa","freq","img/orange_2bandit_a2.png","70","70","test","1","65","65","3","",""
"null","147982","pSARL_v2","pSARL_v2gz1q8v0h","63ea5b93d1c6d38e1f57dcfa","freq_resp","img/orange_2bandit_a.png","70","70","test","","","","3","",""
"null","148137","pSARL_v2","pSARL_v2gz1q8v0h","63ea5b93d1c6d38e1f57dcfa","fixation","img/fixation.png","null","","test","","","","","",""
"298","148438","pSARL_v2","pSARL_v2gz1q8v0h","63ea5b93d1c6d38e1f57dcfa","freq","img/orange_2bandit_a2.png","70","70","test","1","66","66","3","",""
"null","148957","pSARL_v2","pSARL_v2gz1q8v0h","63ea5b93d1c6d38e1f57dcfa","freq_resp","img/orange_2bandit_a.png","70","70","test","","","","3","",""
"null","149113","pSARL_v2","pSARL_v2gz1q8v0h","63ea5b93d1c6d38e1f57dcfa","fixation","img/fixation.png","null","","test","","","","","",""
"489","149605","pSARL_v2","pSARL_v2gz1q8v0h","63ea5b93d1c6d38e1f57dcfa","reward","img/slot.png","74","","test","","","","","",""
"null","150359","pSARL_v2","pSARL_v2gz1q8v0h","63ea5b93d1c6d38e1f57dcfa","points","<div class=""verylowPoints""> -7 </div>","null","na","test","","","","3","-7","2"
"402","150763","pSARL_v2","pSARL_v2gz1q8v0h","63ea5b93d1c6d38e1f57dcfa","freq","img/orange_2bandit_a2.png","70","70","test","1","67","67","4","",""
"null","151165","pSARL_v2","pSARL_v2gz1q8v0h","63ea5b93d1c6d38e1f57dcfa","freq_resp","img/orange_2bandit_a.png","70","70","test","","","","4","",""
"null","151319","pSARL_v2","pSARL_v2gz1q8v0h","63ea5b93d1c6d38e1f57dcfa","fixation","img/fixation.png","null","","test","","","","","",""
"397","151719","pSARL_v2","pSARL_v2gz1q8v0h","63ea5b93d1c6d38e1f57dcfa","freq","img/orange_2bandit_a2.png","70","70","test","1","68","68","4","",""
"null","152131","pSARL_v2","pSARL_v2gz1q8v0h","63ea5b93d1c6d38e1f57dcfa","freq_resp","img/orange_2bandit_a.png","70","70","test","","","","4","",""
"null","152285","pSARL_v2","pSARL_v2gz1q8v0h","63ea5b93d1c6d38e1f57dcfa","fixation","img/fixation.png","null","","test","","","","","",""
"316","152605","pSARL_v2","pSARL_v2gz1q8v0h","63ea5b93d1c6d38e1f57dcfa","freq","img/orange_2bandit_a2.png","70","70","test","1","69","69","4","",""
"null","153100","pSARL_v2","pSARL_v2gz1q8v0h","63ea5b93d1c6d38e1f57dcfa","freq_resp","img/orange_2bandit_a.png","70","70","test","","","","4","",""
"null","153261","pSARL_v2","pSARL_v2gz1q8v0h","63ea5b93d1c6d38e1f57dcfa","fixation","img/fixation.png","null","","test","","","","","",""
"320","153583","pSARL_v2","pSARL_v2gz1q8v0h","63ea5b93d1c6d38e1f57dcfa","freq","img/orange_2bandit_a2.png","70","70","test","1","70","70","4","",""
"null","154079","pSARL_v2","pSARL_v2gz1q8v0h","63ea5b93d1c6d38e1f57dcfa","freq_resp","img/orange_2bandit_a.png","70","70","test","","","","4","",""
"null","154234","pSARL_v2","pSARL_v2gz1q8v0h","63ea5b93d1c6d38e1f57dcfa","fixation","img/fixation.png","null","","test","","","","","",""
"302","154538","pSARL_v2","pSARL_v2gz1q8v0h","63ea5b93d1c6d38e1f57dcfa","freq","img/orange_2bandit_a2.png","70","70","test","1","71","71","4","",""
"null","155054","pSARL_v2","pSARL_v2gz1q8v0h","63ea5b93d1c6d38e1f57dcfa","freq_resp","img/orange_2bandit_a.png","70","70","test","","","","4","",""
"null","155208","pSARL_v2","pSARL_v2gz1q8v0h","63ea5b93d1c6d38e1f57dcfa","fixation","img/fixation.png","null","","test","","","","","",""
"305","155516","pSARL_v2","pSARL_v2gz1q8v0h","63ea5b93d1c6d38e1f57dcfa","freq","img/orange_2bandit_a2.png","70","70","test","1","72","72","4","",""
"null","156021","pSARL_v2","pSARL_v2gz1q8v0h","63ea5b93d1c6d38e1f57dcfa","freq_resp","img/orange_2bandit_a.png","70","70","test","","","","4","",""
"null","156181","pSARL_v2","pSARL_v2gz1q8v0h","63ea5b93d1c6d38e1f57dcfa","fixation","img/fixation.png","null","","test","","","","","",""
"288","156471","pSARL_v2","pSARL_v2gz1q8v0h","63ea5b93d1c6d38e1f57dcfa","freq","img/orange_2bandit_a2.png","70","70","test","1","73","73","4","",""
"null","157001","pSARL_v2","pSARL_v2gz1q8v0h","63ea5b93d1c6d38e1f57dcfa","freq_resp","img/orange_2bandit_a.png","70","70","test","","","","4","",""
"null","157160","pSARL_v2","pSARL_v2gz1q8v0h","63ea5b93d1c6d38e1f57dcfa","fixation","img/fixation.png","null","","test","","","","","",""
"309","157472","pSARL_v2","pSARL_v2gz1q8v0h","63ea5b93d1c6d38e1f57dcfa","freq","img/orange_2bandit_a2.png","70","70","test","1","74","74","4","",""
"null","157972","pSARL_v2","pSARL_v2gz1q8v0h","63ea5b93d1c6d38e1f57dcfa","freq_resp","img/orange_2bandit_a.png","70","70","test","","","","4","",""
"null","158127","pSARL_v2","pSARL_v2gz1q8v0h","63ea5b93d1c6d38e1f57dcfa","fixation","img/fixation.png","null","","test","","","","","",""
"275","158405","pSARL_v2","pSARL_v2gz1q8v0h","63ea5b93d1c6d38e1f57dcfa","freq","img/orange_2bandit_a2.png","70","70","test","1","75","75","4","",""
"null","158932","pSARL_v2","pSARL_v2gz1q8v0h","63ea5b93d1c6d38e1f57dcfa","freq_resp","img/orange_2bandit_a.png","70","70","test","","","","4","",""
"null","159087","pSARL_v2","pSARL_v2gz1q8v0h","63ea5b93d1c6d38e1f57dcfa","fixation","img/fixation.png","null","","test","","","","","",""
"455","159543","pSARL_v2","pSARL_v2gz1q8v0h","63ea5b93d1c6d38e1f57dcfa","infreq","img/green_2bandit_a2.png","68","68","test","1","76","76","4","",""
"null","159901","pSARL_v2","pSARL_v2gz1q8v0h","63ea5b93d1c6d38e1f57dcfa","infreq_resp","img/green_2bandit_a.png","68","68","test","","","","4","",""
"null","160061","pSARL_v2","pSARL_v2gz1q8v0h","63ea5b93d1c6d38e1f57dcfa","fixation","img/fixation.png","null","","test","","","","","",""
"368","160430","pSARL_v2","pSARL_v2gz1q8v0h","63ea5b93d1c6d38e1f57dcfa","freq","img/orange_2bandit_a2.png","70","70","test","1","77","77","4","",""
"null","160880","pSARL_v2","pSARL_v2gz1q8v0h","63ea5b93d1c6d38e1f57dcfa","freq_resp","img/orange_2bandit_a.png","70","70","test","","","","4","",""
"null","161041","pSARL_v2","pSARL_v2gz1q8v0h","63ea5b93d1c6d38e1f57dcfa","fixation","img/fixation.png","null","","test","","","","","",""
"365","161409","pSARL_v2","pSARL_v2gz1q8v0h","63ea5b93d1c6d38e1f57dcfa","freq","img/orange_2bandit_a2.png","70","70","test","1","78","78","4","",""
"null","161860","pSARL_v2","pSARL_v2gz1q8v0h","63ea5b93d1c6d38e1f57dcfa","freq_resp","img/orange_2bandit_a.png","70","70","test","","","","4","",""
"null","162017","pSARL_v2","pSARL_v2gz1q8v0h","63ea5b93d1c6d38e1f57dcfa","fixation","img/fixation.png","null","","test","","","","","",""
"299","162318","pSARL_v2","pSARL_v2gz1q8v0h","63ea5b93d1c6d38e1f57dcfa","freq","img/orange_2bandit_a2.png","70","70","test","1","79","79","4","",""
"null","162824","pSARL_v2","pSARL_v2gz1q8v0h","63ea5b93d1c6d38e1f57dcfa","freq_resp","img/orange_2bandit_a.png","70","70","test","","","","4","",""
"null","162980","pSARL_v2","pSARL_v2gz1q8v0h","63ea5b93d1c6d38e1f57dcfa","fixation","img/fixation.png","null","","test","","","","","",""
"291","163273","pSARL_v2","pSARL_v2gz1q8v0h","63ea5b93d1c6d38e1f57dcfa","freq","img/orange_2bandit_a2.png","70","70","test","1","80","80","4","",""
"null","163801","pSARL_v2","pSARL_v2gz1q8v0h","63ea5b93d1c6d38e1f57dcfa","freq_resp","img/orange_2bandit_a.png","70","70","test","","","","4","",""
"null","163961","pSARL_v2","pSARL_v2gz1q8v0h","63ea5b93d1c6d38e1f57dcfa","fixation","img/fixation.png","null","","test","","","","","",""
"242","164205","pSARL_v2","pSARL_v2gz1q8v0h","63ea5b93d1c6d38e1f57dcfa","freq","img/orange_2bandit_a2.png","70","70","test","1","81","81","4","",""
"null","164781","pSARL_v2","pSARL_v2gz1q8v0h","63ea5b93d1c6d38e1f57dcfa","freq_resp","img/orange_2bandit_a.png","70","70","test","","","","4","",""
"null","164941","pSARL_v2","pSARL_v2gz1q8v0h","63ea5b93d1c6d38e1f57dcfa","fixation","img/fixation.png","null","","test","","","","","",""
"194","165137","pSARL_v2","pSARL_v2gz1q8v0h","63ea5b93d1c6d38e1f57dcfa","freq","img/orange_2bandit_a2.png","70","70","test","1","82","82","4","",""
"null","165810","pSARL_v2","pSARL_v2gz1q8v0h","63ea5b93d1c6d38e1f57dcfa","freq_resp","img/orange_2bandit_a.png","70","70","test","","","","4","",""
"null","165965","pSARL_v2","pSARL_v2gz1q8v0h","63ea5b93d1c6d38e1f57dcfa","fixation","img/fixation.png","null","","test","","","","","",""
"309","166277","pSARL_v2","pSARL_v2gz1q8v0h","63ea5b93d1c6d38e1f57dcfa","freq","img/orange_2bandit_a2.png","70","70","test","1","83","83","4","",""
"null","166782","pSARL_v2","pSARL_v2gz1q8v0h","63ea5b93d1c6d38e1f57dcfa","freq_resp","img/orange_2bandit_a.png","70","70","test","","","","4","",""
"null","166937","pSARL_v2","pSARL_v2gz1q8v0h","63ea5b93d1c6d38e1f57dcfa","fixation","img/fixation.png","null","","test","","","","","",""
"291","167231","pSARL_v2","pSARL_v2gz1q8v0h","63ea5b93d1c6d38e1f57dcfa","freq","img/orange_2bandit_a2.png","70","70","test","1","84","84","4","",""
"null","167761","pSARL_v2","pSARL_v2gz1q8v0h","63ea5b93d1c6d38e1f57dcfa","freq_resp","img/orange_2bandit_a.png","70","70","test","","","","4","",""
"null","167921","pSARL_v2","pSARL_v2gz1q8v0h","63ea5b93d1c6d38e1f57dcfa","fixation","img/fixation.png","null","","test","","","","","",""
"310","168233","pSARL_v2","pSARL_v2gz1q8v0h","63ea5b93d1c6d38e1f57dcfa","freq","img/orange_2bandit_a2.png","70","70","test","1","85","85","4","",""
"null","168740","pSARL_v2","pSARL_v2gz1q8v0h","63ea5b93d1c6d38e1f57dcfa","freq_resp","img/orange_2bandit_a.png","70","70","test","","","","4","",""
"null","168901","pSARL_v2","pSARL_v2gz1q8v0h","63ea5b93d1c6d38e1f57dcfa","fixation","img/fixation.png","null","","test","","","","","",""
"423","169326","pSARL_v2","pSARL_v2gz1q8v0h","63ea5b93d1c6d38e1f57dcfa","infreq","img/green_2bandit_a2.png","68","68","test","1","86","86","4","",""
"null","169705","pSARL_v2","pSARL_v2gz1q8v0h","63ea5b93d1c6d38e1f57dcfa","infreq_resp","img/green_2bandit_a.png","68","68","test","","","","4","",""
"null","169861","pSARL_v2","pSARL_v2gz1q8v0h","63ea5b93d1c6d38e1f57dcfa","fixation","img/fixation.png","null","","test","","","","","",""
"303","170167","pSARL_v2","pSARL_v2gz1q8v0h","63ea5b93d1c6d38e1f57dcfa","freq","img/orange_2bandit_a2.png","70","70","test","1","87","87","4","",""
"null","170670","pSARL_v2","pSARL_v2gz1q8v0h","63ea5b93d1c6d38e1f57dcfa","freq_resp","img/orange_2bandit_a.png","70","70","test","","","","4","",""
"null","170824","pSARL_v2","pSARL_v2gz1q8v0h","63ea5b93d1c6d38e1f57dcfa","fixation","img/fixation.png","null","","test","","","","","",""
"318","171145","pSARL_v2","pSARL_v2gz1q8v0h","63ea5b93d1c6d38e1f57dcfa","freq","img/orange_2bandit_a2.png","70","70","test","1","88","88","4","",""
"null","171630","pSARL_v2","pSARL_v2gz1q8v0h","63ea5b93d1c6d38e1f57dcfa","freq_resp","img/orange_2bandit_a.png","70","70","test","","","","4","",""
"null","171791","pSARL_v2","pSARL_v2gz1q8v0h","63ea5b93d1c6d38e1f57dcfa","fixation","img/fixation.png","null","","test","","","","","",""
"404","172197","pSARL_v2","pSARL_v2gz1q8v0h","63ea5b93d1c6d38e1f57dcfa","reward","img/slot.png","74","","test","","","","","",""
"null","172951","pSARL_v2","pSARL_v2gz1q8v0h","63ea5b93d1c6d38e1f57dcfa","points","<div class=""verylowPoints""> -3 </div>","null","na","test","","","","4","-3","3"
"448","173402","pSARL_v2","pSARL_v2gz1q8v0h","63ea5b93d1c6d38e1f57dcfa","freq","img/orange_2bandit_a2.png","70","70","test","1","89","89","5","",""
"null","173762","pSARL_v2","pSARL_v2gz1q8v0h","63ea5b93d1c6d38e1f57dcfa","freq_resp","img/orange_2bandit_a.png","70","70","test","","","","5","",""
"null","173918","pSARL_v2","pSARL_v2gz1q8v0h","63ea5b93d1c6d38e1f57dcfa","fixation","img/fixation.png","null","","test","","","","","",""
"414","174335","pSARL_v2","pSARL_v2gz1q8v0h","63ea5b93d1c6d38e1f57dcfa","freq","img/orange_2bandit_a2.png","70","70","test","1","90","90","5","",""
"null","174726","pSARL_v2","pSARL_v2gz1q8v0h","63ea5b93d1c6d38e1f57dcfa","freq_resp","img/orange_2bandit_a.png","70","70","test","","","","5","",""
"null","174882","pSARL_v2","pSARL_v2gz1q8v0h","63ea5b93d1c6d38e1f57dcfa","fixation","img/fixation.png","null","","test","","","","","",""
"358","175242","pSARL_v2","pSARL_v2gz1q8v0h","63ea5b93d1c6d38e1f57dcfa","freq","img/orange_2bandit_a2.png","70","70","test","1","91","91","5","",""
"null","175687","pSARL_v2","pSARL_v2gz1q8v0h","63ea5b93d1c6d38e1f57dcfa","freq_resp","img/orange_2bandit_a.png","70","70","test","","","","5","",""
"null","175841","pSARL_v2","pSARL_v2gz1q8v0h","63ea5b93d1c6d38e1f57dcfa","fixation","img/fixation.png","null","","test","","","","","",""
"331","176175","pSARL_v2","pSARL_v2gz1q8v0h","63ea5b93d1c6d38e1f57dcfa","freq","img/orange_2bandit_a2.png","70","70","test","1","92","92","5","",""
"null","176646","pSARL_v2","pSARL_v2gz1q8v0h","63ea5b93d1c6d38e1f57dcfa","freq_resp","img/orange_2bandit_a.png","70","70","test","","","","5","",""
"null","176800","pSARL_v2","pSARL_v2gz1q8v0h","63ea5b93d1c6d38e1f57dcfa","fixation","img/fixation.png","null","","test","","","","","",""
"326","177129","pSARL_v2","pSARL_v2gz1q8v0h","63ea5b93d1c6d38e1f57dcfa","freq","img/orange_2bandit_a2.png","70","70","test","1","93","93","5","",""
"null","177620","pSARL_v2","pSARL_v2gz1q8v0h","63ea5b93d1c6d38e1f57dcfa","freq_resp","img/orange_2bandit_a.png","70","70","test","","","","5","",""
"null","177781","pSARL_v2","pSARL_v2gz1q8v0h","63ea5b93d1c6d38e1f57dcfa","fixation","img/fixation.png","null","","test","","","","","",""
"300","178084","pSARL_v2","pSARL_v2gz1q8v0h","63ea5b93d1c6d38e1f57dcfa","freq","img/orange_2bandit_a2.png","70","70","test","1","94","94","5","",""
"null","178601","pSARL_v2","pSARL_v2gz1q8v0h","63ea5b93d1c6d38e1f57dcfa","freq_resp","img/orange_2bandit_a.png","70","70","test","","","","5","",""
"null","178759","pSARL_v2","pSARL_v2gz1q8v0h","63ea5b93d1c6d38e1f57dcfa","fixation","img/fixation.png","null","","test","","","","","",""
"345","179108","pSARL_v2","pSARL_v2gz1q8v0h","63ea5b93d1c6d38e1f57dcfa","freq","img/orange_2bandit_a2.png","70","70","test","1","95","95","5","",""
"null","179568","pSARL_v2","pSARL_v2gz1q8v0h","63ea5b93d1c6d38e1f57dcfa","freq_resp","img/orange_2bandit_a.png","70","70","test","","","","5","",""
"null","179723","pSARL_v2","pSARL_v2gz1q8v0h","63ea5b93d1c6d38e1f57dcfa","fixation","img/fixation.png","null","","test","","","","","",""
"338","180062","pSARL_v2","pSARL_v2gz1q8v0h","63ea5b93d1c6d38e1f57dcfa","freq","img/orange_2bandit_a2.png","70","70","test","1","96","96","5","",""
"null","180530","pSARL_v2","pSARL_v2gz1q8v0h","63ea5b93d1c6d38e1f57dcfa","freq_resp","img/orange_2bandit_a.png","70","70","test","","","","5","",""
"null","180684","pSARL_v2","pSARL_v2gz1q8v0h","63ea5b93d1c6d38e1f57dcfa","fixation","img/fixation.png","null","","test","","","","","",""
"330","181017","pSARL_v2","pSARL_v2gz1q8v0h","63ea5b93d1c6d38e1f57dcfa","freq","img/orange_2bandit_a2.png","70","70","test","1","97","97","5","",""
"null","181490","pSARL_v2","pSARL_v2gz1q8v0h","63ea5b93d1c6d38e1f57dcfa","freq_resp","img/orange_2bandit_a.png","70","70","test","","","","5","",""
"null","181644","pSARL_v2","pSARL_v2gz1q8v0h","63ea5b93d1c6d38e1f57dcfa","fixation","img/fixation.png","null","","test","","","","","",""
"324","181972","pSARL_v2","pSARL_v2gz1q8v0h","63ea5b93d1c6d38e1f57dcfa","freq","img/orange_2bandit_a2.png","70","70","test","1","98","98","5","",""
"null","182451","pSARL_v2","pSARL_v2gz1q8v0h","63ea5b93d1c6d38e1f57dcfa","freq_resp","img/orange_2bandit_a.png","70","70","test","","","","5","",""
"null","182607","pSARL_v2","pSARL_v2gz1q8v0h","63ea5b93d1c6d38e1f57dcfa","fixation","img/fixation.png","null","","test","","","","","",""
"317","182927","pSARL_v2","pSARL_v2gz1q8v0h","63ea5b93d1c6d38e1f57dcfa","freq","img/orange_2bandit_a2.png","70","70","test","1","99","99","5","",""
"null","183414","pSARL_v2","pSARL_v2gz1q8v0h","63ea5b93d1c6d38e1f57dcfa","freq_resp","img/orange_2bandit_a.png","70","70","test","","","","5","",""
"null","183581","pSARL_v2","pSARL_v2gz1q8v0h","63ea5b93d1c6d38e1f57dcfa","fixation","img/fixation.png","null","","test","","","","","",""
"299","183882","pSARL_v2","pSARL_v2gz1q8v0h","63ea5b93d1c6d38e1f57dcfa","freq","img/orange_2bandit_a2.png","70","70","test","1","100","100","5","",""
"null","184400","pSARL_v2","pSARL_v2gz1q8v0h","63ea5b93d1c6d38e1f57dcfa","freq_resp","img/orange_2bandit_a.png","70","70","test","","","","5","",""
"null","184561","pSARL_v2","pSARL_v2gz1q8v0h","63ea5b93d1c6d38e1f57dcfa","fixation","img/fixation.png","null","","test","","","","","",""
"320","184883","pSARL_v2","pSARL_v2gz1q8v0h","63ea5b93d1c6d38e1f57dcfa","freq","img/orange_2bandit_a2.png","70","70","test","1","101","101","5","",""
"null","185380","pSARL_v2","pSARL_v2gz1q8v0h","63ea5b93d1c6d38e1f57dcfa","freq_resp","img/orange_2bandit_a.png","70","70","test","","","","5","",""
"null","185536","pSARL_v2","pSARL_v2gz1q8v0h","63ea5b93d1c6d38e1f57dcfa","fixation","img/fixation.png","null","","test","","","","","",""
"322","185862","pSARL_v2","pSARL_v2gz1q8v0h","63ea5b93d1c6d38e1f57dcfa","freq","img/orange_2bandit_a2.png","70","70","test","1","102","102","5","",""
"null","186356","pSARL_v2","pSARL_v2gz1q8v0h","63ea5b93d1c6d38e1f57dcfa","freq_resp","img/orange_2bandit_a.png","70","70","test","","","","5","",""
"null","186512","pSARL_v2","pSARL_v2gz1q8v0h","63ea5b93d1c6d38e1f57dcfa","fixation","img/fixation.png","null","","test","","","","","",""
"326","186840","pSARL_v2","pSARL_v2gz1q8v0h","63ea5b93d1c6d38e1f57dcfa","freq","img/orange_2bandit_a2.png","70","70","test","1","103","103","5","",""
"null","187318","pSARL_v2","pSARL_v2gz1q8v0h","63ea5b93d1c6d38e1f57dcfa","freq_resp","img/orange_2bandit_a.png","70","70","test","","","","5","",""
"null","187473","pSARL_v2","pSARL_v2gz1q8v0h","63ea5b93d1c6d38e1f57dcfa","fixation","img/fixation.png","null","","test","","","","","",""
"505","187980","pSARL_v2","pSARL_v2gz1q8v0h","63ea5b93d1c6d38e1f57dcfa","infreq","img/green_2bandit_a2.png","68","68","test","1","104","104","5","",""
"null","188281","pSARL_v2","pSARL_v2gz1q8v0h","63ea5b93d1c6d38e1f57dcfa","infreq_resp","img/green_2bandit_a.png","68","68","test","","","","5","",""
"null","188441","pSARL_v2","pSARL_v2gz1q8v0h","63ea5b93d1c6d38e1f57dcfa","fixation","img/fixation.png","null","","test","","","","","",""
"448","188890","pSARL_v2","pSARL_v2gz1q8v0h","63ea5b93d1c6d38e1f57dcfa","infreq","img/green_2bandit_a2.png","68","68","test","1","105","105","5","",""
"null","189262","pSARL_v2","pSARL_v2gz1q8v0h","63ea5b93d1c6d38e1f57dcfa","infreq_resp","img/green_2bandit_a.png","68","68","test","","","","5","",""
"null","189420","pSARL_v2","pSARL_v2gz1q8v0h","63ea5b93d1c6d38e1f57dcfa","fixation","img/fixation.png","null","","test","","","","","",""
"494","189917","pSARL_v2","pSARL_v2gz1q8v0h","63ea5b93d1c6d38e1f57dcfa","freq","img/orange_2bandit_a2.png","70","70","test","1","106","106","5","",""
"null","190232","pSARL_v2","pSARL_v2gz1q8v0h","63ea5b93d1c6d38e1f57dcfa","freq_resp","img/orange_2bandit_a.png","70","70","test","","","","5","",""
"null","190388","pSARL_v2","pSARL_v2gz1q8v0h","63ea5b93d1c6d38e1f57dcfa","fixation","img/fixation.png","null","","test","","","","","",""
"414","190804","pSARL_v2","pSARL_v2gz1q8v0h","63ea5b93d1c6d38e1f57dcfa","freq","img/orange_2bandit_a2.png","70","70","test","1","107","107","5","",""
"null","191206","pSARL_v2","pSARL_v2gz1q8v0h","63ea5b93d1c6d38e1f57dcfa","freq_resp","img/orange_2bandit_a.png","70","70","test","","","","5","",""
"null","191361","pSARL_v2","pSARL_v2gz1q8v0h","63ea5b93d1c6d38e1f57dcfa","fixation","img/fixation.png","null","","test","","","","","",""
"446","191809","pSARL_v2","pSARL_v2gz1q8v0h","63ea5b93d1c6d38e1f57dcfa","reward","img/slot.png","74","","test","","","","","",""
"null","192571","pSARL_v2","pSARL_v2gz1q8v0h","63ea5b93d1c6d38e1f57dcfa","points","<div class=""veryhighPoints""> +1 </div>","null","na","test","","","","5","1","4"
"465","193038","pSARL_v2","pSARL_v2gz1q8v0h","63ea5b93d1c6d38e1f57dcfa","freq","img/orange_2bandit_a2.png","70","70","test","1","108","108","6","",""
"null","193379","pSARL_v2","pSARL_v2gz1q8v0h","63ea5b93d1c6d38e1f57dcfa","freq_resp","img/orange_2bandit_a.png","70","70","test","","","","6","",""
"null","193541","pSARL_v2","pSARL_v2gz1q8v0h","63ea5b93d1c6d38e1f57dcfa","fixation","img/fixation.png","null","","test","","","","","",""
"518","194062","pSARL_v2","pSARL_v2gz1q8v0h","63ea5b93d1c6d38e1f57dcfa","infreq","img/green_2bandit_a2.png","68","68","test","1","109","109","6","",""
"null","194360","pSARL_v2","pSARL_v2gz1q8v0h","63ea5b93d1c6d38e1f57dcfa","infreq_resp","img/green_2bandit_a.png","68","68","test","","","","6","",""
"null","194521","pSARL_v2","pSARL_v2gz1q8v0h","63ea5b93d1c6d38e1f57dcfa","fixation","img/fixation.png","null","","test","","","","","",""
"427","194950","pSARL_v2","pSARL_v2gz1q8v0h","63ea5b93d1c6d38e1f57dcfa","freq","img/orange_2bandit_a2.png","70","70","test","1","110","110","6","",""
"null","195340","pSARL_v2","pSARL_v2gz1q8v0h","63ea5b93d1c6d38e1f57dcfa","freq_resp","img/orange_2bandit_a.png","70","70","test","","","","6","",""
"null","195500","pSARL_v2","pSARL_v2gz1q8v0h","63ea5b93d1c6d38e1f57dcfa","fixation","img/fixation.png","null","","test","","","","","",""
"355","195859","pSARL_v2","pSARL_v2gz1q8v0h","63ea5b93d1c6d38e1f57dcfa","freq","img/orange_2bandit_a2.png","70","70","test","1","111","111","6","",""
"null","196321","pSARL_v2","pSARL_v2gz1q8v0h","63ea5b93d1c6d38e1f57dcfa","freq_resp","img/orange_2bandit_a.png","70","70","test","","","","6","",""
"null","196478","pSARL_v2","pSARL_v2gz1q8v0h","63ea5b93d1c6d38e1f57dcfa","fixation","img/fixation.png","null","","test","","","","","",""
"357","196837","pSARL_v2","pSARL_v2gz1q8v0h","63ea5b93d1c6d38e1f57dcfa","freq","img/orange_2bandit_a2.png","70","70","test","1","112","112","6","",""
"null","197286","pSARL_v2","pSARL_v2gz1q8v0h","63ea5b93d1c6d38e1f57dcfa","freq_resp","img/orange_2bandit_a.png","70","70","test","","","","6","",""
"null","197441","pSARL_v2","pSARL_v2gz1q8v0h","63ea5b93d1c6d38e1f57dcfa","fixation","img/fixation.png","null","","test","","","","","",""
"417","197862","pSARL_v2","pSARL_v2gz1q8v0h","63ea5b93d1c6d38e1f57dcfa","freq","img/orange_2bandit_a2.png","70","70","test","1","113","113","6","",""
"null","198261","pSARL_v2","pSARL_v2gz1q8v0h","63ea5b93d1c6d38e1f57dcfa","freq_resp","img/orange_2bandit_a.png","70","70","test","","","","6","",""
"null","198426","pSARL_v2","pSARL_v2gz1q8v0h","63ea5b93d1c6d38e1f57dcfa","fixation","img/fixation.png","null","","test","","","","","",""
"457","198886","pSARL_v2","pSARL_v2gz1q8v0h","63ea5b93d1c6d38e1f57dcfa","freq","img/orange_2bandit_a2.png","70","70","test","1","114","114","6","",""
"null","199250","pSARL_v2","pSARL_v2gz1q8v0h","63ea5b93d1c6d38e1f57dcfa","freq_resp","img/orange_2bandit_a.png","70","70","test","","","","6","",""
"null","199412","pSARL_v2","pSARL_v2gz1q8v0h","63ea5b93d1c6d38e1f57dcfa","fixation","img/fixation.png","null","","test","","","","","",""
"450","199864","pSARL_v2","pSARL_v2gz1q8v0h","63ea5b93d1c6d38e1f57dcfa","freq","img/orange_2bandit_a2.png","70","70","test","1","115","115","6","",""
"null","200226","pSARL_v2","pSARL_v2gz1q8v0h","63ea5b93d1c6d38e1f57dcfa","freq_resp","img/orange_2bandit_a.png","70","70","test","","","","6","",""
"null","200380","pSARL_v2","pSARL_v2gz1q8v0h","63ea5b93d1c6d38e1f57dcfa","fixation","img/fixation.png","null","","test","","","","","",""
"459","200842","pSARL_v2","pSARL_v2gz1q8v0h","63ea5b93d1c6d38e1f57dcfa","freq","img/orange_2bandit_a2.png","70","70","test","1","116","116","6","",""
"null","201200","pSARL_v2","pSARL_v2gz1q8v0h","63ea5b93d1c6d38e1f57dcfa","freq_resp","img/orange_2bandit_a.png","70","70","test","","","","6","",""
"null","201354","pSARL_v2","pSARL_v2gz1q8v0h","63ea5b93d1c6d38e1f57dcfa","fixation","img/fixation.png","null","","test","","","","","",""
"463","201820","pSARL_v2","pSARL_v2gz1q8v0h","63ea5b93d1c6d38e1f57dcfa","freq","img/orange_2bandit_a2.png","70","70","test","1","117","117","6","",""
"null","202171","pSARL_v2","pSARL_v2gz1q8v0h","63ea5b93d1c6d38e1f57dcfa","freq_resp","img/orange_2bandit_a.png","70","70","test","","","","6","",""
"null","202331","pSARL_v2","pSARL_v2gz1q8v0h","63ea5b93d1c6d38e1f57dcfa","fixation","img/fixation.png","null","","test","","","","","",""
"395","202729","pSARL_v2","pSARL_v2gz1q8v0h","63ea5b93d1c6d38e1f57dcfa","freq","img/orange_2bandit_a2.png","70","70","test","1","118","118","6","",""
"null","203151","pSARL_v2","pSARL_v2gz1q8v0h","63ea5b93d1c6d38e1f57dcfa","freq_resp","img/orange_2bandit_a.png","70","70","test","","","","6","",""
"null","203311","pSARL_v2","pSARL_v2gz1q8v0h","63ea5b93d1c6d38e1f57dcfa","fixation","img/fixation.png","null","","test","","","","","",""
"395","203709","pSARL_v2","pSARL_v2gz1q8v0h","63ea5b93d1c6d38e1f57dcfa","freq","img/orange_2bandit_a2.png","70","70","test","1","119","119","6","",""
"null","204124","pSARL_v2","pSARL_v2gz1q8v0h","63ea5b93d1c6d38e1f57dcfa","freq_resp","img/orange_2bandit_a.png","70","70","test","","","","6","",""
"null","204277","pSARL_v2","pSARL_v2gz1q8v0h","63ea5b93d1c6d38e1f57dcfa","fixation","img/fixation.png","null","","test","","","","","",""
"384","204663","pSARL_v2","pSARL_v2gz1q8v0h","63ea5b93d1c6d38e1f57dcfa","freq","img/orange_2bandit_a2.png","70","70","test","1","120","120","6","",""
"null","205097","pSARL_v2","pSARL_v2gz1q8v0h","63ea5b93d1c6d38e1f57dcfa","freq_resp","img/orange_2bandit_a.png","70","70","test","","","","6","",""
"null","205250","pSARL_v2","pSARL_v2gz1q8v0h","63ea5b93d1c6d38e1f57dcfa","fixation","img/fixation.png","null","","test","","","","","",""
"481","205734","pSARL_v2","pSARL_v2gz1q8v0h","63ea5b93d1c6d38e1f57dcfa","infreq","img/green_2bandit_a2.png","68","68","test","1","121","121","6","",""
"null","206061","pSARL_v2","pSARL_v2gz1q8v0h","63ea5b93d1c6d38e1f57dcfa","infreq_resp","img/green_2bandit_a.png","68","68","test","","","","6","",""
"null","206221","pSARL_v2","pSARL_v2gz1q8v0h","63ea5b93d1c6d38e1f57dcfa","fixation","img/fixation.png","null","","test","","","","","",""
"465","206689","pSARL_v2","pSARL_v2gz1q8v0h","63ea5b93d1c6d38e1f57dcfa","infreq","img/green_2bandit_a2.png","68","68","test","1","122","122","6","",""
"null","207041","pSARL_v2","pSARL_v2gz1q8v0h","63ea5b93d1c6d38e1f57dcfa","infreq_resp","img/green_2bandit_a.png","68","68","test","","","","6","",""
"null","207201","pSARL_v2","pSARL_v2gz1q8v0h","63ea5b93d1c6d38e1f57dcfa","fixation","img/fixation.png","null","","test","","","","","",""
"373","207576","pSARL_v2","pSARL_v2gz1q8v0h","63ea5b93d1c6d38e1f57dcfa","freq","img/orange_2bandit_a2.png","70","70","test","1","123","123","6","",""
"null","208019","pSARL_v2","pSARL_v2gz1q8v0h","63ea5b93d1c6d38e1f57dcfa","freq_resp","img/orange_2bandit_a.png","70","70","test","","","","6","",""
"null","208173","pSARL_v2","pSARL_v2gz1q8v0h","63ea5b93d1c6d38e1f57dcfa","fixation","img/fixation.png","null","","test","","","","","",""
"355","208531","pSARL_v2","pSARL_v2gz1q8v0h","63ea5b93d1c6d38e1f57dcfa","freq","img/orange_2bandit_a2.png","70","70","test","1","124","124","6","",""
"null","208995","pSARL_v2","pSARL_v2gz1q8v0h","63ea5b93d1c6d38e1f57dcfa","freq_resp","img/orange_2bandit_a.png","70","70","test","","","","6","",""
"null","209152","pSARL_v2","pSARL_v2gz1q8v0h","63ea5b93d1c6d38e1f57dcfa","fixation","img/fixation.png","null","","test","","","","","",""
"376","209531","pSARL_v2","pSARL_v2gz1q8v0h","63ea5b93d1c6d38e1f57dcfa","freq","img/orange_2bandit_a2.png","70","70","test","1","125","125","6","",""
"null","209971","pSARL_v2","pSARL_v2gz1q8v0h","63ea5b93d1c6d38e1f57dcfa","freq_resp","img/orange_2bandit_a.png","70","70","test","","","","6","",""
"null","210130","pSARL_v2","pSARL_v2gz1q8v0h","63ea5b93d1c6d38e1f57dcfa","fixation","img/fixation.png","null","","test","","","","","",""
"401","210534","pSARL_v2","pSARL_v2gz1q8v0h","63ea5b93d1c6d38e1f57dcfa","freq","img/orange_2bandit_a2.png","70","70","test","1","126","126","6","",""
"null","210950","pSARL_v2","pSARL_v2gz1q8v0h","63ea5b93d1c6d38e1f57dcfa","freq_resp","img/orange_2bandit_a.png","70","70","test","","","","6","",""
"null","211110","pSARL_v2","pSARL_v2gz1q8v0h","63ea5b93d1c6d38e1f57dcfa","fixation","img/fixation.png","null","","test","","","","","",""
"445","211558","pSARL_v2","pSARL_v2gz1q8v0h","63ea5b93d1c6d38e1f57dcfa","freq","img/orange_2bandit_a2.png","70","70","test","1","127","127","6","",""
"null","211917","pSARL_v2","pSARL_v2gz1q8v0h","63ea5b93d1c6d38e1f57dcfa","freq_resp","img/orange_2bandit_a.png","70","70","test","","","","6","",""
"null","212073","pSARL_v2","pSARL_v2gz1q8v0h","63ea5b93d1c6d38e1f57dcfa","fixation","img/fixation.png","null","","test","","","","","",""
"589","212664","pSARL_v2","pSARL_v2gz1q8v0h","63ea5b93d1c6d38e1f57dcfa","reward","img/slot.png","74","","test","","","","","",""
"null","213423","pSARL_v2","pSARL_v2gz1q8v0h","63ea5b93d1c6d38e1f57dcfa","points","<div class=""verylowPoints""> -7 </div>","null","na","test","","","","6","-7","5"
"537","213961","pSARL_v2","pSARL_v2gz1q8v0h","63ea5b93d1c6d38e1f57dcfa","freq","img/orange_2bandit_a2.png","70","70","test","1","128","128","7","",""
"null","214241","pSARL_v2","pSARL_v2gz1q8v0h","63ea5b93d1c6d38e1f57dcfa","freq_resp","img/orange_2bandit_a.png","70","70","test","","","","7","",""
"null","214401","pSARL_v2","pSARL_v2gz1q8v0h","63ea5b93d1c6d38e1f57dcfa","fixation","img/fixation.png","null","","test","","","","","",""
"514","214916","pSARL_v2","pSARL_v2gz1q8v0h","63ea5b93d1c6d38e1f57dcfa","freq","img/orange_2bandit_a2.png","70","70","test","1","129","129","7","",""
"null","215221","pSARL_v2","pSARL_v2gz1q8v0h","63ea5b93d1c6d38e1f57dcfa","freq_resp","img/orange_2bandit_a.png","70","70","test","","","","7","",""
"null","215376","pSARL_v2","pSARL_v2gz1q8v0h","63ea5b93d1c6d38e1f57dcfa","fixation","img/fixation.png","null","","test","","","","","",""
"470","215848","pSARL_v2","pSARL_v2gz1q8v0h","63ea5b93d1c6d38e1f57dcfa","freq","img/orange_2bandit_a2.png","70","70","test","1","130","130","7","",""
"null","216186","pSARL_v2","pSARL_v2gz1q8v0h","63ea5b93d1c6d38e1f57dcfa","freq_resp","img/orange_2bandit_a.png","70","70","test","","","","7","",""
"null","216341","pSARL_v2","pSARL_v2gz1q8v0h","63ea5b93d1c6d38e1f57dcfa","fixation","img/fixation.png","null","","test","","","","","",""
"459","216804","pSARL_v2","pSARL_v2gz1q8v0h","63ea5b93d1c6d38e1f57dcfa","freq","img/orange_2bandit_a2.png","70","70","test","1","131","131","7","",""
"null","217150","pSARL_v2","pSARL_v2gz1q8v0h","63ea5b93d1c6d38e1f57dcfa","freq_resp","img/orange_2bandit_a.png","70","70","test","","","","7","",""
"null","217304","pSARL_v2","pSARL_v2gz1q8v0h","63ea5b93d1c6d38e1f57dcfa","fixation","img/fixation.png","null","","test","","","","","",""
"451","217758","pSARL_v2","pSARL_v2gz1q8v0h","63ea5b93d1c6d38e1f57dcfa","infreq","img/green_2bandit_a2.png","68","68","test","1","132","132","7","",""
"null","218121","pSARL_v2","pSARL_v2gz1q8v0h","63ea5b93d1c6d38e1f57dcfa","infreq_resp","img/green_2bandit_a.png","68","68","test","","","","7","",""
"null","218281","pSARL_v2","pSARL_v2gz1q8v0h","63ea5b93d1c6d38e1f57dcfa","fixation","img/fixation.png","null","","test","","","","","",""
"408","218691","pSARL_v2","pSARL_v2gz1q8v0h","63ea5b93d1c6d38e1f57dcfa","freq","img/orange_2bandit_a2.png","70","70","test","1","133","133","7","",""
"null","219101","pSARL_v2","pSARL_v2gz1q8v0h","63ea5b93d1c6d38e1f57dcfa","freq_resp","img/orange_2bandit_a.png","70","70","test","","","","7","",""
"null","219261","pSARL_v2","pSARL_v2gz1q8v0h","63ea5b93d1c6d38e1f57dcfa","fixation","img/fixation.png","null","","test","","","","","",""
"384","219647","pSARL_v2","pSARL_v2gz1q8v0h","63ea5b93d1c6d38e1f57dcfa","freq","img/orange_2bandit_a2.png","70","70","test","1","134","134","7","",""
"null","220077","pSARL_v2","pSARL_v2gz1q8v0h","63ea5b93d1c6d38e1f57dcfa","freq_resp","img/orange_2bandit_a.png","70","70","test","","","","7","",""
"null","220232","pSARL_v2","pSARL_v2gz1q8v0h","63ea5b93d1c6d38e1f57dcfa","fixation","img/fixation.png","null","","test","","","","","",""
"391","220625","pSARL_v2","pSARL_v2gz1q8v0h","63ea5b93d1c6d38e1f57dcfa","freq","img/orange_2bandit_a2.png","70","70","test","1","135","135","7","",""
"null","221039","pSARL_v2","pSARL_v2gz1q8v0h","63ea5b93d1c6d38e1f57dcfa","freq_resp","img/orange_2bandit_a.png","70","70","test","","","","7","",""
"null","221194","pSARL_v2","pSARL_v2gz1q8v0h","63ea5b93d1c6d38e1f57dcfa","fixation","img/fixation.png","null","","test","","","","","",""
"521","221717","pSARL_v2","pSARL_v2gz1q8v0h","63ea5b93d1c6d38e1f57dcfa","infreq","img/green_2bandit_a2.png","68","68","test","1","136","136","7","",""
"null","222011","pSARL_v2","pSARL_v2gz1q8v0h","63ea5b93d1c6d38e1f57dcfa","infreq_resp","img/green_2bandit_a.png","68","68","test","","","","7","",""
"null","222170","pSARL_v2","pSARL_v2gz1q8v0h","63ea5b93d1c6d38e1f57dcfa","fixation","img/fixation.png","null","","test","","","","","",""
"431","222604","pSARL_v2","pSARL_v2gz1q8v0h","63ea5b93d1c6d38e1f57dcfa","freq","img/orange_2bandit_a2.png","70","70","test","1","137","137","7","",""
"null","222990","pSARL_v2","pSARL_v2gz1q8v0h","63ea5b93d1c6d38e1f57dcfa","freq_resp","img/orange_2bandit_a.png","70","70","test","","","","7","",""
"null","223151","pSARL_v2","pSARL_v2gz1q8v0h","63ea5b93d1c6d38e1f57dcfa","fixation","img/fixation.png","null","","test","","","","","",""
"429","223582","pSARL_v2","pSARL_v2gz1q8v0h","63ea5b93d1c6d38e1f57dcfa","freq","img/orange_2bandit_a2.png","70","70","test","1","138","138","7","",""
"null","223958","pSARL_v2","pSARL_v2gz1q8v0h","63ea5b93d1c6d38e1f57dcfa","freq_resp","img/orange_2bandit_a.png","70","70","test","","","","7","",""
"null","224113","pSARL_v2","pSARL_v2gz1q8v0h","63ea5b93d1c6d38e1f57dcfa","fixation","img/fixation.png","null","","test","","","","","",""
"421","224536","pSARL_v2","pSARL_v2gz1q8v0h","63ea5b93d1c6d38e1f57dcfa","freq","img/orange_2bandit_a2.png","70","70","test","1","139","139","7","",""
"null","224931","pSARL_v2","pSARL_v2gz1q8v0h","63ea5b93d1c6d38e1f57dcfa","freq_resp","img/orange_2bandit_a.png","70","70","test","","","","7","",""
"null","225086","pSARL_v2","pSARL_v2gz1q8v0h","63ea5b93d1c6d38e1f57dcfa","fixation","img/fixation.png","null","","test","","","","","",""
"380","225467","pSARL_v2","pSARL_v2gz1q8v0h","63ea5b93d1c6d38e1f57dcfa","freq","img/orange_2bandit_a2.png","70","70","test","1","140","140","7","",""
"null","225891","pSARL_v2","pSARL_v2gz1q8v0h","63ea5b93d1c6d38e1f57dcfa","freq_resp","img/orange_2bandit_a.png","70","70","test","","","","7","",""
"null","226050","pSARL_v2","pSARL_v2gz1q8v0h","63ea5b93d1c6d38e1f57dcfa","fixation","img/fixation.png","null","","test","","","","","",""
"345","226400","pSARL_v2","pSARL_v2gz1q8v0h","63ea5b93d1c6d38e1f57dcfa","freq","img/orange_2bandit_a2.png","70","70","test","1","141","141","7","",""
"null","226871","pSARL_v2","pSARL_v2gz1q8v0h","63ea5b93d1c6d38e1f57dcfa","freq_resp","img/orange_2bandit_a.png","70","70","test","","","","7","",""
"null","227030","pSARL_v2","pSARL_v2gz1q8v0h","63ea5b93d1c6d38e1f57dcfa","fixation","img/fixation.png","null","","test","","","","","",""
"322","227355","pSARL_v2","pSARL_v2gz1q8v0h","63ea5b93d1c6d38e1f57dcfa","freq","img/orange_2bandit_a2.png","70","70","test","1","142","142","7","",""
"null","227850","pSARL_v2","pSARL_v2gz1q8v0h","63ea5b93d1c6d38e1f57dcfa","freq_resp","img/orange_2bandit_a.png","70","70","test","","","","7","",""
"null","228006","pSARL_v2","pSARL_v2gz1q8v0h","63ea5b93d1c6d38e1f57dcfa","fixation","img/fixation.png","null","","test","","","","","",""
"348","228355","pSARL_v2","pSARL_v2gz1q8v0h","63ea5b93d1c6d38e1f57dcfa","freq","img/orange_2bandit_a2.png","70","70","test","1","143","143","7","",""
"null","228814","pSARL_v2","pSARL_v2gz1q8v0h","63ea5b93d1c6d38e1f57dcfa","freq_resp","img/orange_2bandit_a.png","70","70","test","","","","7","",""
"null","228970","pSARL_v2","pSARL_v2gz1q8v0h","63ea5b93d1c6d38e1f57dcfa","fixation","img/fixation.png","null","","test","","","","","",""
"315","229288","pSARL_v2","pSARL_v2gz1q8v0h","63ea5b93d1c6d38e1f57dcfa","freq","img/orange_2bandit_a2.png","70","70","test","1","144","144","7","",""
"null","229781","pSARL_v2","pSARL_v2gz1q8v0h","63ea5b93d1c6d38e1f57dcfa","freq_resp","img/orange_2bandit_a.png","70","70","test","","","","7","",""
"null","229941","pSARL_v2","pSARL_v2gz1q8v0h","63ea5b93d1c6d38e1f57dcfa","fixation","img/fixation.png","null","","test","","","","","",""
"415","230358","pSARL_v2","pSARL_v2gz1q8v0h","63ea5b93d1c6d38e1f57dcfa","freq","img/orange_2bandit_a2.png","70","70","test","1","145","145","7","",""
"null","230761","pSARL_v2","pSARL_v2gz1q8v0h","63ea5b93d1c6d38e1f57dcfa","freq_resp","img/orange_2bandit_a.png","70","70","test","","","","7","",""
"null","230921","pSARL_v2","pSARL_v2gz1q8v0h","63ea5b93d1c6d38e1f57dcfa","fixation","img/fixation.png","null","","test","","","","","",""
"389","231313","pSARL_v2","pSARL_v2gz1q8v0h","63ea5b93d1c6d38e1f57dcfa","freq","img/orange_2bandit_a2.png","70","70","test","1","146","146","7","",""
"null","231727","pSARL_v2","pSARL_v2gz1q8v0h","63ea5b93d1c6d38e1f57dcfa","freq_resp","img/orange_2bandit_a.png","70","70","test","","","","7","",""
"null","231882","pSARL_v2","pSARL_v2gz1q8v0h","63ea5b93d1c6d38e1f57dcfa","fixation","img/fixation.png","null","","test","","","","","",""
"406","232292","pSARL_v2","pSARL_v2gz1q8v0h","63ea5b93d1c6d38e1f57dcfa","freq","img/orange_2bandit_a2.png","70","70","test","1","147","147","7","",""
"null","232703","pSARL_v2","pSARL_v2gz1q8v0h","63ea5b93d1c6d38e1f57dcfa","freq_resp","img/orange_2bandit_a.png","70","70","test","","","","7","",""
"null","232856","pSARL_v2","pSARL_v2gz1q8v0h","63ea5b93d1c6d38e1f57dcfa","fixation","img/fixation.png","null","","test","","","","","",""
"410","233269","pSARL_v2","pSARL_v2gz1q8v0h","63ea5b93d1c6d38e1f57dcfa","freq","img/orange_2bandit_a2.png","70","70","test","1","148","148","7","",""
"null","233670","pSARL_v2","pSARL_v2gz1q8v0h","63ea5b93d1c6d38e1f57dcfa","freq_resp","img/orange_2bandit_a.png","70","70","test","","","","7","",""
"null","233830","pSARL_v2","pSARL_v2gz1q8v0h","63ea5b93d1c6d38e1f57dcfa","fixation","img/fixation.png","null","","test","","","","","",""
"556","234390","pSARL_v2","pSARL_v2gz1q8v0h","63ea5b93d1c6d38e1f57dcfa","reward","img/slot.png","74","","test","","","","","",""
"null","235151","pSARL_v2","pSARL_v2gz1q8v0h","63ea5b93d1c6d38e1f57dcfa","points","<div class=""verylowPoints""> -6 </div>","null","na","test","","","","7","-6","6"
"280","235432","pSARL_v2","pSARL_v2gz1q8v0h","63ea5b93d1c6d38e1f57dcfa","freq","img/orange_2bandit_a2.png","70","70","test","1","149","149","8","",""
"null","235956","pSARL_v2","pSARL_v2gz1q8v0h","63ea5b93d1c6d38e1f57dcfa","freq_resp","img/orange_2bandit_a.png","70","70","test","","","","8","",""
"null","236110","pSARL_v2","pSARL_v2gz1q8v0h","63ea5b93d1c6d38e1f57dcfa","fixation","img/fixation.png","null","","test","","","","","",""
"274","236388","pSARL_v2","pSARL_v2gz1q8v0h","63ea5b93d1c6d38e1f57dcfa","freq","img/orange_2bandit_a2.png","70","70","test","1","150","150","8","",""
"null","236929","pSARL_v2","pSARL_v2gz1q8v0h","63ea5b93d1c6d38e1f57dcfa","freq_resp","img/orange_2bandit_a.png","70","70","test","","","","8","",""
"null","237083","pSARL_v2","pSARL_v2gz1q8v0h","63ea5b93d1c6d38e1f57dcfa","fixation","img/fixation.png","null","","test","","","","","",""
"302","237389","pSARL_v2","pSARL_v2gz1q8v0h","63ea5b93d1c6d38e1f57dcfa","freq","img/orange_2bandit_a2.png","70","70","test","1","151","151","8","",""
"null","237901","pSARL_v2","pSARL_v2gz1q8v0h","63ea5b93d1c6d38e1f57dcfa","freq_resp","img/orange_2bandit_a.png","70","70","test","","","","8","",""
"null","238061","pSARL_v2","pSARL_v2gz1q8v0h","63ea5b93d1c6d38e1f57dcfa","fixation","img/fixation.png","null","","test","","","","","",""
"303","238367","pSARL_v2","pSARL_v2gz1q8v0h","63ea5b93d1c6d38e1f57dcfa","freq","img/orange_2bandit_a2.png","70","70","test","1","152","152","8","",""
"null","238881","pSARL_v2","pSARL_v2gz1q8v0h","63ea5b93d1c6d38e1f57dcfa","freq_resp","img/orange_2bandit_a.png","70","70","test","","","","8","",""
"null","239041","pSARL_v2","pSARL_v2gz1q8v0h","63ea5b93d1c6d38e1f57dcfa","fixation","img/fixation.png","null","","test","","","","","",""
"300","239344","pSARL_v2","pSARL_v2gz1q8v0h","63ea5b93d1c6d38e1f57dcfa","freq","img/orange_2bandit_a2.png","70","70","test","1","153","153","8","",""
"null","239861","pSARL_v2","pSARL_v2gz1q8v0h","63ea5b93d1c6d38e1f57dcfa","freq_resp","img/orange_2bandit_a.png","70","70","test","","","","8","",""
"null","240016","pSARL_v2","pSARL_v2gz1q8v0h","63ea5b93d1c6d38e1f57dcfa","fixation","img/fixation.png","null","","test","","","","","",""
"304","240323","pSARL_v2","pSARL_v2gz1q8v0h","63ea5b93d1c6d38e1f57dcfa","freq","img/orange_2bandit_a2.png","70","70","test","1","154","154","8","",""
"null","240824","pSARL_v2","pSARL_v2gz1q8v0h","63ea5b93d1c6d38e1f57dcfa","freq_resp","img/orange_2bandit_a.png","70","70","test","","","","8","",""
"null","240978","pSARL_v2","pSARL_v2gz1q8v0h","63ea5b93d1c6d38e1f57dcfa","fixation","img/fixation.png","null","","test","","","","","",""
"320","241301","pSARL_v2","pSARL_v2gz1q8v0h","63ea5b93d1c6d38e1f57dcfa","freq","img/orange_2bandit_a2.png","70","70","test","1","155","155","8","",""
"null","241791","pSARL_v2","pSARL_v2gz1q8v0h","63ea5b93d1c6d38e1f57dcfa","freq_resp","img/orange_2bandit_a.png","70","70","test","","","","8","",""
"null","241951","pSARL_v2","pSARL_v2gz1q8v0h","63ea5b93d1c6d38e1f57dcfa","fixation","img/fixation.png","null","","test","","","","","",""
"326","242279","pSARL_v2","pSARL_v2gz1q8v0h","63ea5b93d1c6d38e1f57dcfa","freq","img/orange_2bandit_a2.png","70","70","test","1","156","156","8","",""
"null","242770","pSARL_v2","pSARL_v2gz1q8v0h","63ea5b93d1c6d38e1f57dcfa","freq_resp","img/orange_2bandit_a.png","70","70","test","","","","8","",""
"null","242931","pSARL_v2","pSARL_v2gz1q8v0h","63ea5b93d1c6d38e1f57dcfa","fixation","img/fixation.png","null","","test","","","","","",""
"301","243234","pSARL_v2","pSARL_v2gz1q8v0h","63ea5b93d1c6d38e1f57dcfa","freq","img/orange_2bandit_a2.png","70","70","test","1","157","157","8","",""
"null","243742","pSARL_v2","pSARL_v2gz1q8v0h","63ea5b93d1c6d38e1f57dcfa","freq_resp","img/orange_2bandit_a.png","70","70","test","","","","8","",""
"null","243899","pSARL_v2","pSARL_v2gz1q8v0h","63ea5b93d1c6d38e1f57dcfa","fixation","img/fixation.png","null","","test","","","","","",""
"425","244327","pSARL_v2","pSARL_v2gz1q8v0h","63ea5b93d1c6d38e1f57dcfa","infreq","img/green_2bandit_a2.png","68","68","test","1","158","158","8","",""
"null","244716","pSARL_v2","pSARL_v2gz1q8v0h","63ea5b93d1c6d38e1f57dcfa","infreq_resp","img/green_2bandit_a.png","68","68","test","","","","8","",""
"null","244872","pSARL_v2","pSARL_v2gz1q8v0h","63ea5b93d1c6d38e1f57dcfa","fixation","img/fixation.png","null","","test","","","","","",""
"384","245260","pSARL_v2","pSARL_v2gz1q8v0h","63ea5b93d1c6d38e1f57dcfa","freq","img/orange_2bandit_a2.png","70","70","test","1","159","159","8","",""
"null","245691","pSARL_v2","pSARL_v2gz1q8v0h","63ea5b93d1c6d38e1f57dcfa","freq_resp","img/orange_2bandit_a.png","70","70","test","","","","8","",""
"null","245850","pSARL_v2","pSARL_v2gz1q8v0h","63ea5b93d1c6d38e1f57dcfa","fixation","img/fixation.png","null","","test","","","","","",""
"384","246238","pSARL_v2","pSARL_v2gz1q8v0h","63ea5b93d1c6d38e1f57dcfa","freq","img/orange_2bandit_a2.png","70","70","test","1","160","160","8","",""
"null","246671","pSARL_v2","pSARL_v2gz1q8v0h","63ea5b93d1c6d38e1f57dcfa","freq_resp","img/orange_2bandit_a.png","70","70","test","","","","8","",""
"null","246831","pSARL_v2","pSARL_v2gz1q8v0h","63ea5b93d1c6d38e1f57dcfa","fixation","img/fixation.png","null","","test","","","","","",""
"359","247193","pSARL_v2","pSARL_v2gz1q8v0h","63ea5b93d1c6d38e1f57dcfa","freq","img/orange_2bandit_a2.png","70","70","test","1","161","161","8","",""
"null","247649","pSARL_v2","pSARL_v2gz1q8v0h","63ea5b93d1c6d38e1f57dcfa","freq_resp","img/orange_2bandit_a.png","70","70","test","","","","8","",""
"null","247803","pSARL_v2","pSARL_v2gz1q8v0h","63ea5b93d1c6d38e1f57dcfa","fixation","img/fixation.png","null","","test","","","","","",""
"342","248148","pSARL_v2","pSARL_v2gz1q8v0h","63ea5b93d1c6d38e1f57dcfa","freq","img/orange_2bandit_a2.png","70","70","test","1","162","162","8","",""
"null","248622","pSARL_v2","pSARL_v2gz1q8v0h","63ea5b93d1c6d38e1f57dcfa","freq_resp","img/orange_2bandit_a.png","70","70","test","","","","8","",""
"null","248775","pSARL_v2","pSARL_v2gz1q8v0h","63ea5b93d1c6d38e1f57dcfa","fixation","img/fixation.png","null","","test","","","","","",""
"372","249150","pSARL_v2","pSARL_v2gz1q8v0h","63ea5b93d1c6d38e1f57dcfa","freq","img/orange_2bandit_a2.png","70","70","test","1","163","163","8","",""
"null","249601","pSARL_v2","pSARL_v2gz1q8v0h","63ea5b93d1c6d38e1f57dcfa","freq_resp","img/orange_2bandit_a.png","70","70","test","","","","8","",""
"null","249761","pSARL_v2","pSARL_v2gz1q8v0h","63ea5b93d1c6d38e1f57dcfa","fixation","img/fixation.png","null","","test","","","","","",""
"343","250106","pSARL_v2","pSARL_v2gz1q8v0h","63ea5b93d1c6d38e1f57dcfa","freq","img/orange_2bandit_a2.png","70","70","test","1","164","164","8","",""
"null","250581","pSARL_v2","pSARL_v2gz1q8v0h","63ea5b93d1c6d38e1f57dcfa","freq_resp","img/orange_2bandit_a.png","70","70","test","","","","8","",""
"null","250740","pSARL_v2","pSARL_v2gz1q8v0h","63ea5b93d1c6d38e1f57dcfa","fixation","img/fixation.png","null","","test","","","","","",""
"319","251063","pSARL_v2","pSARL_v2gz1q8v0h","63ea5b93d1c6d38e1f57dcfa","freq","img/orange_2bandit_a2.png","70","70","test","1","165","165","8","",""
"null","251552","pSARL_v2","pSARL_v2gz1q8v0h","63ea5b93d1c6d38e1f57dcfa","freq_resp","img/orange_2bandit_a.png","70","70","test","","","","8","",""
"null","251707","pSARL_v2","pSARL_v2gz1q8v0h","63ea5b93d1c6d38e1f57dcfa","fixation","img/fixation.png","null","","test","","","","","",""
"308","252017","pSARL_v2","pSARL_v2gz1q8v0h","63ea5b93d1c6d38e1f57dcfa","freq","img/orange_2bandit_a2.png","70","70","test","1","166","166","8","",""
"null","252527","pSARL_v2","pSARL_v2gz1q8v0h","63ea5b93d1c6d38e1f57dcfa","freq_resp","img/orange_2bandit_a.png","70","70","test","","","","8","",""
"null","252679","pSARL_v2","pSARL_v2gz1q8v0h","63ea5b93d1c6d38e1f57dcfa","fixation","img/fixation.png","null","","test","","","","","",""
"290","252973","pSARL_v2","pSARL_v2gz1q8v0h","63ea5b93d1c6d38e1f57dcfa","freq","img/orange_2bandit_a2.png","70","70","test","1","167","167","8","",""
"null","253500","pSARL_v2","pSARL_v2gz1q8v0h","63ea5b93d1c6d38e1f57dcfa","freq_resp","img/orange_2bandit_a.png","70","70","test","","","","8","",""
"null","253657","pSARL_v2","pSARL_v2gz1q8v0h","63ea5b93d1c6d38e1f57dcfa","fixation","img/fixation.png","null","","test","","","","","",""
"317","253975","pSARL_v2","pSARL_v2gz1q8v0h","63ea5b93d1c6d38e1f57dcfa","freq","img/orange_2bandit_a2.png","70","70","test","1","168","168","8","",""
"null","254462","pSARL_v2","pSARL_v2gz1q8v0h","63ea5b93d1c6d38e1f57dcfa","freq_resp","img/orange_2bandit_a.png","70","70","test","","","","8","",""
"null","254617","pSARL_v2","pSARL_v2gz1q8v0h","63ea5b93d1c6d38e1f57dcfa","fixation","img/fixation.png","null","","test","","","","","",""
"289","254909","pSARL_v2","pSARL_v2gz1q8v0h","63ea5b93d1c6d38e1f57dcfa","freq","img/orange_2bandit_a2.png","70","70","test","1","169","169","8","",""
"null","255423","pSARL_v2","pSARL_v2gz1q8v0h","63ea5b93d1c6d38e1f57dcfa","freq_resp","img/orange_2bandit_a.png","70","70","test","","","","8","",""
"null","255591","pSARL_v2","pSARL_v2gz1q8v0h","63ea5b93d1c6d38e1f57dcfa","fixation","img/fixation.png","null","","test","","","","","",""
"293","255887","pSARL_v2","pSARL_v2gz1q8v0h","63ea5b93d1c6d38e1f57dcfa","infreq","img/green_2bandit_a2.png","70","68","test","0","170","170","8","",""
"null","256411","pSARL_v2","pSARL_v2gz1q8v0h","63ea5b93d1c6d38e1f57dcfa","infreq_resp","img/green_2bandit_a.png","70","68","test","","","","8","",""
"null","256571","pSARL_v2","pSARL_v2gz1q8v0h","63ea5b93d1c6d38e1f57dcfa","fixation","img/fixation.png","null","","test","","","","","",""
"346","256920","pSARL_v2","pSARL_v2gz1q8v0h","63ea5b93d1c6d38e1f57dcfa","freq","img/orange_2bandit_a2.png","70","70","test","1","171","171","8","",""
"null","257391","pSARL_v2","pSARL_v2gz1q8v0h","63ea5b93d1c6d38e1f57dcfa","freq_resp","img/orange_2bandit_a.png","70","70","test","","","","8","",""
"null","257557","pSARL_v2","pSARL_v2gz1q8v0h","63ea5b93d1c6d38e1f57dcfa","fixation","img/fixation.png","null","","test","","","","","",""
"316","257875","pSARL_v2","pSARL_v2gz1q8v0h","63ea5b93d1c6d38e1f57dcfa","freq","img/orange_2bandit_a2.png","70","70","test","1","172","172","8","",""
"null","258365","pSARL_v2","pSARL_v2gz1q8v0h","63ea5b93d1c6d38e1f57dcfa","freq_resp","img/orange_2bandit_a.png","70","70","test","","","","8","",""
"null","258521","pSARL_v2","pSARL_v2gz1q8v0h","63ea5b93d1c6d38e1f57dcfa","fixation","img/fixation.png","null","","test","","","","","",""
"306","258831","pSARL_v2","pSARL_v2gz1q8v0h","63ea5b93d1c6d38e1f57dcfa","freq","img/orange_2bandit_a2.png","70","70","test","1","173","173","8","",""
"null","259327","pSARL_v2","pSARL_v2gz1q8v0h","63ea5b93d1c6d38e1f57dcfa","freq_resp","img/orange_2bandit_a.png","70","70","test","","","","8","",""
"null","259484","pSARL_v2","pSARL_v2gz1q8v0h","63ea5b93d1c6d38e1f57dcfa","fixation","img/fixation.png","null","","test","","","","","",""
"518","260005","pSARL_v2","pSARL_v2gz1q8v0h","63ea5b93d1c6d38e1f57dcfa","reward","img/slot.png","74","","test","","","","","",""
"null","260761","pSARL_v2","pSARL_v2gz1q8v0h","63ea5b93d1c6d38e1f57dcfa","points","<div class=""verylowPoints""> -4 </div>","null","na","test","","","","8","-4","7"
"401","261164","pSARL_v2","pSARL_v2gz1q8v0h","63ea5b93d1c6d38e1f57dcfa","freq","img/orange_2bandit_a2.png","70","70","test","1","174","174","9","",""
"null","261567","pSARL_v2","pSARL_v2gz1q8v0h","63ea5b93d1c6d38e1f57dcfa","freq_resp","img/orange_2bandit_a.png","70","70","test","","","","9","",""
"null","261723","pSARL_v2","pSARL_v2gz1q8v0h","63ea5b93d1c6d38e1f57dcfa","fixation","img/fixation.png","null","","test","","","","","",""
"348","262073","pSARL_v2","pSARL_v2gz1q8v0h","63ea5b93d1c6d38e1f57dcfa","freq","img/orange_2bandit_a2.png","70","70","test","1","175","175","9","",""
"null","262541","pSARL_v2","pSARL_v2gz1q8v0h","63ea5b93d1c6d38e1f57dcfa","freq_resp","img/orange_2bandit_a.png","70","70","test","","","","9","",""
"null","262696","pSARL_v2","pSARL_v2gz1q8v0h","63ea5b93d1c6d38e1f57dcfa","fixation","img/fixation.png","null","","test","","","","","",""
"490","263190","pSARL_v2","pSARL_v2gz1q8v0h","63ea5b93d1c6d38e1f57dcfa","infreq","img/green_2bandit_a2.png","68","68","test","1","176","176","9","",""
"null","263520","pSARL_v2","pSARL_v2gz1q8v0h","63ea5b93d1c6d38e1f57dcfa","infreq_resp","img/green_2bandit_a.png","68","68","test","","","","9","",""
"null","263681","pSARL_v2","pSARL_v2gz1q8v0h","63ea5b93d1c6d38e1f57dcfa","fixation","img/fixation.png","null","","test","","","","","",""
"417","264099","pSARL_v2","pSARL_v2gz1q8v0h","63ea5b93d1c6d38e1f57dcfa","freq","img/orange_2bandit_a2.png","70","70","test","1","177","177","9","",""
"null","264500","pSARL_v2","pSARL_v2gz1q8v0h","63ea5b93d1c6d38e1f57dcfa","freq_resp","img/orange_2bandit_a.png","70","70","test","","","","9","",""
"null","264661","pSARL_v2","pSARL_v2gz1q8v0h","63ea5b93d1c6d38e1f57dcfa","fixation","img/fixation.png","null","","test","","","","","",""
"368","265032","pSARL_v2","pSARL_v2gz1q8v0h","63ea5b93d1c6d38e1f57dcfa","freq","img/orange_2bandit_a2.png","70","70","test","1","178","178","9","",""
"null","265480","pSARL_v2","pSARL_v2gz1q8v0h","63ea5b93d1c6d38e1f57dcfa","freq_resp","img/orange_2bandit_a.png","70","70","test","","","","9","",""
"null","265644","pSARL_v2","pSARL_v2gz1q8v0h","63ea5b93d1c6d38e1f57dcfa","fixation","img/fixation.png","null","","test","","","","","",""
"340","265987","pSARL_v2","pSARL_v2gz1q8v0h","63ea5b93d1c6d38e1f57dcfa","freq","img/orange_2bandit_a2.png","70","70","test","1","179","179","9","",""
"null","266454","pSARL_v2","pSARL_v2gz1q8v0h","63ea5b93d1c6d38e1f57dcfa","freq_resp","img/orange_2bandit_a.png","70","70","test","","","","9","",""
"null","266610","pSARL_v2","pSARL_v2gz1q8v0h","63ea5b93d1c6d38e1f57dcfa","fixation","img/fixation.png","null","","test","","","","","",""
"307","266919","pSARL_v2","pSARL_v2gz1q8v0h","63ea5b93d1c6d38e1f57dcfa","infreq","img/green_2bandit_a2.png","70","68","test","0","180","180","9","",""
"null","267429","pSARL_v2","pSARL_v2gz1q8v0h","63ea5b93d1c6d38e1f57dcfa","infreq_resp","img/green_2bandit_a.png","70","68","test","","","","9","",""
"null","267600","pSARL_v2","pSARL_v2gz1q8v0h","63ea5b93d1c6d38e1f57dcfa","fixation","img/fixation.png","null","","test","","","","","",""
"417","268020","pSARL_v2","pSARL_v2gz1q8v0h","63ea5b93d1c6d38e1f57dcfa","freq","img/orange_2bandit_a2.png","70","70","test","1","181","181","9","",""
"null","268420","pSARL_v2","pSARL_v2gz1q8v0h","63ea5b93d1c6d38e1f57dcfa","freq_resp","img/orange_2bandit_a.png","70","70","test","","","","9","",""
"null","268581","pSARL_v2","pSARL_v2gz1q8v0h","63ea5b93d1c6d38e1f57dcfa","fixation","img/fixation.png","null","","test","","","","","",""
"369","268952","pSARL_v2","pSARL_v2gz1q8v0h","63ea5b93d1c6d38e1f57dcfa","freq","img/orange_2bandit_a2.png","70","70","test","1","182","182","9","",""
"null","269400","pSARL_v2","pSARL_v2gz1q8v0h","63ea5b93d1c6d38e1f57dcfa","freq_resp","img/orange_2bandit_a.png","70","70","test","","","","9","",""
"null","269567","pSARL_v2","pSARL_v2gz1q8v0h","63ea5b93d1c6d38e1f57dcfa","fixation","img/fixation.png","null","","test","","","","","",""
"475","270044","pSARL_v2","pSARL_v2gz1q8v0h","63ea5b93d1c6d38e1f57dcfa","infreq","img/green_2bandit_a2.png","68","68","test","1","183","183","9","",""
"null","270375","pSARL_v2","pSARL_v2gz1q8v0h","63ea5b93d1c6d38e1f57dcfa","infreq_resp","img/green_2bandit_a.png","68","68","test","","","","9","",""
"null","270531","pSARL_v2","pSARL_v2gz1q8v0h","63ea5b93d1c6d38e1f57dcfa","fixation","img/fixation.png","null","","test","","","","","",""
"375","270908","pSARL_v2","pSARL_v2gz1q8v0h","63ea5b93d1c6d38e1f57dcfa","freq","img/orange_2bandit_a2.png","70","70","test","1","184","184","9","",""
"null","271350","pSARL_v2","pSARL_v2gz1q8v0h","63ea5b93d1c6d38e1f57dcfa","freq_resp","img/orange_2bandit_a.png","70","70","test","","","","9","",""
"null","271504","pSARL_v2","pSARL_v2gz1q8v0h","63ea5b93d1c6d38e1f57dcfa","fixation","img/fixation.png","null","","test","","","","","",""
"332","271839","pSARL_v2","pSARL_v2gz1q8v0h","63ea5b93d1c6d38e1f57dcfa","freq","img/orange_2bandit_a2.png","70","70","test","1","185","185","9","",""
"null","272311","pSARL_v2","pSARL_v2gz1q8v0h","63ea5b93d1c6d38e1f57dcfa","freq_resp","img/orange_2bandit_a.png","70","70","test","","","","9","",""
"null","272465","pSARL_v2","pSARL_v2gz1q8v0h","63ea5b93d1c6d38e1f57dcfa","fixation","img/fixation.png","null","","test","","","","","",""
"326","272794","pSARL_v2","pSARL_v2gz1q8v0h","63ea5b93d1c6d38e1f57dcfa","freq","img/orange_2bandit_a2.png","70","70","test","1","186","186","9","",""
"null","273274","pSARL_v2","pSARL_v2gz1q8v0h","63ea5b93d1c6d38e1f57dcfa","freq_resp","img/orange_2bandit_a.png","70","70","test","","","","9","",""
"null","273429","pSARL_v2","pSARL_v2gz1q8v0h","63ea5b93d1c6d38e1f57dcfa","fixation","img/fixation.png","null","","test","","","","","",""
"318","273750","pSARL_v2","pSARL_v2gz1q8v0h","63ea5b93d1c6d38e1f57dcfa","freq","img/orange_2bandit_a2.png","70","70","test","1","187","187","9","",""
"null","274240","pSARL_v2","pSARL_v2gz1q8v0h","63ea5b93d1c6d38e1f57dcfa","freq_resp","img/orange_2bandit_a.png","70","70","test","","","","9","",""
"null","274401","pSARL_v2","pSARL_v2gz1q8v0h","63ea5b93d1c6d38e1f57dcfa","fixation","img/fixation.png","null","","test","","","","","",""
"301","274705","pSARL_v2","pSARL_v2gz1q8v0h","63ea5b93d1c6d38e1f57dcfa","freq","img/orange_2bandit_a2.png","70","70","test","1","188","188","9","",""
"null","275221","pSARL_v2","pSARL_v2gz1q8v0h","63ea5b93d1c6d38e1f57dcfa","freq_resp","img/orange_2bandit_a.png","70","70","test","","","","9","",""
"null","275381","pSARL_v2","pSARL_v2gz1q8v0h","63ea5b93d1c6d38e1f57dcfa","fixation","img/fixation.png","null","","test","","","","","",""
"301","275684","pSARL_v2","pSARL_v2gz1q8v0h","63ea5b93d1c6d38e1f57dcfa","freq","img/orange_2bandit_a2.png","70","70","test","1","189","189","9","",""
"null","276188","pSARL_v2","pSARL_v2gz1q8v0h","63ea5b93d1c6d38e1f57dcfa","freq_resp","img/orange_2bandit_a.png","70","70","test","","","","9","",""
"null","276342","pSARL_v2","pSARL_v2gz1q8v0h","63ea5b93d1c6d38e1f57dcfa","fixation","img/fixation.png","null","","test","","","","","",""
"296","276639","pSARL_v2","pSARL_v2gz1q8v0h","63ea5b93d1c6d38e1f57dcfa","freq","img/orange_2bandit_a2.png","70","70","test","1","190","190","9","",""
"null","277146","pSARL_v2","pSARL_v2gz1q8v0h","63ea5b93d1c6d38e1f57dcfa","freq_resp","img/orange_2bandit_a.png","70","70","test","","","","9","",""
"null","277302","pSARL_v2","pSARL_v2gz1q8v0h","63ea5b93d1c6d38e1f57dcfa","fixation","img/fixation.png","null","","test","","","","","",""
"335","277639","pSARL_v2","pSARL_v2gz1q8v0h","63ea5b93d1c6d38e1f57dcfa","freq","img/orange_2bandit_a2.png","70","70","test","1","191","191","9","",""
"null","278110","pSARL_v2","pSARL_v2gz1q8v0h","63ea5b93d1c6d38e1f57dcfa","freq_resp","img/orange_2bandit_a.png","70","70","test","","","","9","",""
"null","278271","pSARL_v2","pSARL_v2gz1q8v0h","63ea5b93d1c6d38e1f57dcfa","fixation","img/fixation.png","null","","test","","","","","",""
"322","278595","pSARL_v2","pSARL_v2gz1q8v0h","63ea5b93d1c6d38e1f57dcfa","freq","img/orange_2bandit_a2.png","70","70","test","1","192","192","9","",""
"null","279091","pSARL_v2","pSARL_v2gz1q8v0h","63ea5b93d1c6d38e1f57dcfa","freq_resp","img/orange_2bandit_a.png","70","70","test","","","","9","",""
"null","279251","pSARL_v2","pSARL_v2gz1q8v0h","63ea5b93d1c6d38e1f57dcfa","fixation","img/fixation.png","null","","test","","","","","",""
"297","279551","pSARL_v2","pSARL_v2gz1q8v0h","63ea5b93d1c6d38e1f57dcfa","freq","img/orange_2bandit_a2.png","70","70","test","1","193","193","9","",""
"null","280069","pSARL_v2","pSARL_v2gz1q8v0h","63ea5b93d1c6d38e1f57dcfa","freq_resp","img/orange_2bandit_a.png","70","70","test","","","","9","",""
"null","280226","pSARL_v2","pSARL_v2gz1q8v0h","63ea5b93d1c6d38e1f57dcfa","fixation","img/fixation.png","null","","test","","","","","",""
"299","280528","pSARL_v2","pSARL_v2gz1q8v0h","63ea5b93d1c6d38e1f57dcfa","freq","img/orange_2bandit_a2.png","70","70","test","1","194","194","9","",""
"null","281044","pSARL_v2","pSARL_v2gz1q8v0h","63ea5b93d1c6d38e1f57dcfa","freq_resp","img/orange_2bandit_a.png","70","70","test","","","","9","",""
"null","281198","pSARL_v2","pSARL_v2gz1q8v0h","63ea5b93d1c6d38e1f57dcfa","fixation","img/fixation.png","null","","test","","","","","",""
"352","281552","pSARL_v2","pSARL_v2gz1q8v0h","63ea5b93d1c6d38e1f57dcfa","freq","img/orange_2bandit_a2.png","70","70","test","1","195","195","9","",""
"null","282010","pSARL_v2","pSARL_v2gz1q8v0h","63ea5b93d1c6d38e1f57dcfa","freq_resp","img/orange_2bandit_a.png","70","70","test","","","","9","",""
"null","282170","pSARL_v2","pSARL_v2gz1q8v0h","63ea5b93d1c6d38e1f57dcfa","fixation","img/fixation.png","null","","test","","","","","",""
"335","282507","pSARL_v2","pSARL_v2gz1q8v0h","63ea5b93d1c6d38e1f57dcfa","freq","img/orange_2bandit_a2.png","70","70","test","1","196","196","9","",""
"null","282990","pSARL_v2","pSARL_v2gz1q8v0h","63ea5b93d1c6d38e1f57dcfa","freq_resp","img/orange_2bandit_a.png","70","70","test","","","","9","",""
"null","283150","pSARL_v2","pSARL_v2gz1q8v0h","63ea5b93d1c6d38e1f57dcfa","fixation","img/fixation.png","null","","test","","","","","",""
"3618","286771","pSARL_v2","pSARL_v2gz1q8v0h","63ea5b93d1c6d38e1f57dcfa","reward","img/slot.png","74","","test","","","","","",""
"null","287536","pSARL_v2","pSARL_v2gz1q8v0h","63ea5b93d1c6d38e1f57dcfa","points","<div class=""verylowPoints""> -3 </div>","null","na","test","","","","9","-3","8"
"576","288115","pSARL_v2","pSARL_v2gz1q8v0h","63ea5b93d1c6d38e1f57dcfa","freq","img/orange_2bandit_a2.png","70","70","test","1","197","197","10","",""
"null","288343","pSARL_v2","pSARL_v2gz1q8v0h","63ea5b93d1c6d38e1f57dcfa","freq_resp","img/orange_2bandit_a.png","70","70","test","","","","10","",""
"null","288497","pSARL_v2","pSARL_v2gz1q8v0h","63ea5b93d1c6d38e1f57dcfa","fixation","img/fixation.png","null","","test","","","","","",""
"547","289047","pSARL_v2","pSARL_v2gz1q8v0h","63ea5b93d1c6d38e1f57dcfa","freq","img/orange_2bandit_a2.png","70","70","test","1","198","198","10","",""
"null","289308","pSARL_v2","pSARL_v2gz1q8v0h","63ea5b93d1c6d38e1f57dcfa","freq_resp","img/orange_2bandit_a.png","70","70","test","","","","10","",""
"null","289462","pSARL_v2","pSARL_v2gz1q8v0h","63ea5b93d1c6d38e1f57dcfa","fixation","img/fixation.png","null","","test","","","","","",""
"515","289979","pSARL_v2","pSARL_v2gz1q8v0h","63ea5b93d1c6d38e1f57dcfa","freq","img/orange_2bandit_a2.png","70","70","test","1","199","199","10","",""
"null","290271","pSARL_v2","pSARL_v2gz1q8v0h","63ea5b93d1c6d38e1f57dcfa","freq_resp","img/orange_2bandit_a.png","70","70","test","","","","10","",""
"null","290431","pSARL_v2","pSARL_v2gz1q8v0h","63ea5b93d1c6d38e1f57dcfa","fixation","img/fixation.png","null","","test","","","","","",""
"432","290865","pSARL_v2","pSARL_v2gz1q8v0h","63ea5b93d1c6d38e1f57dcfa","freq","img/orange_2bandit_a2.png","70","70","test","1","200","200","10","",""
"null","291250","pSARL_v2","pSARL_v2gz1q8v0h","63ea5b93d1c6d38e1f57dcfa","freq_resp","img/orange_2bandit_a.png","70","70","test","","","","10","",""
"null","291411","pSARL_v2","pSARL_v2gz1q8v0h","63ea5b93d1c6d38e1f57dcfa","fixation","img/fixation.png","null","","test","","","","","",""
"431","291843","pSARL_v2","pSARL_v2gz1q8v0h","63ea5b93d1c6d38e1f57dcfa","freq","img/orange_2bandit_a2.png","70","70","test","1","201","201","10","",""
"null","292216","pSARL_v2","pSARL_v2gz1q8v0h","63ea5b93d1c6d38e1f57dcfa","freq_resp","img/orange_2bandit_a.png","70","70","test","","","","10","",""
"null","292373","pSARL_v2","pSARL_v2gz1q8v0h","63ea5b93d1c6d38e1f57dcfa","fixation","img/fixation.png","null","","test","","","","","",""
"400","292776","pSARL_v2","pSARL_v2gz1q8v0h","63ea5b93d1c6d38e1f57dcfa","freq","img/orange_2bandit_a2.png","70","70","test","1","202","202","10","",""
"null","293191","pSARL_v2","pSARL_v2gz1q8v0h","63ea5b93d1c6d38e1f57dcfa","freq_resp","img/orange_2bandit_a.png","70","70","test","","","","10","",""
"null","293343","pSARL_v2","pSARL_v2gz1q8v0h","63ea5b93d1c6d38e1f57dcfa","fixation","img/fixation.png","null","","test","","","","","",""
"362","293708","pSARL_v2","pSARL_v2gz1q8v0h","63ea5b93d1c6d38e1f57dcfa","freq","img/orange_2bandit_a2.png","70","70","test","1","203","203","10","",""
"null","294151","pSARL_v2","pSARL_v2gz1q8v0h","63ea5b93d1c6d38e1f57dcfa","freq_resp","img/orange_2bandit_a.png","70","70","test","","","","10","",""
"null","294310","pSARL_v2","pSARL_v2gz1q8v0h","63ea5b93d1c6d38e1f57dcfa","fixation","img/fixation.png","null","","test","","","","","",""
"350","294663","pSARL_v2","pSARL_v2gz1q8v0h","63ea5b93d1c6d38e1f57dcfa","freq","img/orange_2bandit_a2.png","70","70","test","1","204","204","10","",""
"null","295131","pSARL_v2","pSARL_v2gz1q8v0h","63ea5b93d1c6d38e1f57dcfa","freq_resp","img/orange_2bandit_a.png","70","70","test","","","","10","",""
"null","295291","pSARL_v2","pSARL_v2gz1q8v0h","63ea5b93d1c6d38e1f57dcfa","fixation","img/fixation.png","null","","test","","","","","",""
"325","295618","pSARL_v2","pSARL_v2gz1q8v0h","63ea5b93d1c6d38e1f57dcfa","freq","img/orange_2bandit_a2.png","70","70","test","1","205","205","10","",""
"null","296099","pSARL_v2","pSARL_v2gz1q8v0h","63ea5b93d1c6d38e1f57dcfa","freq_resp","img/orange_2bandit_a.png","70","70","test","","","","10","",""
"null","296254","pSARL_v2","pSARL_v2gz1q8v0h","63ea5b93d1c6d38e1f57dcfa","fixation","img/fixation.png","null","","test","","","","","",""
"316","296573","pSARL_v2","pSARL_v2gz1q8v0h","63ea5b93d1c6d38e1f57dcfa","freq","img/orange_2bandit_a2.png","70","70","test","1","206","206","10","",""
"null","297075","pSARL_v2","pSARL_v2gz1q8v0h","63ea5b93d1c6d38e1f57dcfa","freq_resp","img/orange_2bandit_a.png","70","70","test","","","","10","",""
"null","297230","pSARL_v2","pSARL_v2gz1q8v0h","63ea5b93d1c6d38e1f57dcfa","fixation","img/fixation.png","null","","test","","","","","",""
"319","297552","pSARL_v2","pSARL_v2gz1q8v0h","63ea5b93d1c6d38e1f57dcfa","freq","img/orange_2bandit_a2.png","70","70","test","1","207","207","10","",""
"null","298041","pSARL_v2","pSARL_v2gz1q8v0h","63ea5b93d1c6d38e1f57dcfa","freq_resp","img/orange_2bandit_a.png","70","70","test","","","","10","",""
"null","298201","pSARL_v2","pSARL_v2gz1q8v0h","63ea5b93d1c6d38e1f57dcfa","fixation","img/fixation.png","null","","test","","","","","",""
"281","298484","pSARL_v2","pSARL_v2gz1q8v0h","63ea5b93d1c6d38e1f57dcfa","freq","img/orange_2bandit_a2.png","70","70","test","1","208","208","10","",""
"null","299021","pSARL_v2","pSARL_v2gz1q8v0h","63ea5b93d1c6d38e1f57dcfa","freq_resp","img/orange_2bandit_a.png","70","70","test","","","","10","",""
"null","299181","pSARL_v2","pSARL_v2gz1q8v0h","63ea5b93d1c6d38e1f57dcfa","fixation","img/fixation.png","null","","test","","","","","",""
"280","299463","pSARL_v2","pSARL_v2gz1q8v0h","63ea5b93d1c6d38e1f57dcfa","freq","img/orange_2bandit_a2.png","70","70","test","1","209","209","10","",""
"null","300001","pSARL_v2","pSARL_v2gz1q8v0h","63ea5b93d1c6d38e1f57dcfa","freq_resp","img/orange_2bandit_a.png","70","70","test","","","","10","",""
"null","300156","pSARL_v2","pSARL_v2gz1q8v0h","63ea5b93d1c6d38e1f57dcfa","fixation","img/fixation.png","null","","test","","","","","",""
"307","300464","pSARL_v2","pSARL_v2gz1q8v0h","63ea5b93d1c6d38e1f57dcfa","freq","img/orange_2bandit_a2.png","70","70","test","1","210","210","10","",""
"null","300976","pSARL_v2","pSARL_v2gz1q8v0h","63ea5b93d1c6d38e1f57dcfa","freq_resp","img/orange_2bandit_a.png","70","70","test","","","","10","",""
"null","301130","pSARL_v2","pSARL_v2gz1q8v0h","63ea5b93d1c6d38e1f57dcfa","fixation","img/fixation.png","null","","test","","","","","",""
"310","301443","pSARL_v2","pSARL_v2gz1q8v0h","63ea5b93d1c6d38e1f57dcfa","freq","img/orange_2bandit_a2.png","70","70","test","1","211","211","10","",""
"null","301949","pSARL_v2","pSARL_v2gz1q8v0h","63ea5b93d1c6d38e1f57dcfa","freq_resp","img/orange_2bandit_a.png","70","70","test","","","","10","",""
"null","302104","pSARL_v2","pSARL_v2gz1q8v0h","63ea5b93d1c6d38e1f57dcfa","fixation","img/fixation.png","null","","test","","","","","",""
