"rt","time_elapsed","expId","subject","prolificID","trialType","stimulus","key_press","corrresp","phase","corr","trialNum","attentionRunNum","blockNum","points","rlNum"
"1310","1314","pSARL_v2","pSARL_v25wg7d4g9","5ba064c10d4416000157a224","","","","","","","","","","",""
"","3252","pSARL_v2","pSARL_v25wg7d4g9","5ba064c10d4416000157a224","fullscreen","","","","","","","","","",""
"84024","87280","pSARL_v2","pSARL_v25wg7d4g9","5ba064c10d4416000157a224","","","","","","","","","","",""
"null","88092","pSARL_v2","pSARL_v25wg7d4g9","5ba064c10d4416000157a224","freqPrac","img/orange_2bandit_a2.png","null","70","prac","0","","","","",""
"null","89097","pSARL_v2","pSARL_v25wg7d4g9","5ba064c10d4416000157a224","feedback","img/tooSlow.png","null","na","prac","","","","","",""
"null","89251","pSARL_v2","pSARL_v25wg7d4g9","5ba064c10d4416000157a224","fixation","img/fixation.png","null","","prac","","","","","",""
"null","90055","pSARL_v2","pSARL_v25wg7d4g9","5ba064c10d4416000157a224","infreqPrac","img/green_2bandit_a2.png","null","68","prac","0","","","","",""
"null","91066","pSARL_v2","pSARL_v25wg7d4g9","5ba064c10d4416000157a224","feedback","img/tooSlow.png","null","na","prac","","","","","",""
"null","91223","pSARL_v2","pSARL_v25wg7d4g9","5ba064c10d4416000157a224","fixation","img/fixation.png","null","","prac","","","","","",""
"652","91879","pSARL_v2","pSARL_v25wg7d4g9","5ba064c10d4416000157a224","freqPrac","img/orange_2bandit_a2.png","68","70","prac","0","","","","",""
"652","92045","pSARL_v2","pSARL_v25wg7d4g9","5ba064c10d4416000157a224","freqPrac_resp","img/orange_2bandit_a.png","68","70","prac","","","","","",""
"null","93053","pSARL_v2","pSARL_v25wg7d4g9","5ba064c10d4416000157a224","feedback","img/wrongKey.png","null","na","prac","","","","","",""
"null","93207","pSARL_v2","pSARL_v25wg7d4g9","5ba064c10d4416000157a224","fixation","img/fixation.png","null","","prac","","","","","",""
"708","93917","pSARL_v2","pSARL_v25wg7d4g9","5ba064c10d4416000157a224","infreqPrac","img/green_2bandit_a2.png","68","68","prac","1","","","","",""
"708","94027","pSARL_v2","pSARL_v25wg7d4g9","5ba064c10d4416000157a224","infreqPrac_resp","img/green_2bandit_a.png","68","68","prac","","","","","",""
"19","94182","pSARL_v2","pSARL_v25wg7d4g9","5ba064c10d4416000157a224","fixation","img/fixation.png","68","","prac","","","","","",""
"568","94751","pSARL_v2","pSARL_v25wg7d4g9","5ba064c10d4416000157a224","infreqPrac","img/green_2bandit_a2.png","68","68","prac","1","","","","",""
"568","94989","pSARL_v2","pSARL_v25wg7d4g9","5ba064c10d4416000157a224","infreqPrac_resp","img/green_2bandit_a.png","68","68","prac","","","","","",""
"null","95144","pSARL_v2","pSARL_v25wg7d4g9","5ba064c10d4416000157a224","fixation","img/fixation.png","null","","prac","","","","","",""
"361","95507","pSARL_v2","pSARL_v25wg7d4g9","5ba064c10d4416000157a224","infreqPrac","img/green_2bandit_a2.png","68","68","prac","1","","","","",""
"361","95951","pSARL_v2","pSARL_v25wg7d4g9","5ba064c10d4416000157a224","infreqPrac_resp","img/green_2bandit_a.png","68","68","prac","","","","","",""
"null","96108","pSARL_v2","pSARL_v25wg7d4g9","5ba064c10d4416000157a224","fixation","img/fixation.png","null","","prac","","","","","",""
"191","96303","pSARL_v2","pSARL_v25wg7d4g9","5ba064c10d4416000157a224","freqPrac","img/orange_2bandit_a2.png","68","70","prac","0","","","","",""
"191","96915","pSARL_v2","pSARL_v25wg7d4g9","5ba064c10d4416000157a224","freqPrac_resp","img/orange_2bandit_a.png","68","70","prac","","","","","",""
"null","97926","pSARL_v2","pSARL_v25wg7d4g9","5ba064c10d4416000157a224","feedback","img/wrongKey.png","null","na","prac","","","","","",""
"null","98083","pSARL_v2","pSARL_v25wg7d4g9","5ba064c10d4416000157a224","fixation","img/fixation.png","null","","prac","","","","","",""
"511","98597","pSARL_v2","pSARL_v25wg7d4g9","5ba064c10d4416000157a224","infreqPrac","img/green_2bandit_a2.png","70","68","prac","0","","","","",""
"511","98902","pSARL_v2","pSARL_v25wg7d4g9","5ba064c10d4416000157a224","infreqPrac_resp","img/green_2bandit_a.png","70","68","prac","","","","","",""
"null","99912","pSARL_v2","pSARL_v25wg7d4g9","5ba064c10d4416000157a224","feedback","img/wrongKey.png","null","na","prac","","","","","",""
"null","100067","pSARL_v2","pSARL_v25wg7d4g9","5ba064c10d4416000157a224","fixation","img/fixation.png","null","","prac","","","","","",""
"357","100426","pSARL_v2","pSARL_v25wg7d4g9","5ba064c10d4416000157a224","freqPrac","img/orange_2bandit_a2.png","68","70","prac","0","","","","",""
"357","100876","pSARL_v2","pSARL_v25wg7d4g9","5ba064c10d4416000157a224","freqPrac_resp","img/orange_2bandit_a.png","68","70","prac","","","","","",""
"null","101879","pSARL_v2","pSARL_v25wg7d4g9","5ba064c10d4416000157a224","feedback","img/wrongKey.png","null","na","prac","","","","","",""
"null","102046","pSARL_v2","pSARL_v25wg7d4g9","5ba064c10d4416000157a224","fixation","img/fixation.png","null","","prac","","","","","",""
"550","102599","pSARL_v2","pSARL_v25wg7d4g9","5ba064c10d4416000157a224","freqPrac","img/orange_2bandit_a2.png","70","70","prac","1","","","","",""
"550","102854","pSARL_v2","pSARL_v25wg7d4g9","5ba064c10d4416000157a224","freqPrac_resp","img/orange_2bandit_a.png","70","70","prac","","","","","",""
"null","103009","pSARL_v2","pSARL_v25wg7d4g9","5ba064c10d4416000157a224","fixation","img/fixation.png","null","","prac","","","","","",""
"27675","130686","pSARL_v2","pSARL_v25wg7d4g9","5ba064c10d4416000157a224","","","","","prac","","","","","",""
"972","131662","pSARL_v2","pSARL_v25wg7d4g9","5ba064c10d4416000157a224","rewardPractice","img/slot.png","74","","prac","","","","","",""
"null","132426","pSARL_v2","pSARL_v25wg7d4g9","5ba064c10d4416000157a224","feedback","<div class=""veryhighPoints""> +15 </div>","null","na","prac","","","","","",""
"null","132580","pSARL_v2","pSARL_v25wg7d4g9","5ba064c10d4416000157a224","fixation","img/fixation.png","null","","prac","","","","","",""
"12668","145250","pSARL_v2","pSARL_v25wg7d4g9","5ba064c10d4416000157a224","","","","","prac","","","","","",""
"615","145868","pSARL_v2","pSARL_v25wg7d4g9","5ba064c10d4416000157a224","freq","img/orange_2bandit_a2.png","70","70","test","1","1","1","1","",""
"null","146057","pSARL_v2","pSARL_v25wg7d4g9","5ba064c10d4416000157a224","freq_resp","img/orange_2bandit_a.png","70","70","test","","","","1","",""
"null","146212","pSARL_v2","pSARL_v25wg7d4g9","5ba064c10d4416000157a224","fixation","img/fixation.png","null","","test","","","","","",""
"347","146562","pSARL_v2","pSARL_v25wg7d4g9","5ba064c10d4416000157a224","freq","img/orange_2bandit_a2.png","70","70","test","1","2","2","1","",""
"null","147020","pSARL_v2","pSARL_v25wg7d4g9","5ba064c10d4416000157a224","freq_resp","img/orange_2bandit_a.png","70","70","test","","","","1","",""
"null","147177","pSARL_v2","pSARL_v25wg7d4g9","5ba064c10d4416000157a224","fixation","img/fixation.png","null","","test","","","","","",""
"174","147354","pSARL_v2","pSARL_v25wg7d4g9","5ba064c10d4416000157a224","freq","img/orange_2bandit_a2.png","70","70","test","1","3","3","1","",""
"null","147986","pSARL_v2","pSARL_v25wg7d4g9","5ba064c10d4416000157a224","freq_resp","img/orange_2bandit_a.png","70","70","test","","","","1","",""
"null","148141","pSARL_v2","pSARL_v25wg7d4g9","5ba064c10d4416000157a224","fixation","img/fixation.png","null","","test","","","","","",""
"348","148491","pSARL_v2","pSARL_v25wg7d4g9","5ba064c10d4416000157a224","freq","img/orange_2bandit_a2.png","70","70","test","1","4","4","1","",""
"null","148949","pSARL_v2","pSARL_v25wg7d4g9","5ba064c10d4416000157a224","freq_resp","img/orange_2bandit_a.png","70","70","test","","","","1","",""
"null","149103","pSARL_v2","pSARL_v25wg7d4g9","5ba064c10d4416000157a224","fixation","img/fixation.png","null","","test","","","","","",""
"132","149236","pSARL_v2","pSARL_v25wg7d4g9","5ba064c10d4416000157a224","freq","img/orange_2bandit_a2.png","70","70","test","1","5","5","1","",""
"null","149910","pSARL_v2","pSARL_v25wg7d4g9","5ba064c10d4416000157a224","freq_resp","img/orange_2bandit_a.png","70","70","test","","","","1","",""
"null","150067","pSARL_v2","pSARL_v25wg7d4g9","5ba064c10d4416000157a224","fixation","img/fixation.png","null","","test","","","","","",""
"109","150180","pSARL_v2","pSARL_v25wg7d4g9","5ba064c10d4416000157a224","freq","img/orange_2bandit_a2.png","70","70","test","1","6","6","1","",""
"null","150889","pSARL_v2","pSARL_v25wg7d4g9","5ba064c10d4416000157a224","freq_resp","img/orange_2bandit_a.png","70","70","test","","","","1","",""
"null","151059","pSARL_v2","pSARL_v25wg7d4g9","5ba064c10d4416000157a224","fixation","img/fixation.png","null","","test","","","","","",""
"201","151262","pSARL_v2","pSARL_v25wg7d4g9","5ba064c10d4416000157a224","infreq","img/green_2bandit_a2.png","70","68","test","0","7","7","1","",""
"null","151866","pSARL_v2","pSARL_v25wg7d4g9","5ba064c10d4416000157a224","infreq_resp","img/green_2bandit_a.png","70","68","test","","","","1","",""
"null","152021","pSARL_v2","pSARL_v25wg7d4g9","5ba064c10d4416000157a224","fixation","img/fixation.png","null","","test","","","","","",""
"121","152144","pSARL_v2","pSARL_v25wg7d4g9","5ba064c10d4416000157a224","freq","img/orange_2bandit_a2.png","68","70","test","0","8","8","1","",""
"null","152841","pSARL_v2","pSARL_v25wg7d4g9","5ba064c10d4416000157a224","freq_resp","img/orange_2bandit_a.png","68","70","test","","","","1","",""
"null","152995","pSARL_v2","pSARL_v25wg7d4g9","5ba064c10d4416000157a224","fixation","img/fixation.png","null","","test","","","","","",""
"369","153366","pSARL_v2","pSARL_v25wg7d4g9","5ba064c10d4416000157a224","freq","img/orange_2bandit_a2.png","68","70","test","0","9","9","1","",""
"null","153806","pSARL_v2","pSARL_v25wg7d4g9","5ba064c10d4416000157a224","freq_resp","img/orange_2bandit_a.png","68","70","test","","","","1","",""
"null","153971","pSARL_v2","pSARL_v25wg7d4g9","5ba064c10d4416000157a224","fixation","img/fixation.png","null","","test","","","","","",""
"306","154278","pSARL_v2","pSARL_v25wg7d4g9","5ba064c10d4416000157a224","freq","img/orange_2bandit_a2.png","70","70","test","1","10","10","1","",""
"null","154777","pSARL_v2","pSARL_v25wg7d4g9","5ba064c10d4416000157a224","freq_resp","img/orange_2bandit_a.png","70","70","test","","","","1","",""
"null","154932","pSARL_v2","pSARL_v25wg7d4g9","5ba064c10d4416000157a224","fixation","img/fixation.png","null","","test","","","","","",""
"212","155147","pSARL_v2","pSARL_v25wg7d4g9","5ba064c10d4416000157a224","freq","img/orange_2bandit_a2.png","70","70","test","1","11","11","1","",""
"null","155739","pSARL_v2","pSARL_v25wg7d4g9","5ba064c10d4416000157a224","freq_resp","img/orange_2bandit_a.png","70","70","test","","","","1","",""
"null","155894","pSARL_v2","pSARL_v25wg7d4g9","5ba064c10d4416000157a224","fixation","img/fixation.png","null","","test","","","","","",""
"222","156119","pSARL_v2","pSARL_v25wg7d4g9","5ba064c10d4416000157a224","freq","img/orange_2bandit_a2.png","70","70","test","1","12","12","1","",""
"null","156701","pSARL_v2","pSARL_v25wg7d4g9","5ba064c10d4416000157a224","freq_resp","img/orange_2bandit_a.png","70","70","test","","","","1","",""
"null","156857","pSARL_v2","pSARL_v25wg7d4g9","5ba064c10d4416000157a224","fixation","img/fixation.png","null","","test","","","","","",""
"242","157099","pSARL_v2","pSARL_v25wg7d4g9","5ba064c10d4416000157a224","freq","img/orange_2bandit_a2.png","70","70","test","1","13","13","1","",""
"null","157665","pSARL_v2","pSARL_v25wg7d4g9","5ba064c10d4416000157a224","freq_resp","img/orange_2bandit_a.png","70","70","test","","","","1","",""
"null","157820","pSARL_v2","pSARL_v25wg7d4g9","5ba064c10d4416000157a224","fixation","img/fixation.png","null","","test","","","","","",""
"279","158102","pSARL_v2","pSARL_v25wg7d4g9","5ba064c10d4416000157a224","infreq","img/green_2bandit_a2.png","70","68","test","0","14","14","1","",""
"null","158640","pSARL_v2","pSARL_v25wg7d4g9","5ba064c10d4416000157a224","infreq_resp","img/green_2bandit_a.png","70","68","test","","","","1","",""
"null","158797","pSARL_v2","pSARL_v25wg7d4g9","5ba064c10d4416000157a224","fixation","img/fixation.png","null","","test","","","","","",""
"343","159141","pSARL_v2","pSARL_v25wg7d4g9","5ba064c10d4416000157a224","freq","img/orange_2bandit_a2.png","70","70","test","1","15","15","1","",""
"null","159603","pSARL_v2","pSARL_v25wg7d4g9","5ba064c10d4416000157a224","freq_resp","img/orange_2bandit_a.png","70","70","test","","","","1","",""
"null","159759","pSARL_v2","pSARL_v25wg7d4g9","5ba064c10d4416000157a224","fixation","img/fixation.png","null","","test","","","","","",""
"334","160095","pSARL_v2","pSARL_v25wg7d4g9","5ba064c10d4416000157a224","freq","img/orange_2bandit_a2.png","70","70","test","1","16","16","1","",""
"null","160566","pSARL_v2","pSARL_v25wg7d4g9","5ba064c10d4416000157a224","freq_resp","img/orange_2bandit_a.png","70","70","test","","","","1","",""
"null","160720","pSARL_v2","pSARL_v25wg7d4g9","5ba064c10d4416000157a224","fixation","img/fixation.png","null","","test","","","","","",""
"251","160974","pSARL_v2","pSARL_v25wg7d4g9","5ba064c10d4416000157a224","freq","img/orange_2bandit_a2.png","70","70","test","1","17","17","1","",""
"null","161541","pSARL_v2","pSARL_v25wg7d4g9","5ba064c10d4416000157a224","freq_resp","img/orange_2bandit_a.png","70","70","test","","","","1","",""
"null","161697","pSARL_v2","pSARL_v25wg7d4g9","5ba064c10d4416000157a224","fixation","img/fixation.png","null","","test","","","","","",""
"298","161998","pSARL_v2","pSARL_v25wg7d4g9","5ba064c10d4416000157a224","infreq","img/green_2bandit_a2.png","68","68","test","1","18","18","1","",""
"null","162503","pSARL_v2","pSARL_v25wg7d4g9","5ba064c10d4416000157a224","infreq_resp","img/green_2bandit_a.png","68","68","test","","","","1","",""
"null","162659","pSARL_v2","pSARL_v25wg7d4g9","5ba064c10d4416000157a224","fixation","img/fixation.png","null","","test","","","","","",""
"706","163368","pSARL_v2","pSARL_v25wg7d4g9","5ba064c10d4416000157a224","freq","img/orange_2bandit_a2.png","70","70","test","1","19","19","1","",""
"null","163466","pSARL_v2","pSARL_v25wg7d4g9","5ba064c10d4416000157a224","freq_resp","img/orange_2bandit_a.png","70","70","test","","","","1","",""
"null","163619","pSARL_v2","pSARL_v25wg7d4g9","5ba064c10d4416000157a224","fixation","img/fixation.png","null","","test","","","","","",""
"547","164169","pSARL_v2","pSARL_v25wg7d4g9","5ba064c10d4416000157a224","freq","img/orange_2bandit_a2.png","70","70","test","1","20","20","1","",""
"null","164441","pSARL_v2","pSARL_v25wg7d4g9","5ba064c10d4416000157a224","freq_resp","img/orange_2bandit_a.png","70","70","test","","","","1","",""
"null","164595","pSARL_v2","pSARL_v25wg7d4g9","5ba064c10d4416000157a224","fixation","img/fixation.png","null","","test","","","","","",""
"320","164918","pSARL_v2","pSARL_v25wg7d4g9","5ba064c10d4416000157a224","freq","img/orange_2bandit_a2.png","70","70","test","1","21","21","1","",""
"null","165416","pSARL_v2","pSARL_v25wg7d4g9","5ba064c10d4416000157a224","freq_resp","img/orange_2bandit_a.png","70","70","test","","","","1","",""
"null","165571","pSARL_v2","pSARL_v25wg7d4g9","5ba064c10d4416000157a224","fixation","img/fixation.png","null","","test","","","","","",""
"280","165853","pSARL_v2","pSARL_v25wg7d4g9","5ba064c10d4416000157a224","freq","img/orange_2bandit_a2.png","70","70","test","1","22","22","1","",""
"null","166378","pSARL_v2","pSARL_v25wg7d4g9","5ba064c10d4416000157a224","freq_resp","img/orange_2bandit_a.png","70","70","test","","","","1","",""
"null","166533","pSARL_v2","pSARL_v25wg7d4g9","5ba064c10d4416000157a224","fixation","img/fixation.png","null","","test","","","","","",""
"260","166794","pSARL_v2","pSARL_v25wg7d4g9","5ba064c10d4416000157a224","freq","img/orange_2bandit_a2.png","70","70","test","1","23","23","1","",""
"null","167336","pSARL_v2","pSARL_v25wg7d4g9","5ba064c10d4416000157a224","freq_resp","img/orange_2bandit_a.png","70","70","test","","","","1","",""
"null","167492","pSARL_v2","pSARL_v25wg7d4g9","5ba064c10d4416000157a224","fixation","img/fixation.png","null","","test","","","","","",""
"259","167754","pSARL_v2","pSARL_v25wg7d4g9","5ba064c10d4416000157a224","freq","img/orange_2bandit_a2.png","70","70","test","1","24","24","1","",""
"null","168313","pSARL_v2","pSARL_v25wg7d4g9","5ba064c10d4416000157a224","freq_resp","img/orange_2bandit_a.png","70","70","test","","","","1","",""
"null","168469","pSARL_v2","pSARL_v25wg7d4g9","5ba064c10d4416000157a224","fixation","img/fixation.png","null","","test","","","","","",""
"637","169109","pSARL_v2","pSARL_v25wg7d4g9","5ba064c10d4416000157a224","reward","img/slot.png","74","","test","","","","","",""
"null","169865","pSARL_v2","pSARL_v25wg7d4g9","5ba064c10d4416000157a224","points","<div class=""verylowPoints""> -6 </div>","null","na","test","","","","1","-6","0"
"531","170399","pSARL_v2","pSARL_v25wg7d4g9","5ba064c10d4416000157a224","freq","img/orange_2bandit_a2.png","70","70","test","1","25","25","2","",""
"null","170686","pSARL_v2","pSARL_v25wg7d4g9","5ba064c10d4416000157a224","freq_resp","img/orange_2bandit_a.png","70","70","test","","","","2","",""
"null","170841","pSARL_v2","pSARL_v25wg7d4g9","5ba064c10d4416000157a224","fixation","img/fixation.png","null","","test","","","","","",""
"276","171118","pSARL_v2","pSARL_v25wg7d4g9","5ba064c10d4416000157a224","freq","img/orange_2bandit_a2.png","70","70","test","1","26","26","2","",""
"null","171660","pSARL_v2","pSARL_v25wg7d4g9","5ba064c10d4416000157a224","freq_resp","img/orange_2bandit_a.png","70","70","test","","","","2","",""
"null","171816","pSARL_v2","pSARL_v25wg7d4g9","5ba064c10d4416000157a224","fixation","img/fixation.png","null","","test","","","","","",""
"61","171879","pSARL_v2","pSARL_v25wg7d4g9","5ba064c10d4416000157a224","freq","img/orange_2bandit_a2.png","70","70","test","1","27","27","2","",""
"null","172622","pSARL_v2","pSARL_v25wg7d4g9","5ba064c10d4416000157a224","freq_resp","img/orange_2bandit_a.png","70","70","test","","","","2","",""
"null","172778","pSARL_v2","pSARL_v25wg7d4g9","5ba064c10d4416000157a224","fixation","img/fixation.png","null","","test","","","","","",""
"277","173057","pSARL_v2","pSARL_v25wg7d4g9","5ba064c10d4416000157a224","freq","img/orange_2bandit_a2.png","70","70","test","1","28","28","2","",""
"null","173587","pSARL_v2","pSARL_v25wg7d4g9","5ba064c10d4416000157a224","freq_resp","img/orange_2bandit_a.png","70","70","test","","","","2","",""
"null","173741","pSARL_v2","pSARL_v25wg7d4g9","5ba064c10d4416000157a224","fixation","img/fixation.png","null","","test","","","","","",""
"398","174141","pSARL_v2","pSARL_v25wg7d4g9","5ba064c10d4416000157a224","infreq","img/green_2bandit_a2.png","68","68","test","1","29","29","2","",""
"null","174550","pSARL_v2","pSARL_v25wg7d4g9","5ba064c10d4416000157a224","infreq_resp","img/green_2bandit_a.png","68","68","test","","","","2","",""
"null","174705","pSARL_v2","pSARL_v25wg7d4g9","5ba064c10d4416000157a224","fixation","img/fixation.png","null","","test","","","","","",""
"356","175062","pSARL_v2","pSARL_v25wg7d4g9","5ba064c10d4416000157a224","freq","img/orange_2bandit_a2.png","70","70","test","1","30","30","2","",""
"null","175515","pSARL_v2","pSARL_v25wg7d4g9","5ba064c10d4416000157a224","freq_resp","img/orange_2bandit_a.png","70","70","test","","","","2","",""
"null","175669","pSARL_v2","pSARL_v25wg7d4g9","5ba064c10d4416000157a224","fixation","img/fixation.png","null","","test","","","","","",""
"384","176056","pSARL_v2","pSARL_v25wg7d4g9","5ba064c10d4416000157a224","infreq","img/green_2bandit_a2.png","68","68","test","1","31","31","2","",""
"null","176489","pSARL_v2","pSARL_v25wg7d4g9","5ba064c10d4416000157a224","infreq_resp","img/green_2bandit_a.png","68","68","test","","","","2","",""
"null","176644","pSARL_v2","pSARL_v25wg7d4g9","5ba064c10d4416000157a224","fixation","img/fixation.png","null","","test","","","","","",""
"345","176992","pSARL_v2","pSARL_v25wg7d4g9","5ba064c10d4416000157a224","freq","img/orange_2bandit_a2.png","70","70","test","1","32","32","2","",""
"null","177463","pSARL_v2","pSARL_v25wg7d4g9","5ba064c10d4416000157a224","freq_resp","img/orange_2bandit_a.png","70","70","test","","","","2","",""
"null","177616","pSARL_v2","pSARL_v25wg7d4g9","5ba064c10d4416000157a224","fixation","img/fixation.png","null","","test","","","","","",""
"332","177951","pSARL_v2","pSARL_v25wg7d4g9","5ba064c10d4416000157a224","freq","img/orange_2bandit_a2.png","70","70","test","1","33","33","2","",""
"null","178421","pSARL_v2","pSARL_v25wg7d4g9","5ba064c10d4416000157a224","freq_resp","img/orange_2bandit_a.png","70","70","test","","","","2","",""
"null","178576","pSARL_v2","pSARL_v25wg7d4g9","5ba064c10d4416000157a224","fixation","img/fixation.png","null","","test","","","","","",""
"409","178988","pSARL_v2","pSARL_v25wg7d4g9","5ba064c10d4416000157a224","freq","img/orange_2bandit_a2.png","70","70","test","1","34","34","2","",""
"null","179384","pSARL_v2","pSARL_v25wg7d4g9","5ba064c10d4416000157a224","freq_resp","img/orange_2bandit_a.png","70","70","test","","","","2","",""
"null","179539","pSARL_v2","pSARL_v25wg7d4g9","5ba064c10d4416000157a224","fixation","img/fixation.png","null","","test","","","","","",""
"314","179855","pSARL_v2","pSARL_v25wg7d4g9","5ba064c10d4416000157a224","freq","img/orange_2bandit_a2.png","70","70","test","1","35","35","2","",""
"null","180350","pSARL_v2","pSARL_v25wg7d4g9","5ba064c10d4416000157a224","freq_resp","img/orange_2bandit_a.png","70","70","test","","","","2","",""
"null","180507","pSARL_v2","pSARL_v25wg7d4g9","5ba064c10d4416000157a224","fixation","img/fixation.png","null","","test","","","","","",""
"267","180777","pSARL_v2","pSARL_v25wg7d4g9","5ba064c10d4416000157a224","freq","img/orange_2bandit_a2.png","70","70","test","1","36","36","2","",""
"null","181326","pSARL_v2","pSARL_v25wg7d4g9","5ba064c10d4416000157a224","freq_resp","img/orange_2bandit_a.png","70","70","test","","","","2","",""
"null","181483","pSARL_v2","pSARL_v25wg7d4g9","5ba064c10d4416000157a224","fixation","img/fixation.png","null","","test","","","","","",""
"290","181777","pSARL_v2","pSARL_v25wg7d4g9","5ba064c10d4416000157a224","freq","img/orange_2bandit_a2.png","70","70","test","1","37","37","2","",""
"null","182295","pSARL_v2","pSARL_v25wg7d4g9","5ba064c10d4416000157a224","freq_resp","img/orange_2bandit_a.png","70","70","test","","","","2","",""
"null","182463","pSARL_v2","pSARL_v25wg7d4g9","5ba064c10d4416000157a224","fixation","img/fixation.png","null","","test","","","","","",""
"220","182685","pSARL_v2","pSARL_v25wg7d4g9","5ba064c10d4416000157a224","freq","img/orange_2bandit_a2.png","70","70","test","1","38","38","2","",""
"null","183281","pSARL_v2","pSARL_v25wg7d4g9","5ba064c10d4416000157a224","freq_resp","img/orange_2bandit_a.png","70","70","test","","","","2","",""
"null","183435","pSARL_v2","pSARL_v25wg7d4g9","5ba064c10d4416000157a224","fixation","img/fixation.png","null","","test","","","","","",""
"265","183702","pSARL_v2","pSARL_v25wg7d4g9","5ba064c10d4416000157a224","freq","img/orange_2bandit_a2.png","70","70","test","1","39","39","2","",""
"null","184241","pSARL_v2","pSARL_v25wg7d4g9","5ba064c10d4416000157a224","freq_resp","img/orange_2bandit_a.png","70","70","test","","","","2","",""
"null","184397","pSARL_v2","pSARL_v25wg7d4g9","5ba064c10d4416000157a224","fixation","img/fixation.png","null","","test","","","","","",""
"251","184649","pSARL_v2","pSARL_v25wg7d4g9","5ba064c10d4416000157a224","freq","img/orange_2bandit_a2.png","70","70","test","1","40","40","2","",""
"null","185202","pSARL_v2","pSARL_v25wg7d4g9","5ba064c10d4416000157a224","freq_resp","img/orange_2bandit_a.png","70","70","test","","","","2","",""
"null","185356","pSARL_v2","pSARL_v25wg7d4g9","5ba064c10d4416000157a224","fixation","img/fixation.png","null","","test","","","","","",""
"245","185602","pSARL_v2","pSARL_v25wg7d4g9","5ba064c10d4416000157a224","freq","img/orange_2bandit_a2.png","70","70","test","1","41","41","2","",""
"null","186164","pSARL_v2","pSARL_v25wg7d4g9","5ba064c10d4416000157a224","freq_resp","img/orange_2bandit_a.png","70","70","test","","","","2","",""
"null","186320","pSARL_v2","pSARL_v25wg7d4g9","5ba064c10d4416000157a224","fixation","img/fixation.png","null","","test","","","","","",""
"244","186566","pSARL_v2","pSARL_v25wg7d4g9","5ba064c10d4416000157a224","freq","img/orange_2bandit_a2.png","70","70","test","1","42","42","2","",""
"null","187125","pSARL_v2","pSARL_v25wg7d4g9","5ba064c10d4416000157a224","freq_resp","img/orange_2bandit_a.png","70","70","test","","","","2","",""
"null","187281","pSARL_v2","pSARL_v25wg7d4g9","5ba064c10d4416000157a224","fixation","img/fixation.png","null","","test","","","","","",""
"243","187527","pSARL_v2","pSARL_v25wg7d4g9","5ba064c10d4416000157a224","freq","img/orange_2bandit_a2.png","70","70","test","1","43","43","2","",""
"null","188089","pSARL_v2","pSARL_v25wg7d4g9","5ba064c10d4416000157a224","freq_resp","img/orange_2bandit_a.png","70","70","test","","","","2","",""
"null","188245","pSARL_v2","pSARL_v25wg7d4g9","5ba064c10d4416000157a224","fixation","img/fixation.png","null","","test","","","","","",""
"109","188356","pSARL_v2","pSARL_v25wg7d4g9","5ba064c10d4416000157a224","freq","img/orange_2bandit_a2.png","70","70","test","1","44","44","2","",""
"null","189064","pSARL_v2","pSARL_v25wg7d4g9","5ba064c10d4416000157a224","freq_resp","img/orange_2bandit_a.png","70","70","test","","","","2","",""
"null","189219","pSARL_v2","pSARL_v25wg7d4g9","5ba064c10d4416000157a224","fixation","img/fixation.png","null","","test","","","","","",""
"95","189316","pSARL_v2","pSARL_v25wg7d4g9","5ba064c10d4416000157a224","freq","img/orange_2bandit_a2.png","70","70","test","1","45","45","2","",""
"null","190026","pSARL_v2","pSARL_v25wg7d4g9","5ba064c10d4416000157a224","freq_resp","img/orange_2bandit_a.png","70","70","test","","","","2","",""
"null","190182","pSARL_v2","pSARL_v25wg7d4g9","5ba064c10d4416000157a224","fixation","img/fixation.png","null","","test","","","","","",""
"476","190660","pSARL_v2","pSARL_v25wg7d4g9","5ba064c10d4416000157a224","freq","img/orange_2bandit_a2.png","70","70","test","1","46","46","2","",""
"null","191000","pSARL_v2","pSARL_v25wg7d4g9","5ba064c10d4416000157a224","freq_resp","img/orange_2bandit_a.png","70","70","test","","","","2","",""
"null","191156","pSARL_v2","pSARL_v25wg7d4g9","5ba064c10d4416000157a224","fixation","img/fixation.png","null","","test","","","","","",""
"null","191966","pSARL_v2","pSARL_v25wg7d4g9","5ba064c10d4416000157a224","freq","img/orange_2bandit_a2.png","null","70","test","0","47","47","2","",""
"null","192122","pSARL_v2","pSARL_v25wg7d4g9","5ba064c10d4416000157a224","fixation","img/fixation.png","null","","test","","","","","",""
"312","192435","pSARL_v2","pSARL_v25wg7d4g9","5ba064c10d4416000157a224","freq","img/orange_2bandit_a2.png","70","70","test","1","48","48","2","",""
"null","192941","pSARL_v2","pSARL_v25wg7d4g9","5ba064c10d4416000157a224","freq_resp","img/orange_2bandit_a.png","70","70","test","","","","2","",""
"null","193098","pSARL_v2","pSARL_v25wg7d4g9","5ba064c10d4416000157a224","fixation","img/fixation.png","null","","test","","","","","",""
"468","193568","pSARL_v2","pSARL_v25wg7d4g9","5ba064c10d4416000157a224","reward","img/slot.png","74","","test","","","","","",""
"null","194325","pSARL_v2","pSARL_v25wg7d4g9","5ba064c10d4416000157a224","points","<div class=""verylowPoints""> -11 </div>","null","na","test","","","","2","-11","1"
"616","194943","pSARL_v2","pSARL_v25wg7d4g9","5ba064c10d4416000157a224","freq","img/orange_2bandit_a2.png","70","70","test","1","49","49","3","",""
"null","195131","pSARL_v2","pSARL_v25wg7d4g9","5ba064c10d4416000157a224","freq_resp","img/orange_2bandit_a.png","70","70","test","","","","3","",""
"null","195287","pSARL_v2","pSARL_v25wg7d4g9","5ba064c10d4416000157a224","fixation","img/fixation.png","null","","test","","","","","",""
"320","195610","pSARL_v2","pSARL_v25wg7d4g9","5ba064c10d4416000157a224","infreq","img/green_2bandit_a2.png","70","68","test","0","50","50","3","",""
"null","196095","pSARL_v2","pSARL_v25wg7d4g9","5ba064c10d4416000157a224","infreq_resp","img/green_2bandit_a.png","70","68","test","","","","3","",""
"null","196249","pSARL_v2","pSARL_v25wg7d4g9","5ba064c10d4416000157a224","fixation","img/fixation.png","null","","test","","","","","",""
"335","196586","pSARL_v2","pSARL_v25wg7d4g9","5ba064c10d4416000157a224","freq","img/orange_2bandit_a2.png","70","70","test","1","51","51","3","",""
"null","197068","pSARL_v2","pSARL_v25wg7d4g9","5ba064c10d4416000157a224","freq_resp","img/orange_2bandit_a.png","70","70","test","","","","3","",""
"null","197223","pSARL_v2","pSARL_v25wg7d4g9","5ba064c10d4416000157a224","fixation","img/fixation.png","null","","test","","","","","",""
"392","197617","pSARL_v2","pSARL_v25wg7d4g9","5ba064c10d4416000157a224","freq","img/orange_2bandit_a2.png","70","70","test","1","52","52","3","",""
"null","198030","pSARL_v2","pSARL_v25wg7d4g9","5ba064c10d4416000157a224","freq_resp","img/orange_2bandit_a.png","70","70","test","","","","3","",""
"null","198185","pSARL_v2","pSARL_v25wg7d4g9","5ba064c10d4416000157a224","fixation","img/fixation.png","null","","test","","","","","",""
"307","198494","pSARL_v2","pSARL_v25wg7d4g9","5ba064c10d4416000157a224","freq","img/orange_2bandit_a2.png","70","70","test","1","53","53","3","",""
"null","198992","pSARL_v2","pSARL_v25wg7d4g9","5ba064c10d4416000157a224","freq_resp","img/orange_2bandit_a.png","70","70","test","","","","3","",""
"null","199147","pSARL_v2","pSARL_v25wg7d4g9","5ba064c10d4416000157a224","fixation","img/fixation.png","null","","test","","","","","",""
"null","199958","pSARL_v2","pSARL_v25wg7d4g9","5ba064c10d4416000157a224","infreq","img/green_2bandit_a2.png","null","68","test","0","54","54","3","",""
"null","200115","pSARL_v2","pSARL_v25wg7d4g9","5ba064c10d4416000157a224","fixation","img/fixation.png","null","","test","","","","","",""
"43","200159","pSARL_v2","pSARL_v25wg7d4g9","5ba064c10d4416000157a224","freq","img/orange_2bandit_a2.png","68","70","test","0","55","55","3","",""
"null","200924","pSARL_v2","pSARL_v25wg7d4g9","5ba064c10d4416000157a224","freq_resp","img/orange_2bandit_a.png","68","70","test","","","","3","",""
"null","201079","pSARL_v2","pSARL_v25wg7d4g9","5ba064c10d4416000157a224","fixation","img/fixation.png","null","","test","","","","","",""
"294","201375","pSARL_v2","pSARL_v25wg7d4g9","5ba064c10d4416000157a224","freq","img/orange_2bandit_a2.png","70","70","test","1","56","56","3","",""
"null","201889","pSARL_v2","pSARL_v25wg7d4g9","5ba064c10d4416000157a224","freq_resp","img/orange_2bandit_a.png","70","70","test","","","","3","",""
"null","202046","pSARL_v2","pSARL_v25wg7d4g9","5ba064c10d4416000157a224","fixation","img/fixation.png","null","","test","","","","","",""
"299","202347","pSARL_v2","pSARL_v25wg7d4g9","5ba064c10d4416000157a224","freq","img/orange_2bandit_a2.png","70","70","test","1","57","57","3","",""
"null","202853","pSARL_v2","pSARL_v25wg7d4g9","5ba064c10d4416000157a224","freq_resp","img/orange_2bandit_a.png","70","70","test","","","","3","",""
"null","203007","pSARL_v2","pSARL_v25wg7d4g9","5ba064c10d4416000157a224","fixation","img/fixation.png","null","","test","","","","","",""
"300","203308","pSARL_v2","pSARL_v25wg7d4g9","5ba064c10d4416000157a224","freq","img/orange_2bandit_a2.png","70","70","test","1","58","58","3","",""
"null","203814","pSARL_v2","pSARL_v25wg7d4g9","5ba064c10d4416000157a224","freq_resp","img/orange_2bandit_a.png","70","70","test","","","","3","",""
"null","203969","pSARL_v2","pSARL_v25wg7d4g9","5ba064c10d4416000157a224","fixation","img/fixation.png","null","","test","","","","","",""
"302","204274","pSARL_v2","pSARL_v25wg7d4g9","5ba064c10d4416000157a224","freq","img/orange_2bandit_a2.png","70","70","test","1","59","59","3","",""
"null","204781","pSARL_v2","pSARL_v25wg7d4g9","5ba064c10d4416000157a224","freq_resp","img/orange_2bandit_a.png","70","70","test","","","","3","",""
"null","204936","pSARL_v2","pSARL_v25wg7d4g9","5ba064c10d4416000157a224","fixation","img/fixation.png","null","","test","","","","","",""
"255","205194","pSARL_v2","pSARL_v25wg7d4g9","5ba064c10d4416000157a224","freq","img/orange_2bandit_a2.png","70","70","test","1","60","60","3","",""
"null","205743","pSARL_v2","pSARL_v25wg7d4g9","5ba064c10d4416000157a224","freq_resp","img/orange_2bandit_a.png","70","70","test","","","","3","",""
"null","205897","pSARL_v2","pSARL_v25wg7d4g9","5ba064c10d4416000157a224","fixation","img/fixation.png","null","","test","","","","","",""
"285","206184","pSARL_v2","pSARL_v25wg7d4g9","5ba064c10d4416000157a224","freq","img/orange_2bandit_a2.png","70","70","test","1","61","61","3","",""
"null","206716","pSARL_v2","pSARL_v25wg7d4g9","5ba064c10d4416000157a224","freq_resp","img/orange_2bandit_a.png","70","70","test","","","","3","",""
"null","206869","pSARL_v2","pSARL_v25wg7d4g9","5ba064c10d4416000157a224","fixation","img/fixation.png","null","","test","","","","","",""
"276","207148","pSARL_v2","pSARL_v25wg7d4g9","5ba064c10d4416000157a224","freq","img/orange_2bandit_a2.png","70","70","test","1","62","62","3","",""
"null","207678","pSARL_v2","pSARL_v25wg7d4g9","5ba064c10d4416000157a224","freq_resp","img/orange_2bandit_a.png","70","70","test","","","","3","",""
"null","207834","pSARL_v2","pSARL_v25wg7d4g9","5ba064c10d4416000157a224","fixation","img/fixation.png","null","","test","","","","","",""
"256","208092","pSARL_v2","pSARL_v25wg7d4g9","5ba064c10d4416000157a224","freq","img/orange_2bandit_a2.png","70","70","test","1","63","63","3","",""
"null","208642","pSARL_v2","pSARL_v25wg7d4g9","5ba064c10d4416000157a224","freq_resp","img/orange_2bandit_a.png","70","70","test","","","","3","",""
"null","208799","pSARL_v2","pSARL_v25wg7d4g9","5ba064c10d4416000157a224","fixation","img/fixation.png","null","","test","","","","","",""
"249","209051","pSARL_v2","pSARL_v25wg7d4g9","5ba064c10d4416000157a224","freq","img/orange_2bandit_a2.png","70","70","test","1","64","64","3","",""
"null","209605","pSARL_v2","pSARL_v25wg7d4g9","5ba064c10d4416000157a224","freq_resp","img/orange_2bandit_a.png","70","70","test","","","","3","",""
"null","209761","pSARL_v2","pSARL_v25wg7d4g9","5ba064c10d4416000157a224","fixation","img/fixation.png","null","","test","","","","","",""
"348","210112","pSARL_v2","pSARL_v25wg7d4g9","5ba064c10d4416000157a224","freq","img/orange_2bandit_a2.png","70","70","test","1","65","65","3","",""
"null","210582","pSARL_v2","pSARL_v25wg7d4g9","5ba064c10d4416000157a224","freq_resp","img/orange_2bandit_a.png","70","70","test","","","","3","",""
"null","210737","pSARL_v2","pSARL_v25wg7d4g9","5ba064c10d4416000157a224","fixation","img/fixation.png","null","","test","","","","","",""
"550","211289","pSARL_v2","pSARL_v25wg7d4g9","5ba064c10d4416000157a224","freq","img/orange_2bandit_a2.png","70","70","test","1","66","66","3","",""
"null","211544","pSARL_v2","pSARL_v25wg7d4g9","5ba064c10d4416000157a224","freq_resp","img/orange_2bandit_a.png","70","70","test","","","","3","",""
"null","211700","pSARL_v2","pSARL_v25wg7d4g9","5ba064c10d4416000157a224","fixation","img/fixation.png","null","","test","","","","","",""
"487","212189","pSARL_v2","pSARL_v25wg7d4g9","5ba064c10d4416000157a224","freq","img/orange_2bandit_a2.png","70","70","test","1","67","67","3","",""
"null","212505","pSARL_v2","pSARL_v25wg7d4g9","5ba064c10d4416000157a224","freq_resp","img/orange_2bandit_a.png","70","70","test","","","","3","",""
"null","212661","pSARL_v2","pSARL_v25wg7d4g9","5ba064c10d4416000157a224","fixation","img/fixation.png","null","","test","","","","","",""
"604","213268","pSARL_v2","pSARL_v25wg7d4g9","5ba064c10d4416000157a224","reward","img/slot.png","74","","test","","","","","",""
"null","214022","pSARL_v2","pSARL_v25wg7d4g9","5ba064c10d4416000157a224","points","<div class=""verylowPoints""> -7 </div>","null","na","test","","","","3","-7","2"
"351","214376","pSARL_v2","pSARL_v25wg7d4g9","5ba064c10d4416000157a224","freq","img/orange_2bandit_a2.png","70","70","test","1","68","68","4","",""
"null","214827","pSARL_v2","pSARL_v25wg7d4g9","5ba064c10d4416000157a224","freq_resp","img/orange_2bandit_a.png","70","70","test","","","","4","",""
"null","214983","pSARL_v2","pSARL_v25wg7d4g9","5ba064c10d4416000157a224","fixation","img/fixation.png","null","","test","","","","","",""
"70","215056","pSARL_v2","pSARL_v25wg7d4g9","5ba064c10d4416000157a224","freq","img/orange_2bandit_a2.png","70","70","test","1","69","69","4","",""
"null","215793","pSARL_v2","pSARL_v25wg7d4g9","5ba064c10d4416000157a224","freq_resp","img/orange_2bandit_a.png","70","70","test","","","","4","",""
"null","215947","pSARL_v2","pSARL_v25wg7d4g9","5ba064c10d4416000157a224","fixation","img/fixation.png","null","","test","","","","","",""
"335","216284","pSARL_v2","pSARL_v25wg7d4g9","5ba064c10d4416000157a224","freq","img/orange_2bandit_a2.png","70","70","test","1","70","70","4","",""
"null","216766","pSARL_v2","pSARL_v25wg7d4g9","5ba064c10d4416000157a224","freq_resp","img/orange_2bandit_a.png","70","70","test","","","","4","",""
"null","216921","pSARL_v2","pSARL_v25wg7d4g9","5ba064c10d4416000157a224","fixation","img/fixation.png","null","","test","","","","","",""
"123","217048","pSARL_v2","pSARL_v25wg7d4g9","5ba064c10d4416000157a224","freq","img/orange_2bandit_a2.png","70","70","test","1","71","71","4","",""
"null","217743","pSARL_v2","pSARL_v25wg7d4g9","5ba064c10d4416000157a224","freq_resp","img/orange_2bandit_a.png","70","70","test","","","","4","",""
"null","217899","pSARL_v2","pSARL_v25wg7d4g9","5ba064c10d4416000157a224","fixation","img/fixation.png","null","","test","","","","","",""
"236","218137","pSARL_v2","pSARL_v25wg7d4g9","5ba064c10d4416000157a224","freq","img/orange_2bandit_a2.png","70","70","test","1","72","72","4","",""
"null","218706","pSARL_v2","pSARL_v25wg7d4g9","5ba064c10d4416000157a224","freq_resp","img/orange_2bandit_a.png","70","70","test","","","","4","",""
"null","218863","pSARL_v2","pSARL_v25wg7d4g9","5ba064c10d4416000157a224","fixation","img/fixation.png","null","","test","","","","","",""
"257","219121","pSARL_v2","pSARL_v25wg7d4g9","5ba064c10d4416000157a224","freq","img/orange_2bandit_a2.png","70","70","test","1","73","73","4","",""
"null","219667","pSARL_v2","pSARL_v25wg7d4g9","5ba064c10d4416000157a224","freq_resp","img/orange_2bandit_a.png","70","70","test","","","","4","",""
"null","219824","pSARL_v2","pSARL_v25wg7d4g9","5ba064c10d4416000157a224","fixation","img/fixation.png","null","","test","","","","","",""
"126","219953","pSARL_v2","pSARL_v25wg7d4g9","5ba064c10d4416000157a224","freq","img/orange_2bandit_a2.png","70","70","test","1","74","74","4","",""
"null","220631","pSARL_v2","pSARL_v25wg7d4g9","5ba064c10d4416000157a224","freq_resp","img/orange_2bandit_a.png","70","70","test","","","","4","",""
"null","220786","pSARL_v2","pSARL_v25wg7d4g9","5ba064c10d4416000157a224","fixation","img/fixation.png","null","","test","","","","","",""
"211","221000","pSARL_v2","pSARL_v25wg7d4g9","5ba064c10d4416000157a224","infreq","img/green_2bandit_a2.png","70","68","test","0","75","75","4","",""
"null","221596","pSARL_v2","pSARL_v25wg7d4g9","5ba064c10d4416000157a224","infreq_resp","img/green_2bandit_a.png","70","68","test","","","","4","",""
"null","221751","pSARL_v2","pSARL_v25wg7d4g9","5ba064c10d4416000157a224","fixation","img/fixation.png","null","","test","","","","","",""
"265","222018","pSARL_v2","pSARL_v25wg7d4g9","5ba064c10d4416000157a224","freq","img/orange_2bandit_a2.png","70","70","test","1","76","76","4","",""
"null","222559","pSARL_v2","pSARL_v25wg7d4g9","5ba064c10d4416000157a224","freq_resp","img/orange_2bandit_a.png","70","70","test","","","","4","",""
"null","222718","pSARL_v2","pSARL_v25wg7d4g9","5ba064c10d4416000157a224","fixation","img/fixation.png","null","","test","","","","","",""
"124","222846","pSARL_v2","pSARL_v25wg7d4g9","5ba064c10d4416000157a224","freq","img/orange_2bandit_a2.png","70","70","test","1","77","77","4","",""
"null","223539","pSARL_v2","pSARL_v25wg7d4g9","5ba064c10d4416000157a224","freq_resp","img/orange_2bandit_a.png","70","70","test","","","","4","",""
"null","223695","pSARL_v2","pSARL_v25wg7d4g9","5ba064c10d4416000157a224","fixation","img/fixation.png","null","","test","","","","","",""
"471","224169","pSARL_v2","pSARL_v25wg7d4g9","5ba064c10d4416000157a224","infreq","img/green_2bandit_a2.png","70","68","test","0","78","78","4","",""
"null","224514","pSARL_v2","pSARL_v25wg7d4g9","5ba064c10d4416000157a224","infreq_resp","img/green_2bandit_a.png","70","68","test","","","","4","",""
"null","224671","pSARL_v2","pSARL_v25wg7d4g9","5ba064c10d4416000157a224","fixation","img/fixation.png","null","","test","","","","","",""
"null","225475","pSARL_v2","pSARL_v25wg7d4g9","5ba064c10d4416000157a224","freq","img/orange_2bandit_a2.png","null","70","test","0","79","79","4","",""
"null","225629","pSARL_v2","pSARL_v25wg7d4g9","5ba064c10d4416000157a224","fixation","img/fixation.png","null","","test","","","","","",""
"130","225761","pSARL_v2","pSARL_v25wg7d4g9","5ba064c10d4416000157a224","freq","img/orange_2bandit_a2.png","70","70","test","1","80","80","4","",""
"null","226438","pSARL_v2","pSARL_v25wg7d4g9","5ba064c10d4416000157a224","freq_resp","img/orange_2bandit_a.png","70","70","test","","","","4","",""
"null","226596","pSARL_v2","pSARL_v25wg7d4g9","5ba064c10d4416000157a224","fixation","img/fixation.png","null","","test","","","","","",""
"273","226871","pSARL_v2","pSARL_v25wg7d4g9","5ba064c10d4416000157a224","freq","img/orange_2bandit_a2.png","70","70","test","1","81","81","4","",""
"null","227404","pSARL_v2","pSARL_v25wg7d4g9","5ba064c10d4416000157a224","freq_resp","img/orange_2bandit_a.png","70","70","test","","","","4","",""
"null","227557","pSARL_v2","pSARL_v25wg7d4g9","5ba064c10d4416000157a224","fixation","img/fixation.png","null","","test","","","","","",""
"244","227803","pSARL_v2","pSARL_v25wg7d4g9","5ba064c10d4416000157a224","freq","img/orange_2bandit_a2.png","68","70","test","0","82","82","4","",""
"null","228367","pSARL_v2","pSARL_v25wg7d4g9","5ba064c10d4416000157a224","freq_resp","img/orange_2bandit_a.png","68","70","test","","","","4","",""
"null","228522","pSARL_v2","pSARL_v25wg7d4g9","5ba064c10d4416000157a224","fixation","img/fixation.png","null","","test","","","","","",""
"389","228912","pSARL_v2","pSARL_v25wg7d4g9","5ba064c10d4416000157a224","freq","img/orange_2bandit_a2.png","70","70","test","1","83","83","4","",""
"null","229340","pSARL_v2","pSARL_v25wg7d4g9","5ba064c10d4416000157a224","freq_resp","img/orange_2bandit_a.png","70","70","test","","","","4","",""
"null","229496","pSARL_v2","pSARL_v25wg7d4g9","5ba064c10d4416000157a224","fixation","img/fixation.png","null","","test","","","","","",""
"286","229784","pSARL_v2","pSARL_v25wg7d4g9","5ba064c10d4416000157a224","freq","img/orange_2bandit_a2.png","70","70","test","1","84","84","4","",""
"null","230305","pSARL_v2","pSARL_v25wg7d4g9","5ba064c10d4416000157a224","freq_resp","img/orange_2bandit_a.png","70","70","test","","","","4","",""
"null","230459","pSARL_v2","pSARL_v25wg7d4g9","5ba064c10d4416000157a224","fixation","img/fixation.png","null","","test","","","","","",""
"263","230723","pSARL_v2","pSARL_v25wg7d4g9","5ba064c10d4416000157a224","freq","img/orange_2bandit_a2.png","70","70","test","1","85","85","4","",""
"null","231277","pSARL_v2","pSARL_v25wg7d4g9","5ba064c10d4416000157a224","freq_resp","img/orange_2bandit_a.png","70","70","test","","","","4","",""
"null","231433","pSARL_v2","pSARL_v25wg7d4g9","5ba064c10d4416000157a224","fixation","img/fixation.png","null","","test","","","","","",""
"239","231675","pSARL_v2","pSARL_v25wg7d4g9","5ba064c10d4416000157a224","freq","img/orange_2bandit_a2.png","70","70","test","1","86","86","4","",""
"null","232239","pSARL_v2","pSARL_v25wg7d4g9","5ba064c10d4416000157a224","freq_resp","img/orange_2bandit_a.png","70","70","test","","","","4","",""
"null","232395","pSARL_v2","pSARL_v25wg7d4g9","5ba064c10d4416000157a224","fixation","img/fixation.png","null","","test","","","","","",""
"285","232682","pSARL_v2","pSARL_v25wg7d4g9","5ba064c10d4416000157a224","freq","img/orange_2bandit_a2.png","70","70","test","1","87","87","4","",""
"null","233215","pSARL_v2","pSARL_v25wg7d4g9","5ba064c10d4416000157a224","freq_resp","img/orange_2bandit_a.png","70","70","test","","","","4","",""
"null","233370","pSARL_v2","pSARL_v25wg7d4g9","5ba064c10d4416000157a224","fixation","img/fixation.png","null","","test","","","","","",""
"294","233666","pSARL_v2","pSARL_v25wg7d4g9","5ba064c10d4416000157a224","freq","img/orange_2bandit_a2.png","70","70","test","1","88","88","4","",""
"null","234180","pSARL_v2","pSARL_v25wg7d4g9","5ba064c10d4416000157a224","freq_resp","img/orange_2bandit_a.png","70","70","test","","","","4","",""
"null","234335","pSARL_v2","pSARL_v25wg7d4g9","5ba064c10d4416000157a224","fixation","img/fixation.png","null","","test","","","","","",""
"231","234568","pSARL_v2","pSARL_v25wg7d4g9","5ba064c10d4416000157a224","freq","img/orange_2bandit_a2.png","70","70","test","1","89","89","4","",""
"null","235146","pSARL_v2","pSARL_v25wg7d4g9","5ba064c10d4416000157a224","freq_resp","img/orange_2bandit_a.png","70","70","test","","","","4","",""
"null","235299","pSARL_v2","pSARL_v25wg7d4g9","5ba064c10d4416000157a224","fixation","img/fixation.png","null","","test","","","","","",""
"267","235569","pSARL_v2","pSARL_v25wg7d4g9","5ba064c10d4416000157a224","freq","img/orange_2bandit_a2.png","70","70","test","1","90","90","4","",""
"null","236107","pSARL_v2","pSARL_v25wg7d4g9","5ba064c10d4416000157a224","freq_resp","img/orange_2bandit_a.png","70","70","test","","","","4","",""
"null","236263","pSARL_v2","pSARL_v25wg7d4g9","5ba064c10d4416000157a224","fixation","img/fixation.png","null","","test","","","","","",""
"484","236750","pSARL_v2","pSARL_v25wg7d4g9","5ba064c10d4416000157a224","reward","img/slot.png","74","","test","","","","","",""
"null","237515","pSARL_v2","pSARL_v25wg7d4g9","5ba064c10d4416000157a224","points","<div class=""verylowPoints""> -3 </div>","null","na","test","","","","4","-3","3"
"370","237887","pSARL_v2","pSARL_v25wg7d4g9","5ba064c10d4416000157a224","freq","img/orange_2bandit_a2.png","70","70","test","1","91","91","5","",""
"null","238323","pSARL_v2","pSARL_v25wg7d4g9","5ba064c10d4416000157a224","freq_resp","img/orange_2bandit_a.png","70","70","test","","","","5","",""
"null","238478","pSARL_v2","pSARL_v25wg7d4g9","5ba064c10d4416000157a224","fixation","img/fixation.png","null","","test","","","","","",""
"262","238741","pSARL_v2","pSARL_v25wg7d4g9","5ba064c10d4416000157a224","freq","img/orange_2bandit_a2.png","70","70","test","1","92","92","5","",""
"null","239288","pSARL_v2","pSARL_v25wg7d4g9","5ba064c10d4416000157a224","freq_resp","img/orange_2bandit_a.png","70","70","test","","","","5","",""
"null","239443","pSARL_v2","pSARL_v25wg7d4g9","5ba064c10d4416000157a224","fixation","img/fixation.png","null","","test","","","","","",""
"232","239679","pSARL_v2","pSARL_v25wg7d4g9","5ba064c10d4416000157a224","freq","img/orange_2bandit_a2.png","70","70","test","1","93","93","5","",""
"null","240264","pSARL_v2","pSARL_v25wg7d4g9","5ba064c10d4416000157a224","freq_resp","img/orange_2bandit_a.png","70","70","test","","","","5","",""
"null","240421","pSARL_v2","pSARL_v25wg7d4g9","5ba064c10d4416000157a224","fixation","img/fixation.png","null","","test","","","","","",""
"149","240572","pSARL_v2","pSARL_v25wg7d4g9","5ba064c10d4416000157a224","freq","img/orange_2bandit_a2.png","70","70","test","1","94","94","5","",""
"null","241231","pSARL_v2","pSARL_v25wg7d4g9","5ba064c10d4416000157a224","freq_resp","img/orange_2bandit_a.png","70","70","test","","","","5","",""
"null","241386","pSARL_v2","pSARL_v25wg7d4g9","5ba064c10d4416000157a224","fixation","img/fixation.png","null","","test","","","","","",""
"247","241636","pSARL_v2","pSARL_v25wg7d4g9","5ba064c10d4416000157a224","freq","img/orange_2bandit_a2.png","70","70","test","1","95","95","5","",""
"null","242194","pSARL_v2","pSARL_v25wg7d4g9","5ba064c10d4416000157a224","freq_resp","img/orange_2bandit_a.png","70","70","test","","","","5","",""
"null","242350","pSARL_v2","pSARL_v25wg7d4g9","5ba064c10d4416000157a224","fixation","img/fixation.png","null","","test","","","","","",""
"358","242710","pSARL_v2","pSARL_v25wg7d4g9","5ba064c10d4416000157a224","freq","img/orange_2bandit_a2.png","70","70","test","1","96","96","5","",""
"null","243170","pSARL_v2","pSARL_v25wg7d4g9","5ba064c10d4416000157a224","freq_resp","img/orange_2bandit_a.png","70","70","test","","","","5","",""
"null","243325","pSARL_v2","pSARL_v25wg7d4g9","5ba064c10d4416000157a224","fixation","img/fixation.png","null","","test","","","","","",""
"280","243608","pSARL_v2","pSARL_v25wg7d4g9","5ba064c10d4416000157a224","freq","img/orange_2bandit_a2.png","70","70","test","1","97","97","5","",""
"null","244146","pSARL_v2","pSARL_v25wg7d4g9","5ba064c10d4416000157a224","freq_resp","img/orange_2bandit_a.png","70","70","test","","","","5","",""
"null","244302","pSARL_v2","pSARL_v25wg7d4g9","5ba064c10d4416000157a224","fixation","img/fixation.png","null","","test","","","","","",""
"395","244700","pSARL_v2","pSARL_v25wg7d4g9","5ba064c10d4416000157a224","infreq","img/green_2bandit_a2.png","68","68","test","1","98","98","5","",""
"null","245123","pSARL_v2","pSARL_v25wg7d4g9","5ba064c10d4416000157a224","infreq_resp","img/green_2bandit_a.png","68","68","test","","","","5","",""
"null","245278","pSARL_v2","pSARL_v25wg7d4g9","5ba064c10d4416000157a224","fixation","img/fixation.png","null","","test","","","","","",""
"187","245468","pSARL_v2","pSARL_v25wg7d4g9","5ba064c10d4416000157a224","freq","img/orange_2bandit_a2.png","70","70","test","1","99","99","5","",""
"null","246086","pSARL_v2","pSARL_v25wg7d4g9","5ba064c10d4416000157a224","freq_resp","img/orange_2bandit_a.png","70","70","test","","","","5","",""
"null","246256","pSARL_v2","pSARL_v25wg7d4g9","5ba064c10d4416000157a224","fixation","img/fixation.png","null","","test","","","","","",""
"203","246461","pSARL_v2","pSARL_v25wg7d4g9","5ba064c10d4416000157a224","freq","img/orange_2bandit_a2.png","70","70","test","1","100","100","5","",""
"null","247061","pSARL_v2","pSARL_v25wg7d4g9","5ba064c10d4416000157a224","freq_resp","img/orange_2bandit_a.png","70","70","test","","","","5","",""
"null","247216","pSARL_v2","pSARL_v25wg7d4g9","5ba064c10d4416000157a224","fixation","img/fixation.png","null","","test","","","","","",""
"241","247459","pSARL_v2","pSARL_v25wg7d4g9","5ba064c10d4416000157a224","freq","img/orange_2bandit_a2.png","70","70","test","1","101","101","5","",""
"null","248024","pSARL_v2","pSARL_v25wg7d4g9","5ba064c10d4416000157a224","freq_resp","img/orange_2bandit_a.png","70","70","test","","","","5","",""
"null","248181","pSARL_v2","pSARL_v25wg7d4g9","5ba064c10d4416000157a224","fixation","img/fixation.png","null","","test","","","","","",""
"225","248410","pSARL_v2","pSARL_v25wg7d4g9","5ba064c10d4416000157a224","freq","img/orange_2bandit_a2.png","70","70","test","1","102","102","5","",""
"null","248990","pSARL_v2","pSARL_v25wg7d4g9","5ba064c10d4416000157a224","freq_resp","img/orange_2bandit_a.png","70","70","test","","","","5","",""
"null","249145","pSARL_v2","pSARL_v25wg7d4g9","5ba064c10d4416000157a224","fixation","img/fixation.png","null","","test","","","","","",""
"201","249349","pSARL_v2","pSARL_v25wg7d4g9","5ba064c10d4416000157a224","freq","img/orange_2bandit_a2.png","70","70","test","1","103","103","5","",""
"null","249953","pSARL_v2","pSARL_v25wg7d4g9","5ba064c10d4416000157a224","freq_resp","img/orange_2bandit_a.png","70","70","test","","","","5","",""
"null","250111","pSARL_v2","pSARL_v25wg7d4g9","5ba064c10d4416000157a224","fixation","img/fixation.png","null","","test","","","","","",""
"255","250370","pSARL_v2","pSARL_v25wg7d4g9","5ba064c10d4416000157a224","freq","img/orange_2bandit_a2.png","70","70","test","1","104","104","5","",""
"null","250928","pSARL_v2","pSARL_v25wg7d4g9","5ba064c10d4416000157a224","freq_resp","img/orange_2bandit_a.png","70","70","test","","","","5","",""
"null","251083","pSARL_v2","pSARL_v25wg7d4g9","5ba064c10d4416000157a224","fixation","img/fixation.png","null","","test","","","","","",""
"134","251219","pSARL_v2","pSARL_v25wg7d4g9","5ba064c10d4416000157a224","freq","img/orange_2bandit_a2.png","70","70","test","1","105","105","5","",""
"null","251892","pSARL_v2","pSARL_v25wg7d4g9","5ba064c10d4416000157a224","freq_resp","img/orange_2bandit_a.png","70","70","test","","","","5","",""
"null","252047","pSARL_v2","pSARL_v25wg7d4g9","5ba064c10d4416000157a224","fixation","img/fixation.png","null","","test","","","","","",""
"211","252260","pSARL_v2","pSARL_v25wg7d4g9","5ba064c10d4416000157a224","freq","img/orange_2bandit_a2.png","70","70","test","1","106","106","5","",""
"null","252857","pSARL_v2","pSARL_v25wg7d4g9","5ba064c10d4416000157a224","freq_resp","img/orange_2bandit_a.png","70","70","test","","","","5","",""
"null","253012","pSARL_v2","pSARL_v25wg7d4g9","5ba064c10d4416000157a224","fixation","img/fixation.png","null","","test","","","","","",""
"217","253232","pSARL_v2","pSARL_v25wg7d4g9","5ba064c10d4416000157a224","freq","img/orange_2bandit_a2.png","70","70","test","1","107","107","5","",""
"null","253833","pSARL_v2","pSARL_v25wg7d4g9","5ba064c10d4416000157a224","freq_resp","img/orange_2bandit_a.png","70","70","test","","","","5","",""
"null","253988","pSARL_v2","pSARL_v25wg7d4g9","5ba064c10d4416000157a224","fixation","img/fixation.png","null","","test","","","","","",""
"274","254265","pSARL_v2","pSARL_v25wg7d4g9","5ba064c10d4416000157a224","freq","img/orange_2bandit_a2.png","70","70","test","1","108","108","5","",""
"null","254798","pSARL_v2","pSARL_v25wg7d4g9","5ba064c10d4416000157a224","freq_resp","img/orange_2bandit_a.png","70","70","test","","","","5","",""
"null","254952","pSARL_v2","pSARL_v25wg7d4g9","5ba064c10d4416000157a224","fixation","img/fixation.png","null","","test","","","","","",""
"268","255223","pSARL_v2","pSARL_v25wg7d4g9","5ba064c10d4416000157a224","freq","img/orange_2bandit_a2.png","70","70","test","1","109","109","5","",""
"null","255762","pSARL_v2","pSARL_v25wg7d4g9","5ba064c10d4416000157a224","freq_resp","img/orange_2bandit_a.png","70","70","test","","","","5","",""
"null","255917","pSARL_v2","pSARL_v25wg7d4g9","5ba064c10d4416000157a224","fixation","img/fixation.png","null","","test","","","","","",""
"200","256120","pSARL_v2","pSARL_v25wg7d4g9","5ba064c10d4416000157a224","infreq","img/green_2bandit_a2.png","70","68","test","0","110","110","5","",""
"null","256725","pSARL_v2","pSARL_v25wg7d4g9","5ba064c10d4416000157a224","infreq_resp","img/green_2bandit_a.png","70","68","test","","","","5","",""
"null","256879","pSARL_v2","pSARL_v25wg7d4g9","5ba064c10d4416000157a224","fixation","img/fixation.png","null","","test","","","","","",""
"258","257139","pSARL_v2","pSARL_v25wg7d4g9","5ba064c10d4416000157a224","freq","img/orange_2bandit_a2.png","70","70","test","1","111","111","5","",""
"null","257687","pSARL_v2","pSARL_v25wg7d4g9","5ba064c10d4416000157a224","freq_resp","img/orange_2bandit_a.png","70","70","test","","","","5","",""
"null","257841","pSARL_v2","pSARL_v25wg7d4g9","5ba064c10d4416000157a224","fixation","img/fixation.png","null","","test","","","","","",""
"421","258265","pSARL_v2","pSARL_v25wg7d4g9","5ba064c10d4416000157a224","freq","img/orange_2bandit_a2.png","70","70","test","1","112","112","5","",""
"null","258650","pSARL_v2","pSARL_v25wg7d4g9","5ba064c10d4416000157a224","freq_resp","img/orange_2bandit_a.png","70","70","test","","","","5","",""
"null","258805","pSARL_v2","pSARL_v25wg7d4g9","5ba064c10d4416000157a224","fixation","img/fixation.png","null","","test","","","","","",""
"489","259297","pSARL_v2","pSARL_v25wg7d4g9","5ba064c10d4416000157a224","reward","img/slot.png","74","","test","","","","","",""
"null","260059","pSARL_v2","pSARL_v25wg7d4g9","5ba064c10d4416000157a224","points","<div class=""veryhighPoints""> +1 </div>","null","na","test","","","","5","1","4"
"274","260337","pSARL_v2","pSARL_v25wg7d4g9","5ba064c10d4416000157a224","freq","img/orange_2bandit_a2.png","70","70","test","1","113","113","6","",""
"null","260867","pSARL_v2","pSARL_v25wg7d4g9","5ba064c10d4416000157a224","freq_resp","img/orange_2bandit_a.png","70","70","test","","","","6","",""
"null","261023","pSARL_v2","pSARL_v25wg7d4g9","5ba064c10d4416000157a224","fixation","img/fixation.png","null","","test","","","","","",""
"107","261134","pSARL_v2","pSARL_v25wg7d4g9","5ba064c10d4416000157a224","freq","img/orange_2bandit_a2.png","70","70","test","1","114","114","6","",""
"null","261832","pSARL_v2","pSARL_v25wg7d4g9","5ba064c10d4416000157a224","freq_resp","img/orange_2bandit_a.png","70","70","test","","","","6","",""
"null","261989","pSARL_v2","pSARL_v25wg7d4g9","5ba064c10d4416000157a224","fixation","img/fixation.png","null","","test","","","","","",""
"14","262006","pSARL_v2","pSARL_v25wg7d4g9","5ba064c10d4416000157a224","freq","img/orange_2bandit_a2.png","70","70","test","1","115","115","6","",""
"null","262797","pSARL_v2","pSARL_v25wg7d4g9","5ba064c10d4416000157a224","freq_resp","img/orange_2bandit_a.png","70","70","test","","","","6","",""
"null","262965","pSARL_v2","pSARL_v25wg7d4g9","5ba064c10d4416000157a224","fixation","img/fixation.png","null","","test","","","","","",""
"52","263019","pSARL_v2","pSARL_v25wg7d4g9","5ba064c10d4416000157a224","freq","img/orange_2bandit_a2.png","70","70","test","1","116","116","6","",""
"null","263784","pSARL_v2","pSARL_v25wg7d4g9","5ba064c10d4416000157a224","freq_resp","img/orange_2bandit_a.png","70","70","test","","","","6","",""
"null","263943","pSARL_v2","pSARL_v25wg7d4g9","5ba064c10d4416000157a224","fixation","img/fixation.png","null","","test","","","","","",""
"190","264135","pSARL_v2","pSARL_v25wg7d4g9","5ba064c10d4416000157a224","freq","img/orange_2bandit_a2.png","70","70","test","1","117","117","6","",""
"null","264751","pSARL_v2","pSARL_v25wg7d4g9","5ba064c10d4416000157a224","freq_resp","img/orange_2bandit_a.png","70","70","test","","","","6","",""
"null","264905","pSARL_v2","pSARL_v25wg7d4g9","5ba064c10d4416000157a224","fixation","img/fixation.png","null","","test","","","","","",""
"141","265048","pSARL_v2","pSARL_v25wg7d4g9","5ba064c10d4416000157a224","freq","img/orange_2bandit_a2.png","70","70","test","1","118","118","6","",""
"null","265714","pSARL_v2","pSARL_v25wg7d4g9","5ba064c10d4416000157a224","freq_resp","img/orange_2bandit_a.png","70","70","test","","","","6","",""
"null","265869","pSARL_v2","pSARL_v25wg7d4g9","5ba064c10d4416000157a224","fixation","img/fixation.png","null","","test","","","","","",""
"70","265941","pSARL_v2","pSARL_v25wg7d4g9","5ba064c10d4416000157a224","freq","img/orange_2bandit_a2.png","70","70","test","1","119","119","6","",""
"null","266677","pSARL_v2","pSARL_v25wg7d4g9","5ba064c10d4416000157a224","freq_resp","img/orange_2bandit_a.png","70","70","test","","","","6","",""
"null","266832","pSARL_v2","pSARL_v25wg7d4g9","5ba064c10d4416000157a224","fixation","img/fixation.png","null","","test","","","","","",""
"148","266982","pSARL_v2","pSARL_v25wg7d4g9","5ba064c10d4416000157a224","freq","img/orange_2bandit_a2.png","70","70","test","1","120","120","6","",""
"null","267643","pSARL_v2","pSARL_v25wg7d4g9","5ba064c10d4416000157a224","freq_resp","img/orange_2bandit_a.png","70","70","test","","","","6","",""
"null","267798","pSARL_v2","pSARL_v25wg7d4g9","5ba064c10d4416000157a224","fixation","img/fixation.png","null","","test","","","","","",""
"98","267898","pSARL_v2","pSARL_v25wg7d4g9","5ba064c10d4416000157a224","freq","img/orange_2bandit_a2.png","70","70","test","1","121","121","6","",""
"null","268616","pSARL_v2","pSARL_v25wg7d4g9","5ba064c10d4416000157a224","freq_resp","img/orange_2bandit_a.png","70","70","test","","","","6","",""
"null","268773","pSARL_v2","pSARL_v25wg7d4g9","5ba064c10d4416000157a224","fixation","img/fixation.png","null","","test","","","","","",""
"134","268909","pSARL_v2","pSARL_v25wg7d4g9","5ba064c10d4416000157a224","freq","img/orange_2bandit_a2.png","70","70","test","1","122","122","6","",""
"null","269583","pSARL_v2","pSARL_v25wg7d4g9","5ba064c10d4416000157a224","freq_resp","img/orange_2bandit_a.png","70","70","test","","","","6","",""
"null","269737","pSARL_v2","pSARL_v25wg7d4g9","5ba064c10d4416000157a224","fixation","img/fixation.png","null","","test","","","","","",""
"149","269888","pSARL_v2","pSARL_v25wg7d4g9","5ba064c10d4416000157a224","freq","img/orange_2bandit_a2.png","70","70","test","1","123","123","6","",""
"null","270548","pSARL_v2","pSARL_v25wg7d4g9","5ba064c10d4416000157a224","freq_resp","img/orange_2bandit_a.png","70","70","test","","","","6","",""
"null","270704","pSARL_v2","pSARL_v25wg7d4g9","5ba064c10d4416000157a224","fixation","img/fixation.png","null","","test","","","","","",""
"136","270843","pSARL_v2","pSARL_v25wg7d4g9","5ba064c10d4416000157a224","freq","img/orange_2bandit_a2.png","70","70","test","1","124","124","6","",""
"null","271511","pSARL_v2","pSARL_v25wg7d4g9","5ba064c10d4416000157a224","freq_resp","img/orange_2bandit_a.png","70","70","test","","","","6","",""
"null","271665","pSARL_v2","pSARL_v25wg7d4g9","5ba064c10d4416000157a224","fixation","img/fixation.png","null","","test","","","","","",""
"291","271957","pSARL_v2","pSARL_v25wg7d4g9","5ba064c10d4416000157a224","freq","img/orange_2bandit_a2.png","70","70","test","1","125","125","6","",""
"null","272473","pSARL_v2","pSARL_v25wg7d4g9","5ba064c10d4416000157a224","freq_resp","img/orange_2bandit_a.png","70","70","test","","","","6","",""
"null","272625","pSARL_v2","pSARL_v25wg7d4g9","5ba064c10d4416000157a224","fixation","img/fixation.png","null","","test","","","","","",""
"299","272927","pSARL_v2","pSARL_v25wg7d4g9","5ba064c10d4416000157a224","infreq","img/green_2bandit_a2.png","68","68","test","1","126","126","6","",""
"null","273434","pSARL_v2","pSARL_v25wg7d4g9","5ba064c10d4416000157a224","infreq_resp","img/green_2bandit_a.png","68","68","test","","","","6","",""
"null","273590","pSARL_v2","pSARL_v25wg7d4g9","5ba064c10d4416000157a224","fixation","img/fixation.png","null","","test","","","","","",""
"170","273762","pSARL_v2","pSARL_v25wg7d4g9","5ba064c10d4416000157a224","freq","img/orange_2bandit_a2.png","70","70","test","1","127","127","6","",""
"null","274400","pSARL_v2","pSARL_v25wg7d4g9","5ba064c10d4416000157a224","freq_resp","img/orange_2bandit_a.png","70","70","test","","","","6","",""
"null","274556","pSARL_v2","pSARL_v25wg7d4g9","5ba064c10d4416000157a224","fixation","img/fixation.png","null","","test","","","","","",""
"113","274671","pSARL_v2","pSARL_v25wg7d4g9","5ba064c10d4416000157a224","infreq","img/green_2bandit_a2.png","70","68","test","0","128","128","6","",""
"null","275366","pSARL_v2","pSARL_v25wg7d4g9","5ba064c10d4416000157a224","infreq_resp","img/green_2bandit_a.png","70","68","test","","","","6","",""
"null","275522","pSARL_v2","pSARL_v25wg7d4g9","5ba064c10d4416000157a224","fixation","img/fixation.png","null","","test","","","","","",""
"144","275669","pSARL_v2","pSARL_v25wg7d4g9","5ba064c10d4416000157a224","freq","img/orange_2bandit_a2.png","70","70","test","1","129","129","6","",""
"null","276341","pSARL_v2","pSARL_v25wg7d4g9","5ba064c10d4416000157a224","freq_resp","img/orange_2bandit_a.png","70","70","test","","","","6","",""
"null","276496","pSARL_v2","pSARL_v25wg7d4g9","5ba064c10d4416000157a224","fixation","img/fixation.png","null","","test","","","","","",""
"217","276715","pSARL_v2","pSARL_v25wg7d4g9","5ba064c10d4416000157a224","infreq","img/green_2bandit_a2.png","70","68","test","0","130","130","6","",""
"null","277300","pSARL_v2","pSARL_v25wg7d4g9","5ba064c10d4416000157a224","infreq_resp","img/green_2bandit_a.png","70","68","test","","","","6","",""
"null","277455","pSARL_v2","pSARL_v25wg7d4g9","5ba064c10d4416000157a224","fixation","img/fixation.png","null","","test","","","","","",""
"279","277737","pSARL_v2","pSARL_v25wg7d4g9","5ba064c10d4416000157a224","freq","img/orange_2bandit_a2.png","70","70","test","1","131","131","6","",""
"null","278275","pSARL_v2","pSARL_v25wg7d4g9","5ba064c10d4416000157a224","freq_resp","img/orange_2bandit_a.png","70","70","test","","","","6","",""
"null","278431","pSARL_v2","pSARL_v25wg7d4g9","5ba064c10d4416000157a224","fixation","img/fixation.png","null","","test","","","","","",""
"279","278711","pSARL_v2","pSARL_v25wg7d4g9","5ba064c10d4416000157a224","freq","img/orange_2bandit_a2.png","70","70","test","1","132","132","6","",""
"null","279248","pSARL_v2","pSARL_v25wg7d4g9","5ba064c10d4416000157a224","freq_resp","img/orange_2bandit_a.png","70","70","test","","","","6","",""
"null","279407","pSARL_v2","pSARL_v25wg7d4g9","5ba064c10d4416000157a224","fixation","img/fixation.png","null","","test","","","","","",""
"250","279659","pSARL_v2","pSARL_v25wg7d4g9","5ba064c10d4416000157a224","freq","img/orange_2bandit_a2.png","70","70","test","1","133","133","6","",""
"null","280216","pSARL_v2","pSARL_v25wg7d4g9","5ba064c10d4416000157a224","freq_resp","img/orange_2bandit_a.png","70","70","test","","","","6","",""
"null","280372","pSARL_v2","pSARL_v25wg7d4g9","5ba064c10d4416000157a224","fixation","img/fixation.png","null","","test","","","","","",""
"247","280623","pSARL_v2","pSARL_v25wg7d4g9","5ba064c10d4416000157a224","freq","img/orange_2bandit_a2.png","70","70","test","1","134","134","6","",""
"null","281180","pSARL_v2","pSARL_v25wg7d4g9","5ba064c10d4416000157a224","freq_resp","img/orange_2bandit_a.png","70","70","test","","","","6","",""
"null","281334","pSARL_v2","pSARL_v25wg7d4g9","5ba064c10d4416000157a224","fixation","img/fixation.png","null","","test","","","","","",""
"153","281491","pSARL_v2","pSARL_v25wg7d4g9","5ba064c10d4416000157a224","freq","img/orange_2bandit_a2.png","70","70","test","1","135","135","6","",""
"null","282155","pSARL_v2","pSARL_v25wg7d4g9","5ba064c10d4416000157a224","freq_resp","img/orange_2bandit_a.png","70","70","test","","","","6","",""
"null","282311","pSARL_v2","pSARL_v25wg7d4g9","5ba064c10d4416000157a224","fixation","img/fixation.png","null","","test","","","","","",""
"227","282542","pSARL_v2","pSARL_v25wg7d4g9","5ba064c10d4416000157a224","freq","img/orange_2bandit_a2.png","70","70","test","1","136","136","6","",""
"null","283120","pSARL_v2","pSARL_v25wg7d4g9","5ba064c10d4416000157a224","freq_resp","img/orange_2bandit_a.png","70","70","test","","","","6","",""
"null","283276","pSARL_v2","pSARL_v25wg7d4g9","5ba064c10d4416000157a224","fixation","img/fixation.png","null","","test","","","","","",""
"238","283517","pSARL_v2","pSARL_v25wg7d4g9","5ba064c10d4416000157a224","freq","img/orange_2bandit_a2.png","70","70","test","1","137","137","6","",""
"null","284084","pSARL_v2","pSARL_v25wg7d4g9","5ba064c10d4416000157a224","freq_resp","img/orange_2bandit_a.png","70","70","test","","","","6","",""
"null","284239","pSARL_v2","pSARL_v25wg7d4g9","5ba064c10d4416000157a224","fixation","img/fixation.png","null","","test","","","","","",""
"149","284391","pSARL_v2","pSARL_v25wg7d4g9","5ba064c10d4416000157a224","freq","img/orange_2bandit_a2.png","70","70","test","1","138","138","6","",""
"null","285059","pSARL_v2","pSARL_v25wg7d4g9","5ba064c10d4416000157a224","freq_resp","img/orange_2bandit_a.png","70","70","test","","","","6","",""
"null","285214","pSARL_v2","pSARL_v25wg7d4g9","5ba064c10d4416000157a224","fixation","img/fixation.png","null","","test","","","","","",""
"441","285657","pSARL_v2","pSARL_v25wg7d4g9","5ba064c10d4416000157a224","reward","img/slot.png","74","","test","","","","","",""
"null","286411","pSARL_v2","pSARL_v25wg7d4g9","5ba064c10d4416000157a224","points","<div class=""verylowPoints""> -7 </div>","null","na","test","","","","6","-7","5"
"495","286908","pSARL_v2","pSARL_v25wg7d4g9","5ba064c10d4416000157a224","freq","img/orange_2bandit_a2.png","70","70","test","1","139","139","7","",""
"null","287218","pSARL_v2","pSARL_v25wg7d4g9","5ba064c10d4416000157a224","freq_resp","img/orange_2bandit_a.png","70","70","test","","","","7","",""
"null","287374","pSARL_v2","pSARL_v25wg7d4g9","5ba064c10d4416000157a224","fixation","img/fixation.png","null","","test","","","","","",""
"304","287680","pSARL_v2","pSARL_v25wg7d4g9","5ba064c10d4416000157a224","freq","img/orange_2bandit_a2.png","70","70","test","1","140","140","7","",""
"null","288180","pSARL_v2","pSARL_v25wg7d4g9","5ba064c10d4416000157a224","freq_resp","img/orange_2bandit_a.png","70","70","test","","","","7","",""
"null","288336","pSARL_v2","pSARL_v25wg7d4g9","5ba064c10d4416000157a224","fixation","img/fixation.png","null","","test","","","","","",""
"68","288406","pSARL_v2","pSARL_v25wg7d4g9","5ba064c10d4416000157a224","freq","img/orange_2bandit_a2.png","70","70","test","1","141","141","7","",""
"null","289156","pSARL_v2","pSARL_v25wg7d4g9","5ba064c10d4416000157a224","freq_resp","img/orange_2bandit_a.png","70","70","test","","","","7","",""
"null","289312","pSARL_v2","pSARL_v25wg7d4g9","5ba064c10d4416000157a224","fixation","img/fixation.png","null","","test","","","","","",""
"113","289427","pSARL_v2","pSARL_v25wg7d4g9","5ba064c10d4416000157a224","freq","img/orange_2bandit_a2.png","70","70","test","1","142","142","7","",""
"null","290120","pSARL_v2","pSARL_v25wg7d4g9","5ba064c10d4416000157a224","freq_resp","img/orange_2bandit_a.png","70","70","test","","","","7","",""
"null","290277","pSARL_v2","pSARL_v25wg7d4g9","5ba064c10d4416000157a224","fixation","img/fixation.png","null","","test","","","","","",""
"136","290416","pSARL_v2","pSARL_v25wg7d4g9","5ba064c10d4416000157a224","freq","img/orange_2bandit_a2.png","70","70","test","1","143","143","7","",""
"null","291098","pSARL_v2","pSARL_v25wg7d4g9","5ba064c10d4416000157a224","freq_resp","img/orange_2bandit_a.png","70","70","test","","","","7","",""
"null","291255","pSARL_v2","pSARL_v25wg7d4g9","5ba064c10d4416000157a224","fixation","img/fixation.png","null","","test","","","","","",""
"245","291502","pSARL_v2","pSARL_v25wg7d4g9","5ba064c10d4416000157a224","freq","img/orange_2bandit_a2.png","70","70","test","1","144","144","7","",""
"null","292076","pSARL_v2","pSARL_v25wg7d4g9","5ba064c10d4416000157a224","freq_resp","img/orange_2bandit_a.png","70","70","test","","","","7","",""
"null","292232","pSARL_v2","pSARL_v25wg7d4g9","5ba064c10d4416000157a224","fixation","img/fixation.png","null","","test","","","","","",""
"158","292392","pSARL_v2","pSARL_v25wg7d4g9","5ba064c10d4416000157a224","freq","img/orange_2bandit_a2.png","70","70","test","1","145","145","7","",""
"null","293051","pSARL_v2","pSARL_v25wg7d4g9","5ba064c10d4416000157a224","freq_resp","img/orange_2bandit_a.png","70","70","test","","","","7","",""
"null","293207","pSARL_v2","pSARL_v25wg7d4g9","5ba064c10d4416000157a224","fixation","img/fixation.png","null","","test","","","","","",""
"143","293352","pSARL_v2","pSARL_v25wg7d4g9","5ba064c10d4416000157a224","freq","img/orange_2bandit_a2.png","70","70","test","1","146","146","7","",""
"null","294027","pSARL_v2","pSARL_v25wg7d4g9","5ba064c10d4416000157a224","freq_resp","img/orange_2bandit_a.png","70","70","test","","","","7","",""
"null","294182","pSARL_v2","pSARL_v25wg7d4g9","5ba064c10d4416000157a224","fixation","img/fixation.png","null","","test","","","","","",""
"71","294256","pSARL_v2","pSARL_v25wg7d4g9","5ba064c10d4416000157a224","freq","img/orange_2bandit_a2.png","70","70","test","1","147","147","7","",""
"null","295003","pSARL_v2","pSARL_v25wg7d4g9","5ba064c10d4416000157a224","freq_resp","img/orange_2bandit_a.png","70","70","test","","","","7","",""
"null","295156","pSARL_v2","pSARL_v25wg7d4g9","5ba064c10d4416000157a224","fixation","img/fixation.png","null","","test","","","","","",""
"156","295314","pSARL_v2","pSARL_v25wg7d4g9","5ba064c10d4416000157a224","freq","img/orange_2bandit_a2.png","70","70","test","1","148","148","7","",""
"null","295962","pSARL_v2","pSARL_v25wg7d4g9","5ba064c10d4416000157a224","freq_resp","img/orange_2bandit_a.png","70","70","test","","","","7","",""
"null","296118","pSARL_v2","pSARL_v25wg7d4g9","5ba064c10d4416000157a224","fixation","img/fixation.png","null","","test","","","","","",""
"237","296359","pSARL_v2","pSARL_v25wg7d4g9","5ba064c10d4416000157a224","freq","img/orange_2bandit_a2.png","70","70","test","1","149","149","7","",""
"null","296926","pSARL_v2","pSARL_v25wg7d4g9","5ba064c10d4416000157a224","freq_resp","img/orange_2bandit_a.png","70","70","test","","","","7","",""
"null","297085","pSARL_v2","pSARL_v25wg7d4g9","5ba064c10d4416000157a224","fixation","img/fixation.png","null","","test","","","","","",""
"243","297331","pSARL_v2","pSARL_v25wg7d4g9","5ba064c10d4416000157a224","freq","img/orange_2bandit_a2.png","70","70","test","1","150","150","7","",""
"null","297905","pSARL_v2","pSARL_v25wg7d4g9","5ba064c10d4416000157a224","freq_resp","img/orange_2bandit_a.png","70","70","test","","","","7","",""
"null","298059","pSARL_v2","pSARL_v25wg7d4g9","5ba064c10d4416000157a224","fixation","img/fixation.png","null","","test","","","","","",""
"120","298180","pSARL_v2","pSARL_v25wg7d4g9","5ba064c10d4416000157a224","freq","img/orange_2bandit_a2.png","70","70","test","1","151","151","7","",""
"null","298867","pSARL_v2","pSARL_v25wg7d4g9","5ba064c10d4416000157a224","freq_resp","img/orange_2bandit_a.png","70","70","test","","","","7","",""
"null","299023","pSARL_v2","pSARL_v25wg7d4g9","5ba064c10d4416000157a224","fixation","img/fixation.png","null","","test","","","","","",""
"null","299828","pSARL_v2","pSARL_v25wg7d4g9","5ba064c10d4416000157a224","freq","img/orange_2bandit_a2.png","null","70","test","0","152","152","7","",""
"null","299983","pSARL_v2","pSARL_v25wg7d4g9","5ba064c10d4416000157a224","fixation","img/fixation.png","null","","test","","","","","",""
"295","300280","pSARL_v2","pSARL_v25wg7d4g9","5ba064c10d4416000157a224","freq","img/orange_2bandit_a2.png","70","70","test","1","153","153","7","",""
"null","300802","pSARL_v2","pSARL_v25wg7d4g9","5ba064c10d4416000157a224","freq_resp","img/orange_2bandit_a.png","70","70","test","","","","7","",""
"null","300957","pSARL_v2","pSARL_v25wg7d4g9","5ba064c10d4416000157a224","fixation","img/fixation.png","null","","test","","","","","",""
"238","301196","pSARL_v2","pSARL_v25wg7d4g9","5ba064c10d4416000157a224","freq","img/orange_2bandit_a2.png","70","70","test","1","154","154","7","",""
"null","301776","pSARL_v2","pSARL_v25wg7d4g9","5ba064c10d4416000157a224","freq_resp","img/orange_2bandit_a.png","70","70","test","","","","7","",""
"null","301946","pSARL_v2","pSARL_v25wg7d4g9","5ba064c10d4416000157a224","fixation","img/fixation.png","null","","test","","","","","",""
"246","302195","pSARL_v2","pSARL_v25wg7d4g9","5ba064c10d4416000157a224","freq","img/orange_2bandit_a2.png","70","70","test","1","155","155","7","",""
"null","302752","pSARL_v2","pSARL_v25wg7d4g9","5ba064c10d4416000157a224","freq_resp","img/orange_2bandit_a.png","70","70","test","","","","7","",""
"null","302907","pSARL_v2","pSARL_v25wg7d4g9","5ba064c10d4416000157a224","fixation","img/fixation.png","null","","test","","","","","",""
"765","303675","pSARL_v2","pSARL_v25wg7d4g9","5ba064c10d4416000157a224","freq","img/orange_2bandit_a2.png","70","70","test","1","156","156","7","",""
"null","303714","pSARL_v2","pSARL_v25wg7d4g9","5ba064c10d4416000157a224","freq_resp","img/orange_2bandit_a.png","70","70","test","","","","7","",""
"null","303870","pSARL_v2","pSARL_v25wg7d4g9","5ba064c10d4416000157a224","fixation","img/fixation.png","null","","test","","","","","",""
"194","304067","pSARL_v2","pSARL_v25wg7d4g9","5ba064c10d4416000157a224","freq","img/orange_2bandit_a2.png","70","70","test","1","157","157","7","",""
"null","304679","pSARL_v2","pSARL_v25wg7d4g9","5ba064c10d4416000157a224","freq_resp","img/orange_2bandit_a.png","70","70","test","","","","7","",""
"null","304834","pSARL_v2","pSARL_v25wg7d4g9","5ba064c10d4416000157a224","fixation","img/fixation.png","null","","test","","","","","",""
"551","305388","pSARL_v2","pSARL_v25wg7d4g9","5ba064c10d4416000157a224","freq","img/orange_2bandit_a2.png","70","70","test","1","158","158","7","",""
"null","305655","pSARL_v2","pSARL_v25wg7d4g9","5ba064c10d4416000157a224","freq_resp","img/orange_2bandit_a.png","70","70","test","","","","7","",""
"null","305810","pSARL_v2","pSARL_v25wg7d4g9","5ba064c10d4416000157a224","fixation","img/fixation.png","null","","test","","","","","",""
"254","306066","pSARL_v2","pSARL_v25wg7d4g9","5ba064c10d4416000157a224","freq","img/orange_2bandit_a2.png","70","70","test","1","159","159","7","",""
"null","306628","pSARL_v2","pSARL_v25wg7d4g9","5ba064c10d4416000157a224","freq_resp","img/orange_2bandit_a.png","70","70","test","","","","7","",""
"null","306784","pSARL_v2","pSARL_v25wg7d4g9","5ba064c10d4416000157a224","fixation","img/fixation.png","null","","test","","","","","",""
"190","306975","pSARL_v2","pSARL_v25wg7d4g9","5ba064c10d4416000157a224","freq","img/orange_2bandit_a2.png","70","70","test","1","160","160","7","",""
"null","307591","pSARL_v2","pSARL_v25wg7d4g9","5ba064c10d4416000157a224","freq_resp","img/orange_2bandit_a.png","70","70","test","","","","7","",""
"null","307745","pSARL_v2","pSARL_v25wg7d4g9","5ba064c10d4416000157a224","fixation","img/fixation.png","null","","test","","","","","",""
"450","308198","pSARL_v2","pSARL_v25wg7d4g9","5ba064c10d4416000157a224","infreq","img/green_2bandit_a2.png","68","68","test","1","161","161","7","",""
"null","308553","pSARL_v2","pSARL_v25wg7d4g9","5ba064c10d4416000157a224","infreq_resp","img/green_2bandit_a.png","68","68","test","","","","7","",""
"null","308709","pSARL_v2","pSARL_v25wg7d4g9","5ba064c10d4416000157a224","fixation","img/fixation.png","null","","test","","","","","",""
"323","309035","pSARL_v2","pSARL_v25wg7d4g9","5ba064c10d4416000157a224","infreq","img/green_2bandit_a2.png","68","68","test","1","162","162","7","",""
"null","309530","pSARL_v2","pSARL_v25wg7d4g9","5ba064c10d4416000157a224","infreq_resp","img/green_2bandit_a.png","68","68","test","","","","7","",""
"null","309685","pSARL_v2","pSARL_v25wg7d4g9","5ba064c10d4416000157a224","fixation","img/fixation.png","null","","test","","","","","",""
"304","309991","pSARL_v2","pSARL_v25wg7d4g9","5ba064c10d4416000157a224","freq","img/orange_2bandit_a2.png","70","70","test","1","163","163","7","",""
"null","310493","pSARL_v2","pSARL_v25wg7d4g9","5ba064c10d4416000157a224","freq_resp","img/orange_2bandit_a.png","70","70","test","","","","7","",""
"null","310648","pSARL_v2","pSARL_v25wg7d4g9","5ba064c10d4416000157a224","fixation","img/fixation.png","null","","test","","","","","",""
"428","311079","pSARL_v2","pSARL_v25wg7d4g9","5ba064c10d4416000157a224","reward","img/slot.png","74","","test","","","","","",""
"null","311846","pSARL_v2","pSARL_v25wg7d4g9","5ba064c10d4416000157a224","points","<div class=""verylowPoints""> -6 </div>","null","na","test","","","","7","-6","6"
"360","312209","pSARL_v2","pSARL_v25wg7d4g9","5ba064c10d4416000157a224","freq","img/orange_2bandit_a2.png","70","70","test","1","164","164","8","",""
"null","312654","pSARL_v2","pSARL_v25wg7d4g9","5ba064c10d4416000157a224","freq_resp","img/orange_2bandit_a.png","70","70","test","","","","8","",""
"null","312807","pSARL_v2","pSARL_v25wg7d4g9","5ba064c10d4416000157a224","fixation","img/fixation.png","null","","test","","","","","",""
"237","313047","pSARL_v2","pSARL_v25wg7d4g9","5ba064c10d4416000157a224","freq","img/orange_2bandit_a2.png","70","70","test","1","165","165","8","",""
"null","313617","pSARL_v2","pSARL_v25wg7d4g9","5ba064c10d4416000157a224","freq_resp","img/orange_2bandit_a.png","70","70","test","","","","8","",""
"null","313772","pSARL_v2","pSARL_v25wg7d4g9","5ba064c10d4416000157a224","fixation","img/fixation.png","null","","test","","","","","",""
"120","313895","pSARL_v2","pSARL_v25wg7d4g9","5ba064c10d4416000157a224","freq","img/orange_2bandit_a2.png","70","70","test","1","166","166","8","",""
"null","314580","pSARL_v2","pSARL_v25wg7d4g9","5ba064c10d4416000157a224","freq_resp","img/orange_2bandit_a.png","70","70","test","","","","8","",""
"null","314736","pSARL_v2","pSARL_v25wg7d4g9","5ba064c10d4416000157a224","fixation","img/fixation.png","null","","test","","","","","",""
"306","315044","pSARL_v2","pSARL_v25wg7d4g9","5ba064c10d4416000157a224","freq","img/orange_2bandit_a2.png","70","70","test","1","167","167","8","",""
"null","315549","pSARL_v2","pSARL_v25wg7d4g9","5ba064c10d4416000157a224","freq_resp","img/orange_2bandit_a.png","70","70","test","","","","8","",""
"null","315705","pSARL_v2","pSARL_v25wg7d4g9","5ba064c10d4416000157a224","fixation","img/fixation.png","null","","test","","","","","",""
"222","315930","pSARL_v2","pSARL_v25wg7d4g9","5ba064c10d4416000157a224","freq","img/orange_2bandit_a2.png","70","70","test","1","168","168","8","",""
"null","316524","pSARL_v2","pSARL_v25wg7d4g9","5ba064c10d4416000157a224","freq_resp","img/orange_2bandit_a.png","70","70","test","","","","8","",""
"null","316678","pSARL_v2","pSARL_v25wg7d4g9","5ba064c10d4416000157a224","fixation","img/fixation.png","null","","test","","","","","",""
"109","316788","pSARL_v2","pSARL_v25wg7d4g9","5ba064c10d4416000157a224","freq","img/orange_2bandit_a2.png","70","70","test","1","169","169","8","",""
"null","317498","pSARL_v2","pSARL_v25wg7d4g9","5ba064c10d4416000157a224","freq_resp","img/orange_2bandit_a.png","70","70","test","","","","8","",""
"null","317653","pSARL_v2","pSARL_v25wg7d4g9","5ba064c10d4416000157a224","fixation","img/fixation.png","null","","test","","","","","",""
"114","317769","pSARL_v2","pSARL_v25wg7d4g9","5ba064c10d4416000157a224","freq","img/orange_2bandit_a2.png","70","70","test","1","170","170","8","",""
"null","318472","pSARL_v2","pSARL_v25wg7d4g9","5ba064c10d4416000157a224","freq_resp","img/orange_2bandit_a.png","70","70","test","","","","8","",""
"null","318627","pSARL_v2","pSARL_v25wg7d4g9","5ba064c10d4416000157a224","fixation","img/fixation.png","null","","test","","","","","",""
"178","318807","pSARL_v2","pSARL_v25wg7d4g9","5ba064c10d4416000157a224","freq","img/orange_2bandit_a2.png","70","70","test","1","171","171","8","",""
"null","319435","pSARL_v2","pSARL_v25wg7d4g9","5ba064c10d4416000157a224","freq_resp","img/orange_2bandit_a.png","70","70","test","","","","8","",""
"null","319590","pSARL_v2","pSARL_v25wg7d4g9","5ba064c10d4416000157a224","fixation","img/fixation.png","null","","test","","","","","",""
"255","319847","pSARL_v2","pSARL_v25wg7d4g9","5ba064c10d4416000157a224","freq","img/orange_2bandit_a2.png","70","70","test","1","172","172","8","",""
"null","320397","pSARL_v2","pSARL_v25wg7d4g9","5ba064c10d4416000157a224","freq_resp","img/orange_2bandit_a.png","70","70","test","","","","8","",""
"null","320552","pSARL_v2","pSARL_v25wg7d4g9","5ba064c10d4416000157a224","fixation","img/fixation.png","null","","test","","","","","",""
"391","320945","pSARL_v2","pSARL_v25wg7d4g9","5ba064c10d4416000157a224","infreq","img/green_2bandit_a2.png","68","68","test","1","173","173","8","",""
"null","321358","pSARL_v2","pSARL_v25wg7d4g9","5ba064c10d4416000157a224","infreq_resp","img/green_2bandit_a.png","68","68","test","","","","8","",""
"null","321514","pSARL_v2","pSARL_v25wg7d4g9","5ba064c10d4416000157a224","fixation","img/fixation.png","null","","test","","","","","",""
"412","321929","pSARL_v2","pSARL_v25wg7d4g9","5ba064c10d4416000157a224","freq","img/orange_2bandit_a2.png","70","70","test","1","174","174","8","",""
"null","322334","pSARL_v2","pSARL_v25wg7d4g9","5ba064c10d4416000157a224","freq_resp","img/orange_2bandit_a.png","70","70","test","","","","8","",""
"null","322487","pSARL_v2","pSARL_v25wg7d4g9","5ba064c10d4416000157a224","fixation","img/fixation.png","null","","test","","","","","",""
"418","322909","pSARL_v2","pSARL_v25wg7d4g9","5ba064c10d4416000157a224","infreq","img/green_2bandit_a2.png","68","68","test","1","175","175","8","",""
"null","323301","pSARL_v2","pSARL_v25wg7d4g9","5ba064c10d4416000157a224","infreq_resp","img/green_2bandit_a.png","68","68","test","","","","8","",""
"null","323455","pSARL_v2","pSARL_v25wg7d4g9","5ba064c10d4416000157a224","fixation","img/fixation.png","null","","test","","","","","",""
"326","323783","pSARL_v2","pSARL_v25wg7d4g9","5ba064c10d4416000157a224","freq","img/orange_2bandit_a2.png","70","70","test","1","176","176","8","",""
"null","324260","pSARL_v2","pSARL_v25wg7d4g9","5ba064c10d4416000157a224","freq_resp","img/orange_2bandit_a.png","70","70","test","","","","8","",""
"null","324415","pSARL_v2","pSARL_v25wg7d4g9","5ba064c10d4416000157a224","fixation","img/fixation.png","null","","test","","","","","",""
"314","324732","pSARL_v2","pSARL_v25wg7d4g9","5ba064c10d4416000157a224","freq","img/orange_2bandit_a2.png","70","70","test","1","177","177","8","",""
"null","325224","pSARL_v2","pSARL_v25wg7d4g9","5ba064c10d4416000157a224","freq_resp","img/orange_2bandit_a.png","70","70","test","","","","8","",""
"null","325381","pSARL_v2","pSARL_v25wg7d4g9","5ba064c10d4416000157a224","fixation","img/fixation.png","null","","test","","","","","",""
"306","325688","pSARL_v2","pSARL_v25wg7d4g9","5ba064c10d4416000157a224","freq","img/orange_2bandit_a2.png","70","70","test","1","178","178","8","",""
"null","326191","pSARL_v2","pSARL_v25wg7d4g9","5ba064c10d4416000157a224","freq_resp","img/orange_2bandit_a.png","70","70","test","","","","8","",""
"null","326343","pSARL_v2","pSARL_v25wg7d4g9","5ba064c10d4416000157a224","fixation","img/fixation.png","null","","test","","","","","",""
"248","326595","pSARL_v2","pSARL_v25wg7d4g9","5ba064c10d4416000157a224","freq","img/orange_2bandit_a2.png","70","70","test","1","179","179","8","",""
"null","327149","pSARL_v2","pSARL_v25wg7d4g9","5ba064c10d4416000157a224","freq_resp","img/orange_2bandit_a.png","70","70","test","","","","8","",""
"null","327304","pSARL_v2","pSARL_v25wg7d4g9","5ba064c10d4416000157a224","fixation","img/fixation.png","null","","test","","","","","",""
"305","327611","pSARL_v2","pSARL_v25wg7d4g9","5ba064c10d4416000157a224","freq","img/orange_2bandit_a2.png","70","70","test","1","180","180","8","",""
"null","328125","pSARL_v2","pSARL_v25wg7d4g9","5ba064c10d4416000157a224","freq_resp","img/orange_2bandit_a.png","70","70","test","","","","8","",""
"null","328279","pSARL_v2","pSARL_v25wg7d4g9","5ba064c10d4416000157a224","fixation","img/fixation.png","null","","test","","","","","",""
"208","328489","pSARL_v2","pSARL_v25wg7d4g9","5ba064c10d4416000157a224","freq","img/orange_2bandit_a2.png","70","70","test","1","181","181","8","",""
"null","329087","pSARL_v2","pSARL_v25wg7d4g9","5ba064c10d4416000157a224","freq_resp","img/orange_2bandit_a.png","70","70","test","","","","8","",""
"null","329243","pSARL_v2","pSARL_v25wg7d4g9","5ba064c10d4416000157a224","fixation","img/fixation.png","null","","test","","","","","",""
"190","329436","pSARL_v2","pSARL_v25wg7d4g9","5ba064c10d4416000157a224","freq","img/orange_2bandit_a2.png","70","70","test","1","182","182","8","",""
"null","330050","pSARL_v2","pSARL_v25wg7d4g9","5ba064c10d4416000157a224","freq_resp","img/orange_2bandit_a.png","70","70","test","","","","8","",""
"null","330204","pSARL_v2","pSARL_v25wg7d4g9","5ba064c10d4416000157a224","fixation","img/fixation.png","null","","test","","","","","",""
"130","330337","pSARL_v2","pSARL_v25wg7d4g9","5ba064c10d4416000157a224","freq","img/orange_2bandit_a2.png","70","70","test","1","183","183","8","",""
"null","331012","pSARL_v2","pSARL_v25wg7d4g9","5ba064c10d4416000157a224","freq_resp","img/orange_2bandit_a.png","70","70","test","","","","8","",""
"null","331167","pSARL_v2","pSARL_v25wg7d4g9","5ba064c10d4416000157a224","fixation","img/fixation.png","null","","test","","","","","",""
"127","331297","pSARL_v2","pSARL_v25wg7d4g9","5ba064c10d4416000157a224","freq","img/orange_2bandit_a2.png","70","70","test","1","184","184","8","",""
"null","331987","pSARL_v2","pSARL_v25wg7d4g9","5ba064c10d4416000157a224","freq_resp","img/orange_2bandit_a.png","70","70","test","","","","8","",""
"null","332143","pSARL_v2","pSARL_v25wg7d4g9","5ba064c10d4416000157a224","fixation","img/fixation.png","null","","test","","","","","",""
"90","332235","pSARL_v2","pSARL_v25wg7d4g9","5ba064c10d4416000157a224","infreq","img/green_2bandit_a2.png","70","68","test","0","185","185","8","",""
"null","332951","pSARL_v2","pSARL_v25wg7d4g9","5ba064c10d4416000157a224","infreq_resp","img/green_2bandit_a.png","70","68","test","","","","8","",""
"null","333109","pSARL_v2","pSARL_v25wg7d4g9","5ba064c10d4416000157a224","fixation","img/fixation.png","null","","test","","","","","",""
"266","333377","pSARL_v2","pSARL_v25wg7d4g9","5ba064c10d4416000157a224","freq","img/orange_2bandit_a2.png","70","70","test","1","186","186","8","",""
"null","333929","pSARL_v2","pSARL_v25wg7d4g9","5ba064c10d4416000157a224","freq_resp","img/orange_2bandit_a.png","70","70","test","","","","8","",""
"null","334084","pSARL_v2","pSARL_v25wg7d4g9","5ba064c10d4416000157a224","fixation","img/fixation.png","null","","test","","","","","",""
"272","334357","pSARL_v2","pSARL_v25wg7d4g9","5ba064c10d4416000157a224","freq","img/orange_2bandit_a2.png","70","70","test","1","187","187","8","",""
"null","334893","pSARL_v2","pSARL_v25wg7d4g9","5ba064c10d4416000157a224","freq_resp","img/orange_2bandit_a.png","70","70","test","","","","8","",""
"null","335049","pSARL_v2","pSARL_v25wg7d4g9","5ba064c10d4416000157a224","fixation","img/fixation.png","null","","test","","","","","",""
"157","335207","pSARL_v2","pSARL_v25wg7d4g9","5ba064c10d4416000157a224","freq","img/orange_2bandit_a2.png","70","70","test","1","188","188","8","",""
"null","335859","pSARL_v2","pSARL_v25wg7d4g9","5ba064c10d4416000157a224","freq_resp","img/orange_2bandit_a.png","70","70","test","","","","8","",""
"null","336015","pSARL_v2","pSARL_v25wg7d4g9","5ba064c10d4416000157a224","fixation","img/fixation.png","null","","test","","","","","",""
"444","336461","pSARL_v2","pSARL_v25wg7d4g9","5ba064c10d4416000157a224","reward","img/slot.png","74","","test","","","","","",""
"null","337215","pSARL_v2","pSARL_v25wg7d4g9","5ba064c10d4416000157a224","points","<div class=""verylowPoints""> -4 </div>","null","na","test","","","","8","-4","7"
"511","337727","pSARL_v2","pSARL_v25wg7d4g9","5ba064c10d4416000157a224","freq","img/orange_2bandit_a2.png","70","70","test","1","189","189","9","",""
"null","338023","pSARL_v2","pSARL_v25wg7d4g9","5ba064c10d4416000157a224","freq_resp","img/orange_2bandit_a.png","70","70","test","","","","9","",""
"null","338176","pSARL_v2","pSARL_v25wg7d4g9","5ba064c10d4416000157a224","fixation","img/fixation.png","null","","test","","","","","",""
"265","338443","pSARL_v2","pSARL_v25wg7d4g9","5ba064c10d4416000157a224","freq","img/orange_2bandit_a2.png","70","70","test","1","190","190","9","",""
"null","338984","pSARL_v2","pSARL_v25wg7d4g9","5ba064c10d4416000157a224","freq_resp","img/orange_2bandit_a.png","70","70","test","","","","9","",""
"null","339141","pSARL_v2","pSARL_v25wg7d4g9","5ba064c10d4416000157a224","fixation","img/fixation.png","null","","test","","","","","",""
"10","339154","pSARL_v2","pSARL_v25wg7d4g9","5ba064c10d4416000157a224","freq","img/orange_2bandit_a2.png","70","70","test","1","191","191","9","",""
"null","339949","pSARL_v2","pSARL_v25wg7d4g9","5ba064c10d4416000157a224","freq_resp","img/orange_2bandit_a.png","70","70","test","","","","9","",""
"null","340115","pSARL_v2","pSARL_v25wg7d4g9","5ba064c10d4416000157a224","fixation","img/fixation.png","null","","test","","","","","",""
"338","340455","pSARL_v2","pSARL_v25wg7d4g9","5ba064c10d4416000157a224","freq","img/orange_2bandit_a2.png","70","70","test","1","192","192","9","",""
"null","340936","pSARL_v2","pSARL_v25wg7d4g9","5ba064c10d4416000157a224","freq_resp","img/orange_2bandit_a.png","70","70","test","","","","9","",""
"null","341092","pSARL_v2","pSARL_v25wg7d4g9","5ba064c10d4416000157a224","fixation","img/fixation.png","null","","test","","","","","",""
"157","341252","pSARL_v2","pSARL_v25wg7d4g9","5ba064c10d4416000157a224","freq","img/orange_2bandit_a2.png","70","70","test","1","193","193","9","",""
"null","341906","pSARL_v2","pSARL_v25wg7d4g9","5ba064c10d4416000157a224","freq_resp","img/orange_2bandit_a.png","70","70","test","","","","9","",""
"null","342061","pSARL_v2","pSARL_v25wg7d4g9","5ba064c10d4416000157a224","fixation","img/fixation.png","null","","test","","","","","",""
"132","342195","pSARL_v2","pSARL_v25wg7d4g9","5ba064c10d4416000157a224","freq","img/orange_2bandit_a2.png","70","70","test","1","194","194","9","",""
"null","342868","pSARL_v2","pSARL_v25wg7d4g9","5ba064c10d4416000157a224","freq_resp","img/orange_2bandit_a.png","70","70","test","","","","9","",""
"null","343023","pSARL_v2","pSARL_v25wg7d4g9","5ba064c10d4416000157a224","fixation","img/fixation.png","null","","test","","","","","",""
"355","343381","pSARL_v2","pSARL_v25wg7d4g9","5ba064c10d4416000157a224","infreq","img/green_2bandit_a2.png","68","68","test","1","195","195","9","",""
"null","343831","pSARL_v2","pSARL_v25wg7d4g9","5ba064c10d4416000157a224","infreq_resp","img/green_2bandit_a.png","68","68","test","","","","9","",""
"null","343988","pSARL_v2","pSARL_v25wg7d4g9","5ba064c10d4416000157a224","fixation","img/fixation.png","null","","test","","","","","",""
"396","344386","pSARL_v2","pSARL_v25wg7d4g9","5ba064c10d4416000157a224","freq","img/orange_2bandit_a2.png","70","70","test","1","196","196","9","",""
"null","344797","pSARL_v2","pSARL_v25wg7d4g9","5ba064c10d4416000157a224","freq_resp","img/orange_2bandit_a.png","70","70","test","","","","9","",""
"null","344953","pSARL_v2","pSARL_v25wg7d4g9","5ba064c10d4416000157a224","fixation","img/fixation.png","null","","test","","","","","",""
"279","345235","pSARL_v2","pSARL_v25wg7d4g9","5ba064c10d4416000157a224","freq","img/orange_2bandit_a2.png","70","70","test","1","197","197","9","",""
"null","345761","pSARL_v2","pSARL_v25wg7d4g9","5ba064c10d4416000157a224","freq_resp","img/orange_2bandit_a.png","70","70","test","","","","9","",""
"null","345917","pSARL_v2","pSARL_v25wg7d4g9","5ba064c10d4416000157a224","fixation","img/fixation.png","null","","test","","","","","",""
"232","346153","pSARL_v2","pSARL_v25wg7d4g9","5ba064c10d4416000157a224","freq","img/orange_2bandit_a2.png","70","70","test","1","198","198","9","",""
"null","346735","pSARL_v2","pSARL_v25wg7d4g9","5ba064c10d4416000157a224","freq_resp","img/orange_2bandit_a.png","70","70","test","","","","9","",""
"null","346889","pSARL_v2","pSARL_v25wg7d4g9","5ba064c10d4416000157a224","fixation","img/fixation.png","null","","test","","","","","",""
"119","347011","pSARL_v2","pSARL_v25wg7d4g9","5ba064c10d4416000157a224","freq","img/orange_2bandit_a2.png","70","70","test","1","199","199","9","",""
"null","347698","pSARL_v2","pSARL_v25wg7d4g9","5ba064c10d4416000157a224","freq_resp","img/orange_2bandit_a.png","70","70","test","","","","9","",""
"null","347853","pSARL_v2","pSARL_v25wg7d4g9","5ba064c10d4416000157a224","fixation","img/fixation.png","null","","test","","","","","",""
"111","347966","pSARL_v2","pSARL_v25wg7d4g9","5ba064c10d4416000157a224","freq","img/orange_2bandit_a2.png","70","70","test","1","200","200","9","",""
"null","348658","pSARL_v2","pSARL_v25wg7d4g9","5ba064c10d4416000157a224","freq_resp","img/orange_2bandit_a.png","70","70","test","","","","9","",""
"null","348814","pSARL_v2","pSARL_v25wg7d4g9","5ba064c10d4416000157a224","fixation","img/fixation.png","null","","test","","","","","",""
"261","349077","pSARL_v2","pSARL_v25wg7d4g9","5ba064c10d4416000157a224","freq","img/orange_2bandit_a2.png","70","70","test","1","201","201","9","",""
"null","349623","pSARL_v2","pSARL_v25wg7d4g9","5ba064c10d4416000157a224","freq_resp","img/orange_2bandit_a.png","70","70","test","","","","9","",""
"null","349778","pSARL_v2","pSARL_v25wg7d4g9","5ba064c10d4416000157a224","fixation","img/fixation.png","null","","test","","","","","",""
"267","350048","pSARL_v2","pSARL_v25wg7d4g9","5ba064c10d4416000157a224","freq","img/orange_2bandit_a2.png","70","70","test","1","202","202","9","",""
"null","350597","pSARL_v2","pSARL_v25wg7d4g9","5ba064c10d4416000157a224","freq_resp","img/orange_2bandit_a.png","70","70","test","","","","9","",""
"null","350752","pSARL_v2","pSARL_v25wg7d4g9","5ba064c10d4416000157a224","fixation","img/fixation.png","null","","test","","","","","",""
"397","351152","pSARL_v2","pSARL_v25wg7d4g9","5ba064c10d4416000157a224","infreq","img/green_2bandit_a2.png","68","68","test","1","203","203","9","",""
"null","351561","pSARL_v2","pSARL_v25wg7d4g9","5ba064c10d4416000157a224","infreq_resp","img/green_2bandit_a.png","68","68","test","","","","9","",""
"null","351716","pSARL_v2","pSARL_v25wg7d4g9","5ba064c10d4416000157a224","fixation","img/fixation.png","null","","test","","","","","",""
"461","352180","pSARL_v2","pSARL_v25wg7d4g9","5ba064c10d4416000157a224","freq","img/orange_2bandit_a2.png","70","70","test","1","204","204","9","",""
"null","352535","pSARL_v2","pSARL_v25wg7d4g9","5ba064c10d4416000157a224","freq_resp","img/orange_2bandit_a.png","70","70","test","","","","9","",""
"null","352690","pSARL_v2","pSARL_v25wg7d4g9","5ba064c10d4416000157a224","fixation","img/fixation.png","null","","test","","","","","",""
"285","352978","pSARL_v2","pSARL_v25wg7d4g9","5ba064c10d4416000157a224","freq","img/orange_2bandit_a2.png","70","70","test","1","205","205","9","",""
"null","353507","pSARL_v2","pSARL_v25wg7d4g9","5ba064c10d4416000157a224","freq_resp","img/orange_2bandit_a.png","70","70","test","","","","9","",""
"null","353662","pSARL_v2","pSARL_v25wg7d4g9","5ba064c10d4416000157a224","fixation","img/fixation.png","null","","test","","","","","",""
"313","353978","pSARL_v2","pSARL_v25wg7d4g9","5ba064c10d4416000157a224","freq","img/orange_2bandit_a2.png","70","70","test","1","206","206","9","",""
"null","354483","pSARL_v2","pSARL_v25wg7d4g9","5ba064c10d4416000157a224","freq_resp","img/orange_2bandit_a.png","70","70","test","","","","9","",""
"null","354639","pSARL_v2","pSARL_v25wg7d4g9","5ba064c10d4416000157a224","fixation","img/fixation.png","null","","test","","","","","",""
"220","354860","pSARL_v2","pSARL_v25wg7d4g9","5ba064c10d4416000157a224","freq","img/orange_2bandit_a2.png","70","70","test","1","207","207","9","",""
"null","355444","pSARL_v2","pSARL_v25wg7d4g9","5ba064c10d4416000157a224","freq_resp","img/orange_2bandit_a.png","70","70","test","","","","9","",""
"null","355599","pSARL_v2","pSARL_v25wg7d4g9","5ba064c10d4416000157a224","fixation","img/fixation.png","null","","test","","","","","",""
"277","355879","pSARL_v2","pSARL_v25wg7d4g9","5ba064c10d4416000157a224","freq","img/orange_2bandit_a2.png","70","70","test","1","208","208","9","",""
"null","356406","pSARL_v2","pSARL_v25wg7d4g9","5ba064c10d4416000157a224","freq_resp","img/orange_2bandit_a.png","70","70","test","","","","9","",""
"null","356575","pSARL_v2","pSARL_v25wg7d4g9","5ba064c10d4416000157a224","fixation","img/fixation.png","null","","test","","","","","",""
"174","356752","pSARL_v2","pSARL_v25wg7d4g9","5ba064c10d4416000157a224","freq","img/orange_2bandit_a2.png","70","70","test","1","209","209","9","",""
"null","357396","pSARL_v2","pSARL_v25wg7d4g9","5ba064c10d4416000157a224","freq_resp","img/orange_2bandit_a.png","70","70","test","","","","9","",""
"null","357551","pSARL_v2","pSARL_v25wg7d4g9","5ba064c10d4416000157a224","fixation","img/fixation.png","null","","test","","","","","",""
"172","357726","pSARL_v2","pSARL_v25wg7d4g9","5ba064c10d4416000157a224","freq","img/orange_2bandit_a2.png","70","70","test","1","210","210","9","",""
"null","358364","pSARL_v2","pSARL_v25wg7d4g9","5ba064c10d4416000157a224","freq_resp","img/orange_2bandit_a.png","70","70","test","","","","9","",""
"null","358519","pSARL_v2","pSARL_v25wg7d4g9","5ba064c10d4416000157a224","fixation","img/fixation.png","null","","test","","","","","",""
"338","358858","pSARL_v2","pSARL_v25wg7d4g9","5ba064c10d4416000157a224","freq","img/orange_2bandit_a2.png","70","70","test","1","211","211","9","",""
"null","359327","pSARL_v2","pSARL_v25wg7d4g9","5ba064c10d4416000157a224","freq_resp","img/orange_2bandit_a.png","70","70","test","","","","9","",""
"null","359482","pSARL_v2","pSARL_v25wg7d4g9","5ba064c10d4416000157a224","fixation","img/fixation.png","null","","test","","","","","",""
"265","359750","pSARL_v2","pSARL_v25wg7d4g9","5ba064c10d4416000157a224","freq","img/orange_2bandit_a2.png","70","70","test","1","212","212","9","",""
"null","360303","pSARL_v2","pSARL_v25wg7d4g9","5ba064c10d4416000157a224","freq_resp","img/orange_2bandit_a.png","70","70","test","","","","9","",""
