"rt","time_elapsed","expId","subject","prolificID","trialType","stimulus","key_press","corrresp","phase","corr","trialNum","attentionRunNum","blockNum","points","rlNum"
"302333","302325","pSARL_v2","pSARL_v296ed02hx","609a88c011993058c914a32a","","","","","","","","","","",""
"","307300","pSARL_v2","pSARL_v296ed02hx","609a88c011993058c914a32a","fullscreen","","","","","","","","","",""
"94832.20000000298","402133","pSARL_v2","pSARL_v296ed02hx","609a88c011993058c914a32a","","","","","","","","","","",""
"null","402952","pSARL_v2","pSARL_v296ed02hx","609a88c011993058c914a32a","freqPrac","img/green_2bandit_b2.png","null","70","prac","0","","","","",""
"null","403964","pSARL_v2","pSARL_v296ed02hx","609a88c011993058c914a32a","feedback","img/tooSlow.png","null","na","prac","","","","","",""
"null","404122","pSARL_v2","pSARL_v296ed02hx","609a88c011993058c914a32a","fixation","img/fixation.png","null","","prac","","","","","",""
"543.3000000044703","404670","pSARL_v2","pSARL_v296ed02hx","609a88c011993058c914a32a","infreqPrac","img/orange_2bandit_b2.png","68","68","prac","1","","","","",""
"543.3000000044703","404941","pSARL_v2","pSARL_v296ed02hx","609a88c011993058c914a32a","infreqPrac_resp","img/orange_2bandit_b.png","68","68","prac","","","","","",""
"null","405111","pSARL_v2","pSARL_v296ed02hx","609a88c011993058c914a32a","fixation","img/fixation.png","null","","prac","","","","","",""
"476.19999999552965","405592","pSARL_v2","pSARL_v296ed02hx","609a88c011993058c914a32a","freqPrac","img/green_2bandit_b2.png","70","70","prac","1","","","","",""
"476.19999999552965","405935","pSARL_v2","pSARL_v296ed02hx","609a88c011993058c914a32a","freqPrac_resp","img/green_2bandit_b.png","70","70","prac","","","","","",""
"null","406101","pSARL_v2","pSARL_v296ed02hx","609a88c011993058c914a32a","fixation","img/fixation.png","null","","prac","","","","","",""
"565.8000000044703","406672","pSARL_v2","pSARL_v296ed02hx","609a88c011993058c914a32a","infreqPrac","img/orange_2bandit_b2.png","68","68","prac","1","","","","",""
"565.8000000044703","406914","pSARL_v2","pSARL_v296ed02hx","609a88c011993058c914a32a","infreqPrac_resp","img/orange_2bandit_b.png","68","68","prac","","","","","",""
"null","407079","pSARL_v2","pSARL_v296ed02hx","609a88c011993058c914a32a","fixation","img/fixation.png","null","","prac","","","","","",""
"529.6999999955297","407613","pSARL_v2","pSARL_v296ed02hx","609a88c011993058c914a32a","infreqPrac","img/orange_2bandit_b2.png","68","68","prac","1","","","","",""
"529.6999999955297","407903","pSARL_v2","pSARL_v296ed02hx","609a88c011993058c914a32a","infreqPrac_resp","img/orange_2bandit_b.png","68","68","prac","","","","","",""
"null","408064","pSARL_v2","pSARL_v296ed02hx","609a88c011993058c914a32a","fixation","img/fixation.png","null","","prac","","","","","",""
"511.1000000014901","408579","pSARL_v2","pSARL_v296ed02hx","609a88c011993058c914a32a","infreqPrac","img/orange_2bandit_b2.png","68","68","prac","1","","","","",""
"511.1000000014901","408873","pSARL_v2","pSARL_v296ed02hx","609a88c011993058c914a32a","infreqPrac_resp","img/orange_2bandit_b.png","68","68","prac","","","","","",""
"null","409039","pSARL_v2","pSARL_v296ed02hx","609a88c011993058c914a32a","fixation","img/fixation.png","null","","prac","","","","","",""
"584.7999999970198","409628","pSARL_v2","pSARL_v296ed02hx","609a88c011993058c914a32a","freqPrac","img/green_2bandit_b2.png","70","70","prac","1","","","","",""
"584.7999999970198","409857","pSARL_v2","pSARL_v296ed02hx","609a88c011993058c914a32a","freqPrac_resp","img/green_2bandit_b.png","70","70","prac","","","","","",""
"null","410023","pSARL_v2","pSARL_v296ed02hx","609a88c011993058c914a32a","fixation","img/fixation.png","null","","prac","","","","","",""
"508.5","410535","pSARL_v2","pSARL_v296ed02hx","609a88c011993058c914a32a","infreqPrac","img/orange_2bandit_b2.png","68","68","prac","1","","","","",""
"508.5","410841","pSARL_v2","pSARL_v296ed02hx","609a88c011993058c914a32a","infreqPrac_resp","img/orange_2bandit_b.png","68","68","prac","","","","","",""
"null","411003","pSARL_v2","pSARL_v296ed02hx","609a88c011993058c914a32a","fixation","img/fixation.png","null","","prac","","","","","",""
"543.9000000059605","411551","pSARL_v2","pSARL_v296ed02hx","609a88c011993058c914a32a","freqPrac","img/green_2bandit_b2.png","70","70","prac","1","","","","",""
"543.9000000059605","411817","pSARL_v2","pSARL_v296ed02hx","609a88c011993058c914a32a","freqPrac_resp","img/green_2bandit_b.png","70","70","prac","","","","","",""
"null","411983","pSARL_v2","pSARL_v296ed02hx","609a88c011993058c914a32a","fixation","img/fixation.png","null","","prac","","","","","",""
"523.3000000044703","412510","pSARL_v2","pSARL_v296ed02hx","609a88c011993058c914a32a","freqPrac","img/green_2bandit_b2.png","70","70","prac","1","","","","",""
"523.3000000044703","412805","pSARL_v2","pSARL_v296ed02hx","609a88c011993058c914a32a","freqPrac_resp","img/green_2bandit_b.png","70","70","prac","","","","","",""
"null","412975","pSARL_v2","pSARL_v296ed02hx","609a88c011993058c914a32a","fixation","img/fixation.png","null","","prac","","","","","",""
"46950.5","459927","pSARL_v2","pSARL_v296ed02hx","609a88c011993058c914a32a","","","","","prac","","","","","",""
"726","460658","pSARL_v2","pSARL_v296ed02hx","609a88c011993058c914a32a","rewardPractice","img/slot.png","74","","prac","","","","","",""
"null","461418","pSARL_v2","pSARL_v296ed02hx","609a88c011993058c914a32a","feedback","<div class=""veryhighPoints""> +15 </div>","null","na","prac","","","","","",""
"null","461581","pSARL_v2","pSARL_v296ed02hx","609a88c011993058c914a32a","fixation","img/fixation.png","null","","prac","","","","","",""
"67055.89999999851","528637","pSARL_v2","pSARL_v296ed02hx","609a88c011993058c914a32a","","","","","prac","","","","","",""
"671.2999999970198","529313","pSARL_v2","pSARL_v296ed02hx","609a88c011993058c914a32a","freq","img/green_2bandit_b2.png","70","70","test","1","1","1","1","",""
"null","529451","pSARL_v2","pSARL_v296ed02hx","609a88c011993058c914a32a","freq_resp","img/green_2bandit_b.png","70","70","test","","","","1","",""
"null","529618","pSARL_v2","pSARL_v296ed02hx","609a88c011993058c914a32a","fixation","img/fixation.png","null","","test","","","","","",""
"621.1999999955297","530244","pSARL_v2","pSARL_v296ed02hx","609a88c011993058c914a32a","freq","img/green_2bandit_b2.png","70","70","test","1","2","2","1","",""
"null","530438","pSARL_v2","pSARL_v296ed02hx","609a88c011993058c914a32a","freq_resp","img/green_2bandit_b.png","70","70","test","","","","1","",""
"null","530597","pSARL_v2","pSARL_v296ed02hx","609a88c011993058c914a32a","fixation","img/fixation.png","null","","test","","","","","",""
"529.6000000014901","531131","pSARL_v2","pSARL_v296ed02hx","609a88c011993058c914a32a","infreq","img/orange_2bandit_b2.png","68","68","test","1","3","3","1","",""
"null","531412","pSARL_v2","pSARL_v296ed02hx","609a88c011993058c914a32a","infreq_resp","img/orange_2bandit_b.png","68","68","test","","","","1","",""
"null","531578","pSARL_v2","pSARL_v296ed02hx","609a88c011993058c914a32a","fixation","img/fixation.png","null","","test","","","","","",""
"578.6000000014901","532161","pSARL_v2","pSARL_v296ed02hx","609a88c011993058c914a32a","freq","img/green_2bandit_b2.png","70","70","test","1","4","4","1","",""
"null","532393","pSARL_v2","pSARL_v296ed02hx","609a88c011993058c914a32a","freq_resp","img/green_2bandit_b.png","70","70","test","","","","1","",""
"null","532561","pSARL_v2","pSARL_v296ed02hx","609a88c011993058c914a32a","fixation","img/fixation.png","null","","test","","","","","",""
"524.6000000014901","533090","pSARL_v2","pSARL_v296ed02hx","609a88c011993058c914a32a","freq","img/green_2bandit_b2.png","70","70","test","1","5","5","1","",""
"null","533386","pSARL_v2","pSARL_v296ed02hx","609a88c011993058c914a32a","freq_resp","img/green_2bandit_b.png","70","70","test","","","","1","",""
"null","533548","pSARL_v2","pSARL_v296ed02hx","609a88c011993058c914a32a","fixation","img/fixation.png","null","","test","","","","","",""
"447.20000000298023","534000","pSARL_v2","pSARL_v296ed02hx","609a88c011993058c914a32a","freq","img/green_2bandit_b2.png","70","70","test","1","6","6","1","",""
"null","534362","pSARL_v2","pSARL_v296ed02hx","609a88c011993058c914a32a","freq_resp","img/green_2bandit_b.png","70","70","test","","","","1","",""
"null","534527","pSARL_v2","pSARL_v296ed02hx","609a88c011993058c914a32a","fixation","img/fixation.png","null","","test","","","","","",""
"407","534939","pSARL_v2","pSARL_v296ed02hx","609a88c011993058c914a32a","freq","img/green_2bandit_b2.png","70","70","test","1","7","7","1","",""
"null","535344","pSARL_v2","pSARL_v296ed02hx","609a88c011993058c914a32a","freq_resp","img/green_2bandit_b.png","70","70","test","","","","1","",""
"null","535512","pSARL_v2","pSARL_v296ed02hx","609a88c011993058c914a32a","fixation","img/fixation.png","null","","test","","","","","",""
"426.29999999701977","535942","pSARL_v2","pSARL_v296ed02hx","609a88c011993058c914a32a","freq","img/green_2bandit_b2.png","70","70","test","1","8","8","1","",""
"null","536323","pSARL_v2","pSARL_v296ed02hx","609a88c011993058c914a32a","freq_resp","img/green_2bandit_b.png","70","70","test","","","","1","",""
"null","536490","pSARL_v2","pSARL_v296ed02hx","609a88c011993058c914a32a","fixation","img/fixation.png","null","","test","","","","","",""
"422.8999999985099","536917","pSARL_v2","pSARL_v296ed02hx","609a88c011993058c914a32a","freq","img/green_2bandit_b2.png","70","70","test","1","9","9","1","",""
"null","537314","pSARL_v2","pSARL_v296ed02hx","609a88c011993058c914a32a","freq_resp","img/green_2bandit_b.png","70","70","test","","","","1","",""
"null","537475","pSARL_v2","pSARL_v296ed02hx","609a88c011993058c914a32a","fixation","img/fixation.png","null","","test","","","","","",""
"363.09999999403954","537842","pSARL_v2","pSARL_v296ed02hx","609a88c011993058c914a32a","freq","img/green_2bandit_b2.png","70","70","test","1","10","10","1","",""
"null","538297","pSARL_v2","pSARL_v296ed02hx","609a88c011993058c914a32a","freq_resp","img/green_2bandit_b.png","70","70","test","","","","1","",""
"null","538466","pSARL_v2","pSARL_v296ed02hx","609a88c011993058c914a32a","fixation","img/fixation.png","null","","test","","","","","",""
"336.30000000447035","538806","pSARL_v2","pSARL_v296ed02hx","609a88c011993058c914a32a","freq","img/green_2bandit_b2.png","70","70","test","1","11","11","1","",""
"null","539288","pSARL_v2","pSARL_v296ed02hx","609a88c011993058c914a32a","freq_resp","img/green_2bandit_b.png","70","70","test","","","","1","",""
"null","539451","pSARL_v2","pSARL_v296ed02hx","609a88c011993058c914a32a","fixation","img/fixation.png","null","","test","","","","","",""
"328.20000000298023","539783","pSARL_v2","pSARL_v296ed02hx","609a88c011993058c914a32a","freq","img/green_2bandit_b2.png","70","70","test","1","12","12","1","",""
"null","540265","pSARL_v2","pSARL_v296ed02hx","609a88c011993058c914a32a","freq_resp","img/green_2bandit_b.png","70","70","test","","","","1","",""
"null","540433","pSARL_v2","pSARL_v296ed02hx","609a88c011993058c914a32a","fixation","img/fixation.png","null","","test","","","","","",""
"404.5","540842","pSARL_v2","pSARL_v296ed02hx","609a88c011993058c914a32a","infreq","img/orange_2bandit_b2.png","68","68","test","1","13","13","1","",""
"null","541256","pSARL_v2","pSARL_v296ed02hx","609a88c011993058c914a32a","infreq_resp","img/orange_2bandit_b.png","68","68","test","","","","1","",""
"null","541425","pSARL_v2","pSARL_v296ed02hx","609a88c011993058c914a32a","fixation","img/fixation.png","null","","test","","","","","",""
"449.5","541879","pSARL_v2","pSARL_v296ed02hx","609a88c011993058c914a32a","freq","img/green_2bandit_b2.png","70","70","test","1","14","14","1","",""
"null","542249","pSARL_v2","pSARL_v296ed02hx","609a88c011993058c914a32a","freq_resp","img/green_2bandit_b.png","70","70","test","","","","1","",""
"null","542417","pSARL_v2","pSARL_v296ed02hx","609a88c011993058c914a32a","fixation","img/fixation.png","null","","test","","","","","",""
"348.19999999552965","542769","pSARL_v2","pSARL_v296ed02hx","609a88c011993058c914a32a","freq","img/green_2bandit_b2.png","70","70","test","1","15","15","1","",""
"null","543227","pSARL_v2","pSARL_v296ed02hx","609a88c011993058c914a32a","freq_resp","img/green_2bandit_b.png","70","70","test","","","","1","",""
"null","543393","pSARL_v2","pSARL_v296ed02hx","609a88c011993058c914a32a","fixation","img/fixation.png","null","","test","","","","","",""
"285.69999999552965","543683","pSARL_v2","pSARL_v296ed02hx","609a88c011993058c914a32a","freq","img/green_2bandit_b2.png","70","70","test","1","16","16","1","",""
"null","544203","pSARL_v2","pSARL_v296ed02hx","609a88c011993058c914a32a","freq_resp","img/green_2bandit_b.png","70","70","test","","","","1","",""
"null","544369","pSARL_v2","pSARL_v296ed02hx","609a88c011993058c914a32a","fixation","img/fixation.png","null","","test","","","","","",""
"308.29999999701977","544682","pSARL_v2","pSARL_v296ed02hx","609a88c011993058c914a32a","freq","img/green_2bandit_b2.png","70","70","test","1","17","17","1","",""
"null","545187","pSARL_v2","pSARL_v296ed02hx","609a88c011993058c914a32a","freq_resp","img/green_2bandit_b.png","70","70","test","","","","1","",""
"null","545354","pSARL_v2","pSARL_v296ed02hx","609a88c011993058c914a32a","fixation","img/fixation.png","null","","test","","","","","",""
"476.1000000014901","545835","pSARL_v2","pSARL_v296ed02hx","609a88c011993058c914a32a","freq","img/green_2bandit_b2.png","70","70","test","1","18","18","1","",""
"null","546173","pSARL_v2","pSARL_v296ed02hx","609a88c011993058c914a32a","freq_resp","img/green_2bandit_b.png","70","70","test","","","","1","",""
"null","546333","pSARL_v2","pSARL_v296ed02hx","609a88c011993058c914a32a","fixation","img/fixation.png","null","","test","","","","","",""
"443.29999999701977","546781","pSARL_v2","pSARL_v296ed02hx","609a88c011993058c914a32a","freq","img/green_2bandit_b2.png","70","70","test","1","19","19","1","",""
"null","547147","pSARL_v2","pSARL_v296ed02hx","609a88c011993058c914a32a","freq_resp","img/green_2bandit_b.png","70","70","test","","","","1","",""
"null","547308","pSARL_v2","pSARL_v296ed02hx","609a88c011993058c914a32a","fixation","img/fixation.png","null","","test","","","","","",""
"566.8999999985099","547880","pSARL_v2","pSARL_v296ed02hx","609a88c011993058c914a32a","reward","img/slot.png","74","","test","","","","","",""
"null","548649","pSARL_v2","pSARL_v296ed02hx","609a88c011993058c914a32a","points","<div class=""verylowPoints""> -6 </div>","null","na","test","","","","1","-6","0"
"null","549463","pSARL_v2","pSARL_v296ed02hx","609a88c011993058c914a32a","freq","img/green_2bandit_b2.png","null","70","test","0","20","20","2","",""
"null","549631","pSARL_v2","pSARL_v296ed02hx","609a88c011993058c914a32a","fixation","img/fixation.png","null","","test","","","","","",""
"607.3000000044703","550243","pSARL_v2","pSARL_v296ed02hx","609a88c011993058c914a32a","freq","img/green_2bandit_b2.png","70","70","test","1","21","21","2","",""
"null","550446","pSARL_v2","pSARL_v296ed02hx","609a88c011993058c914a32a","freq_resp","img/green_2bandit_b.png","70","70","test","","","","2","",""
"null","550605","pSARL_v2","pSARL_v296ed02hx","609a88c011993058c914a32a","fixation","img/fixation.png","null","","test","","","","","",""
"508.6000000014901","551118","pSARL_v2","pSARL_v296ed02hx","609a88c011993058c914a32a","freq","img/green_2bandit_b2.png","70","70","test","1","22","22","2","",""
"null","551418","pSARL_v2","pSARL_v296ed02hx","609a88c011993058c914a32a","freq_resp","img/green_2bandit_b.png","70","70","test","","","","2","",""
"null","551577","pSARL_v2","pSARL_v296ed02hx","609a88c011993058c914a32a","fixation","img/fixation.png","null","","test","","","","","",""
"364.09999999403954","551945","pSARL_v2","pSARL_v296ed02hx","609a88c011993058c914a32a","freq","img/green_2bandit_b2.png","70","70","test","1","23","23","2","",""
"null","552394","pSARL_v2","pSARL_v296ed02hx","609a88c011993058c914a32a","freq_resp","img/green_2bandit_b.png","70","70","test","","","","2","",""
"null","552561","pSARL_v2","pSARL_v296ed02hx","609a88c011993058c914a32a","fixation","img/fixation.png","null","","test","","","","","",""
"404.80000000447035","552970","pSARL_v2","pSARL_v296ed02hx","609a88c011993058c914a32a","freq","img/green_2bandit_b2.png","70","70","test","1","24","24","2","",""
"null","553375","pSARL_v2","pSARL_v296ed02hx","609a88c011993058c914a32a","freq_resp","img/green_2bandit_b.png","70","70","test","","","","2","",""
"null","553538","pSARL_v2","pSARL_v296ed02hx","609a88c011993058c914a32a","fixation","img/fixation.png","null","","test","","","","","",""
"382.29999999701977","553924","pSARL_v2","pSARL_v296ed02hx","609a88c011993058c914a32a","freq","img/green_2bandit_b2.png","70","70","test","1","25","25","2","",""
"null","554358","pSARL_v2","pSARL_v296ed02hx","609a88c011993058c914a32a","freq_resp","img/green_2bandit_b.png","70","70","test","","","","2","",""
"null","554523","pSARL_v2","pSARL_v296ed02hx","609a88c011993058c914a32a","fixation","img/fixation.png","null","","test","","","","","",""
"351.29999999701977","554878","pSARL_v2","pSARL_v296ed02hx","609a88c011993058c914a32a","freq","img/green_2bandit_b2.png","70","70","test","1","26","26","2","",""
"null","555339","pSARL_v2","pSARL_v296ed02hx","609a88c011993058c914a32a","freq_resp","img/green_2bandit_b.png","70","70","test","","","","2","",""
"null","555499","pSARL_v2","pSARL_v296ed02hx","609a88c011993058c914a32a","fixation","img/fixation.png","null","","test","","","","","",""
"329.3999999985099","555832","pSARL_v2","pSARL_v296ed02hx","609a88c011993058c914a32a","freq","img/green_2bandit_b2.png","70","70","test","1","27","27","2","",""
"null","556317","pSARL_v2","pSARL_v296ed02hx","609a88c011993058c914a32a","freq_resp","img/green_2bandit_b.png","70","70","test","","","","2","",""
"null","556481","pSARL_v2","pSARL_v296ed02hx","609a88c011993058c914a32a","fixation","img/fixation.png","null","","test","","","","","",""
"268.5","556754","pSARL_v2","pSARL_v296ed02hx","609a88c011993058c914a32a","freq","img/green_2bandit_b2.png","70","70","test","1","28","28","2","",""
"null","557298","pSARL_v2","pSARL_v296ed02hx","609a88c011993058c914a32a","freq_resp","img/green_2bandit_b.png","70","70","test","","","","2","",""
"null","557464","pSARL_v2","pSARL_v296ed02hx","609a88c011993058c914a32a","fixation","img/fixation.png","null","","test","","","","","",""
"237.30000000447035","557706","pSARL_v2","pSARL_v296ed02hx","609a88c011993058c914a32a","freq","img/green_2bandit_b2.png","70","70","test","1","29","29","2","",""
"null","558287","pSARL_v2","pSARL_v296ed02hx","609a88c011993058c914a32a","freq_resp","img/green_2bandit_b.png","70","70","test","","","","2","",""
"null","558453","pSARL_v2","pSARL_v296ed02hx","609a88c011993058c914a32a","fixation","img/fixation.png","null","","test","","","","","",""
"303.6000000014901","558761","pSARL_v2","pSARL_v296ed02hx","609a88c011993058c914a32a","freq","img/green_2bandit_b2.png","70","70","test","1","30","30","2","",""
"null","559265","pSARL_v2","pSARL_v296ed02hx","609a88c011993058c914a32a","freq_resp","img/green_2bandit_b.png","70","70","test","","","","2","",""
"null","559431","pSARL_v2","pSARL_v296ed02hx","609a88c011993058c914a32a","fixation","img/fixation.png","null","","test","","","","","",""
"290","559725","pSARL_v2","pSARL_v296ed02hx","609a88c011993058c914a32a","freq","img/green_2bandit_b2.png","70","70","test","1","31","31","2","",""
"null","560243","pSARL_v2","pSARL_v296ed02hx","609a88c011993058c914a32a","freq_resp","img/green_2bandit_b.png","70","70","test","","","","2","",""
"null","560408","pSARL_v2","pSARL_v296ed02hx","609a88c011993058c914a32a","fixation","img/fixation.png","null","","test","","","","","",""
"311.90000000596046","560724","pSARL_v2","pSARL_v296ed02hx","609a88c011993058c914a32a","freq","img/green_2bandit_b2.png","70","70","test","1","32","32","2","",""
"null","561231","pSARL_v2","pSARL_v296ed02hx","609a88c011993058c914a32a","freq_resp","img/green_2bandit_b.png","70","70","test","","","","2","",""
"null","561401","pSARL_v2","pSARL_v296ed02hx","609a88c011993058c914a32a","fixation","img/fixation.png","null","","test","","","","","",""
"579.8999999985099","561985","pSARL_v2","pSARL_v296ed02hx","609a88c011993058c914a32a","infreq","img/orange_2bandit_b2.png","68","68","test","1","33","33","2","",""
"null","562215","pSARL_v2","pSARL_v296ed02hx","609a88c011993058c914a32a","infreq_resp","img/orange_2bandit_b.png","68","68","test","","","","2","",""
"null","562378","pSARL_v2","pSARL_v296ed02hx","609a88c011993058c914a32a","fixation","img/fixation.png","null","","test","","","","","",""
"487","562870","pSARL_v2","pSARL_v296ed02hx","609a88c011993058c914a32a","freq","img/green_2bandit_b2.png","70","70","test","1","34","34","2","",""
"null","563198","pSARL_v2","pSARL_v296ed02hx","609a88c011993058c914a32a","freq_resp","img/green_2bandit_b.png","70","70","test","","","","2","",""
"null","563368","pSARL_v2","pSARL_v296ed02hx","609a88c011993058c914a32a","fixation","img/fixation.png","null","","test","","","","","",""
"394.80000000447035","563767","pSARL_v2","pSARL_v296ed02hx","609a88c011993058c914a32a","freq","img/green_2bandit_b2.png","70","70","test","1","35","35","2","",""
"null","564185","pSARL_v2","pSARL_v296ed02hx","609a88c011993058c914a32a","freq_resp","img/green_2bandit_b.png","70","70","test","","","","2","",""
"null","564353","pSARL_v2","pSARL_v296ed02hx","609a88c011993058c914a32a","fixation","img/fixation.png","null","","test","","","","","",""
"481","564838","pSARL_v2","pSARL_v296ed02hx","609a88c011993058c914a32a","freq","img/green_2bandit_b2.png","70","70","test","1","36","36","2","",""
"null","565176","pSARL_v2","pSARL_v296ed02hx","609a88c011993058c914a32a","freq_resp","img/green_2bandit_b.png","70","70","test","","","","2","",""
"null","565339","pSARL_v2","pSARL_v296ed02hx","609a88c011993058c914a32a","fixation","img/fixation.png","null","","test","","","","","",""
"375","565719","pSARL_v2","pSARL_v296ed02hx","609a88c011993058c914a32a","freq","img/green_2bandit_b2.png","70","70","test","1","37","37","2","",""
"null","566156","pSARL_v2","pSARL_v296ed02hx","609a88c011993058c914a32a","freq_resp","img/green_2bandit_b.png","70","70","test","","","","2","",""
"null","566314","pSARL_v2","pSARL_v296ed02hx","609a88c011993058c914a32a","fixation","img/fixation.png","null","","test","","","","","",""
"452.5","566771","pSARL_v2","pSARL_v296ed02hx","609a88c011993058c914a32a","infreq","img/orange_2bandit_b2.png","68","68","test","1","38","38","2","",""
"null","567134","pSARL_v2","pSARL_v296ed02hx","609a88c011993058c914a32a","infreq_resp","img/orange_2bandit_b.png","68","68","test","","","","2","",""
"null","567303","pSARL_v2","pSARL_v296ed02hx","609a88c011993058c914a32a","fixation","img/fixation.png","null","","test","","","","","",""
"489.5","567797","pSARL_v2","pSARL_v296ed02hx","609a88c011993058c914a32a","freq","img/green_2bandit_b2.png","70","70","test","1","39","39","2","",""
"null","568113","pSARL_v2","pSARL_v296ed02hx","609a88c011993058c914a32a","freq_resp","img/green_2bandit_b.png","70","70","test","","","","2","",""
"null","568281","pSARL_v2","pSARL_v296ed02hx","609a88c011993058c914a32a","fixation","img/fixation.png","null","","test","","","","","",""
"436.20000000298023","568721","pSARL_v2","pSARL_v296ed02hx","609a88c011993058c914a32a","freq","img/green_2bandit_b2.png","70","70","test","1","40","40","2","",""
"null","569089","pSARL_v2","pSARL_v296ed02hx","609a88c011993058c914a32a","freq_resp","img/green_2bandit_b.png","70","70","test","","","","2","",""
"null","569256","pSARL_v2","pSARL_v296ed02hx","609a88c011993058c914a32a","fixation","img/fixation.png","null","","test","","","","","",""
"371.70000000298023","569632","pSARL_v2","pSARL_v296ed02hx","609a88c011993058c914a32a","freq","img/green_2bandit_b2.png","70","70","test","1","41","41","2","",""
"null","570077","pSARL_v2","pSARL_v296ed02hx","609a88c011993058c914a32a","freq_resp","img/green_2bandit_b.png","70","70","test","","","","2","",""
"null","570240","pSARL_v2","pSARL_v296ed02hx","609a88c011993058c914a32a","fixation","img/fixation.png","null","","test","","","","","",""
"373","570617","pSARL_v2","pSARL_v296ed02hx","609a88c011993058c914a32a","freq","img/green_2bandit_b2.png","70","70","test","1","42","42","2","",""
"null","571064","pSARL_v2","pSARL_v296ed02hx","609a88c011993058c914a32a","freq_resp","img/green_2bandit_b.png","70","70","test","","","","2","",""
"null","571231","pSARL_v2","pSARL_v296ed02hx","609a88c011993058c914a32a","fixation","img/fixation.png","null","","test","","","","","",""
"670.1000000014901","571905","pSARL_v2","pSARL_v296ed02hx","609a88c011993058c914a32a","freq","img/green_2bandit_b2.png","70","70","test","1","43","43","2","",""
"null","572042","pSARL_v2","pSARL_v296ed02hx","609a88c011993058c914a32a","freq_resp","img/green_2bandit_b.png","70","70","test","","","","2","",""
"null","572208","pSARL_v2","pSARL_v296ed02hx","609a88c011993058c914a32a","fixation","img/fixation.png","null","","test","","","","","",""
"453.80000000447035","572666","pSARL_v2","pSARL_v296ed02hx","609a88c011993058c914a32a","freq","img/green_2bandit_b2.png","70","70","test","1","44","44","2","",""
"null","573033","pSARL_v2","pSARL_v296ed02hx","609a88c011993058c914a32a","freq_resp","img/green_2bandit_b.png","70","70","test","","","","2","",""
"null","573196","pSARL_v2","pSARL_v296ed02hx","609a88c011993058c914a32a","fixation","img/fixation.png","null","","test","","","","","",""
"370.20000000298023","573571","pSARL_v2","pSARL_v296ed02hx","609a88c011993058c914a32a","freq","img/green_2bandit_b2.png","70","70","test","1","45","45","2","",""
"null","574006","pSARL_v2","pSARL_v296ed02hx","609a88c011993058c914a32a","freq_resp","img/green_2bandit_b.png","70","70","test","","","","2","",""
"null","574176","pSARL_v2","pSARL_v296ed02hx","609a88c011993058c914a32a","fixation","img/fixation.png","null","","test","","","","","",""
"538.9000000059605","574719","pSARL_v2","pSARL_v296ed02hx","609a88c011993058c914a32a","reward","img/slot.png","74","","test","","","","","",""
"null","575482","pSARL_v2","pSARL_v296ed02hx","609a88c011993058c914a32a","points","<div class=""verylowPoints""> -11 </div>","null","na","test","","","","2","-11","1"
"784.7000000029802","576271","pSARL_v2","pSARL_v296ed02hx","609a88c011993058c914a32a","freq","img/green_2bandit_b2.png","70","70","test","1","46","46","3","",""
"null","576296","pSARL_v2","pSARL_v296ed02hx","609a88c011993058c914a32a","freq_resp","img/green_2bandit_b.png","70","70","test","","","","3","",""
"null","576459","pSARL_v2","pSARL_v296ed02hx","609a88c011993058c914a32a","fixation","img/fixation.png","null","","test","","","","","",""
"540.5","577004","pSARL_v2","pSARL_v296ed02hx","609a88c011993058c914a32a","freq","img/green_2bandit_b2.png","70","70","test","1","47","47","3","",""
"null","577280","pSARL_v2","pSARL_v296ed02hx","609a88c011993058c914a32a","freq_resp","img/green_2bandit_b.png","70","70","test","","","","3","",""
"null","577447","pSARL_v2","pSARL_v296ed02hx","609a88c011993058c914a32a","fixation","img/fixation.png","null","","test","","","","","",""
"466.69999999552965","577918","pSARL_v2","pSARL_v296ed02hx","609a88c011993058c914a32a","freq","img/green_2bandit_b2.png","70","70","test","1","48","48","3","",""
"null","578271","pSARL_v2","pSARL_v296ed02hx","609a88c011993058c914a32a","freq_resp","img/green_2bandit_b.png","70","70","test","","","","3","",""
"null","578432","pSARL_v2","pSARL_v296ed02hx","609a88c011993058c914a32a","fixation","img/fixation.png","null","","test","","","","","",""
"297.1000000014901","578734","pSARL_v2","pSARL_v296ed02hx","609a88c011993058c914a32a","freq","img/green_2bandit_b2.png","70","70","test","1","49","49","3","",""
"null","579243","pSARL_v2","pSARL_v296ed02hx","609a88c011993058c914a32a","freq_resp","img/green_2bandit_b.png","70","70","test","","","","3","",""
"null","579408","pSARL_v2","pSARL_v296ed02hx","609a88c011993058c914a32a","fixation","img/fixation.png","null","","test","","","","","",""
"350.1000000014901","579763","pSARL_v2","pSARL_v296ed02hx","609a88c011993058c914a32a","freq","img/green_2bandit_b2.png","70","70","test","1","50","50","3","",""
"null","580223","pSARL_v2","pSARL_v296ed02hx","609a88c011993058c914a32a","freq_resp","img/green_2bandit_b.png","70","70","test","","","","3","",""
"null","580392","pSARL_v2","pSARL_v296ed02hx","609a88c011993058c914a32a","fixation","img/fixation.png","null","","test","","","","","",""
"376.69999999552965","580774","pSARL_v2","pSARL_v296ed02hx","609a88c011993058c914a32a","infreq","img/orange_2bandit_b2.png","68","68","test","1","51","51","3","",""
"null","581213","pSARL_v2","pSARL_v296ed02hx","609a88c011993058c914a32a","infreq_resp","img/orange_2bandit_b.png","68","68","test","","","","3","",""
"null","581380","pSARL_v2","pSARL_v296ed02hx","609a88c011993058c914a32a","fixation","img/fixation.png","null","","test","","","","","",""
"360.5","581745","pSARL_v2","pSARL_v296ed02hx","609a88c011993058c914a32a","freq","img/green_2bandit_b2.png","70","70","test","1","52","52","3","",""
"null","582195","pSARL_v2","pSARL_v296ed02hx","609a88c011993058c914a32a","freq_resp","img/green_2bandit_b.png","70","70","test","","","","3","",""
"null","582359","pSARL_v2","pSARL_v296ed02hx","609a88c011993058c914a32a","fixation","img/fixation.png","null","","test","","","","","",""
"332.3999999985099","582696","pSARL_v2","pSARL_v296ed02hx","609a88c011993058c914a32a","freq","img/green_2bandit_b2.png","70","70","test","1","53","53","3","",""
"null","583180","pSARL_v2","pSARL_v296ed02hx","609a88c011993058c914a32a","freq_resp","img/green_2bandit_b.png","70","70","test","","","","3","",""
"null","583337","pSARL_v2","pSARL_v296ed02hx","609a88c011993058c914a32a","fixation","img/fixation.png","null","","test","","","","","",""
"291.59999999403954","583632","pSARL_v2","pSARL_v296ed02hx","609a88c011993058c914a32a","freq","img/green_2bandit_b2.png","70","70","test","1","54","54","3","",""
"null","584153","pSARL_v2","pSARL_v296ed02hx","609a88c011993058c914a32a","freq_resp","img/green_2bandit_b.png","70","70","test","","","","3","",""
"null","584320","pSARL_v2","pSARL_v296ed02hx","609a88c011993058c914a32a","fixation","img/fixation.png","null","","test","","","","","",""
"296.5","584621","pSARL_v2","pSARL_v296ed02hx","609a88c011993058c914a32a","freq","img/green_2bandit_b2.png","70","70","test","1","55","55","3","",""
"null","585132","pSARL_v2","pSARL_v296ed02hx","609a88c011993058c914a32a","freq_resp","img/green_2bandit_b.png","70","70","test","","","","3","",""
"null","585295","pSARL_v2","pSARL_v296ed02hx","609a88c011993058c914a32a","fixation","img/fixation.png","null","","test","","","","","",""
"280.5","585580","pSARL_v2","pSARL_v296ed02hx","609a88c011993058c914a32a","freq","img/green_2bandit_b2.png","70","70","test","1","56","56","3","",""
"null","586118","pSARL_v2","pSARL_v296ed02hx","609a88c011993058c914a32a","freq_resp","img/green_2bandit_b.png","70","70","test","","","","3","",""
"null","586286","pSARL_v2","pSARL_v296ed02hx","609a88c011993058c914a32a","fixation","img/fixation.png","null","","test","","","","","",""
"307.3999999985099","586597","pSARL_v2","pSARL_v296ed02hx","609a88c011993058c914a32a","freq","img/green_2bandit_b2.png","70","70","test","1","57","57","3","",""
"null","587099","pSARL_v2","pSARL_v296ed02hx","609a88c011993058c914a32a","freq_resp","img/green_2bandit_b.png","70","70","test","","","","3","",""
"null","587264","pSARL_v2","pSARL_v296ed02hx","609a88c011993058c914a32a","fixation","img/fixation.png","null","","test","","","","","",""
"387.5","587655","pSARL_v2","pSARL_v296ed02hx","609a88c011993058c914a32a","freq","img/green_2bandit_b2.png","70","70","test","1","58","58","3","",""
"null","588077","pSARL_v2","pSARL_v296ed02hx","609a88c011993058c914a32a","freq_resp","img/green_2bandit_b.png","70","70","test","","","","3","",""
"null","588242","pSARL_v2","pSARL_v296ed02hx","609a88c011993058c914a32a","fixation","img/fixation.png","null","","test","","","","","",""
"348.5","588595","pSARL_v2","pSARL_v296ed02hx","609a88c011993058c914a32a","freq","img/green_2bandit_b2.png","70","70","test","1","59","59","3","",""
"null","589062","pSARL_v2","pSARL_v296ed02hx","609a88c011993058c914a32a","freq_resp","img/green_2bandit_b.png","70","70","test","","","","3","",""
"null","589226","pSARL_v2","pSARL_v296ed02hx","609a88c011993058c914a32a","fixation","img/fixation.png","null","","test","","","","","",""
"360.30000000447035","589591","pSARL_v2","pSARL_v296ed02hx","609a88c011993058c914a32a","freq","img/green_2bandit_b2.png","70","70","test","1","60","60","3","",""
"null","590044","pSARL_v2","pSARL_v296ed02hx","609a88c011993058c914a32a","freq_resp","img/green_2bandit_b.png","70","70","test","","","","3","",""
"null","590207","pSARL_v2","pSARL_v296ed02hx","609a88c011993058c914a32a","fixation","img/fixation.png","null","","test","","","","","",""
"506.70000000298023","590718","pSARL_v2","pSARL_v296ed02hx","609a88c011993058c914a32a","infreq","img/orange_2bandit_b2.png","68","68","test","1","61","61","3","",""
"null","591023","pSARL_v2","pSARL_v296ed02hx","609a88c011993058c914a32a","infreq_resp","img/orange_2bandit_b.png","68","68","test","","","","3","",""
"null","591191","pSARL_v2","pSARL_v296ed02hx","609a88c011993058c914a32a","fixation","img/fixation.png","null","","test","","","","","",""
"479.3999999985099","591675","pSARL_v2","pSARL_v296ed02hx","609a88c011993058c914a32a","freq","img/green_2bandit_b2.png","70","70","test","1","62","62","3","",""
"null","592012","pSARL_v2","pSARL_v296ed02hx","609a88c011993058c914a32a","freq_resp","img/green_2bandit_b.png","70","70","test","","","","3","",""
"null","592177","pSARL_v2","pSARL_v296ed02hx","609a88c011993058c914a32a","fixation","img/fixation.png","null","","test","","","","","",""
"347.8999999985099","592529","pSARL_v2","pSARL_v296ed02hx","609a88c011993058c914a32a","freq","img/green_2bandit_b2.png","70","70","test","1","63","63","3","",""
"null","592999","pSARL_v2","pSARL_v296ed02hx","609a88c011993058c914a32a","freq_resp","img/green_2bandit_b.png","70","70","test","","","","3","",""
"null","593167","pSARL_v2","pSARL_v296ed02hx","609a88c011993058c914a32a","fixation","img/fixation.png","null","","test","","","","","",""
"391.90000000596046","593563","pSARL_v2","pSARL_v296ed02hx","609a88c011993058c914a32a","freq","img/green_2bandit_b2.png","70","70","test","1","64","64","3","",""
"null","593989","pSARL_v2","pSARL_v296ed02hx","609a88c011993058c914a32a","freq_resp","img/green_2bandit_b.png","70","70","test","","","","3","",""
"null","594149","pSARL_v2","pSARL_v296ed02hx","609a88c011993058c914a32a","fixation","img/fixation.png","null","","test","","","","","",""
"369.59999999403954","594523","pSARL_v2","pSARL_v296ed02hx","609a88c011993058c914a32a","freq","img/green_2bandit_b2.png","70","70","test","1","65","65","3","",""
"null","594965","pSARL_v2","pSARL_v296ed02hx","609a88c011993058c914a32a","freq_resp","img/green_2bandit_b.png","70","70","test","","","","3","",""
"null","595129","pSARL_v2","pSARL_v296ed02hx","609a88c011993058c914a32a","fixation","img/fixation.png","null","","test","","","","","",""
"340.8999999985099","595474","pSARL_v2","pSARL_v296ed02hx","609a88c011993058c914a32a","freq","img/green_2bandit_b2.png","70","70","test","1","66","66","3","",""
"null","595943","pSARL_v2","pSARL_v296ed02hx","609a88c011993058c914a32a","freq_resp","img/green_2bandit_b.png","70","70","test","","","","3","",""
"null","596112","pSARL_v2","pSARL_v296ed02hx","609a88c011993058c914a32a","fixation","img/fixation.png","null","","test","","","","","",""
"506.5","596622","pSARL_v2","pSARL_v296ed02hx","609a88c011993058c914a32a","reward","img/slot.png","74","","test","","","","","",""
"null","597387","pSARL_v2","pSARL_v296ed02hx","609a88c011993058c914a32a","points","<div class=""verylowPoints""> -7 </div>","null","na","test","","","","3","-7","2"
"481.1000000014901","597872","pSARL_v2","pSARL_v296ed02hx","609a88c011993058c914a32a","freq","img/green_2bandit_b2.png","70","70","test","1","67","67","4","",""
"null","598205","pSARL_v2","pSARL_v296ed02hx","609a88c011993058c914a32a","freq_resp","img/green_2bandit_b.png","70","70","test","","","","4","",""
"null","598369","pSARL_v2","pSARL_v296ed02hx","609a88c011993058c914a32a","fixation","img/fixation.png","null","","test","","","","","",""
"363.69999999552965","598737","pSARL_v2","pSARL_v296ed02hx","609a88c011993058c914a32a","freq","img/green_2bandit_b2.png","70","70","test","1","68","68","4","",""
"null","599185","pSARL_v2","pSARL_v296ed02hx","609a88c011993058c914a32a","freq_resp","img/green_2bandit_b.png","70","70","test","","","","4","",""
"null","599351","pSARL_v2","pSARL_v296ed02hx","609a88c011993058c914a32a","fixation","img/fixation.png","null","","test","","","","","",""
"329.3999999985099","599685","pSARL_v2","pSARL_v296ed02hx","609a88c011993058c914a32a","freq","img/green_2bandit_b2.png","70","70","test","1","69","69","4","",""
"null","600169","pSARL_v2","pSARL_v296ed02hx","609a88c011993058c914a32a","freq_resp","img/green_2bandit_b.png","70","70","test","","","","4","",""
"null","600335","pSARL_v2","pSARL_v296ed02hx","609a88c011993058c914a32a","fixation","img/fixation.png","null","","test","","","","","",""
"322.5","600661","pSARL_v2","pSARL_v296ed02hx","609a88c011993058c914a32a","freq","img/green_2bandit_b2.png","70","70","test","1","70","70","4","",""
"null","601156","pSARL_v2","pSARL_v296ed02hx","609a88c011993058c914a32a","freq_resp","img/green_2bandit_b.png","70","70","test","","","","4","",""
"null","601327","pSARL_v2","pSARL_v296ed02hx","609a88c011993058c914a32a","fixation","img/fixation.png","null","","test","","","","","",""
"292.69999999552965","601624","pSARL_v2","pSARL_v296ed02hx","609a88c011993058c914a32a","freq","img/green_2bandit_b2.png","70","70","test","1","71","71","4","",""
"null","602148","pSARL_v2","pSARL_v296ed02hx","609a88c011993058c914a32a","freq_resp","img/green_2bandit_b.png","70","70","test","","","","4","",""
"null","602318","pSARL_v2","pSARL_v296ed02hx","609a88c011993058c914a32a","fixation","img/fixation.png","null","","test","","","","","",""
"319.8999999985099","602642","pSARL_v2","pSARL_v296ed02hx","609a88c011993058c914a32a","freq","img/green_2bandit_b2.png","70","70","test","1","72","72","4","",""
"null","603132","pSARL_v2","pSARL_v296ed02hx","609a88c011993058c914a32a","freq_resp","img/green_2bandit_b.png","70","70","test","","","","4","",""
"null","603298","pSARL_v2","pSARL_v296ed02hx","609a88c011993058c914a32a","fixation","img/fixation.png","null","","test","","","","","",""
"310.80000000447035","603613","pSARL_v2","pSARL_v296ed02hx","609a88c011993058c914a32a","freq","img/green_2bandit_b2.png","70","70","test","1","73","73","4","",""
"null","604118","pSARL_v2","pSARL_v296ed02hx","609a88c011993058c914a32a","freq_resp","img/green_2bandit_b.png","70","70","test","","","","4","",""
"null","604287","pSARL_v2","pSARL_v296ed02hx","609a88c011993058c914a32a","fixation","img/fixation.png","null","","test","","","","","",""
"299.69999999552965","604591","pSARL_v2","pSARL_v296ed02hx","609a88c011993058c914a32a","freq","img/green_2bandit_b2.png","70","70","test","1","74","74","4","",""
"null","605103","pSARL_v2","pSARL_v296ed02hx","609a88c011993058c914a32a","freq_resp","img/green_2bandit_b.png","70","70","test","","","","4","",""
"null","605265","pSARL_v2","pSARL_v296ed02hx","609a88c011993058c914a32a","fixation","img/fixation.png","null","","test","","","","","",""
"312.70000000298023","605582","pSARL_v2","pSARL_v296ed02hx","609a88c011993058c914a32a","freq","img/green_2bandit_b2.png","70","70","test","1","75","75","4","",""
"null","606086","pSARL_v2","pSARL_v296ed02hx","609a88c011993058c914a32a","freq_resp","img/green_2bandit_b.png","70","70","test","","","","4","",""
"null","606250","pSARL_v2","pSARL_v296ed02hx","609a88c011993058c914a32a","fixation","img/fixation.png","null","","test","","","","","",""
"378.5","606633","pSARL_v2","pSARL_v296ed02hx","609a88c011993058c914a32a","infreq","img/orange_2bandit_b2.png","68","68","test","1","76","76","4","",""
"null","607067","pSARL_v2","pSARL_v296ed02hx","609a88c011993058c914a32a","infreq_resp","img/orange_2bandit_b.png","68","68","test","","","","4","",""
"null","607229","pSARL_v2","pSARL_v296ed02hx","609a88c011993058c914a32a","fixation","img/fixation.png","null","","test","","","","","",""
"440.1000000014901","607673","pSARL_v2","pSARL_v296ed02hx","609a88c011993058c914a32a","freq","img/green_2bandit_b2.png","70","70","test","1","77","77","4","",""
"null","608044","pSARL_v2","pSARL_v296ed02hx","609a88c011993058c914a32a","freq_resp","img/green_2bandit_b.png","70","70","test","","","","4","",""
"null","608212","pSARL_v2","pSARL_v296ed02hx","609a88c011993058c914a32a","fixation","img/fixation.png","null","","test","","","","","",""
"540.6000000014901","608757","pSARL_v2","pSARL_v296ed02hx","609a88c011993058c914a32a","infreq","img/orange_2bandit_b2.png","68","68","test","1","78","78","4","",""
"null","609027","pSARL_v2","pSARL_v296ed02hx","609a88c011993058c914a32a","infreq_resp","img/orange_2bandit_b.png","68","68","test","","","","4","",""
"null","609184","pSARL_v2","pSARL_v296ed02hx","609a88c011993058c914a32a","fixation","img/fixation.png","null","","test","","","","","",""
"384.70000000298023","609573","pSARL_v2","pSARL_v296ed02hx","609a88c011993058c914a32a","freq","img/green_2bandit_b2.png","70","70","test","1","79","79","4","",""
"null","609996","pSARL_v2","pSARL_v296ed02hx","609a88c011993058c914a32a","freq_resp","img/green_2bandit_b.png","70","70","test","","","","4","",""
"null","610166","pSARL_v2","pSARL_v296ed02hx","609a88c011993058c914a32a","fixation","img/fixation.png","null","","test","","","","","",""
"353.6000000014901","610524","pSARL_v2","pSARL_v296ed02hx","609a88c011993058c914a32a","freq","img/green_2bandit_b2.png","70","70","test","1","80","80","4","",""
"null","610984","pSARL_v2","pSARL_v296ed02hx","609a88c011993058c914a32a","freq_resp","img/green_2bandit_b.png","70","70","test","","","","4","",""
"null","611147","pSARL_v2","pSARL_v296ed02hx","609a88c011993058c914a32a","fixation","img/fixation.png","null","","test","","","","","",""
"414.70000000298023","611566","pSARL_v2","pSARL_v296ed02hx","609a88c011993058c914a32a","freq","img/green_2bandit_b2.png","70","70","test","1","81","81","4","",""
"null","611967","pSARL_v2","pSARL_v296ed02hx","609a88c011993058c914a32a","freq_resp","img/green_2bandit_b.png","70","70","test","","","","4","",""
"null","612127","pSARL_v2","pSARL_v296ed02hx","609a88c011993058c914a32a","fixation","img/fixation.png","null","","test","","","","","",""
"398.40000000596046","612530","pSARL_v2","pSARL_v296ed02hx","609a88c011993058c914a32a","freq","img/green_2bandit_b2.png","70","70","test","1","82","82","4","",""
"null","612944","pSARL_v2","pSARL_v296ed02hx","609a88c011993058c914a32a","freq_resp","img/green_2bandit_b.png","70","70","test","","","","4","",""
"null","613110","pSARL_v2","pSARL_v296ed02hx","609a88c011993058c914a32a","fixation","img/fixation.png","null","","test","","","","","",""
"431.29999999701977","613546","pSARL_v2","pSARL_v296ed02hx","609a88c011993058c914a32a","freq","img/green_2bandit_b2.png","70","70","test","1","83","83","4","",""
"null","613928","pSARL_v2","pSARL_v296ed02hx","609a88c011993058c914a32a","freq_resp","img/green_2bandit_b.png","70","70","test","","","","4","",""
"null","614095","pSARL_v2","pSARL_v296ed02hx","609a88c011993058c914a32a","fixation","img/fixation.png","null","","test","","","","","",""
"330.5","614429","pSARL_v2","pSARL_v296ed02hx","609a88c011993058c914a32a","freq","img/green_2bandit_b2.png","70","70","test","1","84","84","4","",""
"null","614911","pSARL_v2","pSARL_v296ed02hx","609a88c011993058c914a32a","freq_resp","img/green_2bandit_b.png","70","70","test","","","","4","",""
"null","615071","pSARL_v2","pSARL_v296ed02hx","609a88c011993058c914a32a","fixation","img/fixation.png","null","","test","","","","","",""
"385.5","615461","pSARL_v2","pSARL_v296ed02hx","609a88c011993058c914a32a","freq","img/green_2bandit_b2.png","70","70","test","1","85","85","4","",""
"null","615893","pSARL_v2","pSARL_v296ed02hx","609a88c011993058c914a32a","freq_resp","img/green_2bandit_b.png","70","70","test","","","","4","",""
"null","616062","pSARL_v2","pSARL_v296ed02hx","609a88c011993058c914a32a","fixation","img/fixation.png","null","","test","","","","","",""
"353.3999999985099","616420","pSARL_v2","pSARL_v296ed02hx","609a88c011993058c914a32a","freq","img/green_2bandit_b2.png","70","70","test","1","86","86","4","",""
"null","616885","pSARL_v2","pSARL_v296ed02hx","609a88c011993058c914a32a","freq_resp","img/green_2bandit_b.png","70","70","test","","","","4","",""
"null","617055","pSARL_v2","pSARL_v296ed02hx","609a88c011993058c914a32a","fixation","img/fixation.png","null","","test","","","","","",""
"388.20000000298023","617447","pSARL_v2","pSARL_v296ed02hx","609a88c011993058c914a32a","infreq","img/orange_2bandit_b2.png","68","68","test","1","87","87","4","",""
"null","617868","pSARL_v2","pSARL_v296ed02hx","609a88c011993058c914a32a","infreq_resp","img/orange_2bandit_b.png","68","68","test","","","","4","",""
"null","618038","pSARL_v2","pSARL_v296ed02hx","609a88c011993058c914a32a","fixation","img/fixation.png","null","","test","","","","","",""
"350.5","618393","pSARL_v2","pSARL_v296ed02hx","609a88c011993058c914a32a","freq","img/green_2bandit_b2.png","70","70","test","1","88","88","4","",""
"null","618861","pSARL_v2","pSARL_v296ed02hx","609a88c011993058c914a32a","freq_resp","img/green_2bandit_b.png","70","70","test","","","","4","",""
"null","619029","pSARL_v2","pSARL_v296ed02hx","609a88c011993058c914a32a","fixation","img/fixation.png","null","","test","","","","","",""
"310.20000000298023","619343","pSARL_v2","pSARL_v296ed02hx","609a88c011993058c914a32a","freq","img/green_2bandit_b2.png","70","70","test","1","89","89","4","",""
"null","619844","pSARL_v2","pSARL_v296ed02hx","609a88c011993058c914a32a","freq_resp","img/green_2bandit_b.png","70","70","test","","","","4","",""
"null","620014","pSARL_v2","pSARL_v296ed02hx","609a88c011993058c914a32a","fixation","img/fixation.png","null","","test","","","","","",""
"512.3999999985099","620531","pSARL_v2","pSARL_v296ed02hx","609a88c011993058c914a32a","reward","img/slot.png","74","","test","","","","","",""
"null","621294","pSARL_v2","pSARL_v296ed02hx","609a88c011993058c914a32a","points","<div class=""verylowPoints""> -3 </div>","null","na","test","","","","4","-3","3"
"473.5","621772","pSARL_v2","pSARL_v296ed02hx","609a88c011993058c914a32a","freq","img/green_2bandit_b2.png","70","70","test","1","90","90","5","",""
"null","622116","pSARL_v2","pSARL_v296ed02hx","609a88c011993058c914a32a","freq_resp","img/green_2bandit_b.png","70","70","test","","","","5","",""
"null","622280","pSARL_v2","pSARL_v296ed02hx","609a88c011993058c914a32a","fixation","img/fixation.png","null","","test","","","","","",""
"446.30000000447035","622730","pSARL_v2","pSARL_v296ed02hx","609a88c011993058c914a32a","freq","img/green_2bandit_b2.png","70","70","test","1","91","91","5","",""
"null","623094","pSARL_v2","pSARL_v296ed02hx","609a88c011993058c914a32a","freq_resp","img/green_2bandit_b.png","70","70","test","","","","5","",""
"null","623256","pSARL_v2","pSARL_v296ed02hx","609a88c011993058c914a32a","fixation","img/fixation.png","null","","test","","","","","",""
"372.29999999701977","623633","pSARL_v2","pSARL_v296ed02hx","609a88c011993058c914a32a","freq","img/green_2bandit_b2.png","70","70","test","1","92","92","5","",""
"null","624070","pSARL_v2","pSARL_v296ed02hx","609a88c011993058c914a32a","freq_resp","img/green_2bandit_b.png","70","70","test","","","","5","",""
"null","624236","pSARL_v2","pSARL_v296ed02hx","609a88c011993058c914a32a","fixation","img/fixation.png","null","","test","","","","","",""
"421.5","624662","pSARL_v2","pSARL_v296ed02hx","609a88c011993058c914a32a","freq","img/green_2bandit_b2.png","70","70","test","1","93","93","5","",""
"null","625054","pSARL_v2","pSARL_v296ed02hx","609a88c011993058c914a32a","freq_resp","img/green_2bandit_b.png","70","70","test","","","","5","",""
"null","625222","pSARL_v2","pSARL_v296ed02hx","609a88c011993058c914a32a","fixation","img/fixation.png","null","","test","","","","","",""
"361.20000000298023","625587","pSARL_v2","pSARL_v296ed02hx","609a88c011993058c914a32a","freq","img/green_2bandit_b2.png","70","70","test","1","94","94","5","",""
"null","626046","pSARL_v2","pSARL_v296ed02hx","609a88c011993058c914a32a","freq_resp","img/green_2bandit_b.png","70","70","test","","","","5","",""
"null","626211","pSARL_v2","pSARL_v296ed02hx","609a88c011993058c914a32a","fixation","img/fixation.png","null","","test","","","","","",""
"326.8999999985099","626542","pSARL_v2","pSARL_v296ed02hx","609a88c011993058c914a32a","freq","img/green_2bandit_b2.png","70","70","test","1","95","95","5","",""
"null","627024","pSARL_v2","pSARL_v296ed02hx","609a88c011993058c914a32a","freq_resp","img/green_2bandit_b.png","70","70","test","","","","5","",""
"null","627187","pSARL_v2","pSARL_v296ed02hx","609a88c011993058c914a32a","fixation","img/fixation.png","null","","test","","","","","",""
"336.8999999985099","627529","pSARL_v2","pSARL_v296ed02hx","609a88c011993058c914a32a","freq","img/green_2bandit_b2.png","70","70","test","1","96","96","5","",""
"null","627998","pSARL_v2","pSARL_v296ed02hx","609a88c011993058c914a32a","freq_resp","img/green_2bandit_b.png","70","70","test","","","","5","",""
"null","628160","pSARL_v2","pSARL_v296ed02hx","609a88c011993058c914a32a","fixation","img/fixation.png","null","","test","","","","","",""
"334.20000000298023","628498","pSARL_v2","pSARL_v296ed02hx","609a88c011993058c914a32a","freq","img/green_2bandit_b2.png","70","70","test","1","97","97","5","",""
"null","628976","pSARL_v2","pSARL_v296ed02hx","609a88c011993058c914a32a","freq_resp","img/green_2bandit_b.png","70","70","test","","","","5","",""
"null","629141","pSARL_v2","pSARL_v296ed02hx","609a88c011993058c914a32a","fixation","img/fixation.png","null","","test","","","","","",""
"333.3999999985099","629478","pSARL_v2","pSARL_v296ed02hx","609a88c011993058c914a32a","freq","img/green_2bandit_b2.png","70","70","test","1","98","98","5","",""
"null","629954","pSARL_v2","pSARL_v296ed02hx","609a88c011993058c914a32a","freq_resp","img/green_2bandit_b.png","70","70","test","","","","5","",""
"null","630116","pSARL_v2","pSARL_v296ed02hx","609a88c011993058c914a32a","fixation","img/fixation.png","null","","test","","","","","",""
"314.8999999985099","630435","pSARL_v2","pSARL_v296ed02hx","609a88c011993058c914a32a","freq","img/green_2bandit_b2.png","70","70","test","1","99","99","5","",""
"null","630927","pSARL_v2","pSARL_v296ed02hx","609a88c011993058c914a32a","freq_resp","img/green_2bandit_b.png","70","70","test","","","","5","",""
"null","631094","pSARL_v2","pSARL_v296ed02hx","609a88c011993058c914a32a","fixation","img/fixation.png","null","","test","","","","","",""
"316.5","631415","pSARL_v2","pSARL_v296ed02hx","609a88c011993058c914a32a","freq","img/green_2bandit_b2.png","70","70","test","1","100","100","5","",""
"null","631918","pSARL_v2","pSARL_v296ed02hx","609a88c011993058c914a32a","freq_resp","img/green_2bandit_b.png","70","70","test","","","","5","",""
"null","632085","pSARL_v2","pSARL_v296ed02hx","609a88c011993058c914a32a","fixation","img/fixation.png","null","","test","","","","","",""
"335","632425","pSARL_v2","pSARL_v296ed02hx","609a88c011993058c914a32a","freq","img/green_2bandit_b2.png","70","70","test","1","101","101","5","",""
"null","632910","pSARL_v2","pSARL_v296ed02hx","609a88c011993058c914a32a","freq_resp","img/green_2bandit_b.png","70","70","test","","","","5","",""
"null","633077","pSARL_v2","pSARL_v296ed02hx","609a88c011993058c914a32a","fixation","img/fixation.png","null","","test","","","","","",""
"399.69999999552965","633481","pSARL_v2","pSARL_v296ed02hx","609a88c011993058c914a32a","infreq","img/orange_2bandit_b2.png","68","68","test","1","102","102","5","",""
"null","633898","pSARL_v2","pSARL_v296ed02hx","609a88c011993058c914a32a","infreq_resp","img/orange_2bandit_b.png","68","68","test","","","","5","",""
"null","634062","pSARL_v2","pSARL_v296ed02hx","609a88c011993058c914a32a","fixation","img/fixation.png","null","","test","","","","","",""
"430.20000000298023","634496","pSARL_v2","pSARL_v296ed02hx","609a88c011993058c914a32a","freq","img/green_2bandit_b2.png","70","70","test","1","103","103","5","",""
"null","634884","pSARL_v2","pSARL_v296ed02hx","609a88c011993058c914a32a","freq_resp","img/green_2bandit_b.png","70","70","test","","","","5","",""
"null","635050","pSARL_v2","pSARL_v296ed02hx","609a88c011993058c914a32a","fixation","img/fixation.png","null","","test","","","","","",""
"529.2000000029802","635583","pSARL_v2","pSARL_v296ed02hx","609a88c011993058c914a32a","freq","img/green_2bandit_b2.png","70","70","test","1","104","104","5","",""
"null","635861","pSARL_v2","pSARL_v296ed02hx","609a88c011993058c914a32a","freq_resp","img/green_2bandit_b.png","70","70","test","","","","5","",""
"null","636030","pSARL_v2","pSARL_v296ed02hx","609a88c011993058c914a32a","fixation","img/fixation.png","null","","test","","","","","",""
"398.3999999985099","636432","pSARL_v2","pSARL_v296ed02hx","609a88c011993058c914a32a","freq","img/green_2bandit_b2.png","70","70","test","1","105","105","5","",""
"null","636847","pSARL_v2","pSARL_v296ed02hx","609a88c011993058c914a32a","freq_resp","img/green_2bandit_b.png","70","70","test","","","","5","",""
"null","637013","pSARL_v2","pSARL_v296ed02hx","609a88c011993058c914a32a","fixation","img/fixation.png","null","","test","","","","","",""
"397.1000000014901","637414","pSARL_v2","pSARL_v296ed02hx","609a88c011993058c914a32a","freq","img/green_2bandit_b2.png","70","70","test","1","106","106","5","",""
"null","637837","pSARL_v2","pSARL_v296ed02hx","609a88c011993058c914a32a","freq_resp","img/green_2bandit_b.png","70","70","test","","","","5","",""
"null","638006","pSARL_v2","pSARL_v296ed02hx","609a88c011993058c914a32a","fixation","img/fixation.png","null","","test","","","","","",""
"411","638421","pSARL_v2","pSARL_v296ed02hx","609a88c011993058c914a32a","freq","img/green_2bandit_b2.png","70","70","test","1","107","107","5","",""
"null","638825","pSARL_v2","pSARL_v296ed02hx","609a88c011993058c914a32a","freq_resp","img/green_2bandit_b.png","70","70","test","","","","5","",""
"null","638990","pSARL_v2","pSARL_v296ed02hx","609a88c011993058c914a32a","fixation","img/fixation.png","null","","test","","","","","",""
"412.90000000596046","639407","pSARL_v2","pSARL_v296ed02hx","609a88c011993058c914a32a","freq","img/green_2bandit_b2.png","70","70","test","1","108","108","5","",""
"null","639807","pSARL_v2","pSARL_v296ed02hx","609a88c011993058c914a32a","freq_resp","img/green_2bandit_b.png","70","70","test","","","","5","",""
"null","639967","pSARL_v2","pSARL_v296ed02hx","609a88c011993058c914a32a","fixation","img/fixation.png","null","","test","","","","","",""
"442.40000000596046","640413","pSARL_v2","pSARL_v296ed02hx","609a88c011993058c914a32a","freq","img/green_2bandit_b2.png","70","70","test","1","109","109","5","",""
"null","640789","pSARL_v2","pSARL_v296ed02hx","609a88c011993058c914a32a","freq_resp","img/green_2bandit_b.png","70","70","test","","","","5","",""
"null","640957","pSARL_v2","pSARL_v296ed02hx","609a88c011993058c914a32a","fixation","img/fixation.png","null","","test","","","","","",""
"418.8999999985099","641381","pSARL_v2","pSARL_v296ed02hx","609a88c011993058c914a32a","freq","img/green_2bandit_b2.png","70","70","test","1","110","110","5","",""
"null","641777","pSARL_v2","pSARL_v296ed02hx","609a88c011993058c914a32a","freq_resp","img/green_2bandit_b.png","70","70","test","","","","5","",""
"null","641941","pSARL_v2","pSARL_v296ed02hx","609a88c011993058c914a32a","fixation","img/fixation.png","null","","test","","","","","",""
"337.6000000014901","642283","pSARL_v2","pSARL_v296ed02hx","609a88c011993058c914a32a","freq","img/green_2bandit_b2.png","70","70","test","1","111","111","5","",""
"null","642764","pSARL_v2","pSARL_v296ed02hx","609a88c011993058c914a32a","freq_resp","img/green_2bandit_b.png","70","70","test","","","","5","",""
"null","642927","pSARL_v2","pSARL_v296ed02hx","609a88c011993058c914a32a","fixation","img/fixation.png","null","","test","","","","","",""
"360.5","643292","pSARL_v2","pSARL_v296ed02hx","609a88c011993058c914a32a","freq","img/green_2bandit_b2.png","70","70","test","1","112","112","5","",""
"null","643749","pSARL_v2","pSARL_v296ed02hx","609a88c011993058c914a32a","freq_resp","img/green_2bandit_b.png","70","70","test","","","","5","",""
"null","643917","pSARL_v2","pSARL_v296ed02hx","609a88c011993058c914a32a","fixation","img/fixation.png","null","","test","","","","","",""
"394.40000000596046","644316","pSARL_v2","pSARL_v296ed02hx","609a88c011993058c914a32a","infreq","img/orange_2bandit_b2.png","68","68","test","1","113","113","5","",""
"null","644740","pSARL_v2","pSARL_v296ed02hx","609a88c011993058c914a32a","infreq_resp","img/orange_2bandit_b.png","68","68","test","","","","5","",""
"null","644909","pSARL_v2","pSARL_v296ed02hx","609a88c011993058c914a32a","fixation","img/fixation.png","null","","test","","","","","",""
"346","645259","pSARL_v2","pSARL_v296ed02hx","609a88c011993058c914a32a","freq","img/green_2bandit_b2.png","70","70","test","1","114","114","5","",""
"null","645731","pSARL_v2","pSARL_v296ed02hx","609a88c011993058c914a32a","freq_resp","img/green_2bandit_b.png","70","70","test","","","","5","",""
"null","645893","pSARL_v2","pSARL_v296ed02hx","609a88c011993058c914a32a","fixation","img/fixation.png","null","","test","","","","","",""
"442","646340","pSARL_v2","pSARL_v296ed02hx","609a88c011993058c914a32a","reward","img/slot.png","74","","test","","","","","",""
"null","647103","pSARL_v2","pSARL_v296ed02hx","609a88c011993058c914a32a","points","<div class=""veryhighPoints""> +1 </div>","null","na","test","","","","5","1","4"
"436.19999999552965","647544","pSARL_v2","pSARL_v296ed02hx","609a88c011993058c914a32a","freq","img/green_2bandit_b2.png","70","70","test","1","115","115","6","",""
"null","647922","pSARL_v2","pSARL_v296ed02hx","609a88c011993058c914a32a","freq_resp","img/green_2bandit_b.png","70","70","test","","","","6","",""
"null","648079","pSARL_v2","pSARL_v296ed02hx","609a88c011993058c914a32a","fixation","img/fixation.png","null","","test","","","","","",""
"448.19999999552965","648532","pSARL_v2","pSARL_v296ed02hx","609a88c011993058c914a32a","infreq","img/orange_2bandit_b2.png","68","68","test","1","116","116","6","",""
"null","648898","pSARL_v2","pSARL_v296ed02hx","609a88c011993058c914a32a","infreq_resp","img/orange_2bandit_b.png","68","68","test","","","","6","",""
"null","649065","pSARL_v2","pSARL_v296ed02hx","609a88c011993058c914a32a","fixation","img/fixation.png","null","","test","","","","","",""
"435.19999999552965","649504","pSARL_v2","pSARL_v296ed02hx","609a88c011993058c914a32a","freq","img/green_2bandit_b2.png","70","70","test","1","117","117","6","",""
"null","649883","pSARL_v2","pSARL_v296ed02hx","609a88c011993058c914a32a","freq_resp","img/green_2bandit_b.png","70","70","test","","","","6","",""
"null","650049","pSARL_v2","pSARL_v296ed02hx","609a88c011993058c914a32a","fixation","img/fixation.png","null","","test","","","","","",""
"467.3999999985099","650521","pSARL_v2","pSARL_v296ed02hx","609a88c011993058c914a32a","freq","img/green_2bandit_b2.png","70","70","test","1","118","118","6","",""
"null","650864","pSARL_v2","pSARL_v296ed02hx","609a88c011993058c914a32a","freq_resp","img/green_2bandit_b.png","70","70","test","","","","6","",""
"null","651024","pSARL_v2","pSARL_v296ed02hx","609a88c011993058c914a32a","fixation","img/fixation.png","null","","test","","","","","",""
"405.29999999701977","651433","pSARL_v2","pSARL_v296ed02hx","609a88c011993058c914a32a","freq","img/green_2bandit_b2.png","70","70","test","1","119","119","6","",""
"null","651841","pSARL_v2","pSARL_v296ed02hx","609a88c011993058c914a32a","freq_resp","img/green_2bandit_b.png","70","70","test","","","","6","",""
"null","651999","pSARL_v2","pSARL_v296ed02hx","609a88c011993058c914a32a","fixation","img/fixation.png","null","","test","","","","","",""
"371.8999999985099","652375","pSARL_v2","pSARL_v296ed02hx","609a88c011993058c914a32a","freq","img/green_2bandit_b2.png","70","70","test","1","120","120","6","",""
"null","652818","pSARL_v2","pSARL_v296ed02hx","609a88c011993058c914a32a","freq_resp","img/green_2bandit_b.png","70","70","test","","","","6","",""
"null","652982","pSARL_v2","pSARL_v296ed02hx","609a88c011993058c914a32a","fixation","img/fixation.png","null","","test","","","","","",""
"355.3999999985099","653342","pSARL_v2","pSARL_v296ed02hx","609a88c011993058c914a32a","freq","img/green_2bandit_b2.png","70","70","test","1","121","121","6","",""
"null","653802","pSARL_v2","pSARL_v296ed02hx","609a88c011993058c914a32a","freq_resp","img/green_2bandit_b.png","70","70","test","","","","6","",""
"null","653973","pSARL_v2","pSARL_v296ed02hx","609a88c011993058c914a32a","fixation","img/fixation.png","null","","test","","","","","",""
"429.19999999552965","654406","pSARL_v2","pSARL_v296ed02hx","609a88c011993058c914a32a","freq","img/green_2bandit_b2.png","70","70","test","1","122","122","6","",""
"null","654796","pSARL_v2","pSARL_v296ed02hx","609a88c011993058c914a32a","freq_resp","img/green_2bandit_b.png","70","70","test","","","","6","",""
"null","654960","pSARL_v2","pSARL_v296ed02hx","609a88c011993058c914a32a","fixation","img/fixation.png","null","","test","","","","","",""
"458.5","655423","pSARL_v2","pSARL_v296ed02hx","609a88c011993058c914a32a","freq","img/green_2bandit_b2.png","70","70","test","1","123","123","6","",""
"null","655781","pSARL_v2","pSARL_v296ed02hx","609a88c011993058c914a32a","freq_resp","img/green_2bandit_b.png","70","70","test","","","","6","",""
"null","655947","pSARL_v2","pSARL_v296ed02hx","609a88c011993058c914a32a","fixation","img/fixation.png","null","","test","","","","","",""
"367.79999999701977","656320","pSARL_v2","pSARL_v296ed02hx","609a88c011993058c914a32a","freq","img/green_2bandit_b2.png","70","70","test","1","124","124","6","",""
"null","656770","pSARL_v2","pSARL_v296ed02hx","609a88c011993058c914a32a","freq_resp","img/green_2bandit_b.png","70","70","test","","","","6","",""
"null","656939","pSARL_v2","pSARL_v296ed02hx","609a88c011993058c914a32a","fixation","img/fixation.png","null","","test","","","","","",""
"410.5","657354","pSARL_v2","pSARL_v296ed02hx","609a88c011993058c914a32a","infreq","img/orange_2bandit_b2.png","68","68","test","1","125","125","6","",""
"null","657754","pSARL_v2","pSARL_v296ed02hx","609a88c011993058c914a32a","infreq_resp","img/orange_2bandit_b.png","68","68","test","","","","6","",""
"null","657914","pSARL_v2","pSARL_v296ed02hx","609a88c011993058c914a32a","fixation","img/fixation.png","null","","test","","","","","",""
"359.5","658278","pSARL_v2","pSARL_v296ed02hx","609a88c011993058c914a32a","freq","img/green_2bandit_b2.png","70","70","test","1","126","126","6","",""
"null","658729","pSARL_v2","pSARL_v296ed02hx","609a88c011993058c914a32a","freq_resp","img/green_2bandit_b.png","70","70","test","","","","6","",""
"null","658888","pSARL_v2","pSARL_v296ed02hx","609a88c011993058c914a32a","fixation","img/fixation.png","null","","test","","","","","",""
"418.3999999985099","659311","pSARL_v2","pSARL_v296ed02hx","609a88c011993058c914a32a","infreq","img/orange_2bandit_b2.png","68","68","test","1","127","127","6","",""
"null","659707","pSARL_v2","pSARL_v296ed02hx","609a88c011993058c914a32a","infreq_resp","img/orange_2bandit_b.png","68","68","test","","","","6","",""
"null","659871","pSARL_v2","pSARL_v296ed02hx","609a88c011993058c914a32a","fixation","img/fixation.png","null","","test","","","","","",""
"327.79999999701977","660203","pSARL_v2","pSARL_v296ed02hx","609a88c011993058c914a32a","freq","img/green_2bandit_b2.png","70","70","test","1","128","128","6","",""
"null","660682","pSARL_v2","pSARL_v296ed02hx","609a88c011993058c914a32a","freq_resp","img/green_2bandit_b.png","70","70","test","","","","6","",""
"null","660847","pSARL_v2","pSARL_v296ed02hx","609a88c011993058c914a32a","fixation","img/fixation.png","null","","test","","","","","",""
"581.1000000014901","661432","pSARL_v2","pSARL_v296ed02hx","609a88c011993058c914a32a","freq","img/green_2bandit_b2.png","70","70","test","1","129","129","6","",""
"null","661665","pSARL_v2","pSARL_v296ed02hx","609a88c011993058c914a32a","freq_resp","img/green_2bandit_b.png","70","70","test","","","","6","",""
"null","661822","pSARL_v2","pSARL_v296ed02hx","609a88c011993058c914a32a","fixation","img/fixation.png","null","","test","","","","","",""
"451.09999999403954","662277","pSARL_v2","pSARL_v296ed02hx","609a88c011993058c914a32a","freq","img/green_2bandit_b2.png","70","70","test","1","130","130","6","",""
"null","662644","pSARL_v2","pSARL_v296ed02hx","609a88c011993058c914a32a","freq_resp","img/green_2bandit_b.png","70","70","test","","","","6","",""
"null","662807","pSARL_v2","pSARL_v296ed02hx","609a88c011993058c914a32a","fixation","img/fixation.png","null","","test","","","","","",""
"434.8999999985099","663247","pSARL_v2","pSARL_v296ed02hx","609a88c011993058c914a32a","freq","img/green_2bandit_b2.png","70","70","test","1","131","131","6","",""
"null","663626","pSARL_v2","pSARL_v296ed02hx","609a88c011993058c914a32a","freq_resp","img/green_2bandit_b.png","70","70","test","","","","6","",""
"null","663790","pSARL_v2","pSARL_v296ed02hx","609a88c011993058c914a32a","fixation","img/fixation.png","null","","test","","","","","",""
"354.1000000014901","664148","pSARL_v2","pSARL_v296ed02hx","609a88c011993058c914a32a","freq","img/green_2bandit_b2.png","70","70","test","1","132","132","6","",""
"null","664612","pSARL_v2","pSARL_v296ed02hx","609a88c011993058c914a32a","freq_resp","img/green_2bandit_b.png","70","70","test","","","","6","",""
"null","664780","pSARL_v2","pSARL_v296ed02hx","609a88c011993058c914a32a","fixation","img/fixation.png","null","","test","","","","","",""
"380.3999999985099","665165","pSARL_v2","pSARL_v296ed02hx","609a88c011993058c914a32a","freq","img/green_2bandit_b2.png","70","70","test","1","133","133","6","",""
"null","665599","pSARL_v2","pSARL_v296ed02hx","609a88c011993058c914a32a","freq_resp","img/green_2bandit_b.png","70","70","test","","","","6","",""
"null","665758","pSARL_v2","pSARL_v296ed02hx","609a88c011993058c914a32a","fixation","img/fixation.png","null","","test","","","","","",""
"325","666088","pSARL_v2","pSARL_v296ed02hx","609a88c011993058c914a32a","freq","img/green_2bandit_b2.png","70","70","test","1","134","134","6","",""
"null","666572","pSARL_v2","pSARL_v296ed02hx","609a88c011993058c914a32a","freq_resp","img/green_2bandit_b.png","70","70","test","","","","6","",""
"null","666736","pSARL_v2","pSARL_v296ed02hx","609a88c011993058c914a32a","fixation","img/fixation.png","null","","test","","","","","",""
"377.6000000014901","667118","pSARL_v2","pSARL_v296ed02hx","609a88c011993058c914a32a","freq","img/green_2bandit_b2.png","70","70","test","1","135","135","6","",""
"null","667557","pSARL_v2","pSARL_v296ed02hx","609a88c011993058c914a32a","freq_resp","img/green_2bandit_b.png","70","70","test","","","","6","",""
"null","667724","pSARL_v2","pSARL_v296ed02hx","609a88c011993058c914a32a","fixation","img/fixation.png","null","","test","","","","","",""
"323.8999999985099","668053","pSARL_v2","pSARL_v296ed02hx","609a88c011993058c914a32a","freq","img/green_2bandit_b2.png","70","70","test","1","136","136","6","",""
"null","668548","pSARL_v2","pSARL_v296ed02hx","609a88c011993058c914a32a","freq_resp","img/green_2bandit_b.png","70","70","test","","","","6","",""
"null","668704","pSARL_v2","pSARL_v296ed02hx","609a88c011993058c914a32a","fixation","img/fixation.png","null","","test","","","","","",""
"359.5","669068","pSARL_v2","pSARL_v296ed02hx","609a88c011993058c914a32a","freq","img/green_2bandit_b2.png","70","70","test","1","137","137","6","",""
"null","669522","pSARL_v2","pSARL_v296ed02hx","609a88c011993058c914a32a","freq_resp","img/green_2bandit_b.png","70","70","test","","","","6","",""
"null","669692","pSARL_v2","pSARL_v296ed02hx","609a88c011993058c914a32a","fixation","img/fixation.png","null","","test","","","","","",""
"413.19999999552965","670109","pSARL_v2","pSARL_v296ed02hx","609a88c011993058c914a32a","freq","img/green_2bandit_b2.png","70","70","test","1","138","138","6","",""
"null","670515","pSARL_v2","pSARL_v296ed02hx","609a88c011993058c914a32a","freq_resp","img/green_2bandit_b.png","70","70","test","","","","6","",""
"null","670680","pSARL_v2","pSARL_v296ed02hx","609a88c011993058c914a32a","fixation","img/fixation.png","null","","test","","","","","",""
"484.79999999701977","671169","pSARL_v2","pSARL_v296ed02hx","609a88c011993058c914a32a","reward","img/slot.png","74","","test","","","","","",""
"null","671935","pSARL_v2","pSARL_v296ed02hx","609a88c011993058c914a32a","points","<div class=""verylowPoints""> -7 </div>","null","na","test","","","","6","-7","5"
"506.79999999701977","672446","pSARL_v2","pSARL_v296ed02hx","609a88c011993058c914a32a","freq","img/green_2bandit_b2.png","70","70","test","1","139","139","7","",""
"null","672753","pSARL_v2","pSARL_v296ed02hx","609a88c011993058c914a32a","freq_resp","img/green_2bandit_b.png","70","70","test","","","","7","",""
"null","672919","pSARL_v2","pSARL_v296ed02hx","609a88c011993058c914a32a","fixation","img/fixation.png","null","","test","","","","","",""
"375","673298","pSARL_v2","pSARL_v296ed02hx","609a88c011993058c914a32a","freq","img/green_2bandit_b2.png","70","70","test","1","140","140","7","",""
"null","673735","pSARL_v2","pSARL_v296ed02hx","609a88c011993058c914a32a","freq_resp","img/green_2bandit_b.png","70","70","test","","","","7","",""
"null","673900","pSARL_v2","pSARL_v296ed02hx","609a88c011993058c914a32a","fixation","img/fixation.png","null","","test","","","","","",""
"556.0999999940395","674460","pSARL_v2","pSARL_v296ed02hx","609a88c011993058c914a32a","infreq","img/orange_2bandit_b2.png","68","68","test","1","141","141","7","",""
"null","674720","pSARL_v2","pSARL_v296ed02hx","609a88c011993058c914a32a","infreq_resp","img/orange_2bandit_b.png","68","68","test","","","","7","",""
"null","674887","pSARL_v2","pSARL_v296ed02hx","609a88c011993058c914a32a","fixation","img/fixation.png","null","","test","","","","","",""
"488.1000000014901","675380","pSARL_v2","pSARL_v296ed02hx","609a88c011993058c914a32a","freq","img/green_2bandit_b2.png","70","70","test","1","142","142","7","",""
"null","675707","pSARL_v2","pSARL_v296ed02hx","609a88c011993058c914a32a","freq_resp","img/green_2bandit_b.png","70","70","test","","","","7","",""
"null","675875","pSARL_v2","pSARL_v296ed02hx","609a88c011993058c914a32a","fixation","img/fixation.png","null","","test","","","","","",""
"397","676276","pSARL_v2","pSARL_v296ed02hx","609a88c011993058c914a32a","freq","img/green_2bandit_b2.png","70","70","test","1","143","143","7","",""
"null","676696","pSARL_v2","pSARL_v296ed02hx","609a88c011993058c914a32a","freq_resp","img/green_2bandit_b.png","70","70","test","","","","7","",""
"null","676859","pSARL_v2","pSARL_v296ed02hx","609a88c011993058c914a32a","fixation","img/fixation.png","null","","test","","","","","",""
"385.3999999985099","677249","pSARL_v2","pSARL_v296ed02hx","609a88c011993058c914a32a","freq","img/green_2bandit_b2.png","70","70","test","1","144","144","7","",""
"null","677680","pSARL_v2","pSARL_v296ed02hx","609a88c011993058c914a32a","freq_resp","img/green_2bandit_b.png","70","70","test","","","","7","",""
"null","677844","pSARL_v2","pSARL_v296ed02hx","609a88c011993058c914a32a","fixation","img/fixation.png","null","","test","","","","","",""
"365.1000000014901","678213","pSARL_v2","pSARL_v296ed02hx","609a88c011993058c914a32a","freq","img/green_2bandit_b2.png","70","70","test","1","145","145","7","",""
"null","678663","pSARL_v2","pSARL_v296ed02hx","609a88c011993058c914a32a","freq_resp","img/green_2bandit_b.png","70","70","test","","","","7","",""
"null","678827","pSARL_v2","pSARL_v296ed02hx","609a88c011993058c914a32a","fixation","img/fixation.png","null","","test","","","","","",""
"403.20000000298023","679235","pSARL_v2","pSARL_v296ed02hx","609a88c011993058c914a32a","freq","img/green_2bandit_b2.png","70","70","test","1","146","146","7","",""
"null","679648","pSARL_v2","pSARL_v296ed02hx","609a88c011993058c914a32a","freq_resp","img/green_2bandit_b.png","70","70","test","","","","7","",""
"null","679815","pSARL_v2","pSARL_v296ed02hx","609a88c011993058c914a32a","fixation","img/fixation.png","null","","test","","","","","",""
"353.1000000014901","680173","pSARL_v2","pSARL_v296ed02hx","609a88c011993058c914a32a","freq","img/green_2bandit_b2.png","70","70","test","1","147","147","7","",""
"null","680636","pSARL_v2","pSARL_v296ed02hx","609a88c011993058c914a32a","freq_resp","img/green_2bandit_b.png","70","70","test","","","","7","",""
"null","680797","pSARL_v2","pSARL_v296ed02hx","609a88c011993058c914a32a","fixation","img/fixation.png","null","","test","","","","","",""
"304.79999999701977","681106","pSARL_v2","pSARL_v296ed02hx","609a88c011993058c914a32a","freq","img/green_2bandit_b2.png","70","70","test","1","148","148","7","",""
"null","681615","pSARL_v2","pSARL_v296ed02hx","609a88c011993058c914a32a","freq_resp","img/green_2bandit_b.png","70","70","test","","","","7","",""
"null","681779","pSARL_v2","pSARL_v296ed02hx","609a88c011993058c914a32a","fixation","img/fixation.png","null","","test","","","","","",""
"317.29999999701977","682101","pSARL_v2","pSARL_v296ed02hx","609a88c011993058c914a32a","freq","img/green_2bandit_b2.png","70","70","test","1","149","149","7","",""
"null","682597","pSARL_v2","pSARL_v296ed02hx","609a88c011993058c914a32a","freq_resp","img/green_2bandit_b.png","70","70","test","","","","7","",""
"null","682763","pSARL_v2","pSARL_v296ed02hx","609a88c011993058c914a32a","fixation","img/fixation.png","null","","test","","","","","",""
"380.5","683148","pSARL_v2","pSARL_v296ed02hx","609a88c011993058c914a32a","infreq","img/orange_2bandit_b2.png","68","68","test","1","150","150","7","",""
"null","683581","pSARL_v2","pSARL_v296ed02hx","609a88c011993058c914a32a","infreq_resp","img/orange_2bandit_b.png","68","68","test","","","","7","",""
"null","683743","pSARL_v2","pSARL_v296ed02hx","609a88c011993058c914a32a","fixation","img/fixation.png","null","","test","","","","","",""
"408.29999999701977","684156","pSARL_v2","pSARL_v296ed02hx","609a88c011993058c914a32a","freq","img/green_2bandit_b2.png","70","70","test","1","151","151","7","",""
"null","684560","pSARL_v2","pSARL_v296ed02hx","609a88c011993058c914a32a","freq_resp","img/green_2bandit_b.png","70","70","test","","","","7","",""
"null","684730","pSARL_v2","pSARL_v296ed02hx","609a88c011993058c914a32a","fixation","img/fixation.png","null","","test","","","","","",""
"410.29999999701977","685144","pSARL_v2","pSARL_v296ed02hx","609a88c011993058c914a32a","freq","img/green_2bandit_b2.png","70","70","test","1","152","152","7","",""
"null","685541","pSARL_v2","pSARL_v296ed02hx","609a88c011993058c914a32a","freq_resp","img/green_2bandit_b.png","70","70","test","","","","7","",""
"null","685707","pSARL_v2","pSARL_v296ed02hx","609a88c011993058c914a32a","fixation","img/fixation.png","null","","test","","","","","",""
"708.7000000029802","686419","pSARL_v2","pSARL_v296ed02hx","609a88c011993058c914a32a","freq","img/green_2bandit_b2.png","70","70","test","1","153","153","7","",""
"null","686518","pSARL_v2","pSARL_v296ed02hx","609a88c011993058c914a32a","freq_resp","img/green_2bandit_b.png","70","70","test","","","","7","",""
"null","686678","pSARL_v2","pSARL_v296ed02hx","609a88c011993058c914a32a","fixation","img/fixation.png","null","","test","","","","","",""
"423.09999999403954","687105","pSARL_v2","pSARL_v296ed02hx","609a88c011993058c914a32a","freq","img/green_2bandit_b2.png","70","70","test","1","154","154","7","",""
"null","687499","pSARL_v2","pSARL_v296ed02hx","609a88c011993058c914a32a","freq_resp","img/green_2bandit_b.png","70","70","test","","","","7","",""
"null","687668","pSARL_v2","pSARL_v296ed02hx","609a88c011993058c914a32a","fixation","img/fixation.png","null","","test","","","","","",""
"346.20000000298023","688019","pSARL_v2","pSARL_v296ed02hx","609a88c011993058c914a32a","freq","img/green_2bandit_b2.png","70","70","test","1","155","155","7","",""
"null","688484","pSARL_v2","pSARL_v296ed02hx","609a88c011993058c914a32a","freq_resp","img/green_2bandit_b.png","70","70","test","","","","7","",""
"null","688647","pSARL_v2","pSARL_v296ed02hx","609a88c011993058c914a32a","fixation","img/fixation.png","null","","test","","","","","",""
"353.20000000298023","689005","pSARL_v2","pSARL_v296ed02hx","609a88c011993058c914a32a","freq","img/green_2bandit_b2.png","70","70","test","1","156","156","7","",""
"null","689461","pSARL_v2","pSARL_v296ed02hx","609a88c011993058c914a32a","freq_resp","img/green_2bandit_b.png","70","70","test","","","","7","",""
"null","689627","pSARL_v2","pSARL_v296ed02hx","609a88c011993058c914a32a","fixation","img/fixation.png","null","","test","","","","","",""
"356.79999999701977","689988","pSARL_v2","pSARL_v296ed02hx","609a88c011993058c914a32a","freq","img/green_2bandit_b2.png","70","70","test","1","157","157","7","",""
"null","690444","pSARL_v2","pSARL_v296ed02hx","609a88c011993058c914a32a","freq_resp","img/green_2bandit_b.png","70","70","test","","","","7","",""
"null","690611","pSARL_v2","pSARL_v296ed02hx","609a88c011993058c914a32a","fixation","img/fixation.png","null","","test","","","","","",""
"340.8999999985099","690956","pSARL_v2","pSARL_v296ed02hx","609a88c011993058c914a32a","freq","img/green_2bandit_b2.png","70","70","test","1","158","158","7","",""
"null","691429","pSARL_v2","pSARL_v296ed02hx","609a88c011993058c914a32a","freq_resp","img/green_2bandit_b.png","70","70","test","","","","7","",""
"null","691596","pSARL_v2","pSARL_v296ed02hx","609a88c011993058c914a32a","fixation","img/fixation.png","null","","test","","","","","",""
"304.70000000298023","691905","pSARL_v2","pSARL_v296ed02hx","609a88c011993058c914a32a","freq","img/green_2bandit_b2.png","70","70","test","1","159","159","7","",""
"null","692418","pSARL_v2","pSARL_v296ed02hx","609a88c011993058c914a32a","freq_resp","img/green_2bandit_b.png","70","70","test","","","","7","",""
"null","692585","pSARL_v2","pSARL_v296ed02hx","609a88c011993058c914a32a","fixation","img/fixation.png","null","","test","","","","","",""
"331.8999999985099","692921","pSARL_v2","pSARL_v296ed02hx","609a88c011993058c914a32a","freq","img/green_2bandit_b2.png","70","70","test","1","160","160","7","",""
"null","693398","pSARL_v2","pSARL_v296ed02hx","609a88c011993058c914a32a","freq_resp","img/green_2bandit_b.png","70","70","test","","","","7","",""
"null","693563","pSARL_v2","pSARL_v296ed02hx","609a88c011993058c914a32a","fixation","img/fixation.png","null","","test","","","","","",""
"348.20000000298023","693916","pSARL_v2","pSARL_v296ed02hx","609a88c011993058c914a32a","freq","img/green_2bandit_b2.png","70","70","test","1","161","161","7","",""
"null","694388","pSARL_v2","pSARL_v296ed02hx","609a88c011993058c914a32a","freq_resp","img/green_2bandit_b.png","70","70","test","","","","7","",""
"null","694550","pSARL_v2","pSARL_v296ed02hx","609a88c011993058c914a32a","fixation","img/fixation.png","null","","test","","","","","",""
"328","694884","pSARL_v2","pSARL_v296ed02hx","609a88c011993058c914a32a","freq","img/green_2bandit_b2.png","70","70","test","1","162","162","7","",""
"null","695371","pSARL_v2","pSARL_v296ed02hx","609a88c011993058c914a32a","freq_resp","img/green_2bandit_b.png","70","70","test","","","","7","",""
"null","695535","pSARL_v2","pSARL_v296ed02hx","609a88c011993058c914a32a","fixation","img/fixation.png","null","","test","","","","","",""
"328.6000000014901","695868","pSARL_v2","pSARL_v296ed02hx","609a88c011993058c914a32a","freq","img/green_2bandit_b2.png","70","70","test","1","163","163","7","",""
"null","696350","pSARL_v2","pSARL_v296ed02hx","609a88c011993058c914a32a","freq_resp","img/green_2bandit_b.png","70","70","test","","","","7","",""
"null","696509","pSARL_v2","pSARL_v296ed02hx","609a88c011993058c914a32a","fixation","img/fixation.png","null","","test","","","","","",""
"467.79999999701977","696981","pSARL_v2","pSARL_v296ed02hx","609a88c011993058c914a32a","reward","img/slot.png","74","","test","","","","","",""
"null","697743","pSARL_v2","pSARL_v296ed02hx","609a88c011993058c914a32a","points","<div class=""verylowPoints""> -6 </div>","null","na","test","","","","7","-6","6"
"336","698084","pSARL_v2","pSARL_v296ed02hx","609a88c011993058c914a32a","freq","img/green_2bandit_b2.png","70","70","test","1","164","164","8","",""
"null","698557","pSARL_v2","pSARL_v296ed02hx","609a88c011993058c914a32a","freq_resp","img/green_2bandit_b.png","70","70","test","","","","8","",""
"null","698723","pSARL_v2","pSARL_v296ed02hx","609a88c011993058c914a32a","fixation","img/fixation.png","null","","test","","","","","",""
"351.6000000014901","699079","pSARL_v2","pSARL_v296ed02hx","609a88c011993058c914a32a","freq","img/green_2bandit_b2.png","70","70","test","1","165","165","8","",""
"null","699540","pSARL_v2","pSARL_v296ed02hx","609a88c011993058c914a32a","freq_resp","img/green_2bandit_b.png","70","70","test","","","","8","",""
"null","699706","pSARL_v2","pSARL_v296ed02hx","609a88c011993058c914a32a","fixation","img/fixation.png","null","","test","","","","","",""
"302.8999999985099","700014","pSARL_v2","pSARL_v296ed02hx","609a88c011993058c914a32a","freq","img/green_2bandit_b2.png","70","70","test","1","166","166","8","",""
"null","700523","pSARL_v2","pSARL_v296ed02hx","609a88c011993058c914a32a","freq_resp","img/green_2bandit_b.png","70","70","test","","","","8","",""
"null","700690","pSARL_v2","pSARL_v296ed02hx","609a88c011993058c914a32a","fixation","img/fixation.png","null","","test","","","","","",""
"242.19999999552965","700937","pSARL_v2","pSARL_v296ed02hx","609a88c011993058c914a32a","freq","img/green_2bandit_b2.png","70","70","test","1","167","167","8","",""
"null","701515","pSARL_v2","pSARL_v296ed02hx","609a88c011993058c914a32a","freq_resp","img/green_2bandit_b.png","70","70","test","","","","8","",""
"null","701679","pSARL_v2","pSARL_v296ed02hx","609a88c011993058c914a32a","fixation","img/fixation.png","null","","test","","","","","",""
"337.20000000298023","702020","pSARL_v2","pSARL_v296ed02hx","609a88c011993058c914a32a","freq","img/green_2bandit_b2.png","70","70","test","1","168","168","8","",""
"null","702497","pSARL_v2","pSARL_v296ed02hx","609a88c011993058c914a32a","freq_resp","img/green_2bandit_b.png","70","70","test","","","","8","",""
"null","702667","pSARL_v2","pSARL_v296ed02hx","609a88c011993058c914a32a","fixation","img/fixation.png","null","","test","","","","","",""
"329.19999999552965","703000","pSARL_v2","pSARL_v296ed02hx","609a88c011993058c914a32a","freq","img/green_2bandit_b2.png","70","70","test","1","169","169","8","",""
"null","703483","pSARL_v2","pSARL_v296ed02hx","609a88c011993058c914a32a","freq_resp","img/green_2bandit_b.png","70","70","test","","","","8","",""
"null","703646","pSARL_v2","pSARL_v296ed02hx","609a88c011993058c914a32a","fixation","img/fixation.png","null","","test","","","","","",""
"314.8999999985099","703965","pSARL_v2","pSARL_v296ed02hx","609a88c011993058c914a32a","freq","img/green_2bandit_b2.png","70","70","test","1","170","170","8","",""
"null","704459","pSARL_v2","pSARL_v296ed02hx","609a88c011993058c914a32a","freq_resp","img/green_2bandit_b.png","70","70","test","","","","8","",""
"null","704626","pSARL_v2","pSARL_v296ed02hx","609a88c011993058c914a32a","fixation","img/fixation.png","null","","test","","","","","",""
"274.8999999985099","704905","pSARL_v2","pSARL_v296ed02hx","609a88c011993058c914a32a","freq","img/green_2bandit_b2.png","70","70","test","1","171","171","8","",""
"null","705451","pSARL_v2","pSARL_v296ed02hx","609a88c011993058c914a32a","freq_resp","img/green_2bandit_b.png","70","70","test","","","","8","",""
"null","705611","pSARL_v2","pSARL_v296ed02hx","609a88c011993058c914a32a","fixation","img/fixation.png","null","","test","","","","","",""
"322.70000000298023","705939","pSARL_v2","pSARL_v296ed02hx","609a88c011993058c914a32a","freq","img/green_2bandit_b2.png","70","70","test","1","172","172","8","",""
"null","706428","pSARL_v2","pSARL_v296ed02hx","609a88c011993058c914a32a","freq_resp","img/green_2bandit_b.png","70","70","test","","","","8","",""
"null","706587","pSARL_v2","pSARL_v296ed02hx","609a88c011993058c914a32a","fixation","img/fixation.png","null","","test","","","","","",""
"261.09999999403954","706852","pSARL_v2","pSARL_v296ed02hx","609a88c011993058c914a32a","freq","img/green_2bandit_b2.png","70","70","test","1","173","173","8","",""
"null","707410","pSARL_v2","pSARL_v296ed02hx","609a88c011993058c914a32a","freq_resp","img/green_2bandit_b.png","70","70","test","","","","8","",""
"null","707578","pSARL_v2","pSARL_v296ed02hx","609a88c011993058c914a32a","fixation","img/fixation.png","null","","test","","","","","",""
"148.39999999850988","707731","pSARL_v2","pSARL_v296ed02hx","609a88c011993058c914a32a","infreq","img/orange_2bandit_b2.png","70","68","test","0","174","174","8","",""
"null","708398","pSARL_v2","pSARL_v296ed02hx","609a88c011993058c914a32a","infreq_resp","img/orange_2bandit_b.png","70","68","test","","","","8","",""
"null","708555","pSARL_v2","pSARL_v296ed02hx","609a88c011993058c914a32a","fixation","img/fixation.png","null","","test","","","","","",""
"30.899999998509884","708591","pSARL_v2","pSARL_v296ed02hx","609a88c011993058c914a32a","freq","img/green_2bandit_b2.png","68","70","test","0","175","175","8","",""
"null","709371","pSARL_v2","pSARL_v296ed02hx","609a88c011993058c914a32a","freq_resp","img/green_2bandit_b.png","68","70","test","","","","8","",""
"null","709538","pSARL_v2","pSARL_v296ed02hx","609a88c011993058c914a32a","fixation","img/fixation.png","null","","test","","","","","",""
"526.2999999970198","710069","pSARL_v2","pSARL_v296ed02hx","609a88c011993058c914a32a","freq","img/green_2bandit_b2.png","70","70","test","1","176","176","8","",""
"null","710362","pSARL_v2","pSARL_v296ed02hx","609a88c011993058c914a32a","freq_resp","img/green_2bandit_b.png","70","70","test","","","","8","",""
"null","710530","pSARL_v2","pSARL_v296ed02hx","609a88c011993058c914a32a","fixation","img/fixation.png","null","","test","","","","","",""
"391.29999999701977","710925","pSARL_v2","pSARL_v296ed02hx","609a88c011993058c914a32a","freq","img/green_2bandit_b2.png","70","70","test","1","177","177","8","",""
"null","711345","pSARL_v2","pSARL_v296ed02hx","609a88c011993058c914a32a","freq_resp","img/green_2bandit_b.png","70","70","test","","","","8","",""
"null","711509","pSARL_v2","pSARL_v296ed02hx","609a88c011993058c914a32a","fixation","img/fixation.png","null","","test","","","","","",""
"286.69999999552965","711800","pSARL_v2","pSARL_v296ed02hx","609a88c011993058c914a32a","freq","img/green_2bandit_b2.png","70","70","test","1","178","178","8","",""
"null","712325","pSARL_v2","pSARL_v296ed02hx","609a88c011993058c914a32a","freq_resp","img/green_2bandit_b.png","70","70","test","","","","8","",""
"null","712486","pSARL_v2","pSARL_v296ed02hx","609a88c011993058c914a32a","fixation","img/fixation.png","null","","test","","","","","",""
"241.59999999403954","712731","pSARL_v2","pSARL_v296ed02hx","609a88c011993058c914a32a","freq","img/green_2bandit_b2.png","70","70","test","1","179","179","8","",""
"null","713304","pSARL_v2","pSARL_v296ed02hx","609a88c011993058c914a32a","freq_resp","img/green_2bandit_b.png","70","70","test","","","","8","",""
"null","713472","pSARL_v2","pSARL_v296ed02hx","609a88c011993058c914a32a","fixation","img/fixation.png","null","","test","","","","","",""
"213.70000000298023","713690","pSARL_v2","pSARL_v296ed02hx","609a88c011993058c914a32a","freq","img/green_2bandit_b2.png","70","70","test","1","180","180","8","",""
"null","714288","pSARL_v2","pSARL_v296ed02hx","609a88c011993058c914a32a","freq_resp","img/green_2bandit_b.png","70","70","test","","","","8","",""
"null","714456","pSARL_v2","pSARL_v296ed02hx","609a88c011993058c914a32a","fixation","img/fixation.png","null","","test","","","","","",""
"184.29999999701977","714644","pSARL_v2","pSARL_v296ed02hx","609a88c011993058c914a32a","freq","img/green_2bandit_b2.png","70","70","test","1","181","181","8","",""
"null","715268","pSARL_v2","pSARL_v296ed02hx","609a88c011993058c914a32a","freq_resp","img/green_2bandit_b.png","70","70","test","","","","8","",""
"null","715432","pSARL_v2","pSARL_v296ed02hx","609a88c011993058c914a32a","fixation","img/fixation.png","null","","test","","","","","",""
"149.69999999552965","715586","pSARL_v2","pSARL_v296ed02hx","609a88c011993058c914a32a","freq","img/green_2bandit_b2.png","70","70","test","1","182","182","8","",""
"null","716247","pSARL_v2","pSARL_v296ed02hx","609a88c011993058c914a32a","freq_resp","img/green_2bandit_b.png","70","70","test","","","","8","",""
"null","716413","pSARL_v2","pSARL_v296ed02hx","609a88c011993058c914a32a","fixation","img/fixation.png","null","","test","","","","","",""
"237.89999999850988","716656","pSARL_v2","pSARL_v296ed02hx","609a88c011993058c914a32a","freq","img/green_2bandit_b2.png","70","70","test","1","183","183","8","",""
"null","717227","pSARL_v2","pSARL_v296ed02hx","609a88c011993058c914a32a","freq_resp","img/green_2bandit_b.png","70","70","test","","","","8","",""
"null","717391","pSARL_v2","pSARL_v296ed02hx","609a88c011993058c914a32a","fixation","img/fixation.png","null","","test","","","","","",""
"271","717667","pSARL_v2","pSARL_v296ed02hx","609a88c011993058c914a32a","freq","img/green_2bandit_b2.png","70","70","test","1","184","184","8","",""
"null","718203","pSARL_v2","pSARL_v296ed02hx","609a88c011993058c914a32a","freq_resp","img/green_2bandit_b.png","70","70","test","","","","8","",""
"null","718370","pSARL_v2","pSARL_v296ed02hx","609a88c011993058c914a32a","fixation","img/fixation.png","null","","test","","","","","",""
"320.29999999701977","718695","pSARL_v2","pSARL_v296ed02hx","609a88c011993058c914a32a","freq","img/green_2bandit_b2.png","70","70","test","1","185","185","8","",""
"null","719187","pSARL_v2","pSARL_v296ed02hx","609a88c011993058c914a32a","freq_resp","img/green_2bandit_b.png","70","70","test","","","","8","",""
"null","719354","pSARL_v2","pSARL_v296ed02hx","609a88c011993058c914a32a","fixation","img/fixation.png","null","","test","","","","","",""
"418.69999999552965","719777","pSARL_v2","pSARL_v296ed02hx","609a88c011993058c914a32a","infreq","img/orange_2bandit_b2.png","68","68","test","1","186","186","8","",""
"null","720172","pSARL_v2","pSARL_v296ed02hx","609a88c011993058c914a32a","infreq_resp","img/orange_2bandit_b.png","68","68","test","","","","8","",""
"null","720335","pSARL_v2","pSARL_v296ed02hx","609a88c011993058c914a32a","fixation","img/fixation.png","null","","test","","","","","",""
"389.80000000447035","720729","pSARL_v2","pSARL_v296ed02hx","609a88c011993058c914a32a","freq","img/green_2bandit_b2.png","70","70","test","1","187","187","8","",""
"null","721145","pSARL_v2","pSARL_v296ed02hx","609a88c011993058c914a32a","freq_resp","img/green_2bandit_b.png","70","70","test","","","","8","",""
"null","721314","pSARL_v2","pSARL_v296ed02hx","609a88c011993058c914a32a","fixation","img/fixation.png","null","","test","","","","","",""
"366.90000000596046","721685","pSARL_v2","pSARL_v296ed02hx","609a88c011993058c914a32a","freq","img/green_2bandit_b2.png","70","70","test","1","188","188","8","",""
"null","722133","pSARL_v2","pSARL_v296ed02hx","609a88c011993058c914a32a","freq_resp","img/green_2bandit_b.png","70","70","test","","","","8","",""
"null","722293","pSARL_v2","pSARL_v296ed02hx","609a88c011993058c914a32a","fixation","img/fixation.png","null","","test","","","","","",""
"350.40000000596046","722648","pSARL_v2","pSARL_v296ed02hx","609a88c011993058c914a32a","freq","img/green_2bandit_b2.png","70","70","test","1","189","189","8","",""
"null","723107","pSARL_v2","pSARL_v296ed02hx","609a88c011993058c914a32a","freq_resp","img/green_2bandit_b.png","70","70","test","","","","8","",""
"null","723274","pSARL_v2","pSARL_v296ed02hx","609a88c011993058c914a32a","fixation","img/fixation.png","null","","test","","","","","",""
"468.3999999985099","723747","pSARL_v2","pSARL_v296ed02hx","609a88c011993058c914a32a","reward","img/slot.png","74","","test","","","","","",""
"null","724511","pSARL_v2","pSARL_v296ed02hx","609a88c011993058c914a32a","points","<div class=""verylowPoints""> -4 </div>","null","na","test","","","","8","-4","7"
"404.80000000447035","724920","pSARL_v2","pSARL_v296ed02hx","609a88c011993058c914a32a","freq","img/green_2bandit_b2.png","70","70","test","1","190","190","9","",""
"null","725325","pSARL_v2","pSARL_v296ed02hx","609a88c011993058c914a32a","freq_resp","img/green_2bandit_b.png","70","70","test","","","","9","",""
"null","725485","pSARL_v2","pSARL_v296ed02hx","609a88c011993058c914a32a","fixation","img/fixation.png","null","","test","","","","","",""
"358.80000000447035","725848","pSARL_v2","pSARL_v296ed02hx","609a88c011993058c914a32a","freq","img/green_2bandit_b2.png","70","70","test","1","191","191","9","",""
"null","726306","pSARL_v2","pSARL_v296ed02hx","609a88c011993058c914a32a","freq_resp","img/green_2bandit_b.png","70","70","test","","","","9","",""
"null","726473","pSARL_v2","pSARL_v296ed02hx","609a88c011993058c914a32a","fixation","img/fixation.png","null","","test","","","","","",""
"331.30000000447035","726809","pSARL_v2","pSARL_v296ed02hx","609a88c011993058c914a32a","freq","img/green_2bandit_b2.png","70","70","test","1","192","192","9","",""
"null","727292","pSARL_v2","pSARL_v296ed02hx","609a88c011993058c914a32a","freq_resp","img/green_2bandit_b.png","70","70","test","","","","9","",""
"null","727456","pSARL_v2","pSARL_v296ed02hx","609a88c011993058c914a32a","fixation","img/fixation.png","null","","test","","","","","",""
"266.30000000447035","727727","pSARL_v2","pSARL_v296ed02hx","609a88c011993058c914a32a","freq","img/green_2bandit_b2.png","70","70","test","1","193","193","9","",""
"null","728267","pSARL_v2","pSARL_v296ed02hx","609a88c011993058c914a32a","freq_resp","img/green_2bandit_b.png","70","70","test","","","","9","",""
"null","728427","pSARL_v2","pSARL_v296ed02hx","609a88c011993058c914a32a","fixation","img/fixation.png","null","","test","","","","","",""
"259","728691","pSARL_v2","pSARL_v296ed02hx","609a88c011993058c914a32a","freq","img/green_2bandit_b2.png","70","70","test","1","194","194","9","",""
"null","729244","pSARL_v2","pSARL_v296ed02hx","609a88c011993058c914a32a","freq_resp","img/green_2bandit_b.png","70","70","test","","","","9","",""
"null","729406","pSARL_v2","pSARL_v296ed02hx","609a88c011993058c914a32a","fixation","img/fixation.png","null","","test","","","","","",""
"234.60000000149012","729645","pSARL_v2","pSARL_v296ed02hx","609a88c011993058c914a32a","freq","img/green_2bandit_b2.png","70","70","test","1","195","195","9","",""
"null","730222","pSARL_v2","pSARL_v296ed02hx","609a88c011993058c914a32a","freq_resp","img/green_2bandit_b.png","70","70","test","","","","9","",""
"null","730384","pSARL_v2","pSARL_v296ed02hx","609a88c011993058c914a32a","fixation","img/fixation.png","null","","test","","","","","",""
"280.19999999552965","730668","pSARL_v2","pSARL_v296ed02hx","609a88c011993058c914a32a","freq","img/green_2bandit_b2.png","70","70","test","1","196","196","9","",""
"null","731199","pSARL_v2","pSARL_v296ed02hx","609a88c011993058c914a32a","freq_resp","img/green_2bandit_b.png","70","70","test","","","","9","",""
"null","731366","pSARL_v2","pSARL_v296ed02hx","609a88c011993058c914a32a","fixation","img/fixation.png","null","","test","","","","","",""
"260.5","731631","pSARL_v2","pSARL_v296ed02hx","609a88c011993058c914a32a","freq","img/green_2bandit_b2.png","70","70","test","1","197","197","9","",""
"null","732176","pSARL_v2","pSARL_v296ed02hx","609a88c011993058c914a32a","freq_resp","img/green_2bandit_b.png","70","70","test","","","","9","",""
"null","732343","pSARL_v2","pSARL_v296ed02hx","609a88c011993058c914a32a","fixation","img/fixation.png","null","","test","","","","","",""
"278.8999999985099","732627","pSARL_v2","pSARL_v296ed02hx","609a88c011993058c914a32a","freq","img/green_2bandit_b2.png","70","70","test","1","198","198","9","",""
"null","733154","pSARL_v2","pSARL_v296ed02hx","609a88c011993058c914a32a","freq_resp","img/green_2bandit_b.png","70","70","test","","","","9","",""
"null","733319","pSARL_v2","pSARL_v296ed02hx","609a88c011993058c914a32a","fixation","img/fixation.png","null","","test","","","","","",""
"302.5","733626","pSARL_v2","pSARL_v296ed02hx","609a88c011993058c914a32a","freq","img/green_2bandit_b2.png","70","70","test","1","199","199","9","",""
"null","734136","pSARL_v2","pSARL_v296ed02hx","609a88c011993058c914a32a","freq_resp","img/green_2bandit_b.png","70","70","test","","","","9","",""
"null","734299","pSARL_v2","pSARL_v296ed02hx","609a88c011993058c914a32a","fixation","img/fixation.png","null","","test","","","","","",""
"192.79999999701977","734496","pSARL_v2","pSARL_v296ed02hx","609a88c011993058c914a32a","freq","img/green_2bandit_b2.png","70","70","test","1","200","200","9","",""
"null","735122","pSARL_v2","pSARL_v296ed02hx","609a88c011993058c914a32a","freq_resp","img/green_2bandit_b.png","70","70","test","","","","9","",""
"null","735289","pSARL_v2","pSARL_v296ed02hx","609a88c011993058c914a32a","fixation","img/fixation.png","null","","test","","","","","",""
"21.19999999552965","735315","pSARL_v2","pSARL_v296ed02hx","609a88c011993058c914a32a","infreq","img/orange_2bandit_b2.png","70","68","test","0","201","201","9","",""
"null","736113","pSARL_v2","pSARL_v296ed02hx","609a88c011993058c914a32a","infreq_resp","img/orange_2bandit_b.png","70","68","test","","","","9","",""
"null","736275","pSARL_v2","pSARL_v296ed02hx","609a88c011993058c914a32a","fixation","img/fixation.png","null","","test","","","","","",""
"413.70000000298023","736693","pSARL_v2","pSARL_v296ed02hx","609a88c011993058c914a32a","freq","img/green_2bandit_b2.png","70","70","test","1","202","202","9","",""
"null","737097","pSARL_v2","pSARL_v296ed02hx","609a88c011993058c914a32a","freq_resp","img/green_2bandit_b.png","70","70","test","","","","9","",""
"null","737253","pSARL_v2","pSARL_v296ed02hx","609a88c011993058c914a32a","fixation","img/fixation.png","null","","test","","","","","",""
"273.5","737531","pSARL_v2","pSARL_v296ed02hx","609a88c011993058c914a32a","freq","img/green_2bandit_b2.png","70","70","test","1","203","203","9","",""
"null","738069","pSARL_v2","pSARL_v296ed02hx","609a88c011993058c914a32a","freq_resp","img/green_2bandit_b.png","70","70","test","","","","9","",""
"null","738226","pSARL_v2","pSARL_v296ed02hx","609a88c011993058c914a32a","fixation","img/fixation.png","null","","test","","","","","",""
"406.80000000447035","738637","pSARL_v2","pSARL_v296ed02hx","609a88c011993058c914a32a","freq","img/green_2bandit_b2.png","70","70","test","1","204","204","9","",""
"null","739049","pSARL_v2","pSARL_v296ed02hx","609a88c011993058c914a32a","freq_resp","img/green_2bandit_b.png","70","70","test","","","","9","",""
"null","739216","pSARL_v2","pSARL_v296ed02hx","609a88c011993058c914a32a","fixation","img/fixation.png","null","","test","","","","","",""
"426.8999999985099","739648","pSARL_v2","pSARL_v296ed02hx","609a88c011993058c914a32a","infreq","img/orange_2bandit_b2.png","68","68","test","1","205","205","9","",""
"null","740037","pSARL_v2","pSARL_v296ed02hx","609a88c011993058c914a32a","infreq_resp","img/orange_2bandit_b.png","68","68","test","","","","9","",""
"null","740201","pSARL_v2","pSARL_v296ed02hx","609a88c011993058c914a32a","fixation","img/fixation.png","null","","test","","","","","",""
"368.6000000014901","740575","pSARL_v2","pSARL_v296ed02hx","609a88c011993058c914a32a","freq","img/green_2bandit_b2.png","70","70","test","1","206","206","9","",""
"null","741025","pSARL_v2","pSARL_v296ed02hx","609a88c011993058c914a32a","freq_resp","img/green_2bandit_b.png","70","70","test","","","","9","",""
"null","741193","pSARL_v2","pSARL_v296ed02hx","609a88c011993058c914a32a","fixation","img/fixation.png","null","","test","","","","","",""
"280.3999999985099","741478","pSARL_v2","pSARL_v296ed02hx","609a88c011993058c914a32a","freq","img/green_2bandit_b2.png","70","70","test","1","207","207","9","",""
