"rt","time_elapsed","expId","subject","prolificID","trialType","stimulus","key_press","corrresp","phase","corr","trialNum","attentionRunNum","blockNum","points","rlNum"
"3058.800000011921","3066","pSARL_v2","pSARL_v2ppdb619j","63bc9e8cd8106f8d94c636d4","","","","","","","","","","",""
"","8762","pSARL_v2","pSARL_v2ppdb619j","63bc9e8cd8106f8d94c636d4","fullscreen","","","","","","","","","",""
"60371.69999998808","69139","pSARL_v2","pSARL_v2ppdb619j","63bc9e8cd8106f8d94c636d4","","","","","","","","","","",""
"null","69947","pSARL_v2","pSARL_v2ppdb619j","63bc9e8cd8106f8d94c636d4","freqPrac","img/orange_2bandit_a2.png","null","70","prac","0","","","","",""
"null","70954","pSARL_v2","pSARL_v2ppdb619j","63bc9e8cd8106f8d94c636d4","feedback","img/tooSlow.png","null","na","prac","","","","","",""
"null","71114","pSARL_v2","pSARL_v2ppdb619j","63bc9e8cd8106f8d94c636d4","fixation","img/fixation.png","null","","prac","","","","","",""
"512.4000000357628","71631","pSARL_v2","pSARL_v2ppdb619j","63bc9e8cd8106f8d94c636d4","infreqPrac","img/green_2bandit_a2.png","68","68","prac","1","","","","",""
"512.4000000357628","71927","pSARL_v2","pSARL_v2ppdb619j","63bc9e8cd8106f8d94c636d4","infreqPrac_resp","img/green_2bandit_a.png","68","68","prac","","","","","",""
"null","72090","pSARL_v2","pSARL_v2ppdb619j","63bc9e8cd8106f8d94c636d4","fixation","img/fixation.png","null","","prac","","","","","",""
"452.69999998807907","72546","pSARL_v2","pSARL_v2ppdb619j","63bc9e8cd8106f8d94c636d4","freqPrac","img/orange_2bandit_a2.png","70","70","prac","1","","","","",""
"452.69999998807907","72906","pSARL_v2","pSARL_v2ppdb619j","63bc9e8cd8106f8d94c636d4","freqPrac_resp","img/orange_2bandit_a.png","70","70","prac","","","","","",""
"null","73068","pSARL_v2","pSARL_v2ppdb619j","63bc9e8cd8106f8d94c636d4","fixation","img/fixation.png","null","","prac","","","","","",""
"557.7999999523163","73629","pSARL_v2","pSARL_v2ppdb619j","63bc9e8cd8106f8d94c636d4","infreqPrac","img/green_2bandit_a2.png","68","68","prac","1","","","","",""
"557.7999999523163","73885","pSARL_v2","pSARL_v2ppdb619j","63bc9e8cd8106f8d94c636d4","infreqPrac_resp","img/green_2bandit_a.png","68","68","prac","","","","","",""
"null","74041","pSARL_v2","pSARL_v2ppdb619j","63bc9e8cd8106f8d94c636d4","fixation","img/fixation.png","null","","prac","","","","","",""
"null","74851","pSARL_v2","pSARL_v2ppdb619j","63bc9e8cd8106f8d94c636d4","infreqPrac","img/green_2bandit_a2.png","null","68","prac","0","","","","",""
"null","75859","pSARL_v2","pSARL_v2ppdb619j","63bc9e8cd8106f8d94c636d4","feedback","img/tooSlow.png","null","na","prac","","","","","",""
"null","76018","pSARL_v2","pSARL_v2ppdb619j","63bc9e8cd8106f8d94c636d4","fixation","img/fixation.png","null","","prac","","","","","",""
"799","76821","pSARL_v2","pSARL_v2ppdb619j","63bc9e8cd8106f8d94c636d4","infreqPrac","img/green_2bandit_a2.png","68","68","prac","1","","","","",""
"799","76827","pSARL_v2","pSARL_v2ppdb619j","63bc9e8cd8106f8d94c636d4","infreqPrac_resp","img/green_2bandit_a.png","68","68","prac","","","","","",""
"null","76986","pSARL_v2","pSARL_v2ppdb619j","63bc9e8cd8106f8d94c636d4","fixation","img/fixation.png","null","","prac","","","","","",""
"526.3999999761581","77516","pSARL_v2","pSARL_v2ppdb619j","63bc9e8cd8106f8d94c636d4","freqPrac","img/orange_2bandit_a2.png","70","70","prac","1","","","","",""
"526.3999999761581","77803","pSARL_v2","pSARL_v2ppdb619j","63bc9e8cd8106f8d94c636d4","freqPrac_resp","img/orange_2bandit_a.png","70","70","prac","","","","","",""
"null","77963","pSARL_v2","pSARL_v2ppdb619j","63bc9e8cd8106f8d94c636d4","fixation","img/fixation.png","null","","prac","","","","","",""
"446.10000002384186","78413","pSARL_v2","pSARL_v2ppdb619j","63bc9e8cd8106f8d94c636d4","infreqPrac","img/green_2bandit_a2.png","68","68","prac","1","","","","",""
"446.10000002384186","78775","pSARL_v2","pSARL_v2ppdb619j","63bc9e8cd8106f8d94c636d4","infreqPrac_resp","img/green_2bandit_a.png","68","68","prac","","","","","",""
"null","78941","pSARL_v2","pSARL_v2ppdb619j","63bc9e8cd8106f8d94c636d4","fixation","img/fixation.png","null","","prac","","","","","",""
"329.39999997615814","79274","pSARL_v2","pSARL_v2ppdb619j","63bc9e8cd8106f8d94c636d4","freqPrac","img/orange_2bandit_a2.png","70","70","prac","1","","","","",""
"329.39999997615814","79756","pSARL_v2","pSARL_v2ppdb619j","63bc9e8cd8106f8d94c636d4","freqPrac_resp","img/orange_2bandit_a.png","70","70","prac","","","","","",""
"null","79915","pSARL_v2","pSARL_v2ppdb619j","63bc9e8cd8106f8d94c636d4","fixation","img/fixation.png","null","","prac","","","","","",""
"458.9000000357628","80377","pSARL_v2","pSARL_v2ppdb619j","63bc9e8cd8106f8d94c636d4","freqPrac","img/orange_2bandit_a2.png","70","70","prac","1","","","","",""
"458.9000000357628","80732","pSARL_v2","pSARL_v2ppdb619j","63bc9e8cd8106f8d94c636d4","freqPrac_resp","img/orange_2bandit_a.png","70","70","prac","","","","","",""
"null","80891","pSARL_v2","pSARL_v2ppdb619j","63bc9e8cd8106f8d94c636d4","fixation","img/fixation.png","null","","prac","","","","","",""
"20000.30000001192","100897","pSARL_v2","pSARL_v2ppdb619j","63bc9e8cd8106f8d94c636d4","","","","","prac","","","","","",""
"718.0999999642372","101618","pSARL_v2","pSARL_v2ppdb619j","63bc9e8cd8106f8d94c636d4","rewardPractice","img/slot.png","74","","prac","","","","","",""
"null","102383","pSARL_v2","pSARL_v2ppdb619j","63bc9e8cd8106f8d94c636d4","feedback","<div class=""veryhighPoints""> +15 </div>","null","na","prac","","","","","",""
"null","102551","pSARL_v2","pSARL_v2ppdb619j","63bc9e8cd8106f8d94c636d4","fixation","img/fixation.png","null","","prac","","","","","",""
"7204.400000035763","109759","pSARL_v2","pSARL_v2ppdb619j","63bc9e8cd8106f8d94c636d4","","","","","prac","","","","","",""
"704.1999999880791","110467","pSARL_v2","pSARL_v2ppdb619j","63bc9e8cd8106f8d94c636d4","freq","img/orange_2bandit_a2.png","70","70","test","1","1","1","1","",""
"null","110574","pSARL_v2","pSARL_v2ppdb619j","63bc9e8cd8106f8d94c636d4","freq_resp","img/orange_2bandit_a.png","70","70","test","","","","1","",""
"null","110733","pSARL_v2","pSARL_v2ppdb619j","63bc9e8cd8106f8d94c636d4","fixation","img/fixation.png","null","","test","","","","","",""
"487.4000000357628","111224","pSARL_v2","pSARL_v2ppdb619j","63bc9e8cd8106f8d94c636d4","freq","img/orange_2bandit_a2.png","70","70","test","1","2","2","1","",""
"null","111550","pSARL_v2","pSARL_v2ppdb619j","63bc9e8cd8106f8d94c636d4","freq_resp","img/orange_2bandit_a.png","70","70","test","","","","1","",""
"null","111708","pSARL_v2","pSARL_v2ppdb619j","63bc9e8cd8106f8d94c636d4","fixation","img/fixation.png","null","","test","","","","","",""
"377.69999998807907","112089","pSARL_v2","pSARL_v2ppdb619j","63bc9e8cd8106f8d94c636d4","infreq","img/green_2bandit_a2.png","68","68","test","1","3","3","1","",""
"null","112524","pSARL_v2","pSARL_v2ppdb619j","63bc9e8cd8106f8d94c636d4","infreq_resp","img/green_2bandit_a.png","68","68","test","","","","1","",""
"null","112686","pSARL_v2","pSARL_v2ppdb619j","63bc9e8cd8106f8d94c636d4","fixation","img/fixation.png","null","","test","","","","","",""
"365.60000002384186","113055","pSARL_v2","pSARL_v2ppdb619j","63bc9e8cd8106f8d94c636d4","freq","img/orange_2bandit_a2.png","68","70","test","0","4","4","1","",""
"null","113500","pSARL_v2","pSARL_v2ppdb619j","63bc9e8cd8106f8d94c636d4","freq_resp","img/orange_2bandit_a.png","68","70","test","","","","1","",""
"null","113662","pSARL_v2","pSARL_v2ppdb619j","63bc9e8cd8106f8d94c636d4","fixation","img/fixation.png","null","","test","","","","","",""
"476.39999997615814","114142","pSARL_v2","pSARL_v2ppdb619j","63bc9e8cd8106f8d94c636d4","freq","img/orange_2bandit_a2.png","70","70","test","1","5","5","1","",""
"null","114476","pSARL_v2","pSARL_v2ppdb619j","63bc9e8cd8106f8d94c636d4","freq_resp","img/orange_2bandit_a.png","70","70","test","","","","1","",""
"null","114632","pSARL_v2","pSARL_v2ppdb619j","63bc9e8cd8106f8d94c636d4","fixation","img/fixation.png","null","","test","","","","","",""
"441.80000001192093","115077","pSARL_v2","pSARL_v2ppdb619j","63bc9e8cd8106f8d94c636d4","freq","img/orange_2bandit_a2.png","70","70","test","1","6","6","1","",""
"null","115446","pSARL_v2","pSARL_v2ppdb619j","63bc9e8cd8106f8d94c636d4","freq_resp","img/orange_2bandit_a.png","70","70","test","","","","1","",""
"null","115606","pSARL_v2","pSARL_v2ppdb619j","63bc9e8cd8106f8d94c636d4","fixation","img/fixation.png","null","","test","","","","","",""
"383.30000001192093","115993","pSARL_v2","pSARL_v2ppdb619j","63bc9e8cd8106f8d94c636d4","freq","img/orange_2bandit_a2.png","70","70","test","1","7","7","1","",""
"null","116419","pSARL_v2","pSARL_v2ppdb619j","63bc9e8cd8106f8d94c636d4","freq_resp","img/orange_2bandit_a.png","70","70","test","","","","1","",""
"null","116583","pSARL_v2","pSARL_v2ppdb619j","63bc9e8cd8106f8d94c636d4","fixation","img/fixation.png","null","","test","","","","","",""
"369.5","116956","pSARL_v2","pSARL_v2ppdb619j","63bc9e8cd8106f8d94c636d4","freq","img/orange_2bandit_a2.png","70","70","test","1","8","8","1","",""
"null","117398","pSARL_v2","pSARL_v2ppdb619j","63bc9e8cd8106f8d94c636d4","freq_resp","img/orange_2bandit_a.png","70","70","test","","","","1","",""
"null","117557","pSARL_v2","pSARL_v2ppdb619j","63bc9e8cd8106f8d94c636d4","fixation","img/fixation.png","null","","test","","","","","",""
"341.30000001192093","117902","pSARL_v2","pSARL_v2ppdb619j","63bc9e8cd8106f8d94c636d4","freq","img/orange_2bandit_a2.png","70","70","test","1","9","9","1","",""
"null","118373","pSARL_v2","pSARL_v2ppdb619j","63bc9e8cd8106f8d94c636d4","freq_resp","img/orange_2bandit_a.png","70","70","test","","","","1","",""
"null","118534","pSARL_v2","pSARL_v2ppdb619j","63bc9e8cd8106f8d94c636d4","fixation","img/fixation.png","null","","test","","","","","",""
"405.69999998807907","118944","pSARL_v2","pSARL_v2ppdb619j","63bc9e8cd8106f8d94c636d4","freq","img/orange_2bandit_a2.png","70","70","test","1","10","10","1","",""
"null","119349","pSARL_v2","pSARL_v2ppdb619j","63bc9e8cd8106f8d94c636d4","freq_resp","img/orange_2bandit_a.png","70","70","test","","","","1","",""
"null","119507","pSARL_v2","pSARL_v2ppdb619j","63bc9e8cd8106f8d94c636d4","fixation","img/fixation.png","null","","test","","","","","",""
"337.5","119848","pSARL_v2","pSARL_v2ppdb619j","63bc9e8cd8106f8d94c636d4","freq","img/orange_2bandit_a2.png","70","70","test","1","11","11","1","",""
"null","120324","pSARL_v2","pSARL_v2ppdb619j","63bc9e8cd8106f8d94c636d4","freq_resp","img/orange_2bandit_a.png","70","70","test","","","","1","",""
"null","120482","pSARL_v2","pSARL_v2ppdb619j","63bc9e8cd8106f8d94c636d4","fixation","img/fixation.png","null","","test","","","","","",""
"370.80000001192093","120857","pSARL_v2","pSARL_v2ppdb619j","63bc9e8cd8106f8d94c636d4","freq","img/orange_2bandit_a2.png","70","70","test","1","12","12","1","",""
"null","121300","pSARL_v2","pSARL_v2ppdb619j","63bc9e8cd8106f8d94c636d4","freq_resp","img/orange_2bandit_a.png","70","70","test","","","","1","",""
"null","121461","pSARL_v2","pSARL_v2ppdb619j","63bc9e8cd8106f8d94c636d4","fixation","img/fixation.png","null","","test","","","","","",""
"460.5","121925","pSARL_v2","pSARL_v2ppdb619j","63bc9e8cd8106f8d94c636d4","infreq","img/green_2bandit_a2.png","68","68","test","1","13","13","1","",""
"null","122271","pSARL_v2","pSARL_v2ppdb619j","63bc9e8cd8106f8d94c636d4","infreq_resp","img/green_2bandit_a.png","68","68","test","","","","1","",""
"null","122436","pSARL_v2","pSARL_v2ppdb619j","63bc9e8cd8106f8d94c636d4","fixation","img/fixation.png","null","","test","","","","","",""
"541.3000000119209","122980","pSARL_v2","pSARL_v2ppdb619j","63bc9e8cd8106f8d94c636d4","freq","img/orange_2bandit_a2.png","70","70","test","1","14","14","1","",""
"null","123250","pSARL_v2","pSARL_v2ppdb619j","63bc9e8cd8106f8d94c636d4","freq_resp","img/orange_2bandit_a.png","70","70","test","","","","1","",""
"null","123414","pSARL_v2","pSARL_v2ppdb619j","63bc9e8cd8106f8d94c636d4","fixation","img/fixation.png","null","","test","","","","","",""
"405.69999998807907","123823","pSARL_v2","pSARL_v2ppdb619j","63bc9e8cd8106f8d94c636d4","freq","img/orange_2bandit_a2.png","70","70","test","1","15","15","1","",""
"null","124230","pSARL_v2","pSARL_v2ppdb619j","63bc9e8cd8106f8d94c636d4","freq_resp","img/orange_2bandit_a.png","70","70","test","","","","1","",""
"null","124391","pSARL_v2","pSARL_v2ppdb619j","63bc9e8cd8106f8d94c636d4","fixation","img/fixation.png","null","","test","","","","","",""
"398.4000000357628","124792","pSARL_v2","pSARL_v2ppdb619j","63bc9e8cd8106f8d94c636d4","freq","img/orange_2bandit_a2.png","70","70","test","1","16","16","1","",""
"null","125205","pSARL_v2","pSARL_v2ppdb619j","63bc9e8cd8106f8d94c636d4","freq_resp","img/orange_2bandit_a.png","70","70","test","","","","1","",""
"null","125365","pSARL_v2","pSARL_v2ppdb619j","63bc9e8cd8106f8d94c636d4","fixation","img/fixation.png","null","","test","","","","","",""
"392.9000000357628","125761","pSARL_v2","pSARL_v2ppdb619j","63bc9e8cd8106f8d94c636d4","freq","img/orange_2bandit_a2.png","70","70","test","1","17","17","1","",""
"null","126184","pSARL_v2","pSARL_v2ppdb619j","63bc9e8cd8106f8d94c636d4","freq_resp","img/orange_2bandit_a.png","70","70","test","","","","1","",""
"null","126351","pSARL_v2","pSARL_v2ppdb619j","63bc9e8cd8106f8d94c636d4","fixation","img/fixation.png","null","","test","","","","","",""
"389","126743","pSARL_v2","pSARL_v2ppdb619j","63bc9e8cd8106f8d94c636d4","freq","img/orange_2bandit_a2.png","70","70","test","1","18","18","1","",""
"null","127167","pSARL_v2","pSARL_v2ppdb619j","63bc9e8cd8106f8d94c636d4","freq_resp","img/orange_2bandit_a.png","70","70","test","","","","1","",""
"null","127334","pSARL_v2","pSARL_v2ppdb619j","63bc9e8cd8106f8d94c636d4","fixation","img/fixation.png","null","","test","","","","","",""
"346.5","127684","pSARL_v2","pSARL_v2ppdb619j","63bc9e8cd8106f8d94c636d4","freq","img/orange_2bandit_a2.png","70","70","test","1","19","19","1","",""
"null","128149","pSARL_v2","pSARL_v2ppdb619j","63bc9e8cd8106f8d94c636d4","freq_resp","img/orange_2bandit_a.png","70","70","test","","","","1","",""
"null","128308","pSARL_v2","pSARL_v2ppdb619j","63bc9e8cd8106f8d94c636d4","fixation","img/fixation.png","null","","test","","","","","",""
"503.19999998807907","128815","pSARL_v2","pSARL_v2ppdb619j","63bc9e8cd8106f8d94c636d4","reward","img/slot.png","74","","test","","","","","",""
"null","129574","pSARL_v2","pSARL_v2ppdb619j","63bc9e8cd8106f8d94c636d4","points","<div class=""verylowPoints""> -6 </div>","null","na","test","","","","1","-6","0"
"null","130391","pSARL_v2","pSARL_v2ppdb619j","63bc9e8cd8106f8d94c636d4","freq","img/orange_2bandit_a2.png","null","70","test","0","20","20","2","",""
"null","130553","pSARL_v2","pSARL_v2ppdb619j","63bc9e8cd8106f8d94c636d4","fixation","img/fixation.png","null","","test","","","","","",""
"260.89999997615814","130817","pSARL_v2","pSARL_v2ppdb619j","63bc9e8cd8106f8d94c636d4","freq","img/orange_2bandit_a2.png","70","70","test","1","21","21","2","",""
"null","131361","pSARL_v2","pSARL_v2ppdb619j","63bc9e8cd8106f8d94c636d4","freq_resp","img/orange_2bandit_a.png","70","70","test","","","","2","",""
"null","131523","pSARL_v2","pSARL_v2ppdb619j","63bc9e8cd8106f8d94c636d4","fixation","img/fixation.png","null","","test","","","","","",""
"441.7000000476837","131969","pSARL_v2","pSARL_v2ppdb619j","63bc9e8cd8106f8d94c636d4","freq","img/orange_2bandit_a2.png","70","70","test","1","22","22","2","",""
"null","132340","pSARL_v2","pSARL_v2ppdb619j","63bc9e8cd8106f8d94c636d4","freq_resp","img/orange_2bandit_a.png","70","70","test","","","","2","",""
"null","132502","pSARL_v2","pSARL_v2ppdb619j","63bc9e8cd8106f8d94c636d4","fixation","img/fixation.png","null","","test","","","","","",""
"378.69999998807907","132884","pSARL_v2","pSARL_v2ppdb619j","63bc9e8cd8106f8d94c636d4","freq","img/orange_2bandit_a2.png","70","70","test","1","23","23","2","",""
"null","133320","pSARL_v2","pSARL_v2ppdb619j","63bc9e8cd8106f8d94c636d4","freq_resp","img/orange_2bandit_a.png","70","70","test","","","","2","",""
"null","133483","pSARL_v2","pSARL_v2ppdb619j","63bc9e8cd8106f8d94c636d4","fixation","img/fixation.png","null","","test","","","","","",""
"463.5","133950","pSARL_v2","pSARL_v2ppdb619j","63bc9e8cd8106f8d94c636d4","freq","img/orange_2bandit_a2.png","70","70","test","1","24","24","2","",""
"null","134294","pSARL_v2","pSARL_v2ppdb619j","63bc9e8cd8106f8d94c636d4","freq_resp","img/orange_2bandit_a.png","70","70","test","","","","2","",""
"null","134451","pSARL_v2","pSARL_v2ppdb619j","63bc9e8cd8106f8d94c636d4","fixation","img/fixation.png","null","","test","","","","","",""
"401.19999998807907","134856","pSARL_v2","pSARL_v2ppdb619j","63bc9e8cd8106f8d94c636d4","freq","img/orange_2bandit_a2.png","70","70","test","1","25","25","2","",""
"null","135268","pSARL_v2","pSARL_v2ppdb619j","63bc9e8cd8106f8d94c636d4","freq_resp","img/orange_2bandit_a.png","70","70","test","","","","2","",""
"null","135426","pSARL_v2","pSARL_v2ppdb619j","63bc9e8cd8106f8d94c636d4","fixation","img/fixation.png","null","","test","","","","","",""
"450.80000001192093","135880","pSARL_v2","pSARL_v2ppdb619j","63bc9e8cd8106f8d94c636d4","freq","img/orange_2bandit_a2.png","70","70","test","1","26","26","2","",""
"null","136236","pSARL_v2","pSARL_v2ppdb619j","63bc9e8cd8106f8d94c636d4","freq_resp","img/orange_2bandit_a.png","70","70","test","","","","2","",""
"null","136391","pSARL_v2","pSARL_v2ppdb619j","63bc9e8cd8106f8d94c636d4","fixation","img/fixation.png","null","","test","","","","","",""
"421.30000001192093","136815","pSARL_v2","pSARL_v2ppdb619j","63bc9e8cd8106f8d94c636d4","freq","img/orange_2bandit_a2.png","70","70","test","1","27","27","2","",""
"null","137207","pSARL_v2","pSARL_v2ppdb619j","63bc9e8cd8106f8d94c636d4","freq_resp","img/orange_2bandit_a.png","70","70","test","","","","2","",""
"null","137363","pSARL_v2","pSARL_v2ppdb619j","63bc9e8cd8106f8d94c636d4","fixation","img/fixation.png","null","","test","","","","","",""
"413.39999997615814","137780","pSARL_v2","pSARL_v2ppdb619j","63bc9e8cd8106f8d94c636d4","freq","img/orange_2bandit_a2.png","70","70","test","1","28","28","2","",""
"null","138175","pSARL_v2","pSARL_v2ppdb619j","63bc9e8cd8106f8d94c636d4","freq_resp","img/orange_2bandit_a.png","70","70","test","","","","2","",""
"null","138334","pSARL_v2","pSARL_v2ppdb619j","63bc9e8cd8106f8d94c636d4","fixation","img/fixation.png","null","","test","","","","","",""
"345.5","138685","pSARL_v2","pSARL_v2ppdb619j","63bc9e8cd8106f8d94c636d4","freq","img/orange_2bandit_a2.png","70","70","test","1","29","29","2","",""
"null","139150","pSARL_v2","pSARL_v2ppdb619j","63bc9e8cd8106f8d94c636d4","freq_resp","img/orange_2bandit_a.png","70","70","test","","","","2","",""
"null","139310","pSARL_v2","pSARL_v2ppdb619j","63bc9e8cd8106f8d94c636d4","fixation","img/fixation.png","null","","test","","","","","",""
"365.69999998807907","139679","pSARL_v2","pSARL_v2ppdb619j","63bc9e8cd8106f8d94c636d4","freq","img/orange_2bandit_a2.png","70","70","test","1","30","30","2","",""
"null","140124","pSARL_v2","pSARL_v2ppdb619j","63bc9e8cd8106f8d94c636d4","freq_resp","img/orange_2bandit_a.png","70","70","test","","","","2","",""
"null","140286","pSARL_v2","pSARL_v2ppdb619j","63bc9e8cd8106f8d94c636d4","fixation","img/fixation.png","null","","test","","","","","",""
"407.69999998807907","140697","pSARL_v2","pSARL_v2ppdb619j","63bc9e8cd8106f8d94c636d4","freq","img/orange_2bandit_a2.png","70","70","test","1","31","31","2","",""
"null","141098","pSARL_v2","pSARL_v2ppdb619j","63bc9e8cd8106f8d94c636d4","freq_resp","img/orange_2bandit_a.png","70","70","test","","","","2","",""
"null","141261","pSARL_v2","pSARL_v2ppdb619j","63bc9e8cd8106f8d94c636d4","fixation","img/fixation.png","null","","test","","","","","",""
"386.39999997615814","141651","pSARL_v2","pSARL_v2ppdb619j","63bc9e8cd8106f8d94c636d4","freq","img/orange_2bandit_a2.png","70","70","test","1","32","32","2","",""
"null","142075","pSARL_v2","pSARL_v2ppdb619j","63bc9e8cd8106f8d94c636d4","freq_resp","img/orange_2bandit_a.png","70","70","test","","","","2","",""
"null","142237","pSARL_v2","pSARL_v2ppdb619j","63bc9e8cd8106f8d94c636d4","fixation","img/fixation.png","null","","test","","","","","",""
"643.6999999880791","142884","pSARL_v2","pSARL_v2ppdb619j","63bc9e8cd8106f8d94c636d4","infreq","img/green_2bandit_a2.png","70","68","test","0","33","33","2","",""
"null","143047","pSARL_v2","pSARL_v2ppdb619j","63bc9e8cd8106f8d94c636d4","infreq_resp","img/green_2bandit_a.png","70","68","test","","","","2","",""
"null","143203","pSARL_v2","pSARL_v2ppdb619j","63bc9e8cd8106f8d94c636d4","fixation","img/fixation.png","null","","test","","","","","",""
"626.5","143833","pSARL_v2","pSARL_v2ppdb619j","63bc9e8cd8106f8d94c636d4","freq","img/orange_2bandit_a2.png","70","70","test","1","34","34","2","",""
"null","144022","pSARL_v2","pSARL_v2ppdb619j","63bc9e8cd8106f8d94c636d4","freq_resp","img/orange_2bandit_a.png","70","70","test","","","","2","",""
"null","144185","pSARL_v2","pSARL_v2ppdb619j","63bc9e8cd8106f8d94c636d4","fixation","img/fixation.png","null","","test","","","","","",""
"627.5","144816","pSARL_v2","pSARL_v2ppdb619j","63bc9e8cd8106f8d94c636d4","freq","img/orange_2bandit_a2.png","70","70","test","1","35","35","2","",""
"null","144997","pSARL_v2","pSARL_v2ppdb619j","63bc9e8cd8106f8d94c636d4","freq_resp","img/orange_2bandit_a.png","70","70","test","","","","2","",""
"null","145156","pSARL_v2","pSARL_v2ppdb619j","63bc9e8cd8106f8d94c636d4","fixation","img/fixation.png","null","","test","","","","","",""
"473.4000000357628","145633","pSARL_v2","pSARL_v2ppdb619j","63bc9e8cd8106f8d94c636d4","freq","img/orange_2bandit_a2.png","70","70","test","1","36","36","2","",""
"null","145974","pSARL_v2","pSARL_v2ppdb619j","63bc9e8cd8106f8d94c636d4","freq_resp","img/orange_2bandit_a.png","70","70","test","","","","2","",""
"null","146136","pSARL_v2","pSARL_v2ppdb619j","63bc9e8cd8106f8d94c636d4","fixation","img/fixation.png","null","","test","","","","","",""
"377.30000001192093","146517","pSARL_v2","pSARL_v2ppdb619j","63bc9e8cd8106f8d94c636d4","freq","img/orange_2bandit_a2.png","70","70","test","1","37","37","2","",""
"null","146951","pSARL_v2","pSARL_v2ppdb619j","63bc9e8cd8106f8d94c636d4","freq_resp","img/orange_2bandit_a.png","70","70","test","","","","2","",""
"null","147110","pSARL_v2","pSARL_v2ppdb619j","63bc9e8cd8106f8d94c636d4","fixation","img/fixation.png","null","","test","","","","","",""
"555.6000000238419","147669","pSARL_v2","pSARL_v2ppdb619j","63bc9e8cd8106f8d94c636d4","infreq","img/green_2bandit_a2.png","68","68","test","1","38","38","2","",""
"null","147923","pSARL_v2","pSARL_v2ppdb619j","63bc9e8cd8106f8d94c636d4","infreq_resp","img/green_2bandit_a.png","68","68","test","","","","2","",""
"null","148084","pSARL_v2","pSARL_v2ppdb619j","63bc9e8cd8106f8d94c636d4","fixation","img/fixation.png","null","","test","","","","","",""
"491","148579","pSARL_v2","pSARL_v2ppdb619j","63bc9e8cd8106f8d94c636d4","freq","img/orange_2bandit_a2.png","70","70","test","1","39","39","2","",""
"null","148902","pSARL_v2","pSARL_v2ppdb619j","63bc9e8cd8106f8d94c636d4","freq_resp","img/orange_2bandit_a.png","70","70","test","","","","2","",""
"null","149060","pSARL_v2","pSARL_v2ppdb619j","63bc9e8cd8106f8d94c636d4","fixation","img/fixation.png","null","","test","","","","","",""
"380.2999999523163","149444","pSARL_v2","pSARL_v2ppdb619j","63bc9e8cd8106f8d94c636d4","freq","img/orange_2bandit_a2.png","70","70","test","1","40","40","2","",""
"null","149881","pSARL_v2","pSARL_v2ppdb619j","63bc9e8cd8106f8d94c636d4","freq_resp","img/orange_2bandit_a.png","70","70","test","","","","2","",""
"null","150045","pSARL_v2","pSARL_v2ppdb619j","63bc9e8cd8106f8d94c636d4","fixation","img/fixation.png","null","","test","","","","","",""
"394.69999998807907","150443","pSARL_v2","pSARL_v2ppdb619j","63bc9e8cd8106f8d94c636d4","freq","img/orange_2bandit_a2.png","70","70","test","1","41","41","2","",""
"null","150861","pSARL_v2","pSARL_v2ppdb619j","63bc9e8cd8106f8d94c636d4","freq_resp","img/orange_2bandit_a.png","70","70","test","","","","2","",""
"null","151024","pSARL_v2","pSARL_v2ppdb619j","63bc9e8cd8106f8d94c636d4","fixation","img/fixation.png","null","","test","","","","","",""
"349.19999998807907","151377","pSARL_v2","pSARL_v2ppdb619j","63bc9e8cd8106f8d94c636d4","freq","img/orange_2bandit_a2.png","70","70","test","1","42","42","2","",""
"null","151833","pSARL_v2","pSARL_v2ppdb619j","63bc9e8cd8106f8d94c636d4","freq_resp","img/orange_2bandit_a.png","70","70","test","","","","2","",""
"null","152001","pSARL_v2","pSARL_v2ppdb619j","63bc9e8cd8106f8d94c636d4","fixation","img/fixation.png","null","","test","","","","","",""
"348.80000001192093","152353","pSARL_v2","pSARL_v2ppdb619j","63bc9e8cd8106f8d94c636d4","freq","img/orange_2bandit_a2.png","70","70","test","1","43","43","2","",""
"null","152814","pSARL_v2","pSARL_v2ppdb619j","63bc9e8cd8106f8d94c636d4","freq_resp","img/orange_2bandit_a.png","70","70","test","","","","2","",""
"null","152975","pSARL_v2","pSARL_v2ppdb619j","63bc9e8cd8106f8d94c636d4","fixation","img/fixation.png","null","","test","","","","","",""
"419.9000000357628","153399","pSARL_v2","pSARL_v2ppdb619j","63bc9e8cd8106f8d94c636d4","freq","img/orange_2bandit_a2.png","70","70","test","1","44","44","2","",""
"null","153792","pSARL_v2","pSARL_v2ppdb619j","63bc9e8cd8106f8d94c636d4","freq_resp","img/orange_2bandit_a.png","70","70","test","","","","2","",""
"null","153950","pSARL_v2","pSARL_v2ppdb619j","63bc9e8cd8106f8d94c636d4","fixation","img/fixation.png","null","","test","","","","","",""
"431.0999999642372","154384","pSARL_v2","pSARL_v2ppdb619j","63bc9e8cd8106f8d94c636d4","freq","img/orange_2bandit_a2.png","70","70","test","1","45","45","2","",""
"null","154767","pSARL_v2","pSARL_v2ppdb619j","63bc9e8cd8106f8d94c636d4","freq_resp","img/orange_2bandit_a.png","70","70","test","","","","2","",""
"null","154924","pSARL_v2","pSARL_v2ppdb619j","63bc9e8cd8106f8d94c636d4","fixation","img/fixation.png","null","","test","","","","","",""
"499.30000001192093","155427","pSARL_v2","pSARL_v2ppdb619j","63bc9e8cd8106f8d94c636d4","reward","img/slot.png","74","","test","","","","","",""
"null","156191","pSARL_v2","pSARL_v2ppdb619j","63bc9e8cd8106f8d94c636d4","points","<div class=""verylowPoints""> -11 </div>","null","na","test","","","","2","-11","1"
"null","157004","pSARL_v2","pSARL_v2ppdb619j","63bc9e8cd8106f8d94c636d4","freq","img/orange_2bandit_a2.png","null","70","test","0","46","46","3","",""
"null","157165","pSARL_v2","pSARL_v2ppdb619j","63bc9e8cd8106f8d94c636d4","fixation","img/fixation.png","null","","test","","","","","",""
"50","157218","pSARL_v2","pSARL_v2ppdb619j","63bc9e8cd8106f8d94c636d4","freq","img/orange_2bandit_a2.png","70","70","test","1","47","47","3","",""
"null","157985","pSARL_v2","pSARL_v2ppdb619j","63bc9e8cd8106f8d94c636d4","freq_resp","img/orange_2bandit_a.png","70","70","test","","","","3","",""
"null","158152","pSARL_v2","pSARL_v2ppdb619j","63bc9e8cd8106f8d94c636d4","fixation","img/fixation.png","null","","test","","","","","",""
"306.9000000357628","158462","pSARL_v2","pSARL_v2ppdb619j","63bc9e8cd8106f8d94c636d4","freq","img/orange_2bandit_a2.png","70","70","test","1","48","48","3","",""
"null","158967","pSARL_v2","pSARL_v2ppdb619j","63bc9e8cd8106f8d94c636d4","freq_resp","img/orange_2bandit_a.png","70","70","test","","","","3","",""
"null","159122","pSARL_v2","pSARL_v2ppdb619j","63bc9e8cd8106f8d94c636d4","fixation","img/fixation.png","null","","test","","","","","",""
"49.60000002384186","159176","pSARL_v2","pSARL_v2ppdb619j","63bc9e8cd8106f8d94c636d4","freq","img/orange_2bandit_a2.png","70","70","test","1","49","49","3","",""
"null","159940","pSARL_v2","pSARL_v2ppdb619j","63bc9e8cd8106f8d94c636d4","freq_resp","img/orange_2bandit_a.png","70","70","test","","","","3","",""
"null","160100","pSARL_v2","pSARL_v2ppdb619j","63bc9e8cd8106f8d94c636d4","fixation","img/fixation.png","null","","test","","","","","",""
"377.5999999642372","160481","pSARL_v2","pSARL_v2ppdb619j","63bc9e8cd8106f8d94c636d4","freq","img/orange_2bandit_a2.png","70","70","test","1","50","50","3","",""
"null","160917","pSARL_v2","pSARL_v2ppdb619j","63bc9e8cd8106f8d94c636d4","freq_resp","img/orange_2bandit_a.png","70","70","test","","","","3","",""
"null","161077","pSARL_v2","pSARL_v2ppdb619j","63bc9e8cd8106f8d94c636d4","fixation","img/fixation.png","null","","test","","","","","",""
"513.4000000357628","161593","pSARL_v2","pSARL_v2ppdb619j","63bc9e8cd8106f8d94c636d4","infreq","img/green_2bandit_a2.png","68","68","test","1","51","51","3","",""
"null","161895","pSARL_v2","pSARL_v2ppdb619j","63bc9e8cd8106f8d94c636d4","infreq_resp","img/green_2bandit_a.png","68","68","test","","","","3","",""
"null","162051","pSARL_v2","pSARL_v2ppdb619j","63bc9e8cd8106f8d94c636d4","fixation","img/fixation.png","null","","test","","","","","",""
"384.80000001192093","162439","pSARL_v2","pSARL_v2ppdb619j","63bc9e8cd8106f8d94c636d4","freq","img/orange_2bandit_a2.png","68","70","test","0","52","52","3","",""
"null","162863","pSARL_v2","pSARL_v2ppdb619j","63bc9e8cd8106f8d94c636d4","freq_resp","img/orange_2bandit_a.png","68","70","test","","","","3","",""
"null","163022","pSARL_v2","pSARL_v2ppdb619j","63bc9e8cd8106f8d94c636d4","fixation","img/fixation.png","null","","test","","","","","",""
"577.8999999761581","163604","pSARL_v2","pSARL_v2ppdb619j","63bc9e8cd8106f8d94c636d4","freq","img/orange_2bandit_a2.png","70","70","test","1","53","53","3","",""
"null","163837","pSARL_v2","pSARL_v2ppdb619j","63bc9e8cd8106f8d94c636d4","freq_resp","img/orange_2bandit_a.png","70","70","test","","","","3","",""
"null","163998","pSARL_v2","pSARL_v2ppdb619j","63bc9e8cd8106f8d94c636d4","fixation","img/fixation.png","null","","test","","","","","",""
"415.4000000357628","164418","pSARL_v2","pSARL_v2ppdb619j","63bc9e8cd8106f8d94c636d4","freq","img/orange_2bandit_a2.png","70","70","test","1","54","54","3","",""
"null","164807","pSARL_v2","pSARL_v2ppdb619j","63bc9e8cd8106f8d94c636d4","freq_resp","img/orange_2bandit_a.png","70","70","test","","","","3","",""
"null","164967","pSARL_v2","pSARL_v2ppdb619j","63bc9e8cd8106f8d94c636d4","fixation","img/fixation.png","null","","test","","","","","",""
"389.4000000357628","165360","pSARL_v2","pSARL_v2ppdb619j","63bc9e8cd8106f8d94c636d4","freq","img/orange_2bandit_a2.png","70","70","test","1","55","55","3","",""
"null","165783","pSARL_v2","pSARL_v2ppdb619j","63bc9e8cd8106f8d94c636d4","freq_resp","img/orange_2bandit_a.png","70","70","test","","","","3","",""
"null","165940","pSARL_v2","pSARL_v2ppdb619j","63bc9e8cd8106f8d94c636d4","fixation","img/fixation.png","null","","test","","","","","",""
"793.1000000238419","166737","pSARL_v2","pSARL_v2ppdb619j","63bc9e8cd8106f8d94c636d4","freq","img/orange_2bandit_a2.png","70","70","test","1","56","56","3","",""
"null","166748","pSARL_v2","pSARL_v2ppdb619j","63bc9e8cd8106f8d94c636d4","freq_resp","img/orange_2bandit_a.png","70","70","test","","","","3","",""
"null","166911","pSARL_v2","pSARL_v2ppdb619j","63bc9e8cd8106f8d94c636d4","fixation","img/fixation.png","null","","test","","","","","",""
"null","167725","pSARL_v2","pSARL_v2ppdb619j","63bc9e8cd8106f8d94c636d4","freq","img/orange_2bandit_a2.png","null","70","test","0","57","57","3","",""
"null","167885","pSARL_v2","pSARL_v2ppdb619j","63bc9e8cd8106f8d94c636d4","fixation","img/fixation.png","null","","test","","","","","",""
"320.30000001192093","168209","pSARL_v2","pSARL_v2ppdb619j","63bc9e8cd8106f8d94c636d4","freq","img/orange_2bandit_a2.png","70","70","test","1","58","58","3","",""
"null","168701","pSARL_v2","pSARL_v2ppdb619j","63bc9e8cd8106f8d94c636d4","freq_resp","img/orange_2bandit_a.png","70","70","test","","","","3","",""
"null","168864","pSARL_v2","pSARL_v2ppdb619j","63bc9e8cd8106f8d94c636d4","fixation","img/fixation.png","null","","test","","","","","",""
"593.6000000238419","169462","pSARL_v2","pSARL_v2ppdb619j","63bc9e8cd8106f8d94c636d4","freq","img/orange_2bandit_a2.png","70","70","test","1","59","59","3","",""
"null","169679","pSARL_v2","pSARL_v2ppdb619j","63bc9e8cd8106f8d94c636d4","freq_resp","img/orange_2bandit_a.png","70","70","test","","","","3","",""
"null","169835","pSARL_v2","pSARL_v2ppdb619j","63bc9e8cd8106f8d94c636d4","fixation","img/fixation.png","null","","test","","","","","",""
"451","170290","pSARL_v2","pSARL_v2ppdb619j","63bc9e8cd8106f8d94c636d4","freq","img/orange_2bandit_a2.png","70","70","test","1","60","60","3","",""
"null","170646","pSARL_v2","pSARL_v2ppdb619j","63bc9e8cd8106f8d94c636d4","freq_resp","img/orange_2bandit_a.png","70","70","test","","","","3","",""
"null","170802","pSARL_v2","pSARL_v2ppdb619j","63bc9e8cd8106f8d94c636d4","fixation","img/fixation.png","null","","test","","","","","",""
"524.8999999761581","171330","pSARL_v2","pSARL_v2ppdb619j","63bc9e8cd8106f8d94c636d4","infreq","img/green_2bandit_a2.png","68","68","test","1","61","61","3","",""
"null","171612","pSARL_v2","pSARL_v2ppdb619j","63bc9e8cd8106f8d94c636d4","infreq_resp","img/green_2bandit_a.png","68","68","test","","","","3","",""
"null","171774","pSARL_v2","pSARL_v2ppdb619j","63bc9e8cd8106f8d94c636d4","fixation","img/fixation.png","null","","test","","","","","",""
"450.5","172228","pSARL_v2","pSARL_v2ppdb619j","63bc9e8cd8106f8d94c636d4","freq","img/orange_2bandit_a2.png","70","70","test","1","62","62","3","",""
"null","172592","pSARL_v2","pSARL_v2ppdb619j","63bc9e8cd8106f8d94c636d4","freq_resp","img/orange_2bandit_a.png","70","70","test","","","","3","",""
"null","172752","pSARL_v2","pSARL_v2ppdb619j","63bc9e8cd8106f8d94c636d4","fixation","img/fixation.png","null","","test","","","","","",""
"411","173166","pSARL_v2","pSARL_v2ppdb619j","63bc9e8cd8106f8d94c636d4","freq","img/orange_2bandit_a2.png","70","70","test","1","63","63","3","",""
"null","173567","pSARL_v2","pSARL_v2ppdb619j","63bc9e8cd8106f8d94c636d4","freq_resp","img/orange_2bandit_a.png","70","70","test","","","","3","",""
"null","173728","pSARL_v2","pSARL_v2ppdb619j","63bc9e8cd8106f8d94c636d4","fixation","img/fixation.png","null","","test","","","","","",""
"426.69999998807907","174158","pSARL_v2","pSARL_v2ppdb619j","63bc9e8cd8106f8d94c636d4","freq","img/orange_2bandit_a2.png","70","70","test","1","64","64","3","",""
"null","174540","pSARL_v2","pSARL_v2ppdb619j","63bc9e8cd8106f8d94c636d4","freq_resp","img/orange_2bandit_a.png","70","70","test","","","","3","",""
"null","174702","pSARL_v2","pSARL_v2ppdb619j","63bc9e8cd8106f8d94c636d4","fixation","img/fixation.png","null","","test","","","","","",""
"402.39999997615814","175108","pSARL_v2","pSARL_v2ppdb619j","63bc9e8cd8106f8d94c636d4","freq","img/orange_2bandit_a2.png","70","70","test","1","65","65","3","",""
"null","175517","pSARL_v2","pSARL_v2ppdb619j","63bc9e8cd8106f8d94c636d4","freq_resp","img/orange_2bandit_a.png","70","70","test","","","","3","",""
"null","175682","pSARL_v2","pSARL_v2ppdb619j","63bc9e8cd8106f8d94c636d4","fixation","img/fixation.png","null","","test","","","","","",""
"418","176104","pSARL_v2","pSARL_v2ppdb619j","63bc9e8cd8106f8d94c636d4","freq","img/orange_2bandit_a2.png","70","70","test","1","66","66","3","",""
"null","176498","pSARL_v2","pSARL_v2ppdb619j","63bc9e8cd8106f8d94c636d4","freq_resp","img/orange_2bandit_a.png","70","70","test","","","","3","",""
"null","176663","pSARL_v2","pSARL_v2ppdb619j","63bc9e8cd8106f8d94c636d4","fixation","img/fixation.png","null","","test","","","","","",""
"908.8999999761581","177575","pSARL_v2","pSARL_v2ppdb619j","63bc9e8cd8106f8d94c636d4","reward","img/slot.png","74","","test","","","","","",""
"null","178335","pSARL_v2","pSARL_v2ppdb619j","63bc9e8cd8106f8d94c636d4","points","<div class=""verylowPoints""> -7 </div>","null","na","test","","","","3","-7","2"
"null","179151","pSARL_v2","pSARL_v2ppdb619j","63bc9e8cd8106f8d94c636d4","freq","img/orange_2bandit_a2.png","null","70","test","0","67","67","4","",""
"null","179313","pSARL_v2","pSARL_v2ppdb619j","63bc9e8cd8106f8d94c636d4","fixation","img/fixation.png","null","","test","","","","","",""
"332.89999997615814","179650","pSARL_v2","pSARL_v2ppdb619j","63bc9e8cd8106f8d94c636d4","freq","img/orange_2bandit_a2.png","70","70","test","1","68","68","4","",""
"null","180125","pSARL_v2","pSARL_v2ppdb619j","63bc9e8cd8106f8d94c636d4","freq_resp","img/orange_2bandit_a.png","70","70","test","","","","4","",""
"null","180288","pSARL_v2","pSARL_v2ppdb619j","63bc9e8cd8106f8d94c636d4","fixation","img/fixation.png","null","","test","","","","","",""
"512.6999999880791","180804","pSARL_v2","pSARL_v2ppdb619j","63bc9e8cd8106f8d94c636d4","freq","img/orange_2bandit_a2.png","70","70","test","1","69","69","4","",""
"null","181099","pSARL_v2","pSARL_v2ppdb619j","63bc9e8cd8106f8d94c636d4","freq_resp","img/orange_2bandit_a.png","70","70","test","","","","4","",""
"null","181265","pSARL_v2","pSARL_v2ppdb619j","63bc9e8cd8106f8d94c636d4","fixation","img/fixation.png","null","","test","","","","","",""
"373","181641","pSARL_v2","pSARL_v2ppdb619j","63bc9e8cd8106f8d94c636d4","freq","img/orange_2bandit_a2.png","70","70","test","1","70","70","4","",""
"null","182082","pSARL_v2","pSARL_v2ppdb619j","63bc9e8cd8106f8d94c636d4","freq_resp","img/orange_2bandit_a.png","70","70","test","","","","4","",""
"null","182247","pSARL_v2","pSARL_v2ppdb619j","63bc9e8cd8106f8d94c636d4","fixation","img/fixation.png","null","","test","","","","","",""
"361.5999999642372","182612","pSARL_v2","pSARL_v2ppdb619j","63bc9e8cd8106f8d94c636d4","freq","img/orange_2bandit_a2.png","70","70","test","1","71","71","4","",""
"null","183063","pSARL_v2","pSARL_v2ppdb619j","63bc9e8cd8106f8d94c636d4","freq_resp","img/orange_2bandit_a.png","70","70","test","","","","4","",""
"null","183225","pSARL_v2","pSARL_v2ppdb619j","63bc9e8cd8106f8d94c636d4","fixation","img/fixation.png","null","","test","","","","","",""
"339.4000000357628","183567","pSARL_v2","pSARL_v2ppdb619j","63bc9e8cd8106f8d94c636d4","freq","img/orange_2bandit_a2.png","70","70","test","1","72","72","4","",""
"null","184042","pSARL_v2","pSARL_v2ppdb619j","63bc9e8cd8106f8d94c636d4","freq_resp","img/orange_2bandit_a.png","70","70","test","","","","4","",""
"null","184209","pSARL_v2","pSARL_v2ppdb619j","63bc9e8cd8106f8d94c636d4","fixation","img/fixation.png","null","","test","","","","","",""
"398.10000002384186","184610","pSARL_v2","pSARL_v2ppdb619j","63bc9e8cd8106f8d94c636d4","freq","img/orange_2bandit_a2.png","70","70","test","1","73","73","4","",""
"null","185022","pSARL_v2","pSARL_v2ppdb619j","63bc9e8cd8106f8d94c636d4","freq_resp","img/orange_2bandit_a.png","70","70","test","","","","4","",""
"null","185180","pSARL_v2","pSARL_v2ppdb619j","63bc9e8cd8106f8d94c636d4","fixation","img/fixation.png","null","","test","","","","","",""
"330.89999997615814","185515","pSARL_v2","pSARL_v2ppdb619j","63bc9e8cd8106f8d94c636d4","freq","img/orange_2bandit_a2.png","70","70","test","1","74","74","4","",""
"null","185998","pSARL_v2","pSARL_v2ppdb619j","63bc9e8cd8106f8d94c636d4","freq_resp","img/orange_2bandit_a.png","70","70","test","","","","4","",""
"null","186155","pSARL_v2","pSARL_v2ppdb619j","63bc9e8cd8106f8d94c636d4","fixation","img/fixation.png","null","","test","","","","","",""
"393.5999999642372","186552","pSARL_v2","pSARL_v2ppdb619j","63bc9e8cd8106f8d94c636d4","freq","img/orange_2bandit_a2.png","70","70","test","1","75","75","4","",""
"null","186968","pSARL_v2","pSARL_v2ppdb619j","63bc9e8cd8106f8d94c636d4","freq_resp","img/orange_2bandit_a.png","70","70","test","","","","4","",""
"null","187131","pSARL_v2","pSARL_v2ppdb619j","63bc9e8cd8106f8d94c636d4","fixation","img/fixation.png","null","","test","","","","","",""
"546.6000000238419","187681","pSARL_v2","pSARL_v2ppdb619j","63bc9e8cd8106f8d94c636d4","infreq","img/green_2bandit_a2.png","68","68","test","1","76","76","4","",""
"null","187944","pSARL_v2","pSARL_v2ppdb619j","63bc9e8cd8106f8d94c636d4","infreq_resp","img/green_2bandit_a.png","68","68","test","","","","4","",""
"null","188103","pSARL_v2","pSARL_v2ppdb619j","63bc9e8cd8106f8d94c636d4","fixation","img/fixation.png","null","","test","","","","","",""
"498.80000001192093","188605","pSARL_v2","pSARL_v2ppdb619j","63bc9e8cd8106f8d94c636d4","freq","img/orange_2bandit_a2.png","70","70","test","1","77","77","4","",""
"null","188921","pSARL_v2","pSARL_v2ppdb619j","63bc9e8cd8106f8d94c636d4","freq_resp","img/orange_2bandit_a.png","70","70","test","","","","4","",""
"null","189079","pSARL_v2","pSARL_v2ppdb619j","63bc9e8cd8106f8d94c636d4","fixation","img/fixation.png","null","","test","","","","","",""
"629.5","189713","pSARL_v2","pSARL_v2ppdb619j","63bc9e8cd8106f8d94c636d4","infreq","img/green_2bandit_a2.png","68","68","test","1","78","78","4","",""
"null","189891","pSARL_v2","pSARL_v2ppdb619j","63bc9e8cd8106f8d94c636d4","infreq_resp","img/green_2bandit_a.png","68","68","test","","","","4","",""
"null","190047","pSARL_v2","pSARL_v2ppdb619j","63bc9e8cd8106f8d94c636d4","fixation","img/fixation.png","null","","test","","","","","",""
"624.7999999523163","190675","pSARL_v2","pSARL_v2ppdb619j","63bc9e8cd8106f8d94c636d4","freq","img/orange_2bandit_a2.png","70","70","test","1","79","79","4","",""
"null","190863","pSARL_v2","pSARL_v2ppdb619j","63bc9e8cd8106f8d94c636d4","freq_resp","img/orange_2bandit_a.png","70","70","test","","","","4","",""
"null","191022","pSARL_v2","pSARL_v2ppdb619j","63bc9e8cd8106f8d94c636d4","fixation","img/fixation.png","null","","test","","","","","",""
"730.5999999642372","191756","pSARL_v2","pSARL_v2ppdb619j","63bc9e8cd8106f8d94c636d4","freq","img/orange_2bandit_a2.png","70","70","test","1","80","80","4","",""
"null","191835","pSARL_v2","pSARL_v2ppdb619j","63bc9e8cd8106f8d94c636d4","freq_resp","img/orange_2bandit_a.png","70","70","test","","","","4","",""
"null","192002","pSARL_v2","pSARL_v2ppdb619j","63bc9e8cd8106f8d94c636d4","fixation","img/fixation.png","null","","test","","","","","",""
"431.80000001192093","192437","pSARL_v2","pSARL_v2ppdb619j","63bc9e8cd8106f8d94c636d4","freq","img/orange_2bandit_a2.png","70","70","test","1","81","81","4","",""
"null","192817","pSARL_v2","pSARL_v2ppdb619j","63bc9e8cd8106f8d94c636d4","freq_resp","img/orange_2bandit_a.png","70","70","test","","","","4","",""
"null","192977","pSARL_v2","pSARL_v2ppdb619j","63bc9e8cd8106f8d94c636d4","fixation","img/fixation.png","null","","test","","","","","",""
"421.5","193403","pSARL_v2","pSARL_v2ppdb619j","63bc9e8cd8106f8d94c636d4","freq","img/orange_2bandit_a2.png","70","70","test","1","82","82","4","",""
"null","193791","pSARL_v2","pSARL_v2ppdb619j","63bc9e8cd8106f8d94c636d4","freq_resp","img/orange_2bandit_a.png","70","70","test","","","","4","",""
"null","193953","pSARL_v2","pSARL_v2ppdb619j","63bc9e8cd8106f8d94c636d4","fixation","img/fixation.png","null","","test","","","","","",""
"433.10000002384186","194389","pSARL_v2","pSARL_v2ppdb619j","63bc9e8cd8106f8d94c636d4","freq","img/orange_2bandit_a2.png","70","70","test","1","83","83","4","",""
"null","194768","pSARL_v2","pSARL_v2ppdb619j","63bc9e8cd8106f8d94c636d4","freq_resp","img/orange_2bandit_a.png","70","70","test","","","","4","",""
"null","194931","pSARL_v2","pSARL_v2ppdb619j","63bc9e8cd8106f8d94c636d4","fixation","img/fixation.png","null","","test","","","","","",""
"356.5","195291","pSARL_v2","pSARL_v2ppdb619j","63bc9e8cd8106f8d94c636d4","freq","img/orange_2bandit_a2.png","70","70","test","1","84","84","4","",""
"null","195741","pSARL_v2","pSARL_v2ppdb619j","63bc9e8cd8106f8d94c636d4","freq_resp","img/orange_2bandit_a.png","70","70","test","","","","4","",""
"null","195904","pSARL_v2","pSARL_v2ppdb619j","63bc9e8cd8106f8d94c636d4","fixation","img/fixation.png","null","","test","","","","","",""
"390.80000001192093","196299","pSARL_v2","pSARL_v2ppdb619j","63bc9e8cd8106f8d94c636d4","freq","img/orange_2bandit_a2.png","70","70","test","1","85","85","4","",""
"null","196720","pSARL_v2","pSARL_v2ppdb619j","63bc9e8cd8106f8d94c636d4","freq_resp","img/orange_2bandit_a.png","70","70","test","","","","4","",""
"null","196883","pSARL_v2","pSARL_v2ppdb619j","63bc9e8cd8106f8d94c636d4","fixation","img/fixation.png","null","","test","","","","","",""
"533.0999999642372","197420","pSARL_v2","pSARL_v2ppdb619j","63bc9e8cd8106f8d94c636d4","freq","img/orange_2bandit_a2.png","70","70","test","1","86","86","4","",""
"null","197693","pSARL_v2","pSARL_v2ppdb619j","63bc9e8cd8106f8d94c636d4","freq_resp","img/orange_2bandit_a.png","70","70","test","","","","4","",""
"null","197854","pSARL_v2","pSARL_v2ppdb619j","63bc9e8cd8106f8d94c636d4","fixation","img/fixation.png","null","","test","","","","","",""
"490.30000001192093","198348","pSARL_v2","pSARL_v2ppdb619j","63bc9e8cd8106f8d94c636d4","infreq","img/green_2bandit_a2.png","68","68","test","1","87","87","4","",""
"null","198675","pSARL_v2","pSARL_v2ppdb619j","63bc9e8cd8106f8d94c636d4","infreq_resp","img/green_2bandit_a.png","68","68","test","","","","4","",""
"null","198841","pSARL_v2","pSARL_v2ppdb619j","63bc9e8cd8106f8d94c636d4","fixation","img/fixation.png","null","","test","","","","","",""
"455.30000001192093","199300","pSARL_v2","pSARL_v2ppdb619j","63bc9e8cd8106f8d94c636d4","freq","img/orange_2bandit_a2.png","70","70","test","1","88","88","4","",""
"null","199655","pSARL_v2","pSARL_v2ppdb619j","63bc9e8cd8106f8d94c636d4","freq_resp","img/orange_2bandit_a.png","70","70","test","","","","4","",""
"null","199814","pSARL_v2","pSARL_v2ppdb619j","63bc9e8cd8106f8d94c636d4","fixation","img/fixation.png","null","","test","","","","","",""
"371.5","200189","pSARL_v2","pSARL_v2ppdb619j","63bc9e8cd8106f8d94c636d4","freq","img/orange_2bandit_a2.png","70","70","test","1","89","89","4","",""
"null","200633","pSARL_v2","pSARL_v2ppdb619j","63bc9e8cd8106f8d94c636d4","freq_resp","img/orange_2bandit_a.png","70","70","test","","","","4","",""
"null","200801","pSARL_v2","pSARL_v2ppdb619j","63bc9e8cd8106f8d94c636d4","fixation","img/fixation.png","null","","test","","","","","",""
"766.1000000238419","201570","pSARL_v2","pSARL_v2ppdb619j","63bc9e8cd8106f8d94c636d4","reward","img/slot.png","74","","test","","","","","",""
"null","202334","pSARL_v2","pSARL_v2ppdb619j","63bc9e8cd8106f8d94c636d4","points","<div class=""verylowPoints""> -3 </div>","null","na","test","","","","4","-3","3"
"753.9000000357628","203093","pSARL_v2","pSARL_v2ppdb619j","63bc9e8cd8106f8d94c636d4","freq","img/orange_2bandit_a2.png","70","70","test","1","90","90","5","",""
"null","203149","pSARL_v2","pSARL_v2ppdb619j","63bc9e8cd8106f8d94c636d4","freq_resp","img/orange_2bandit_a.png","70","70","test","","","","5","",""
"null","203313","pSARL_v2","pSARL_v2ppdb619j","63bc9e8cd8106f8d94c636d4","fixation","img/fixation.png","null","","test","","","","","",""
"384.69999998807907","203701","pSARL_v2","pSARL_v2ppdb619j","63bc9e8cd8106f8d94c636d4","freq","img/orange_2bandit_a2.png","70","70","test","1","91","91","5","",""
"null","204130","pSARL_v2","pSARL_v2ppdb619j","63bc9e8cd8106f8d94c636d4","freq_resp","img/orange_2bandit_a.png","70","70","test","","","","5","",""
"null","204294","pSARL_v2","pSARL_v2ppdb619j","63bc9e8cd8106f8d94c636d4","fixation","img/fixation.png","null","","test","","","","","",""
"242.5","204540","pSARL_v2","pSARL_v2ppdb619j","63bc9e8cd8106f8d94c636d4","freq","img/orange_2bandit_a2.png","70","70","test","1","92","92","5","",""
"null","205110","pSARL_v2","pSARL_v2ppdb619j","63bc9e8cd8106f8d94c636d4","freq_resp","img/orange_2bandit_a.png","70","70","test","","","","5","",""
"null","205273","pSARL_v2","pSARL_v2ppdb619j","63bc9e8cd8106f8d94c636d4","fixation","img/fixation.png","null","","test","","","","","",""
"627.1999999880791","205904","pSARL_v2","pSARL_v2ppdb619j","63bc9e8cd8106f8d94c636d4","freq","img/orange_2bandit_a2.png","70","70","test","1","93","93","5","",""
"null","206084","pSARL_v2","pSARL_v2ppdb619j","63bc9e8cd8106f8d94c636d4","freq_resp","img/orange_2bandit_a.png","70","70","test","","","","5","",""
"null","206249","pSARL_v2","pSARL_v2ppdb619j","63bc9e8cd8106f8d94c636d4","fixation","img/fixation.png","null","","test","","","","","",""
"345.7000000476837","206598","pSARL_v2","pSARL_v2ppdb619j","63bc9e8cd8106f8d94c636d4","freq","img/orange_2bandit_a2.png","70","70","test","1","94","94","5","",""
"null","207063","pSARL_v2","pSARL_v2ppdb619j","63bc9e8cd8106f8d94c636d4","freq_resp","img/orange_2bandit_a.png","70","70","test","","","","5","",""
"null","207223","pSARL_v2","pSARL_v2ppdb619j","63bc9e8cd8106f8d94c636d4","fixation","img/fixation.png","null","","test","","","","","",""
"380.0999999642372","207607","pSARL_v2","pSARL_v2ppdb619j","63bc9e8cd8106f8d94c636d4","freq","img/orange_2bandit_a2.png","70","70","test","1","95","95","5","",""
"null","208040","pSARL_v2","pSARL_v2ppdb619j","63bc9e8cd8106f8d94c636d4","freq_resp","img/orange_2bandit_a.png","70","70","test","","","","5","",""
"null","208199","pSARL_v2","pSARL_v2ppdb619j","63bc9e8cd8106f8d94c636d4","fixation","img/fixation.png","null","","test","","","","","",""
"466.60000002384186","208669","pSARL_v2","pSARL_v2ppdb619j","63bc9e8cd8106f8d94c636d4","freq","img/orange_2bandit_a2.png","70","70","test","1","96","96","5","",""
"null","209014","pSARL_v2","pSARL_v2ppdb619j","63bc9e8cd8106f8d94c636d4","freq_resp","img/orange_2bandit_a.png","70","70","test","","","","5","",""
"null","209171","pSARL_v2","pSARL_v2ppdb619j","63bc9e8cd8106f8d94c636d4","fixation","img/fixation.png","null","","test","","","","","",""
"440.80000001192093","209617","pSARL_v2","pSARL_v2ppdb619j","63bc9e8cd8106f8d94c636d4","freq","img/orange_2bandit_a2.png","70","70","test","1","97","97","5","",""
"null","209994","pSARL_v2","pSARL_v2ppdb619j","63bc9e8cd8106f8d94c636d4","freq_resp","img/orange_2bandit_a.png","70","70","test","","","","5","",""
"null","210152","pSARL_v2","pSARL_v2ppdb619j","63bc9e8cd8106f8d94c636d4","fixation","img/fixation.png","null","","test","","","","","",""
"372.0999999642372","210527","pSARL_v2","pSARL_v2ppdb619j","63bc9e8cd8106f8d94c636d4","freq","img/orange_2bandit_a2.png","70","70","test","1","98","98","5","",""
"null","210967","pSARL_v2","pSARL_v2ppdb619j","63bc9e8cd8106f8d94c636d4","freq_resp","img/orange_2bandit_a.png","70","70","test","","","","5","",""
"null","211127","pSARL_v2","pSARL_v2ppdb619j","63bc9e8cd8106f8d94c636d4","fixation","img/fixation.png","null","","test","","","","","",""
"424.30000001192093","211555","pSARL_v2","pSARL_v2ppdb619j","63bc9e8cd8106f8d94c636d4","freq","img/orange_2bandit_a2.png","70","70","test","1","99","99","5","",""
"null","211943","pSARL_v2","pSARL_v2ppdb619j","63bc9e8cd8106f8d94c636d4","freq_resp","img/orange_2bandit_a.png","70","70","test","","","","5","",""
"null","212106","pSARL_v2","pSARL_v2ppdb619j","63bc9e8cd8106f8d94c636d4","fixation","img/fixation.png","null","","test","","","","","",""
"336.4000000357628","212446","pSARL_v2","pSARL_v2ppdb619j","63bc9e8cd8106f8d94c636d4","freq","img/orange_2bandit_a2.png","70","70","test","1","100","100","5","",""
"null","212916","pSARL_v2","pSARL_v2ppdb619j","63bc9e8cd8106f8d94c636d4","freq_resp","img/orange_2bandit_a.png","70","70","test","","","","5","",""
"null","213078","pSARL_v2","pSARL_v2ppdb619j","63bc9e8cd8106f8d94c636d4","fixation","img/fixation.png","null","","test","","","","","",""
"332.5","213414","pSARL_v2","pSARL_v2ppdb619j","63bc9e8cd8106f8d94c636d4","freq","img/orange_2bandit_a2.png","70","70","test","1","101","101","5","",""
"null","213894","pSARL_v2","pSARL_v2ppdb619j","63bc9e8cd8106f8d94c636d4","freq_resp","img/orange_2bandit_a.png","70","70","test","","","","5","",""
"null","214050","pSARL_v2","pSARL_v2ppdb619j","63bc9e8cd8106f8d94c636d4","fixation","img/fixation.png","null","","test","","","","","",""
"551.6999999880791","214605","pSARL_v2","pSARL_v2ppdb619j","63bc9e8cd8106f8d94c636d4","infreq","img/green_2bandit_a2.png","68","68","test","1","102","102","5","",""
"null","214862","pSARL_v2","pSARL_v2ppdb619j","63bc9e8cd8106f8d94c636d4","infreq_resp","img/green_2bandit_a.png","68","68","test","","","","5","",""
"null","215024","pSARL_v2","pSARL_v2ppdb619j","63bc9e8cd8106f8d94c636d4","fixation","img/fixation.png","null","","test","","","","","",""
"612","215640","pSARL_v2","pSARL_v2ppdb619j","63bc9e8cd8106f8d94c636d4","freq","img/orange_2bandit_a2.png","70","70","test","1","103","103","5","",""
"null","215840","pSARL_v2","pSARL_v2ppdb619j","63bc9e8cd8106f8d94c636d4","freq_resp","img/orange_2bandit_a.png","70","70","test","","","","5","",""
"null","216000","pSARL_v2","pSARL_v2ppdb619j","63bc9e8cd8106f8d94c636d4","fixation","img/fixation.png","null","","test","","","","","",""
"436","216440","pSARL_v2","pSARL_v2ppdb619j","63bc9e8cd8106f8d94c636d4","freq","img/orange_2bandit_a2.png","70","70","test","1","104","104","5","",""
"null","216817","pSARL_v2","pSARL_v2ppdb619j","63bc9e8cd8106f8d94c636d4","freq_resp","img/orange_2bandit_a.png","70","70","test","","","","5","",""
"null","216977","pSARL_v2","pSARL_v2ppdb619j","63bc9e8cd8106f8d94c636d4","fixation","img/fixation.png","null","","test","","","","","",""
"450.69999998807907","217432","pSARL_v2","pSARL_v2ppdb619j","63bc9e8cd8106f8d94c636d4","freq","img/orange_2bandit_a2.png","70","70","test","1","105","105","5","",""
"null","217790","pSARL_v2","pSARL_v2ppdb619j","63bc9e8cd8106f8d94c636d4","freq_resp","img/orange_2bandit_a.png","70","70","test","","","","5","",""
"null","217947","pSARL_v2","pSARL_v2ppdb619j","63bc9e8cd8106f8d94c636d4","fixation","img/fixation.png","null","","test","","","","","",""
"369.19999998807907","218320","pSARL_v2","pSARL_v2ppdb619j","63bc9e8cd8106f8d94c636d4","freq","img/orange_2bandit_a2.png","70","70","test","1","106","106","5","",""
"null","218756","pSARL_v2","pSARL_v2ppdb619j","63bc9e8cd8106f8d94c636d4","freq_resp","img/orange_2bandit_a.png","70","70","test","","","","5","",""
"null","218917","pSARL_v2","pSARL_v2ppdb619j","63bc9e8cd8106f8d94c636d4","fixation","img/fixation.png","null","","test","","","","","",""
"360.5","219281","pSARL_v2","pSARL_v2ppdb619j","63bc9e8cd8106f8d94c636d4","freq","img/orange_2bandit_a2.png","70","70","test","1","107","107","5","",""
"null","219732","pSARL_v2","pSARL_v2ppdb619j","63bc9e8cd8106f8d94c636d4","freq_resp","img/orange_2bandit_a.png","70","70","test","","","","5","",""
"null","219898","pSARL_v2","pSARL_v2ppdb619j","63bc9e8cd8106f8d94c636d4","fixation","img/fixation.png","null","","test","","","","","",""
"360.39999997615814","220261","pSARL_v2","pSARL_v2ppdb619j","63bc9e8cd8106f8d94c636d4","freq","img/orange_2bandit_a2.png","70","70","test","1","108","108","5","",""
"null","220706","pSARL_v2","pSARL_v2ppdb619j","63bc9e8cd8106f8d94c636d4","freq_resp","img/orange_2bandit_a.png","70","70","test","","","","5","",""
"null","220873","pSARL_v2","pSARL_v2ppdb619j","63bc9e8cd8106f8d94c636d4","fixation","img/fixation.png","null","","test","","","","","",""
"518.7000000476837","221395","pSARL_v2","pSARL_v2ppdb619j","63bc9e8cd8106f8d94c636d4","freq","img/orange_2bandit_a2.png","70","70","test","1","109","109","5","",""
"null","221686","pSARL_v2","pSARL_v2ppdb619j","63bc9e8cd8106f8d94c636d4","freq_resp","img/orange_2bandit_a.png","70","70","test","","","","5","",""
"null","221851","pSARL_v2","pSARL_v2ppdb619j","63bc9e8cd8106f8d94c636d4","fixation","img/fixation.png","null","","test","","","","","",""
"361","222215","pSARL_v2","pSARL_v2ppdb619j","63bc9e8cd8106f8d94c636d4","freq","img/orange_2bandit_a2.png","70","70","test","1","110","110","5","",""
"null","222666","pSARL_v2","pSARL_v2ppdb619j","63bc9e8cd8106f8d94c636d4","freq_resp","img/orange_2bandit_a.png","70","70","test","","","","5","",""
"null","222825","pSARL_v2","pSARL_v2ppdb619j","63bc9e8cd8106f8d94c636d4","fixation","img/fixation.png","null","","test","","","","","",""
"388.5","223216","pSARL_v2","pSARL_v2ppdb619j","63bc9e8cd8106f8d94c636d4","freq","img/orange_2bandit_a2.png","70","70","test","1","111","111","5","",""
"null","223633","pSARL_v2","pSARL_v2ppdb619j","63bc9e8cd8106f8d94c636d4","freq_resp","img/orange_2bandit_a.png","70","70","test","","","","5","",""
"null","223790","pSARL_v2","pSARL_v2ppdb619j","63bc9e8cd8106f8d94c636d4","fixation","img/fixation.png","null","","test","","","","","",""
"420.19999998807907","224215","pSARL_v2","pSARL_v2ppdb619j","63bc9e8cd8106f8d94c636d4","freq","img/orange_2bandit_a2.png","70","70","test","1","112","112","5","",""
"null","224606","pSARL_v2","pSARL_v2ppdb619j","63bc9e8cd8106f8d94c636d4","freq_resp","img/orange_2bandit_a.png","70","70","test","","","","5","",""
"null","224768","pSARL_v2","pSARL_v2ppdb619j","63bc9e8cd8106f8d94c636d4","fixation","img/fixation.png","null","","test","","","","","",""
"414.5","225187","pSARL_v2","pSARL_v2ppdb619j","63bc9e8cd8106f8d94c636d4","infreq","img/green_2bandit_a2.png","68","68","test","1","113","113","5","",""
"null","225583","pSARL_v2","pSARL_v2ppdb619j","63bc9e8cd8106f8d94c636d4","infreq_resp","img/green_2bandit_a.png","68","68","test","","","","5","",""
"null","225744","pSARL_v2","pSARL_v2ppdb619j","63bc9e8cd8106f8d94c636d4","fixation","img/fixation.png","null","","test","","","","","",""
"507.5","226254","pSARL_v2","pSARL_v2ppdb619j","63bc9e8cd8106f8d94c636d4","freq","img/orange_2bandit_a2.png","70","70","test","1","114","114","5","",""
"null","226558","pSARL_v2","pSARL_v2ppdb619j","63bc9e8cd8106f8d94c636d4","freq_resp","img/orange_2bandit_a.png","70","70","test","","","","5","",""
"null","226718","pSARL_v2","pSARL_v2ppdb619j","63bc9e8cd8106f8d94c636d4","fixation","img/fixation.png","null","","test","","","","","",""
"651","227373","pSARL_v2","pSARL_v2ppdb619j","63bc9e8cd8106f8d94c636d4","reward","img/slot.png","74","","test","","","","","",""
"null","228139","pSARL_v2","pSARL_v2ppdb619j","63bc9e8cd8106f8d94c636d4","points","<div class=""veryhighPoints""> +1 </div>","null","na","test","","","","5","1","4"
"713.5","228856","pSARL_v2","pSARL_v2ppdb619j","63bc9e8cd8106f8d94c636d4","freq","img/orange_2bandit_a2.png","70","70","test","1","115","115","6","",""
"null","228953","pSARL_v2","pSARL_v2ppdb619j","63bc9e8cd8106f8d94c636d4","freq_resp","img/orange_2bandit_a.png","70","70","test","","","","6","",""
"null","229109","pSARL_v2","pSARL_v2ppdb619j","63bc9e8cd8106f8d94c636d4","fixation","img/fixation.png","null","","test","","","","","",""
"646.5","229761","pSARL_v2","pSARL_v2ppdb619j","63bc9e8cd8106f8d94c636d4","infreq","img/green_2bandit_a2.png","70","68","test","0","116","116","6","",""
"null","229931","pSARL_v2","pSARL_v2ppdb619j","63bc9e8cd8106f8d94c636d4","infreq_resp","img/green_2bandit_a.png","70","68","test","","","","6","",""
"null","230098","pSARL_v2","pSARL_v2ppdb619j","63bc9e8cd8106f8d94c636d4","fixation","img/fixation.png","null","","test","","","","","",""
"526","230627","pSARL_v2","pSARL_v2ppdb619j","63bc9e8cd8106f8d94c636d4","freq","img/orange_2bandit_a2.png","70","70","test","1","117","117","6","",""
"null","230911","pSARL_v2","pSARL_v2ppdb619j","63bc9e8cd8106f8d94c636d4","freq_resp","img/orange_2bandit_a.png","70","70","test","","","","6","",""
"null","231073","pSARL_v2","pSARL_v2ppdb619j","63bc9e8cd8106f8d94c636d4","fixation","img/fixation.png","null","","test","","","","","",""
"383.5999999642372","231460","pSARL_v2","pSARL_v2ppdb619j","63bc9e8cd8106f8d94c636d4","freq","img/orange_2bandit_a2.png","70","70","test","1","118","118","6","",""
"null","231889","pSARL_v2","pSARL_v2ppdb619j","63bc9e8cd8106f8d94c636d4","freq_resp","img/orange_2bandit_a.png","70","70","test","","","","6","",""
"null","232052","pSARL_v2","pSARL_v2ppdb619j","63bc9e8cd8106f8d94c636d4","fixation","img/fixation.png","null","","test","","","","","",""
"393.19999998807907","232448","pSARL_v2","pSARL_v2ppdb619j","63bc9e8cd8106f8d94c636d4","freq","img/orange_2bandit_a2.png","70","70","test","1","119","119","6","",""
"null","232866","pSARL_v2","pSARL_v2ppdb619j","63bc9e8cd8106f8d94c636d4","freq_resp","img/orange_2bandit_a.png","70","70","test","","","","6","",""
"null","233022","pSARL_v2","pSARL_v2ppdb619j","63bc9e8cd8106f8d94c636d4","fixation","img/fixation.png","null","","test","","","","","",""
"331.89999997615814","233357","pSARL_v2","pSARL_v2ppdb619j","63bc9e8cd8106f8d94c636d4","freq","img/orange_2bandit_a2.png","70","70","test","1","120","120","6","",""
"null","233840","pSARL_v2","pSARL_v2ppdb619j","63bc9e8cd8106f8d94c636d4","freq_resp","img/orange_2bandit_a.png","70","70","test","","","","6","",""
"null","234003","pSARL_v2","pSARL_v2ppdb619j","63bc9e8cd8106f8d94c636d4","fixation","img/fixation.png","null","","test","","","","","",""
"316.60000002384186","234323","pSARL_v2","pSARL_v2ppdb619j","63bc9e8cd8106f8d94c636d4","freq","img/orange_2bandit_a2.png","70","70","test","1","121","121","6","",""
"null","234820","pSARL_v2","pSARL_v2ppdb619j","63bc9e8cd8106f8d94c636d4","freq_resp","img/orange_2bandit_a.png","70","70","test","","","","6","",""
"null","234986","pSARL_v2","pSARL_v2ppdb619j","63bc9e8cd8106f8d94c636d4","fixation","img/fixation.png","null","","test","","","","","",""
"365.0999999642372","235355","pSARL_v2","pSARL_v2ppdb619j","63bc9e8cd8106f8d94c636d4","freq","img/orange_2bandit_a2.png","70","70","test","1","122","122","6","",""
"null","235802","pSARL_v2","pSARL_v2ppdb619j","63bc9e8cd8106f8d94c636d4","freq_resp","img/orange_2bandit_a.png","70","70","test","","","","6","",""
"null","235960","pSARL_v2","pSARL_v2ppdb619j","63bc9e8cd8106f8d94c636d4","fixation","img/fixation.png","null","","test","","","","","",""
"342.2000000476837","236306","pSARL_v2","pSARL_v2ppdb619j","63bc9e8cd8106f8d94c636d4","freq","img/orange_2bandit_a2.png","70","70","test","1","123","123","6","",""
"null","236775","pSARL_v2","pSARL_v2ppdb619j","63bc9e8cd8106f8d94c636d4","freq_resp","img/orange_2bandit_a.png","70","70","test","","","","6","",""
"null","236939","pSARL_v2","pSARL_v2ppdb619j","63bc9e8cd8106f8d94c636d4","fixation","img/fixation.png","null","","test","","","","","",""
"355","237298","pSARL_v2","pSARL_v2ppdb619j","63bc9e8cd8106f8d94c636d4","freq","img/orange_2bandit_a2.png","70","70","test","1","124","124","6","",""
"null","237751","pSARL_v2","pSARL_v2ppdb619j","63bc9e8cd8106f8d94c636d4","freq_resp","img/orange_2bandit_a.png","70","70","test","","","","6","",""
"null","237916","pSARL_v2","pSARL_v2ppdb619j","63bc9e8cd8106f8d94c636d4","fixation","img/fixation.png","null","","test","","","","","",""
"516.3999999761581","238435","pSARL_v2","pSARL_v2ppdb619j","63bc9e8cd8106f8d94c636d4","infreq","img/green_2bandit_a2.png","68","68","test","1","125","125","6","",""
"null","238727","pSARL_v2","pSARL_v2ppdb619j","63bc9e8cd8106f8d94c636d4","infreq_resp","img/green_2bandit_a.png","68","68","test","","","","6","",""
"null","238890","pSARL_v2","pSARL_v2ppdb619j","63bc9e8cd8106f8d94c636d4","fixation","img/fixation.png","null","","test","","","","","",""
"572.1999999880791","239465","pSARL_v2","pSARL_v2ppdb619j","63bc9e8cd8106f8d94c636d4","freq","img/orange_2bandit_a2.png","70","70","test","1","126","126","6","",""
"null","239705","pSARL_v2","pSARL_v2ppdb619j","63bc9e8cd8106f8d94c636d4","freq_resp","img/orange_2bandit_a.png","70","70","test","","","","6","",""
"null","239864","pSARL_v2","pSARL_v2ppdb619j","63bc9e8cd8106f8d94c636d4","fixation","img/fixation.png","null","","test","","","","","",""
"742.3000000119209","240610","pSARL_v2","pSARL_v2ppdb619j","63bc9e8cd8106f8d94c636d4","infreq","img/green_2bandit_a2.png","68","68","test","1","127","127","6","",""
"null","240672","pSARL_v2","pSARL_v2ppdb619j","63bc9e8cd8106f8d94c636d4","infreq_resp","img/green_2bandit_a.png","68","68","test","","","","6","",""
"null","240833","pSARL_v2","pSARL_v2ppdb619j","63bc9e8cd8106f8d94c636d4","fixation","img/fixation.png","null","","test","","","","","",""
"578.4000000357628","241415","pSARL_v2","pSARL_v2ppdb619j","63bc9e8cd8106f8d94c636d4","freq","img/orange_2bandit_a2.png","70","70","test","1","128","128","6","",""
"null","241650","pSARL_v2","pSARL_v2ppdb619j","63bc9e8cd8106f8d94c636d4","freq_resp","img/orange_2bandit_a.png","70","70","test","","","","6","",""
"null","241806","pSARL_v2","pSARL_v2ppdb619j","63bc9e8cd8106f8d94c636d4","fixation","img/fixation.png","null","","test","","","","","",""
"394.39999997615814","242204","pSARL_v2","pSARL_v2ppdb619j","63bc9e8cd8106f8d94c636d4","freq","img/orange_2bandit_a2.png","70","70","test","1","129","129","6","",""
"null","242624","pSARL_v2","pSARL_v2ppdb619j","63bc9e8cd8106f8d94c636d4","freq_resp","img/orange_2bandit_a.png","70","70","test","","","","6","",""
"null","242783","pSARL_v2","pSARL_v2ppdb619j","63bc9e8cd8106f8d94c636d4","fixation","img/fixation.png","null","","test","","","","","",""
"349.19999998807907","243136","pSARL_v2","pSARL_v2ppdb619j","63bc9e8cd8106f8d94c636d4","freq","img/orange_2bandit_a2.png","70","70","test","1","130","130","6","",""
"null","243600","pSARL_v2","pSARL_v2ppdb619j","63bc9e8cd8106f8d94c636d4","freq_resp","img/orange_2bandit_a.png","70","70","test","","","","6","",""
"null","243759","pSARL_v2","pSARL_v2ppdb619j","63bc9e8cd8106f8d94c636d4","fixation","img/fixation.png","null","","test","","","","","",""
"258.5999999642372","244022","pSARL_v2","pSARL_v2ppdb619j","63bc9e8cd8106f8d94c636d4","freq","img/orange_2bandit_a2.png","70","70","test","1","131","131","6","",""
"null","244576","pSARL_v2","pSARL_v2ppdb619j","63bc9e8cd8106f8d94c636d4","freq_resp","img/orange_2bandit_a.png","70","70","test","","","","6","",""
"null","244735","pSARL_v2","pSARL_v2ppdb619j","63bc9e8cd8106f8d94c636d4","fixation","img/fixation.png","null","","test","","","","","",""
"350","245088","pSARL_v2","pSARL_v2ppdb619j","63bc9e8cd8106f8d94c636d4","freq","img/orange_2bandit_a2.png","70","70","test","1","132","132","6","",""
"null","245550","pSARL_v2","pSARL_v2ppdb619j","63bc9e8cd8106f8d94c636d4","freq_resp","img/orange_2bandit_a.png","70","70","test","","","","6","",""
"null","245716","pSARL_v2","pSARL_v2ppdb619j","63bc9e8cd8106f8d94c636d4","fixation","img/fixation.png","null","","test","","","","","",""
"426.60000002384186","246146","pSARL_v2","pSARL_v2ppdb619j","63bc9e8cd8106f8d94c636d4","freq","img/orange_2bandit_a2.png","70","70","test","1","133","133","6","",""
"null","246532","pSARL_v2","pSARL_v2ppdb619j","63bc9e8cd8106f8d94c636d4","freq_resp","img/orange_2bandit_a.png","70","70","test","","","","6","",""
"null","246700","pSARL_v2","pSARL_v2ppdb619j","63bc9e8cd8106f8d94c636d4","fixation","img/fixation.png","null","","test","","","","","",""
"455.4000000357628","247159","pSARL_v2","pSARL_v2ppdb619j","63bc9e8cd8106f8d94c636d4","freq","img/orange_2bandit_a2.png","70","70","test","1","134","134","6","",""
"null","247510","pSARL_v2","pSARL_v2ppdb619j","63bc9e8cd8106f8d94c636d4","freq_resp","img/orange_2bandit_a.png","70","70","test","","","","6","",""
"null","247665","pSARL_v2","pSARL_v2ppdb619j","63bc9e8cd8106f8d94c636d4","fixation","img/fixation.png","null","","test","","","","","",""
"670.5","248339","pSARL_v2","pSARL_v2ppdb619j","63bc9e8cd8106f8d94c636d4","freq","img/orange_2bandit_a2.png","70","70","test","1","135","135","6","",""
"null","248478","pSARL_v2","pSARL_v2ppdb619j","63bc9e8cd8106f8d94c636d4","freq_resp","img/orange_2bandit_a.png","70","70","test","","","","6","",""
"null","248634","pSARL_v2","pSARL_v2ppdb619j","63bc9e8cd8106f8d94c636d4","fixation","img/fixation.png","null","","test","","","","","",""
"593.9000000357628","249232","pSARL_v2","pSARL_v2ppdb619j","63bc9e8cd8106f8d94c636d4","freq","img/orange_2bandit_a2.png","70","70","test","1","136","136","6","",""
"null","249450","pSARL_v2","pSARL_v2ppdb619j","63bc9e8cd8106f8d94c636d4","freq_resp","img/orange_2bandit_a.png","70","70","test","","","","6","",""
"null","249608","pSARL_v2","pSARL_v2ppdb619j","63bc9e8cd8106f8d94c636d4","fixation","img/fixation.png","null","","test","","","","","",""
"446.89999997615814","250058","pSARL_v2","pSARL_v2ppdb619j","63bc9e8cd8106f8d94c636d4","freq","img/orange_2bandit_a2.png","70","70","test","1","137","137","6","",""
"null","250426","pSARL_v2","pSARL_v2ppdb619j","63bc9e8cd8106f8d94c636d4","freq_resp","img/orange_2bandit_a.png","70","70","test","","","","6","",""
"null","250583","pSARL_v2","pSARL_v2ppdb619j","63bc9e8cd8106f8d94c636d4","fixation","img/fixation.png","null","","test","","","","","",""
"546.1000000238419","251133","pSARL_v2","pSARL_v2ppdb619j","63bc9e8cd8106f8d94c636d4","freq","img/orange_2bandit_a2.png","70","70","test","1","138","138","6","",""
"null","251393","pSARL_v2","pSARL_v2ppdb619j","63bc9e8cd8106f8d94c636d4","freq_resp","img/orange_2bandit_a.png","70","70","test","","","","6","",""
"null","251550","pSARL_v2","pSARL_v2ppdb619j","63bc9e8cd8106f8d94c636d4","fixation","img/fixation.png","null","","test","","","","","",""
"1094.699999988079","252648","pSARL_v2","pSARL_v2ppdb619j","63bc9e8cd8106f8d94c636d4","reward","img/slot.png","74","","test","","","","","",""
"null","253406","pSARL_v2","pSARL_v2ppdb619j","63bc9e8cd8106f8d94c636d4","points","<div class=""verylowPoints""> -7 </div>","null","na","test","","","","6","-7","5"
"null","254220","pSARL_v2","pSARL_v2ppdb619j","63bc9e8cd8106f8d94c636d4","freq","img/orange_2bandit_a2.png","null","70","test","0","139","139","7","",""
"null","254387","pSARL_v2","pSARL_v2ppdb619j","63bc9e8cd8106f8d94c636d4","fixation","img/fixation.png","null","","test","","","","","",""
"null","255200","pSARL_v2","pSARL_v2ppdb619j","63bc9e8cd8106f8d94c636d4","freq","img/orange_2bandit_a2.png","null","70","test","0","140","140","7","",""
"null","255359","pSARL_v2","pSARL_v2ppdb619j","63bc9e8cd8106f8d94c636d4","fixation","img/fixation.png","null","","test","","","","","",""
"255","255617","pSARL_v2","pSARL_v2ppdb619j","63bc9e8cd8106f8d94c636d4","infreq","img/green_2bandit_a2.png","70","68","test","0","141","141","7","",""
"null","256176","pSARL_v2","pSARL_v2ppdb619j","63bc9e8cd8106f8d94c636d4","infreq_resp","img/green_2bandit_a.png","70","68","test","","","","7","",""
"null","256339","pSARL_v2","pSARL_v2ppdb619j","63bc9e8cd8106f8d94c636d4","fixation","img/fixation.png","null","","test","","","","","",""
"536.5","256879","pSARL_v2","pSARL_v2ppdb619j","63bc9e8cd8106f8d94c636d4","freq","img/orange_2bandit_a2.png","70","70","test","1","142","142","7","",""
"null","257151","pSARL_v2","pSARL_v2ppdb619j","63bc9e8cd8106f8d94c636d4","freq_resp","img/orange_2bandit_a.png","70","70","test","","","","7","",""
"null","257316","pSARL_v2","pSARL_v2ppdb619j","63bc9e8cd8106f8d94c636d4","fixation","img/fixation.png","null","","test","","","","","",""
"485.19999998807907","257805","pSARL_v2","pSARL_v2ppdb619j","63bc9e8cd8106f8d94c636d4","freq","img/orange_2bandit_a2.png","70","70","test","1","143","143","7","",""
"null","258129","pSARL_v2","pSARL_v2ppdb619j","63bc9e8cd8106f8d94c636d4","freq_resp","img/orange_2bandit_a.png","70","70","test","","","","7","",""
"null","258289","pSARL_v2","pSARL_v2ppdb619j","63bc9e8cd8106f8d94c636d4","fixation","img/fixation.png","null","","test","","","","","",""
"451.4000000357628","258744","pSARL_v2","pSARL_v2ppdb619j","63bc9e8cd8106f8d94c636d4","freq","img/orange_2bandit_a2.png","70","70","test","1","144","144","7","",""
"null","259107","pSARL_v2","pSARL_v2ppdb619j","63bc9e8cd8106f8d94c636d4","freq_resp","img/orange_2bandit_a.png","70","70","test","","","","7","",""
"null","259273","pSARL_v2","pSARL_v2ppdb619j","63bc9e8cd8106f8d94c636d4","fixation","img/fixation.png","null","","test","","","","","",""
"808","260085","pSARL_v2","pSARL_v2ppdb619j","63bc9e8cd8106f8d94c636d4","freq","img/orange_2bandit_a2.png","70","70","test","1","145","145","7","",""
"null","260248","pSARL_v2","pSARL_v2ppdb619j","63bc9e8cd8106f8d94c636d4","fixation","img/fixation.png","null","","test","","","","","",""
"745.0999999642372","260997","pSARL_v2","pSARL_v2ppdb619j","63bc9e8cd8106f8d94c636d4","freq","img/orange_2bandit_a2.png","70","70","test","1","146","146","7","",""
"null","261063","pSARL_v2","pSARL_v2ppdb619j","63bc9e8cd8106f8d94c636d4","freq_resp","img/orange_2bandit_a.png","70","70","test","","","","7","",""
"null","261221","pSARL_v2","pSARL_v2ppdb619j","63bc9e8cd8106f8d94c636d4","fixation","img/fixation.png","null","","test","","","","","",""
"608.3999999761581","261833","pSARL_v2","pSARL_v2ppdb619j","63bc9e8cd8106f8d94c636d4","freq","img/orange_2bandit_a2.png","70","70","test","1","147","147","7","",""
"null","262035","pSARL_v2","pSARL_v2ppdb619j","63bc9e8cd8106f8d94c636d4","freq_resp","img/orange_2bandit_a.png","70","70","test","","","","7","",""
"null","262191","pSARL_v2","pSARL_v2ppdb619j","63bc9e8cd8106f8d94c636d4","fixation","img/fixation.png","null","","test","","","","","",""
"null","263003","pSARL_v2","pSARL_v2ppdb619j","63bc9e8cd8106f8d94c636d4","freq","img/orange_2bandit_a2.png","null","70","test","0","148","148","7","",""
"null","263157","pSARL_v2","pSARL_v2ppdb619j","63bc9e8cd8106f8d94c636d4","fixation","img/fixation.png","null","","test","","","","","",""
"99.69999998807907","263261","pSARL_v2","pSARL_v2ppdb619j","63bc9e8cd8106f8d94c636d4","freq","img/orange_2bandit_a2.png","68","70","test","0","149","149","7","",""
"null","263967","pSARL_v2","pSARL_v2ppdb619j","63bc9e8cd8106f8d94c636d4","freq_resp","img/orange_2bandit_a.png","68","70","test","","","","7","",""
"null","264126","pSARL_v2","pSARL_v2ppdb619j","63bc9e8cd8106f8d94c636d4","fixation","img/fixation.png","null","","test","","","","","",""
"496.10000002384186","264626","pSARL_v2","pSARL_v2ppdb619j","63bc9e8cd8106f8d94c636d4","infreq","img/green_2bandit_a2.png","68","68","test","1","150","150","7","",""
"null","264944","pSARL_v2","pSARL_v2ppdb619j","63bc9e8cd8106f8d94c636d4","infreq_resp","img/green_2bandit_a.png","68","68","test","","","","7","",""
"null","265104","pSARL_v2","pSARL_v2ppdb619j","63bc9e8cd8106f8d94c636d4","fixation","img/fixation.png","null","","test","","","","","",""
"546.9000000357628","265655","pSARL_v2","pSARL_v2ppdb619j","63bc9e8cd8106f8d94c636d4","freq","img/orange_2bandit_a2.png","70","70","test","1","151","151","7","",""
"null","265919","pSARL_v2","pSARL_v2ppdb619j","63bc9e8cd8106f8d94c636d4","freq_resp","img/orange_2bandit_a.png","70","70","test","","","","7","",""
"null","266082","pSARL_v2","pSARL_v2ppdb619j","63bc9e8cd8106f8d94c636d4","fixation","img/fixation.png","null","","test","","","","","",""
"368.5","266455","pSARL_v2","pSARL_v2ppdb619j","63bc9e8cd8106f8d94c636d4","freq","img/orange_2bandit_a2.png","70","70","test","1","152","152","7","",""
"null","266900","pSARL_v2","pSARL_v2ppdb619j","63bc9e8cd8106f8d94c636d4","freq_resp","img/orange_2bandit_a.png","70","70","test","","","","7","",""
"null","267065","pSARL_v2","pSARL_v2ppdb619j","63bc9e8cd8106f8d94c636d4","fixation","img/fixation.png","null","","test","","","","","",""
"533.0999999642372","267602","pSARL_v2","pSARL_v2ppdb619j","63bc9e8cd8106f8d94c636d4","freq","img/orange_2bandit_a2.png","70","70","test","1","153","153","7","",""
"null","267882","pSARL_v2","pSARL_v2ppdb619j","63bc9e8cd8106f8d94c636d4","freq_resp","img/orange_2bandit_a.png","70","70","test","","","","7","",""
"null","268040","pSARL_v2","pSARL_v2ppdb619j","63bc9e8cd8106f8d94c636d4","fixation","img/fixation.png","null","","test","","","","","",""
"685.5","268729","pSARL_v2","pSARL_v2ppdb619j","63bc9e8cd8106f8d94c636d4","freq","img/orange_2bandit_a2.png","70","70","test","1","154","154","7","",""
"null","268854","pSARL_v2","pSARL_v2ppdb619j","63bc9e8cd8106f8d94c636d4","freq_resp","img/orange_2bandit_a.png","70","70","test","","","","7","",""
"null","269017","pSARL_v2","pSARL_v2ppdb619j","63bc9e8cd8106f8d94c636d4","fixation","img/fixation.png","null","","test","","","","","",""
"728.1999999880791","269748","pSARL_v2","pSARL_v2ppdb619j","63bc9e8cd8106f8d94c636d4","freq","img/orange_2bandit_a2.png","70","70","test","1","155","155","7","",""
"null","269832","pSARL_v2","pSARL_v2ppdb619j","63bc9e8cd8106f8d94c636d4","freq_resp","img/orange_2bandit_a.png","70","70","test","","","","7","",""
"null","269995","pSARL_v2","pSARL_v2ppdb619j","63bc9e8cd8106f8d94c636d4","fixation","img/fixation.png","null","","test","","","","","",""
"711.1999999880791","270709","pSARL_v2","pSARL_v2ppdb619j","63bc9e8cd8106f8d94c636d4","freq","img/orange_2bandit_a2.png","70","70","test","1","156","156","7","",""
"null","270812","pSARL_v2","pSARL_v2ppdb619j","63bc9e8cd8106f8d94c636d4","freq_resp","img/orange_2bandit_a.png","70","70","test","","","","7","",""
"null","270975","pSARL_v2","pSARL_v2ppdb619j","63bc9e8cd8106f8d94c636d4","fixation","img/fixation.png","null","","test","","","","","",""
"null","271783","pSARL_v2","pSARL_v2ppdb619j","63bc9e8cd8106f8d94c636d4","freq","img/orange_2bandit_a2.png","null","70","test","0","157","157","7","",""
"null","271937","pSARL_v2","pSARL_v2ppdb619j","63bc9e8cd8106f8d94c636d4","fixation","img/fixation.png","null","","test","","","","","",""
"749.4000000357628","272690","pSARL_v2","pSARL_v2ppdb619j","63bc9e8cd8106f8d94c636d4","freq","img/orange_2bandit_a2.png","70","70","test","1","158","158","7","",""
"null","272756","pSARL_v2","pSARL_v2ppdb619j","63bc9e8cd8106f8d94c636d4","freq_resp","img/orange_2bandit_a.png","70","70","test","","","","7","",""
"null","272922","pSARL_v2","pSARL_v2ppdb619j","63bc9e8cd8106f8d94c636d4","fixation","img/fixation.png","null","","test","","","","","",""
"405.30000001192093","273330","pSARL_v2","pSARL_v2ppdb619j","63bc9e8cd8106f8d94c636d4","freq","img/orange_2bandit_a2.png","70","70","test","1","159","159","7","",""
"null","273733","pSARL_v2","pSARL_v2ppdb619j","63bc9e8cd8106f8d94c636d4","freq_resp","img/orange_2bandit_a.png","70","70","test","","","","7","",""
"null","273899","pSARL_v2","pSARL_v2ppdb619j","63bc9e8cd8106f8d94c636d4","fixation","img/fixation.png","null","","test","","","","","",""
"355.0999999642372","274259","pSARL_v2","pSARL_v2ppdb619j","63bc9e8cd8106f8d94c636d4","freq","img/orange_2bandit_a2.png","70","70","test","1","160","160","7","",""
"null","274713","pSARL_v2","pSARL_v2ppdb619j","63bc9e8cd8106f8d94c636d4","freq_resp","img/orange_2bandit_a.png","70","70","test","","","","7","",""
"null","274873","pSARL_v2","pSARL_v2ppdb619j","63bc9e8cd8106f8d94c636d4","fixation","img/fixation.png","null","","test","","","","","",""
"382.19999998807907","275258","pSARL_v2","pSARL_v2ppdb619j","63bc9e8cd8106f8d94c636d4","freq","img/orange_2bandit_a2.png","70","70","test","1","161","161","7","",""
"null","275689","pSARL_v2","pSARL_v2ppdb619j","63bc9e8cd8106f8d94c636d4","freq_resp","img/orange_2bandit_a.png","70","70","test","","","","7","",""
"null","275850","pSARL_v2","pSARL_v2ppdb619j","63bc9e8cd8106f8d94c636d4","fixation","img/fixation.png","null","","test","","","","","",""
"325.69999998807907","276180","pSARL_v2","pSARL_v2ppdb619j","63bc9e8cd8106f8d94c636d4","freq","img/orange_2bandit_a2.png","70","70","test","1","162","162","7","",""
"null","276667","pSARL_v2","pSARL_v2ppdb619j","63bc9e8cd8106f8d94c636d4","freq_resp","img/orange_2bandit_a.png","70","70","test","","","","7","",""
"null","276836","pSARL_v2","pSARL_v2ppdb619j","63bc9e8cd8106f8d94c636d4","fixation","img/fixation.png","null","","test","","","","","",""
"357","277197","pSARL_v2","pSARL_v2ppdb619j","63bc9e8cd8106f8d94c636d4","freq","img/orange_2bandit_a2.png","70","70","test","1","163","163","7","",""
"null","277646","pSARL_v2","pSARL_v2ppdb619j","63bc9e8cd8106f8d94c636d4","freq_resp","img/orange_2bandit_a.png","70","70","test","","","","7","",""
"null","277813","pSARL_v2","pSARL_v2ppdb619j","63bc9e8cd8106f8d94c636d4","fixation","img/fixation.png","null","","test","","","","","",""
"638.9000000357628","278455","pSARL_v2","pSARL_v2ppdb619j","63bc9e8cd8106f8d94c636d4","reward","img/slot.png","74","","test","","","","","",""
"null","279221","pSARL_v2","pSARL_v2ppdb619j","63bc9e8cd8106f8d94c636d4","points","<div class=""verylowPoints""> -6 </div>","null","na","test","","","","7","-6","6"
"null","280030","pSARL_v2","pSARL_v2ppdb619j","63bc9e8cd8106f8d94c636d4","freq","img/orange_2bandit_a2.png","null","70","test","0","164","164","8","",""
"null","280195","pSARL_v2","pSARL_v2ppdb619j","63bc9e8cd8106f8d94c636d4","fixation","img/fixation.png","null","","test","","","","","",""
"207.30000001192093","280406","pSARL_v2","pSARL_v2ppdb619j","63bc9e8cd8106f8d94c636d4","freq","img/orange_2bandit_a2.png","70","70","test","1","165","165","8","",""
"null","281011","pSARL_v2","pSARL_v2ppdb619j","63bc9e8cd8106f8d94c636d4","freq_resp","img/orange_2bandit_a.png","70","70","test","","","","8","",""
"null","281166","pSARL_v2","pSARL_v2ppdb619j","63bc9e8cd8106f8d94c636d4","fixation","img/fixation.png","null","","test","","","","","",""
"192.30000001192093","281362","pSARL_v2","pSARL_v2ppdb619j","63bc9e8cd8106f8d94c636d4","freq","img/orange_2bandit_a2.png","70","70","test","1","166","166","8","",""
"null","281980","pSARL_v2","pSARL_v2ppdb619j","63bc9e8cd8106f8d94c636d4","freq_resp","img/orange_2bandit_a.png","70","70","test","","","","8","",""
"null","282148","pSARL_v2","pSARL_v2ppdb619j","63bc9e8cd8106f8d94c636d4","fixation","img/fixation.png","null","","test","","","","","",""
"103.80000001192093","282255","pSARL_v2","pSARL_v2ppdb619j","63bc9e8cd8106f8d94c636d4","freq","img/orange_2bandit_a2.png","70","70","test","1","167","167","8","",""
"null","282956","pSARL_v2","pSARL_v2ppdb619j","63bc9e8cd8106f8d94c636d4","freq_resp","img/orange_2bandit_a.png","70","70","test","","","","8","",""
"null","283123","pSARL_v2","pSARL_v2ppdb619j","63bc9e8cd8106f8d94c636d4","fixation","img/fixation.png","null","","test","","","","","",""
"242.30000001192093","283369","pSARL_v2","pSARL_v2ppdb619j","63bc9e8cd8106f8d94c636d4","freq","img/orange_2bandit_a2.png","70","70","test","1","168","168","8","",""
"null","283933","pSARL_v2","pSARL_v2ppdb619j","63bc9e8cd8106f8d94c636d4","freq_resp","img/orange_2bandit_a.png","70","70","test","","","","8","",""
"null","284096","pSARL_v2","pSARL_v2ppdb619j","63bc9e8cd8106f8d94c636d4","fixation","img/fixation.png","null","","test","","","","","",""
"191.69999998807907","284293","pSARL_v2","pSARL_v2ppdb619j","63bc9e8cd8106f8d94c636d4","freq","img/orange_2bandit_a2.png","70","70","test","1","169","169","8","",""
"null","284911","pSARL_v2","pSARL_v2ppdb619j","63bc9e8cd8106f8d94c636d4","freq_resp","img/orange_2bandit_a.png","70","70","test","","","","8","",""
"null","285075","pSARL_v2","pSARL_v2ppdb619j","63bc9e8cd8106f8d94c636d4","fixation","img/fixation.png","null","","test","","","","","",""
"390.5","285469","pSARL_v2","pSARL_v2ppdb619j","63bc9e8cd8106f8d94c636d4","freq","img/orange_2bandit_a2.png","70","70","test","1","170","170","8","",""
"null","285889","pSARL_v2","pSARL_v2ppdb619j","63bc9e8cd8106f8d94c636d4","freq_resp","img/orange_2bandit_a.png","70","70","test","","","","8","",""
"null","286047","pSARL_v2","pSARL_v2ppdb619j","63bc9e8cd8106f8d94c636d4","fixation","img/fixation.png","null","","test","","","","","",""
"372.30000001192093","286423","pSARL_v2","pSARL_v2ppdb619j","63bc9e8cd8106f8d94c636d4","freq","img/orange_2bandit_a2.png","70","70","test","1","171","171","8","",""
"null","286856","pSARL_v2","pSARL_v2ppdb619j","63bc9e8cd8106f8d94c636d4","freq_resp","img/orange_2bandit_a.png","70","70","test","","","","8","",""
"null","287014","pSARL_v2","pSARL_v2ppdb619j","63bc9e8cd8106f8d94c636d4","fixation","img/fixation.png","null","","test","","","","","",""
"384.89999997615814","287402","pSARL_v2","pSARL_v2ppdb619j","63bc9e8cd8106f8d94c636d4","freq","img/orange_2bandit_a2.png","70","70","test","1","172","172","8","",""
"null","287827","pSARL_v2","pSARL_v2ppdb619j","63bc9e8cd8106f8d94c636d4","freq_resp","img/orange_2bandit_a.png","70","70","test","","","","8","",""
"null","287983","pSARL_v2","pSARL_v2ppdb619j","63bc9e8cd8106f8d94c636d4","fixation","img/fixation.png","null","","test","","","","","",""
"396.80000001192093","288383","pSARL_v2","pSARL_v2ppdb619j","63bc9e8cd8106f8d94c636d4","freq","img/orange_2bandit_a2.png","70","70","test","1","173","173","8","",""
"null","288801","pSARL_v2","pSARL_v2ppdb619j","63bc9e8cd8106f8d94c636d4","freq_resp","img/orange_2bandit_a.png","70","70","test","","","","8","",""
"null","288956","pSARL_v2","pSARL_v2ppdb619j","63bc9e8cd8106f8d94c636d4","fixation","img/fixation.png","null","","test","","","","","",""
"594.9000000357628","289554","pSARL_v2","pSARL_v2ppdb619j","63bc9e8cd8106f8d94c636d4","infreq","img/green_2bandit_a2.png","68","68","test","1","174","174","8","",""
"null","289771","pSARL_v2","pSARL_v2ppdb619j","63bc9e8cd8106f8d94c636d4","infreq_resp","img/green_2bandit_a.png","68","68","test","","","","8","",""
"null","289930","pSARL_v2","pSARL_v2ppdb619j","63bc9e8cd8106f8d94c636d4","fixation","img/fixation.png","null","","test","","","","","",""
"539.3000000119209","290473","pSARL_v2","pSARL_v2ppdb619j","63bc9e8cd8106f8d94c636d4","freq","img/orange_2bandit_a2.png","70","70","test","1","175","175","8","",""
"null","290750","pSARL_v2","pSARL_v2ppdb619j","63bc9e8cd8106f8d94c636d4","freq_resp","img/orange_2bandit_a.png","70","70","test","","","","8","",""
"null","290916","pSARL_v2","pSARL_v2ppdb619j","63bc9e8cd8106f8d94c636d4","fixation","img/fixation.png","null","","test","","","","","",""
"505.60000002384186","291426","pSARL_v2","pSARL_v2ppdb619j","63bc9e8cd8106f8d94c636d4","freq","img/orange_2bandit_a2.png","70","70","test","1","176","176","8","",""
"null","291729","pSARL_v2","pSARL_v2ppdb619j","63bc9e8cd8106f8d94c636d4","freq_resp","img/orange_2bandit_a.png","70","70","test","","","","8","",""
"null","291889","pSARL_v2","pSARL_v2ppdb619j","63bc9e8cd8106f8d94c636d4","fixation","img/fixation.png","null","","test","","","","","",""
"407.30000001192093","292300","pSARL_v2","pSARL_v2ppdb619j","63bc9e8cd8106f8d94c636d4","freq","img/orange_2bandit_a2.png","70","70","test","1","177","177","8","",""
"null","292706","pSARL_v2","pSARL_v2ppdb619j","63bc9e8cd8106f8d94c636d4","freq_resp","img/orange_2bandit_a.png","70","70","test","","","","8","",""
"null","292865","pSARL_v2","pSARL_v2ppdb619j","63bc9e8cd8106f8d94c636d4","fixation","img/fixation.png","null","","test","","","","","",""
"411","293280","pSARL_v2","pSARL_v2ppdb619j","63bc9e8cd8106f8d94c636d4","freq","img/orange_2bandit_a2.png","70","70","test","1","178","178","8","",""
"null","293683","pSARL_v2","pSARL_v2ppdb619j","63bc9e8cd8106f8d94c636d4","freq_resp","img/orange_2bandit_a.png","70","70","test","","","","8","",""
"null","293839","pSARL_v2","pSARL_v2ppdb619j","63bc9e8cd8106f8d94c636d4","fixation","img/fixation.png","null","","test","","","","","",""
"399.5","294242","pSARL_v2","pSARL_v2ppdb619j","63bc9e8cd8106f8d94c636d4","freq","img/orange_2bandit_a2.png","70","70","test","1","179","179","8","",""
"null","294651","pSARL_v2","pSARL_v2ppdb619j","63bc9e8cd8106f8d94c636d4","freq_resp","img/orange_2bandit_a.png","70","70","test","","","","8","",""
"null","294808","pSARL_v2","pSARL_v2ppdb619j","63bc9e8cd8106f8d94c636d4","fixation","img/fixation.png","null","","test","","","","","",""
"502.19999998807907","295314","pSARL_v2","pSARL_v2ppdb619j","63bc9e8cd8106f8d94c636d4","freq","img/orange_2bandit_a2.png","70","70","test","1","180","180","8","",""
"null","295624","pSARL_v2","pSARL_v2ppdb619j","63bc9e8cd8106f8d94c636d4","freq_resp","img/orange_2bandit_a.png","70","70","test","","","","8","",""
"null","295790","pSARL_v2","pSARL_v2ppdb619j","63bc9e8cd8106f8d94c636d4","fixation","img/fixation.png","null","","test","","","","","",""
"416.2000000476837","296209","pSARL_v2","pSARL_v2ppdb619j","63bc9e8cd8106f8d94c636d4","freq","img/orange_2bandit_a2.png","70","70","test","1","181","181","8","",""
"null","296601","pSARL_v2","pSARL_v2ppdb619j","63bc9e8cd8106f8d94c636d4","freq_resp","img/orange_2bandit_a.png","70","70","test","","","","8","",""
"null","296756","pSARL_v2","pSARL_v2ppdb619j","63bc9e8cd8106f8d94c636d4","fixation","img/fixation.png","null","","test","","","","","",""
"408.5","297168","pSARL_v2","pSARL_v2ppdb619j","63bc9e8cd8106f8d94c636d4","freq","img/orange_2bandit_a2.png","70","70","test","1","182","182","8","",""
"null","297568","pSARL_v2","pSARL_v2ppdb619j","63bc9e8cd8106f8d94c636d4","freq_resp","img/orange_2bandit_a.png","70","70","test","","","","8","",""
"null","297734","pSARL_v2","pSARL_v2ppdb619j","63bc9e8cd8106f8d94c636d4","fixation","img/fixation.png","null","","test","","","","","",""
"414.69999998807907","298152","pSARL_v2","pSARL_v2ppdb619j","63bc9e8cd8106f8d94c636d4","freq","img/orange_2bandit_a2.png","70","70","test","1","183","183","8","",""
"null","298546","pSARL_v2","pSARL_v2ppdb619j","63bc9e8cd8106f8d94c636d4","freq_resp","img/orange_2bandit_a.png","70","70","test","","","","8","",""
"null","298705","pSARL_v2","pSARL_v2ppdb619j","63bc9e8cd8106f8d94c636d4","fixation","img/fixation.png","null","","test","","","","","",""
"477.39999997615814","299186","pSARL_v2","pSARL_v2ppdb619j","63bc9e8cd8106f8d94c636d4","freq","img/orange_2bandit_a2.png","70","70","test","1","184","184","8","",""
"null","299524","pSARL_v2","pSARL_v2ppdb619j","63bc9e8cd8106f8d94c636d4","freq_resp","img/orange_2bandit_a.png","70","70","test","","","","8","",""
"null","299684","pSARL_v2","pSARL_v2ppdb619j","63bc9e8cd8106f8d94c636d4","fixation","img/fixation.png","null","","test","","","","","",""
"418.5999999642372","300106","pSARL_v2","pSARL_v2ppdb619j","63bc9e8cd8106f8d94c636d4","freq","img/orange_2bandit_a2.png","70","70","test","1","185","185","8","",""
"null","300499","pSARL_v2","pSARL_v2ppdb619j","63bc9e8cd8106f8d94c636d4","freq_resp","img/orange_2bandit_a.png","70","70","test","","","","8","",""
"null","300656","pSARL_v2","pSARL_v2ppdb619j","63bc9e8cd8106f8d94c636d4","fixation","img/fixation.png","null","","test","","","","","",""
"653.9000000357628","301313","pSARL_v2","pSARL_v2ppdb619j","63bc9e8cd8106f8d94c636d4","infreq","img/green_2bandit_a2.png","68","68","test","1","186","186","8","",""
"null","301471","pSARL_v2","pSARL_v2ppdb619j","63bc9e8cd8106f8d94c636d4","infreq_resp","img/green_2bandit_a.png","68","68","test","","","","8","",""
"null","301634","pSARL_v2","pSARL_v2ppdb619j","63bc9e8cd8106f8d94c636d4","fixation","img/fixation.png","null","","test","","","","","",""
"732.0999999642372","302370","pSARL_v2","pSARL_v2ppdb619j","63bc9e8cd8106f8d94c636d4","freq","img/orange_2bandit_a2.png","70","70","test","1","187","187","8","",""
"null","302448","pSARL_v2","pSARL_v2ppdb619j","63bc9e8cd8106f8d94c636d4","freq_resp","img/orange_2bandit_a.png","70","70","test","","","","8","",""
"null","302610","pSARL_v2","pSARL_v2ppdb619j","63bc9e8cd8106f8d94c636d4","fixation","img/fixation.png","null","","test","","","","","",""
"518.6999999880791","303132","pSARL_v2","pSARL_v2ppdb619j","63bc9e8cd8106f8d94c636d4","freq","img/orange_2bandit_a2.png","70","70","test","1","188","188","8","",""
"null","303424","pSARL_v2","pSARL_v2ppdb619j","63bc9e8cd8106f8d94c636d4","freq_resp","img/orange_2bandit_a.png","70","70","test","","","","8","",""
"null","303589","pSARL_v2","pSARL_v2ppdb619j","63bc9e8cd8106f8d94c636d4","fixation","img/fixation.png","null","","test","","","","","",""
"418.30000001192093","304011","pSARL_v2","pSARL_v2ppdb619j","63bc9e8cd8106f8d94c636d4","freq","img/orange_2bandit_a2.png","70","70","test","1","189","189","8","",""
"null","304400","pSARL_v2","pSARL_v2ppdb619j","63bc9e8cd8106f8d94c636d4","freq_resp","img/orange_2bandit_a.png","70","70","test","","","","8","",""
"null","304556","pSARL_v2","pSARL_v2ppdb619j","63bc9e8cd8106f8d94c636d4","fixation","img/fixation.png","null","","test","","","","","",""
"474.5","305034","pSARL_v2","pSARL_v2ppdb619j","63bc9e8cd8106f8d94c636d4","reward","img/slot.png","74","","test","","","","","",""
"null","305797","pSARL_v2","pSARL_v2ppdb619j","63bc9e8cd8106f8d94c636d4","points","<div class=""verylowPoints""> -4 </div>","null","na","test","","","","8","-4","7"
"676","306477","pSARL_v2","pSARL_v2ppdb619j","63bc9e8cd8106f8d94c636d4","freq","img/orange_2bandit_a2.png","70","70","test","1","190","190","9","",""
"null","306609","pSARL_v2","pSARL_v2ppdb619j","63bc9e8cd8106f8d94c636d4","freq_resp","img/orange_2bandit_a.png","70","70","test","","","","9","",""
"null","306771","pSARL_v2","pSARL_v2ppdb619j","63bc9e8cd8106f8d94c636d4","fixation","img/fixation.png","null","","test","","","","","",""
"642.5","307417","pSARL_v2","pSARL_v2ppdb619j","63bc9e8cd8106f8d94c636d4","freq","img/orange_2bandit_a2.png","70","70","test","1","191","191","9","",""
"null","307589","pSARL_v2","pSARL_v2ppdb619j","63bc9e8cd8106f8d94c636d4","freq_resp","img/orange_2bandit_a.png","70","70","test","","","","9","",""
"null","307755","pSARL_v2","pSARL_v2ppdb619j","63bc9e8cd8106f8d94c636d4","fixation","img/fixation.png","null","","test","","","","","",""
"555","308314","pSARL_v2","pSARL_v2ppdb619j","63bc9e8cd8106f8d94c636d4","freq","img/orange_2bandit_a2.png","70","70","test","1","192","192","9","",""
"null","308569","pSARL_v2","pSARL_v2ppdb619j","63bc9e8cd8106f8d94c636d4","freq_resp","img/orange_2bandit_a.png","70","70","test","","","","9","",""
"null","308733","pSARL_v2","pSARL_v2ppdb619j","63bc9e8cd8106f8d94c636d4","fixation","img/fixation.png","null","","test","","","","","",""
"435.2000000476837","309172","pSARL_v2","pSARL_v2ppdb619j","63bc9e8cd8106f8d94c636d4","freq","img/orange_2bandit_a2.png","70","70","test","1","193","193","9","",""
"null","309549","pSARL_v2","pSARL_v2ppdb619j","63bc9e8cd8106f8d94c636d4","freq_resp","img/orange_2bandit_a.png","70","70","test","","","","9","",""
"null","309718","pSARL_v2","pSARL_v2ppdb619j","63bc9e8cd8106f8d94c636d4","fixation","img/fixation.png","null","","test","","","","","",""
"379.60000002384186","310101","pSARL_v2","pSARL_v2ppdb619j","63bc9e8cd8106f8d94c636d4","freq","img/orange_2bandit_a2.png","70","70","test","1","194","194","9","",""
"null","310529","pSARL_v2","pSARL_v2ppdb619j","63bc9e8cd8106f8d94c636d4","freq_resp","img/orange_2bandit_a.png","70","70","test","","","","9","",""
"null","310689","pSARL_v2","pSARL_v2ppdb619j","63bc9e8cd8106f8d94c636d4","fixation","img/fixation.png","null","","test","","","","","",""
"372.0999999642372","311064","pSARL_v2","pSARL_v2ppdb619j","63bc9e8cd8106f8d94c636d4","freq","img/orange_2bandit_a2.png","70","70","test","1","195","195","9","",""
"null","311506","pSARL_v2","pSARL_v2ppdb619j","63bc9e8cd8106f8d94c636d4","freq_resp","img/orange_2bandit_a.png","70","70","test","","","","9","",""
"null","311666","pSARL_v2","pSARL_v2ppdb619j","63bc9e8cd8106f8d94c636d4","fixation","img/fixation.png","null","","test","","","","","",""
"288.19999998807907","311959","pSARL_v2","pSARL_v2ppdb619j","63bc9e8cd8106f8d94c636d4","freq","img/orange_2bandit_a2.png","70","70","test","1","196","196","9","",""
"null","312484","pSARL_v2","pSARL_v2ppdb619j","63bc9e8cd8106f8d94c636d4","freq_resp","img/orange_2bandit_a.png","70","70","test","","","","9","",""
"null","312641","pSARL_v2","pSARL_v2ppdb619j","63bc9e8cd8106f8d94c636d4","fixation","img/fixation.png","null","","test","","","","","",""
"197.5","312842","pSARL_v2","pSARL_v2ppdb619j","63bc9e8cd8106f8d94c636d4","freq","img/orange_2bandit_a2.png","70","70","test","1","197","197","9","",""
"null","313450","pSARL_v2","pSARL_v2ppdb619j","63bc9e8cd8106f8d94c636d4","freq_resp","img/orange_2bandit_a.png","70","70","test","","","","9","",""
"null","313612","pSARL_v2","pSARL_v2ppdb619j","63bc9e8cd8106f8d94c636d4","fixation","img/fixation.png","null","","test","","","","","",""
"328.80000001192093","313945","pSARL_v2","pSARL_v2ppdb619j","63bc9e8cd8106f8d94c636d4","freq","img/orange_2bandit_a2.png","70","70","test","1","198","198","9","",""
"null","314430","pSARL_v2","pSARL_v2ppdb619j","63bc9e8cd8106f8d94c636d4","freq_resp","img/orange_2bandit_a.png","70","70","test","","","","9","",""
"null","314593","pSARL_v2","pSARL_v2ppdb619j","63bc9e8cd8106f8d94c636d4","fixation","img/fixation.png","null","","test","","","","","",""
"310.5","314907","pSARL_v2","pSARL_v2ppdb619j","63bc9e8cd8106f8d94c636d4","freq","img/orange_2bandit_a2.png","70","70","test","1","199","199","9","",""
"null","315411","pSARL_v2","pSARL_v2ppdb619j","63bc9e8cd8106f8d94c636d4","freq_resp","img/orange_2bandit_a.png","70","70","test","","","","9","",""
"null","315572","pSARL_v2","pSARL_v2ppdb619j","63bc9e8cd8106f8d94c636d4","fixation","img/fixation.png","null","","test","","","","","",""
"338","315914","pSARL_v2","pSARL_v2ppdb619j","63bc9e8cd8106f8d94c636d4","freq","img/orange_2bandit_a2.png","70","70","test","1","200","200","9","",""
"null","316385","pSARL_v2","pSARL_v2ppdb619j","63bc9e8cd8106f8d94c636d4","freq_resp","img/orange_2bandit_a.png","70","70","test","","","","9","",""
"null","316550","pSARL_v2","pSARL_v2ppdb619j","63bc9e8cd8106f8d94c636d4","fixation","img/fixation.png","null","","test","","","","","",""
"270.19999998807907","316825","pSARL_v2","pSARL_v2ppdb619j","63bc9e8cd8106f8d94c636d4","infreq","img/green_2bandit_a2.png","70","68","test","0","201","201","9","",""
"null","317359","pSARL_v2","pSARL_v2ppdb619j","63bc9e8cd8106f8d94c636d4","infreq_resp","img/green_2bandit_a.png","70","68","test","","","","9","",""
"null","317521","pSARL_v2","pSARL_v2ppdb619j","63bc9e8cd8106f8d94c636d4","fixation","img/fixation.png","null","","test","","","","","",""
"650.6999999880791","318175","pSARL_v2","pSARL_v2ppdb619j","63bc9e8cd8106f8d94c636d4","freq","img/orange_2bandit_a2.png","70","70","test","1","202","202","9","",""
"null","318331","pSARL_v2","pSARL_v2ppdb619j","63bc9e8cd8106f8d94c636d4","freq_resp","img/orange_2bandit_a.png","70","70","test","","","","9","",""
"null","318489","pSARL_v2","pSARL_v2ppdb619j","63bc9e8cd8106f8d94c636d4","fixation","img/fixation.png","null","","test","","","","","",""
"517.8999999761581","319010","pSARL_v2","pSARL_v2ppdb619j","63bc9e8cd8106f8d94c636d4","freq","img/orange_2bandit_a2.png","70","70","test","1","203","203","9","",""
"null","319304","pSARL_v2","pSARL_v2ppdb619j","63bc9e8cd8106f8d94c636d4","freq_resp","img/orange_2bandit_a.png","70","70","test","","","","9","",""
"null","319466","pSARL_v2","pSARL_v2ppdb619j","63bc9e8cd8106f8d94c636d4","fixation","img/fixation.png","null","","test","","","","","",""
"428","319897","pSARL_v2","pSARL_v2ppdb619j","63bc9e8cd8106f8d94c636d4","freq","img/orange_2bandit_a2.png","70","70","test","1","204","204","9","",""
"null","320285","pSARL_v2","pSARL_v2ppdb619j","63bc9e8cd8106f8d94c636d4","freq_resp","img/orange_2bandit_a.png","70","70","test","","","","9","",""
"null","320451","pSARL_v2","pSARL_v2ppdb619j","63bc9e8cd8106f8d94c636d4","fixation","img/fixation.png","null","","test","","","","","",""
"484","320938","pSARL_v2","pSARL_v2ppdb619j","63bc9e8cd8106f8d94c636d4","infreq","img/green_2bandit_a2.png","68","68","test","1","205","205","9","",""
"null","321264","pSARL_v2","pSARL_v2ppdb619j","63bc9e8cd8106f8d94c636d4","infreq_resp","img/green_2bandit_a.png","68","68","test","","","","9","",""
"null","321427","pSARL_v2","pSARL_v2ppdb619j","63bc9e8cd8106f8d94c636d4","fixation","img/fixation.png","null","","test","","","","","",""
"652.0999999642372","322082","pSARL_v2","pSARL_v2ppdb619j","63bc9e8cd8106f8d94c636d4","freq","img/orange_2bandit_a2.png","70","70","test","1","206","206","9","",""
"null","322246","pSARL_v2","pSARL_v2ppdb619j","63bc9e8cd8106f8d94c636d4","freq_resp","img/orange_2bandit_a.png","70","70","test","","","","9","",""
"null","322411","pSARL_v2","pSARL_v2ppdb619j","63bc9e8cd8106f8d94c636d4","fixation","img/fixation.png","null","","test","","","","","",""
"581.0999999642372","322996","pSARL_v2","pSARL_v2ppdb619j","63bc9e8cd8106f8d94c636d4","freq","img/orange_2bandit_a2.png","70","70","test","1","207","207","9","",""
"null","323226","pSARL_v2","pSARL_v2ppdb619j","63bc9e8cd8106f8d94c636d4","freq_resp","img/orange_2bandit_a.png","70","70","test","","","","9","",""
"null","323390","pSARL_v2","pSARL_v2ppdb619j","63bc9e8cd8106f8d94c636d4","fixation","img/fixation.png","null","","test","","","","","",""
"387","323782","pSARL_v2","pSARL_v2ppdb619j","63bc9e8cd8106f8d94c636d4","freq","img/orange_2bandit_a2.png","70","70","test","1","208","208","9","",""
"null","324206","pSARL_v2","pSARL_v2ppdb619j","63bc9e8cd8106f8d94c636d4","freq_resp","img/orange_2bandit_a.png","70","70","test","","","","9","",""
"null","324370","pSARL_v2","pSARL_v2ppdb619j","63bc9e8cd8106f8d94c636d4","fixation","img/fixation.png","null","","test","","","","","",""
"388.19999998807907","324762","pSARL_v2","pSARL_v2ppdb619j","63bc9e8cd8106f8d94c636d4","freq","img/orange_2bandit_a2.png","70","70","test","1","209","209","9","",""
"null","325190","pSARL_v2","pSARL_v2ppdb619j","63bc9e8cd8106f8d94c636d4","freq_resp","img/orange_2bandit_a.png","70","70","test","","","","9","",""
"null","325358","pSARL_v2","pSARL_v2ppdb619j","63bc9e8cd8106f8d94c636d4","fixation","img/fixation.png","null","","test","","","","","",""
