"rt","time_elapsed","expId","subject","prolificID","trialType","stimulus","key_press","corrresp","phase","corr","trialNum","attentionRunNum","blockNum","points","rlNum"
"11451.899999976158","11455","pSARL_v2","pSARL_v2auj2dg8p","6129ba3532102d5c539ff29b","","","","","","","","","","",""
"","13497","pSARL_v2","pSARL_v2auj2dg8p","6129ba3532102d5c539ff29b","fullscreen","","","","","","","","","",""
"96690.69999992847","110192","pSARL_v2","pSARL_v2auj2dg8p","6129ba3532102d5c539ff29b","","","","","","","","","","",""
"null","110998","pSARL_v2","pSARL_v2auj2dg8p","6129ba3532102d5c539ff29b","freqPrac","img/orange_2bandit_a2.png","null","70","prac","0","","","","",""
"null","112008","pSARL_v2","pSARL_v2auj2dg8p","6129ba3532102d5c539ff29b","feedback","img/tooSlow.png","null","na","prac","","","","","",""
"null","112161","pSARL_v2","pSARL_v2auj2dg8p","6129ba3532102d5c539ff29b","fixation","img/fixation.png","null","","prac","","","","","",""
"706.6000000238419","112872","pSARL_v2","pSARL_v2auj2dg8p","6129ba3532102d5c539ff29b","infreqPrac","img/green_2bandit_a2.png","70","68","prac","0","","","","",""
"706.6000000238419","112976","pSARL_v2","pSARL_v2auj2dg8p","6129ba3532102d5c539ff29b","infreqPrac_resp","img/green_2bandit_a.png","70","68","prac","","","","","",""
"null","113991","pSARL_v2","pSARL_v2auj2dg8p","6129ba3532102d5c539ff29b","feedback","img/wrongKey.png","null","na","prac","","","","","",""
"null","114145","pSARL_v2","pSARL_v2auj2dg8p","6129ba3532102d5c539ff29b","fixation","img/fixation.png","null","","prac","","","","","",""
"411.2999999523163","114559","pSARL_v2","pSARL_v2auj2dg8p","6129ba3532102d5c539ff29b","freqPrac","img/orange_2bandit_a2.png","70","70","prac","1","","","","",""
"411.2999999523163","114960","pSARL_v2","pSARL_v2auj2dg8p","6129ba3532102d5c539ff29b","freqPrac_resp","img/orange_2bandit_a.png","70","70","prac","","","","","",""
"null","115129","pSARL_v2","pSARL_v2auj2dg8p","6129ba3532102d5c539ff29b","fixation","img/fixation.png","null","","prac","","","","","",""
"270.3000000715256","115403","pSARL_v2","pSARL_v2auj2dg8p","6129ba3532102d5c539ff29b","infreqPrac","img/green_2bandit_a2.png","68","68","prac","1","","","","",""
"270.3000000715256","115944","pSARL_v2","pSARL_v2auj2dg8p","6129ba3532102d5c539ff29b","infreqPrac_resp","img/green_2bandit_a.png","68","68","prac","","","","","",""
"null","116114","pSARL_v2","pSARL_v2auj2dg8p","6129ba3532102d5c539ff29b","fixation","img/fixation.png","null","","prac","","","","","",""
"298.3000000715256","116415","pSARL_v2","pSARL_v2auj2dg8p","6129ba3532102d5c539ff29b","infreqPrac","img/green_2bandit_a2.png","68","68","prac","1","","","","",""
"298.3000000715256","116929","pSARL_v2","pSARL_v2auj2dg8p","6129ba3532102d5c539ff29b","infreqPrac_resp","img/green_2bandit_a.png","68","68","prac","","","","","",""
"null","117097","pSARL_v2","pSARL_v2auj2dg8p","6129ba3532102d5c539ff29b","fixation","img/fixation.png","null","","prac","","","","","",""
"237.89999997615814","117338","pSARL_v2","pSARL_v2auj2dg8p","6129ba3532102d5c539ff29b","infreqPrac","img/green_2bandit_a2.png","68","68","prac","1","","","","",""
"237.89999997615814","117912","pSARL_v2","pSARL_v2auj2dg8p","6129ba3532102d5c539ff29b","infreqPrac_resp","img/green_2bandit_a.png","68","68","prac","","","","","",""
"null","118081","pSARL_v2","pSARL_v2auj2dg8p","6129ba3532102d5c539ff29b","fixation","img/fixation.png","null","","prac","","","","","",""
"244","118328","pSARL_v2","pSARL_v2auj2dg8p","6129ba3532102d5c539ff29b","freqPrac","img/orange_2bandit_a2.png","68","70","prac","0","","","","",""
"244","118895","pSARL_v2","pSARL_v2auj2dg8p","6129ba3532102d5c539ff29b","freqPrac_resp","img/orange_2bandit_a.png","68","70","prac","","","","","",""
"null","119910","pSARL_v2","pSARL_v2auj2dg8p","6129ba3532102d5c539ff29b","feedback","img/wrongKey.png","null","na","prac","","","","","",""
"null","120064","pSARL_v2","pSARL_v2auj2dg8p","6129ba3532102d5c539ff29b","fixation","img/fixation.png","null","","prac","","","","","",""
"736.2000000476837","120803","pSARL_v2","pSARL_v2auj2dg8p","6129ba3532102d5c539ff29b","infreqPrac","img/green_2bandit_a2.png","68","68","prac","1","","","","",""
"736.2000000476837","120879","pSARL_v2","pSARL_v2auj2dg8p","6129ba3532102d5c539ff29b","infreqPrac_resp","img/green_2bandit_a.png","68","68","prac","","","","","",""
"null","121047","pSARL_v2","pSARL_v2auj2dg8p","6129ba3532102d5c539ff29b","fixation","img/fixation.png","null","","prac","","","","","",""
"359.10000002384186","121410","pSARL_v2","pSARL_v2auj2dg8p","6129ba3532102d5c539ff29b","freqPrac","img/orange_2bandit_a2.png","70","70","prac","1","","","","",""
"359.10000002384186","121863","pSARL_v2","pSARL_v2auj2dg8p","6129ba3532102d5c539ff29b","freqPrac_resp","img/orange_2bandit_a.png","70","70","prac","","","","","",""
"null","122032","pSARL_v2","pSARL_v2auj2dg8p","6129ba3532102d5c539ff29b","fixation","img/fixation.png","null","","prac","","","","","",""
"297.89999997615814","122333","pSARL_v2","pSARL_v2auj2dg8p","6129ba3532102d5c539ff29b","freqPrac","img/orange_2bandit_a2.png","70","70","prac","1","","","","",""
"297.89999997615814","122848","pSARL_v2","pSARL_v2auj2dg8p","6129ba3532102d5c539ff29b","freqPrac_resp","img/orange_2bandit_a.png","70","70","prac","","","","","",""
"null","123001","pSARL_v2","pSARL_v2auj2dg8p","6129ba3532102d5c539ff29b","fixation","img/fixation.png","null","","prac","","","","","",""
"15775.300000071526","138780","pSARL_v2","pSARL_v2auj2dg8p","6129ba3532102d5c539ff29b","","","","","prac","","","","","",""
"2933.899999976158","141716","pSARL_v2","pSARL_v2auj2dg8p","6129ba3532102d5c539ff29b","rewardPractice","img/slot.png","74","","prac","","","","","",""
"null","142482","pSARL_v2","pSARL_v2auj2dg8p","6129ba3532102d5c539ff29b","feedback","<div class=""veryhighPoints""> +15 </div>","null","na","prac","","","","","",""
"null","142635","pSARL_v2","pSARL_v2auj2dg8p","6129ba3532102d5c539ff29b","fixation","img/fixation.png","null","","prac","","","","","",""
"9608.399999976158","152246","pSARL_v2","pSARL_v2auj2dg8p","6129ba3532102d5c539ff29b","","","","","prac","","","","","",""
"738.7999999523163","152988","pSARL_v2","pSARL_v2auj2dg8p","6129ba3532102d5c539ff29b","freq","img/orange_2bandit_a2.png","70","70","test","1","1","1","1","",""
"null","153055","pSARL_v2","pSARL_v2auj2dg8p","6129ba3532102d5c539ff29b","freq_resp","img/orange_2bandit_a.png","70","70","test","","","","1","",""
"null","153209","pSARL_v2","pSARL_v2auj2dg8p","6129ba3532102d5c539ff29b","fixation","img/fixation.png","null","","test","","","","","",""
"407.60000002384186","153619","pSARL_v2","pSARL_v2auj2dg8p","6129ba3532102d5c539ff29b","infreq","img/green_2bandit_a2.png","68","68","test","1","2","2","1","",""
"null","154024","pSARL_v2","pSARL_v2auj2dg8p","6129ba3532102d5c539ff29b","infreq_resp","img/green_2bandit_a.png","68","68","test","","","","1","",""
"null","154192","pSARL_v2","pSARL_v2auj2dg8p","6129ba3532102d5c539ff29b","fixation","img/fixation.png","null","","test","","","","","",""
"436.2000000476837","154632","pSARL_v2","pSARL_v2auj2dg8p","6129ba3532102d5c539ff29b","freq","img/orange_2bandit_a2.png","70","70","test","1","3","3","1","",""
"null","155009","pSARL_v2","pSARL_v2auj2dg8p","6129ba3532102d5c539ff29b","freq_resp","img/orange_2bandit_a.png","70","70","test","","","","1","",""
"null","155163","pSARL_v2","pSARL_v2auj2dg8p","6129ba3532102d5c539ff29b","fixation","img/fixation.png","null","","test","","","","","",""
"579.5","155745","pSARL_v2","pSARL_v2auj2dg8p","6129ba3532102d5c539ff29b","freq","img/orange_2bandit_a2.png","70","70","test","1","4","4","1","",""
"null","155978","pSARL_v2","pSARL_v2auj2dg8p","6129ba3532102d5c539ff29b","freq_resp","img/orange_2bandit_a.png","70","70","test","","","","1","",""
"null","156132","pSARL_v2","pSARL_v2auj2dg8p","6129ba3532102d5c539ff29b","fixation","img/fixation.png","null","","test","","","","","",""
"375","156510","pSARL_v2","pSARL_v2auj2dg8p","6129ba3532102d5c539ff29b","freq","img/orange_2bandit_a2.png","70","70","test","1","5","5","1","",""
"null","156947","pSARL_v2","pSARL_v2auj2dg8p","6129ba3532102d5c539ff29b","freq_resp","img/orange_2bandit_a.png","70","70","test","","","","1","",""
"null","157100","pSARL_v2","pSARL_v2auj2dg8p","6129ba3532102d5c539ff29b","fixation","img/fixation.png","null","","test","","","","","",""
"341.2000000476837","157444","pSARL_v2","pSARL_v2auj2dg8p","6129ba3532102d5c539ff29b","freq","img/orange_2bandit_a2.png","70","70","test","1","6","6","1","",""
"null","157915","pSARL_v2","pSARL_v2auj2dg8p","6129ba3532102d5c539ff29b","freq_resp","img/orange_2bandit_a.png","70","70","test","","","","1","",""
"null","158084","pSARL_v2","pSARL_v2auj2dg8p","6129ba3532102d5c539ff29b","fixation","img/fixation.png","null","","test","","","","","",""
"391.8000000715256","158479","pSARL_v2","pSARL_v2auj2dg8p","6129ba3532102d5c539ff29b","freq","img/orange_2bandit_a2.png","70","70","test","1","7","7","1","",""
"null","158898","pSARL_v2","pSARL_v2auj2dg8p","6129ba3532102d5c539ff29b","freq_resp","img/orange_2bandit_a.png","70","70","test","","","","1","",""
"null","159052","pSARL_v2","pSARL_v2auj2dg8p","6129ba3532102d5c539ff29b","fixation","img/fixation.png","null","","test","","","","","",""
"244.79999995231628","159300","pSARL_v2","pSARL_v2auj2dg8p","6129ba3532102d5c539ff29b","freq","img/orange_2bandit_a2.png","70","70","test","1","8","8","1","",""
"null","159867","pSARL_v2","pSARL_v2auj2dg8p","6129ba3532102d5c539ff29b","freq_resp","img/orange_2bandit_a.png","70","70","test","","","","1","",""
"null","160022","pSARL_v2","pSARL_v2auj2dg8p","6129ba3532102d5c539ff29b","fixation","img/fixation.png","null","","test","","","","","",""
"344.39999997615814","160369","pSARL_v2","pSARL_v2auj2dg8p","6129ba3532102d5c539ff29b","freq","img/orange_2bandit_a2.png","70","70","test","1","9","9","1","",""
"null","160836","pSARL_v2","pSARL_v2auj2dg8p","6129ba3532102d5c539ff29b","freq_resp","img/orange_2bandit_a.png","70","70","test","","","","1","",""
"null","160990","pSARL_v2","pSARL_v2auj2dg8p","6129ba3532102d5c539ff29b","fixation","img/fixation.png","null","","test","","","","","",""
"264.5","161259","pSARL_v2","pSARL_v2auj2dg8p","6129ba3532102d5c539ff29b","freq","img/orange_2bandit_a2.png","70","70","test","1","10","10","1","",""
"null","161804","pSARL_v2","pSARL_v2auj2dg8p","6129ba3532102d5c539ff29b","freq_resp","img/orange_2bandit_a.png","70","70","test","","","","1","",""
"null","161958","pSARL_v2","pSARL_v2auj2dg8p","6129ba3532102d5c539ff29b","fixation","img/fixation.png","null","","test","","","","","",""
"456.1999999284744","162417","pSARL_v2","pSARL_v2auj2dg8p","6129ba3532102d5c539ff29b","infreq","img/green_2bandit_a2.png","68","68","test","1","11","11","1","",""
"null","162772","pSARL_v2","pSARL_v2auj2dg8p","6129ba3532102d5c539ff29b","infreq_resp","img/green_2bandit_a.png","68","68","test","","","","1","",""
"null","162926","pSARL_v2","pSARL_v2auj2dg8p","6129ba3532102d5c539ff29b","fixation","img/fixation.png","null","","test","","","","","",""
"409.89999997615814","163339","pSARL_v2","pSARL_v2auj2dg8p","6129ba3532102d5c539ff29b","freq","img/orange_2bandit_a2.png","70","70","test","1","12","12","1","",""
"null","163742","pSARL_v2","pSARL_v2auj2dg8p","6129ba3532102d5c539ff29b","freq_resp","img/orange_2bandit_a.png","70","70","test","","","","1","",""
"null","163896","pSARL_v2","pSARL_v2auj2dg8p","6129ba3532102d5c539ff29b","fixation","img/fixation.png","null","","test","","","","","",""
"272.2000000476837","164172","pSARL_v2","pSARL_v2auj2dg8p","6129ba3532102d5c539ff29b","freq","img/orange_2bandit_a2.png","70","70","test","1","13","13","1","",""
"null","164711","pSARL_v2","pSARL_v2auj2dg8p","6129ba3532102d5c539ff29b","freq_resp","img/orange_2bandit_a.png","70","70","test","","","","1","",""
"null","164865","pSARL_v2","pSARL_v2auj2dg8p","6129ba3532102d5c539ff29b","fixation","img/fixation.png","null","","test","","","","","",""
"304.39999997615814","165172","pSARL_v2","pSARL_v2auj2dg8p","6129ba3532102d5c539ff29b","freq","img/orange_2bandit_a2.png","70","70","test","1","14","14","1","",""
"null","165679","pSARL_v2","pSARL_v2auj2dg8p","6129ba3532102d5c539ff29b","freq_resp","img/orange_2bandit_a.png","70","70","test","","","","1","",""
"null","165833","pSARL_v2","pSARL_v2auj2dg8p","6129ba3532102d5c539ff29b","fixation","img/fixation.png","null","","test","","","","","",""
"281.7000000476837","166118","pSARL_v2","pSARL_v2auj2dg8p","6129ba3532102d5c539ff29b","freq","img/orange_2bandit_a2.png","70","70","test","1","15","15","1","",""
"null","166647","pSARL_v2","pSARL_v2auj2dg8p","6129ba3532102d5c539ff29b","freq_resp","img/orange_2bandit_a.png","70","70","test","","","","1","",""
"null","166801","pSARL_v2","pSARL_v2auj2dg8p","6129ba3532102d5c539ff29b","fixation","img/fixation.png","null","","test","","","","","",""
"236.39999997615814","167040","pSARL_v2","pSARL_v2auj2dg8p","6129ba3532102d5c539ff29b","freq","img/orange_2bandit_a2.png","70","70","test","1","16","16","1","",""
"null","167616","pSARL_v2","pSARL_v2auj2dg8p","6129ba3532102d5c539ff29b","freq_resp","img/orange_2bandit_a.png","70","70","test","","","","1","",""
"null","167770","pSARL_v2","pSARL_v2auj2dg8p","6129ba3532102d5c539ff29b","fixation","img/fixation.png","null","","test","","","","","",""
"257.2999999523163","168030","pSARL_v2","pSARL_v2auj2dg8p","6129ba3532102d5c539ff29b","freq","img/orange_2bandit_a2.png","70","70","test","1","17","17","1","",""
"null","168587","pSARL_v2","pSARL_v2auj2dg8p","6129ba3532102d5c539ff29b","freq_resp","img/orange_2bandit_a.png","70","70","test","","","","1","",""
"null","168741","pSARL_v2","pSARL_v2auj2dg8p","6129ba3532102d5c539ff29b","fixation","img/fixation.png","null","","test","","","","","",""
"253.5","168999","pSARL_v2","pSARL_v2auj2dg8p","6129ba3532102d5c539ff29b","freq","img/orange_2bandit_a2.png","70","70","test","1","18","18","1","",""
"null","169556","pSARL_v2","pSARL_v2auj2dg8p","6129ba3532102d5c539ff29b","freq_resp","img/orange_2bandit_a.png","70","70","test","","","","1","",""
"null","169710","pSARL_v2","pSARL_v2auj2dg8p","6129ba3532102d5c539ff29b","fixation","img/fixation.png","null","","test","","","","","",""
"285.7999999523163","169999","pSARL_v2","pSARL_v2auj2dg8p","6129ba3532102d5c539ff29b","freq","img/orange_2bandit_a2.png","70","70","test","1","19","19","1","",""
"null","170527","pSARL_v2","pSARL_v2auj2dg8p","6129ba3532102d5c539ff29b","freq_resp","img/orange_2bandit_a.png","70","70","test","","","","1","",""
"null","170681","pSARL_v2","pSARL_v2auj2dg8p","6129ba3532102d5c539ff29b","fixation","img/fixation.png","null","","test","","","","","",""
"259.7000000476837","170944","pSARL_v2","pSARL_v2auj2dg8p","6129ba3532102d5c539ff29b","freq","img/orange_2bandit_a2.png","70","70","test","1","20","20","1","",""
"null","171496","pSARL_v2","pSARL_v2auj2dg8p","6129ba3532102d5c539ff29b","freq_resp","img/orange_2bandit_a.png","70","70","test","","","","1","",""
"null","171650","pSARL_v2","pSARL_v2auj2dg8p","6129ba3532102d5c539ff29b","fixation","img/fixation.png","null","","test","","","","","",""
"281.5","171934","pSARL_v2","pSARL_v2auj2dg8p","6129ba3532102d5c539ff29b","freq","img/orange_2bandit_a2.png","70","70","test","1","21","21","1","",""
"null","172465","pSARL_v2","pSARL_v2auj2dg8p","6129ba3532102d5c539ff29b","freq_resp","img/orange_2bandit_a.png","70","70","test","","","","1","",""
"null","172619","pSARL_v2","pSARL_v2auj2dg8p","6129ba3532102d5c539ff29b","fixation","img/fixation.png","null","","test","","","","","",""
"246.70000004768372","172868","pSARL_v2","pSARL_v2auj2dg8p","6129ba3532102d5c539ff29b","freq","img/orange_2bandit_a2.png","70","70","test","1","22","22","1","",""
"null","173436","pSARL_v2","pSARL_v2auj2dg8p","6129ba3532102d5c539ff29b","freq_resp","img/orange_2bandit_a.png","70","70","test","","","","1","",""
"null","173589","pSARL_v2","pSARL_v2auj2dg8p","6129ba3532102d5c539ff29b","fixation","img/fixation.png","null","","test","","","","","",""
"299.60000002384186","173891","pSARL_v2","pSARL_v2auj2dg8p","6129ba3532102d5c539ff29b","freq","img/orange_2bandit_a2.png","70","70","test","1","23","23","1","",""
"null","174405","pSARL_v2","pSARL_v2auj2dg8p","6129ba3532102d5c539ff29b","freq_resp","img/orange_2bandit_a.png","70","70","test","","","","1","",""
"null","174573","pSARL_v2","pSARL_v2auj2dg8p","6129ba3532102d5c539ff29b","fixation","img/fixation.png","null","","test","","","","","",""
"248.5","174825","pSARL_v2","pSARL_v2auj2dg8p","6129ba3532102d5c539ff29b","freq","img/orange_2bandit_a2.png","70","70","test","1","24","24","1","",""
"null","175389","pSARL_v2","pSARL_v2auj2dg8p","6129ba3532102d5c539ff29b","freq_resp","img/orange_2bandit_a.png","70","70","test","","","","1","",""
"null","175557","pSARL_v2","pSARL_v2auj2dg8p","6129ba3532102d5c539ff29b","fixation","img/fixation.png","null","","test","","","","","",""
"277.7999999523163","175838","pSARL_v2","pSARL_v2auj2dg8p","6129ba3532102d5c539ff29b","freq","img/orange_2bandit_a2.png","70","70","test","1","25","25","1","",""
"null","176372","pSARL_v2","pSARL_v2auj2dg8p","6129ba3532102d5c539ff29b","freq_resp","img/orange_2bandit_a.png","70","70","test","","","","1","",""
"null","176541","pSARL_v2","pSARL_v2auj2dg8p","6129ba3532102d5c539ff29b","fixation","img/fixation.png","null","","test","","","","","",""
"272.3000000715256","176817","pSARL_v2","pSARL_v2auj2dg8p","6129ba3532102d5c539ff29b","freq","img/orange_2bandit_a2.png","70","70","test","1","26","26","1","",""
"null","177356","pSARL_v2","pSARL_v2auj2dg8p","6129ba3532102d5c539ff29b","freq_resp","img/orange_2bandit_a.png","70","70","test","","","","1","",""
"null","177511","pSARL_v2","pSARL_v2auj2dg8p","6129ba3532102d5c539ff29b","fixation","img/fixation.png","null","","test","","","","","",""
"686.7999999523163","178200","pSARL_v2","pSARL_v2auj2dg8p","6129ba3532102d5c539ff29b","reward","img/slot.png","74","","test","","","","","",""
"null","178957","pSARL_v2","pSARL_v2auj2dg8p","6129ba3532102d5c539ff29b","points","<div class=""verylowPoints""> -6 </div>","null","na","test","","","","1","-6","0"
"null","179773","pSARL_v2","pSARL_v2auj2dg8p","6129ba3532102d5c539ff29b","freq","img/orange_2bandit_a2.png","null","70","test","0","27","27","2","",""
"null","179927","pSARL_v2","pSARL_v2auj2dg8p","6129ba3532102d5c539ff29b","fixation","img/fixation.png","null","","test","","","","","",""
"531.2999999523163","180461","pSARL_v2","pSARL_v2auj2dg8p","6129ba3532102d5c539ff29b","freq","img/orange_2bandit_a2.png","70","70","test","1","28","28","2","",""
"null","180743","pSARL_v2","pSARL_v2auj2dg8p","6129ba3532102d5c539ff29b","freq_resp","img/orange_2bandit_a.png","70","70","test","","","","2","",""
"null","180912","pSARL_v2","pSARL_v2auj2dg8p","6129ba3532102d5c539ff29b","fixation","img/fixation.png","null","","test","","","","","",""
"334.2000000476837","181249","pSARL_v2","pSARL_v2auj2dg8p","6129ba3532102d5c539ff29b","infreq","img/green_2bandit_a2.png","68","68","test","1","29","29","2","",""
"null","181727","pSARL_v2","pSARL_v2auj2dg8p","6129ba3532102d5c539ff29b","infreq_resp","img/green_2bandit_a.png","68","68","test","","","","2","",""
"null","181881","pSARL_v2","pSARL_v2auj2dg8p","6129ba3532102d5c539ff29b","fixation","img/fixation.png","null","","test","","","","","",""
"343.90000009536743","182228","pSARL_v2","pSARL_v2auj2dg8p","6129ba3532102d5c539ff29b","freq","img/orange_2bandit_a2.png","70","70","test","1","30","30","2","",""
"null","182696","pSARL_v2","pSARL_v2auj2dg8p","6129ba3532102d5c539ff29b","freq_resp","img/orange_2bandit_a.png","70","70","test","","","","2","",""
"null","182865","pSARL_v2","pSARL_v2auj2dg8p","6129ba3532102d5c539ff29b","fixation","img/fixation.png","null","","test","","","","","",""
"271.8000000715256","183140","pSARL_v2","pSARL_v2auj2dg8p","6129ba3532102d5c539ff29b","freq","img/orange_2bandit_a2.png","70","70","test","1","31","31","2","",""
"null","183683","pSARL_v2","pSARL_v2auj2dg8p","6129ba3532102d5c539ff29b","freq_resp","img/orange_2bandit_a.png","70","70","test","","","","2","",""
"null","183836","pSARL_v2","pSARL_v2auj2dg8p","6129ba3532102d5c539ff29b","fixation","img/fixation.png","null","","test","","","","","",""
"256.2999999523163","184095","pSARL_v2","pSARL_v2auj2dg8p","6129ba3532102d5c539ff29b","freq","img/orange_2bandit_a2.png","70","70","test","1","32","32","2","",""
"null","184654","pSARL_v2","pSARL_v2auj2dg8p","6129ba3532102d5c539ff29b","freq_resp","img/orange_2bandit_a.png","70","70","test","","","","2","",""
"null","184808","pSARL_v2","pSARL_v2auj2dg8p","6129ba3532102d5c539ff29b","fixation","img/fixation.png","null","","test","","","","","",""
"263.7000000476837","185075","pSARL_v2","pSARL_v2auj2dg8p","6129ba3532102d5c539ff29b","freq","img/orange_2bandit_a2.png","70","70","test","1","33","33","2","",""
"null","185622","pSARL_v2","pSARL_v2auj2dg8p","6129ba3532102d5c539ff29b","freq_resp","img/orange_2bandit_a.png","70","70","test","","","","2","",""
"null","185776","pSARL_v2","pSARL_v2auj2dg8p","6129ba3532102d5c539ff29b","fixation","img/fixation.png","null","","test","","","","","",""
"251.60000002384186","186031","pSARL_v2","pSARL_v2auj2dg8p","6129ba3532102d5c539ff29b","freq","img/orange_2bandit_a2.png","70","70","test","1","34","34","2","",""
"null","186591","pSARL_v2","pSARL_v2auj2dg8p","6129ba3532102d5c539ff29b","freq_resp","img/orange_2bandit_a.png","70","70","test","","","","2","",""
"null","186746","pSARL_v2","pSARL_v2auj2dg8p","6129ba3532102d5c539ff29b","fixation","img/fixation.png","null","","test","","","","","",""
"271.2000000476837","187020","pSARL_v2","pSARL_v2auj2dg8p","6129ba3532102d5c539ff29b","freq","img/orange_2bandit_a2.png","70","70","test","1","35","35","2","",""
"null","187561","pSARL_v2","pSARL_v2auj2dg8p","6129ba3532102d5c539ff29b","freq_resp","img/orange_2bandit_a.png","70","70","test","","","","2","",""
"null","187715","pSARL_v2","pSARL_v2auj2dg8p","6129ba3532102d5c539ff29b","fixation","img/fixation.png","null","","test","","","","","",""
"247.59999990463257","187965","pSARL_v2","pSARL_v2auj2dg8p","6129ba3532102d5c539ff29b","freq","img/orange_2bandit_a2.png","70","70","test","1","36","36","2","",""
"null","188531","pSARL_v2","pSARL_v2auj2dg8p","6129ba3532102d5c539ff29b","freq_resp","img/orange_2bandit_a.png","70","70","test","","","","2","",""
"null","188685","pSARL_v2","pSARL_v2auj2dg8p","6129ba3532102d5c539ff29b","fixation","img/fixation.png","null","","test","","","","","",""
"245.30000007152557","188933","pSARL_v2","pSARL_v2auj2dg8p","6129ba3532102d5c539ff29b","freq","img/orange_2bandit_a2.png","70","70","test","1","37","37","2","",""
"null","189500","pSARL_v2","pSARL_v2auj2dg8p","6129ba3532102d5c539ff29b","freq_resp","img/orange_2bandit_a.png","70","70","test","","","","2","",""
"null","189653","pSARL_v2","pSARL_v2auj2dg8p","6129ba3532102d5c539ff29b","fixation","img/fixation.png","null","","test","","","","","",""
"232.60000002384186","189889","pSARL_v2","pSARL_v2auj2dg8p","6129ba3532102d5c539ff29b","freq","img/orange_2bandit_a2.png","70","70","test","1","38","38","2","",""
"null","190471","pSARL_v2","pSARL_v2auj2dg8p","6129ba3532102d5c539ff29b","freq_resp","img/orange_2bandit_a.png","70","70","test","","","","2","",""
"null","190625","pSARL_v2","pSARL_v2auj2dg8p","6129ba3532102d5c539ff29b","fixation","img/fixation.png","null","","test","","","","","",""
"240.5","190868","pSARL_v2","pSARL_v2auj2dg8p","6129ba3532102d5c539ff29b","infreq","img/green_2bandit_a2.png","70","68","test","0","39","39","2","",""
"null","191440","pSARL_v2","pSARL_v2auj2dg8p","6129ba3532102d5c539ff29b","infreq_resp","img/green_2bandit_a.png","70","68","test","","","","2","",""
"null","191594","pSARL_v2","pSARL_v2auj2dg8p","6129ba3532102d5c539ff29b","fixation","img/fixation.png","null","","test","","","","","",""
"418.2999999523163","192015","pSARL_v2","pSARL_v2auj2dg8p","6129ba3532102d5c539ff29b","freq","img/orange_2bandit_a2.png","70","70","test","1","40","40","2","",""
"null","192410","pSARL_v2","pSARL_v2auj2dg8p","6129ba3532102d5c539ff29b","freq_resp","img/orange_2bandit_a.png","70","70","test","","","","2","",""
"null","192564","pSARL_v2","pSARL_v2auj2dg8p","6129ba3532102d5c539ff29b","fixation","img/fixation.png","null","","test","","","","","",""
"292.2000000476837","192859","pSARL_v2","pSARL_v2auj2dg8p","6129ba3532102d5c539ff29b","freq","img/orange_2bandit_a2.png","70","70","test","1","41","41","2","",""
"null","193380","pSARL_v2","pSARL_v2auj2dg8p","6129ba3532102d5c539ff29b","freq_resp","img/orange_2bandit_a.png","70","70","test","","","","2","",""
"null","193535","pSARL_v2","pSARL_v2auj2dg8p","6129ba3532102d5c539ff29b","fixation","img/fixation.png","null","","test","","","","","",""
"244.40000009536743","193782","pSARL_v2","pSARL_v2auj2dg8p","6129ba3532102d5c539ff29b","freq","img/orange_2bandit_a2.png","70","70","test","1","42","42","2","",""
"null","194350","pSARL_v2","pSARL_v2auj2dg8p","6129ba3532102d5c539ff29b","freq_resp","img/orange_2bandit_a.png","70","70","test","","","","2","",""
"null","194504","pSARL_v2","pSARL_v2auj2dg8p","6129ba3532102d5c539ff29b","fixation","img/fixation.png","null","","test","","","","","",""
"253.79999995231628","194761","pSARL_v2","pSARL_v2auj2dg8p","6129ba3532102d5c539ff29b","freq","img/orange_2bandit_a2.png","70","70","test","1","43","43","2","",""
"null","195319","pSARL_v2","pSARL_v2auj2dg8p","6129ba3532102d5c539ff29b","freq_resp","img/orange_2bandit_a.png","70","70","test","","","","2","",""
"null","195473","pSARL_v2","pSARL_v2auj2dg8p","6129ba3532102d5c539ff29b","fixation","img/fixation.png","null","","test","","","","","",""
"240.89999997615814","195717","pSARL_v2","pSARL_v2auj2dg8p","6129ba3532102d5c539ff29b","freq","img/orange_2bandit_a2.png","70","70","test","1","44","44","2","",""
"null","196289","pSARL_v2","pSARL_v2auj2dg8p","6129ba3532102d5c539ff29b","freq_resp","img/orange_2bandit_a.png","70","70","test","","","","2","",""
"null","196442","pSARL_v2","pSARL_v2auj2dg8p","6129ba3532102d5c539ff29b","fixation","img/fixation.png","null","","test","","","","","",""
"null","197258","pSARL_v2","pSARL_v2auj2dg8p","6129ba3532102d5c539ff29b","freq","img/orange_2bandit_a2.png","null","70","test","0","45","45","2","",""
"null","197412","pSARL_v2","pSARL_v2auj2dg8p","6129ba3532102d5c539ff29b","fixation","img/fixation.png","null","","test","","","","","",""
"653.5","198068","pSARL_v2","pSARL_v2auj2dg8p","6129ba3532102d5c539ff29b","reward","img/slot.png","74","","test","","","","","",""
"null","198826","pSARL_v2","pSARL_v2auj2dg8p","6129ba3532102d5c539ff29b","points","<div class=""verylowPoints""> -11 </div>","null","na","test","","","","2","-11","1"
"555.2000000476837","199385","pSARL_v2","pSARL_v2auj2dg8p","6129ba3532102d5c539ff29b","freq","img/orange_2bandit_a2.png","70","70","test","1","46","46","3","",""
"null","199642","pSARL_v2","pSARL_v2auj2dg8p","6129ba3532102d5c539ff29b","freq_resp","img/orange_2bandit_a.png","70","70","test","","","","3","",""
"null","199811","pSARL_v2","pSARL_v2auj2dg8p","6129ba3532102d5c539ff29b","fixation","img/fixation.png","null","","test","","","","","",""
"200.5","200015","pSARL_v2","pSARL_v2auj2dg8p","6129ba3532102d5c539ff29b","freq","img/orange_2bandit_a2.png","70","70","test","1","47","47","3","",""
"null","200627","pSARL_v2","pSARL_v2auj2dg8p","6129ba3532102d5c539ff29b","freq_resp","img/orange_2bandit_a.png","70","70","test","","","","3","",""
"null","200780","pSARL_v2","pSARL_v2auj2dg8p","6129ba3532102d5c539ff29b","fixation","img/fixation.png","null","","test","","","","","",""
"198.5","200982","pSARL_v2","pSARL_v2auj2dg8p","6129ba3532102d5c539ff29b","freq","img/orange_2bandit_a2.png","70","70","test","1","48","48","3","",""
"null","201596","pSARL_v2","pSARL_v2auj2dg8p","6129ba3532102d5c539ff29b","freq_resp","img/orange_2bandit_a.png","70","70","test","","","","3","",""
"null","201750","pSARL_v2","pSARL_v2auj2dg8p","6129ba3532102d5c539ff29b","fixation","img/fixation.png","null","","test","","","","","",""
"241.09999990463257","201994","pSARL_v2","pSARL_v2auj2dg8p","6129ba3532102d5c539ff29b","freq","img/orange_2bandit_a2.png","70","70","test","1","49","49","3","",""
"null","202566","pSARL_v2","pSARL_v2auj2dg8p","6129ba3532102d5c539ff29b","freq_resp","img/orange_2bandit_a.png","70","70","test","","","","3","",""
"null","202720","pSARL_v2","pSARL_v2auj2dg8p","6129ba3532102d5c539ff29b","fixation","img/fixation.png","null","","test","","","","","",""
"227.20000004768372","202951","pSARL_v2","pSARL_v2auj2dg8p","6129ba3532102d5c539ff29b","freq","img/orange_2bandit_a2.png","70","70","test","1","50","50","3","",""
"null","203535","pSARL_v2","pSARL_v2auj2dg8p","6129ba3532102d5c539ff29b","freq_resp","img/orange_2bandit_a.png","70","70","test","","","","3","",""
"null","203688","pSARL_v2","pSARL_v2auj2dg8p","6129ba3532102d5c539ff29b","fixation","img/fixation.png","null","","test","","","","","",""
"226.89999997615814","203918","pSARL_v2","pSARL_v2auj2dg8p","6129ba3532102d5c539ff29b","freq","img/orange_2bandit_a2.png","70","70","test","1","51","51","3","",""
"null","204503","pSARL_v2","pSARL_v2auj2dg8p","6129ba3532102d5c539ff29b","freq_resp","img/orange_2bandit_a.png","70","70","test","","","","3","",""
"null","204656","pSARL_v2","pSARL_v2auj2dg8p","6129ba3532102d5c539ff29b","fixation","img/fixation.png","null","","test","","","","","",""
"204.19999992847443","204863","pSARL_v2","pSARL_v2auj2dg8p","6129ba3532102d5c539ff29b","freq","img/orange_2bandit_a2.png","70","70","test","1","52","52","3","",""
"null","205472","pSARL_v2","pSARL_v2auj2dg8p","6129ba3532102d5c539ff29b","freq_resp","img/orange_2bandit_a.png","70","70","test","","","","3","",""
"null","205626","pSARL_v2","pSARL_v2auj2dg8p","6129ba3532102d5c539ff29b","fixation","img/fixation.png","null","","test","","","","","",""
"235.89999997615814","205865","pSARL_v2","pSARL_v2auj2dg8p","6129ba3532102d5c539ff29b","freq","img/orange_2bandit_a2.png","70","70","test","1","53","53","3","",""
"null","206442","pSARL_v2","pSARL_v2auj2dg8p","6129ba3532102d5c539ff29b","freq_resp","img/orange_2bandit_a.png","70","70","test","","","","3","",""
"null","206596","pSARL_v2","pSARL_v2auj2dg8p","6129ba3532102d5c539ff29b","fixation","img/fixation.png","null","","test","","","","","",""
"211.10000002384186","206810","pSARL_v2","pSARL_v2auj2dg8p","6129ba3532102d5c539ff29b","freq","img/orange_2bandit_a2.png","70","70","test","1","54","54","3","",""
"null","207412","pSARL_v2","pSARL_v2auj2dg8p","6129ba3532102d5c539ff29b","freq_resp","img/orange_2bandit_a.png","70","70","test","","","","3","",""
"null","207579","pSARL_v2","pSARL_v2auj2dg8p","6129ba3532102d5c539ff29b","fixation","img/fixation.png","null","","test","","","","","",""
"217.80000007152557","207799","pSARL_v2","pSARL_v2auj2dg8p","6129ba3532102d5c539ff29b","freq","img/orange_2bandit_a2.png","70","70","test","1","55","55","3","",""
"null","208395","pSARL_v2","pSARL_v2auj2dg8p","6129ba3532102d5c539ff29b","freq_resp","img/orange_2bandit_a.png","70","70","test","","","","3","",""
"null","208549","pSARL_v2","pSARL_v2auj2dg8p","6129ba3532102d5c539ff29b","fixation","img/fixation.png","null","","test","","","","","",""
"226.69999992847443","208778","pSARL_v2","pSARL_v2auj2dg8p","6129ba3532102d5c539ff29b","infreq","img/green_2bandit_a2.png","70","68","test","0","56","56","3","",""
"null","209364","pSARL_v2","pSARL_v2auj2dg8p","6129ba3532102d5c539ff29b","infreq_resp","img/green_2bandit_a.png","70","68","test","","","","3","",""
"null","209518","pSARL_v2","pSARL_v2auj2dg8p","6129ba3532102d5c539ff29b","fixation","img/fixation.png","null","","test","","","","","",""
"258.3000000715256","209779","pSARL_v2","pSARL_v2auj2dg8p","6129ba3532102d5c539ff29b","freq","img/orange_2bandit_a2.png","70","70","test","1","57","57","3","",""
"null","210334","pSARL_v2","pSARL_v2auj2dg8p","6129ba3532102d5c539ff29b","freq_resp","img/orange_2bandit_a.png","70","70","test","","","","3","",""
"null","210488","pSARL_v2","pSARL_v2auj2dg8p","6129ba3532102d5c539ff29b","fixation","img/fixation.png","null","","test","","","","","",""
"256","210747","pSARL_v2","pSARL_v2auj2dg8p","6129ba3532102d5c539ff29b","freq","img/orange_2bandit_a2.png","70","70","test","1","58","58","3","",""
"null","211302","pSARL_v2","pSARL_v2auj2dg8p","6129ba3532102d5c539ff29b","freq_resp","img/orange_2bandit_a.png","70","70","test","","","","3","",""
"null","211456","pSARL_v2","pSARL_v2auj2dg8p","6129ba3532102d5c539ff29b","fixation","img/fixation.png","null","","test","","","","","",""
"277.60000002384186","211737","pSARL_v2","pSARL_v2auj2dg8p","6129ba3532102d5c539ff29b","freq","img/orange_2bandit_a2.png","70","70","test","1","59","59","3","",""
"null","212273","pSARL_v2","pSARL_v2auj2dg8p","6129ba3532102d5c539ff29b","freq_resp","img/orange_2bandit_a.png","70","70","test","","","","3","",""
"null","212426","pSARL_v2","pSARL_v2auj2dg8p","6129ba3532102d5c539ff29b","fixation","img/fixation.png","null","","test","","","","","",""
"264.1999999284744","212694","pSARL_v2","pSARL_v2auj2dg8p","6129ba3532102d5c539ff29b","freq","img/orange_2bandit_a2.png","70","70","test","1","60","60","3","",""
"null","213241","pSARL_v2","pSARL_v2auj2dg8p","6129ba3532102d5c539ff29b","freq_resp","img/orange_2bandit_a.png","70","70","test","","","","3","",""
"null","213396","pSARL_v2","pSARL_v2auj2dg8p","6129ba3532102d5c539ff29b","fixation","img/fixation.png","null","","test","","","","","",""
"317.5","213717","pSARL_v2","pSARL_v2auj2dg8p","6129ba3532102d5c539ff29b","infreq","img/green_2bandit_a2.png","70","68","test","0","61","61","3","",""
"null","214212","pSARL_v2","pSARL_v2auj2dg8p","6129ba3532102d5c539ff29b","infreq_resp","img/green_2bandit_a.png","70","68","test","","","","3","",""
"null","214365","pSARL_v2","pSARL_v2auj2dg8p","6129ba3532102d5c539ff29b","fixation","img/fixation.png","null","","test","","","","","",""
"260","214628","pSARL_v2","pSARL_v2auj2dg8p","6129ba3532102d5c539ff29b","freq","img/orange_2bandit_a2.png","70","70","test","1","62","62","3","",""
"null","215183","pSARL_v2","pSARL_v2auj2dg8p","6129ba3532102d5c539ff29b","freq_resp","img/orange_2bandit_a.png","70","70","test","","","","3","",""
"null","215338","pSARL_v2","pSARL_v2auj2dg8p","6129ba3532102d5c539ff29b","fixation","img/fixation.png","null","","test","","","","","",""
"345.2999999523163","215686","pSARL_v2","pSARL_v2auj2dg8p","6129ba3532102d5c539ff29b","freq","img/orange_2bandit_a2.png","70","70","test","1","63","63","3","",""
"null","216152","pSARL_v2","pSARL_v2auj2dg8p","6129ba3532102d5c539ff29b","freq_resp","img/orange_2bandit_a.png","70","70","test","","","","3","",""
"null","216306","pSARL_v2","pSARL_v2auj2dg8p","6129ba3532102d5c539ff29b","fixation","img/fixation.png","null","","test","","","","","",""
"278","216587","pSARL_v2","pSARL_v2auj2dg8p","6129ba3532102d5c539ff29b","freq","img/orange_2bandit_a2.png","70","70","test","1","64","64","3","",""
"null","217122","pSARL_v2","pSARL_v2auj2dg8p","6129ba3532102d5c539ff29b","freq_resp","img/orange_2bandit_a.png","70","70","test","","","","3","",""
"null","217276","pSARL_v2","pSARL_v2auj2dg8p","6129ba3532102d5c539ff29b","fixation","img/fixation.png","null","","test","","","","","",""
"376","217655","pSARL_v2","pSARL_v2auj2dg8p","6129ba3532102d5c539ff29b","freq","img/orange_2bandit_a2.png","70","70","test","1","65","65","3","",""
"null","218091","pSARL_v2","pSARL_v2auj2dg8p","6129ba3532102d5c539ff29b","freq_resp","img/orange_2bandit_a.png","70","70","test","","","","3","",""
"null","218246","pSARL_v2","pSARL_v2auj2dg8p","6129ba3532102d5c539ff29b","fixation","img/fixation.png","null","","test","","","","","",""
"316.89999997615814","218566","pSARL_v2","pSARL_v2auj2dg8p","6129ba3532102d5c539ff29b","freq","img/orange_2bandit_a2.png","70","70","test","1","66","66","3","",""
"null","219062","pSARL_v2","pSARL_v2auj2dg8p","6129ba3532102d5c539ff29b","freq_resp","img/orange_2bandit_a.png","70","70","test","","","","3","",""
"null","219231","pSARL_v2","pSARL_v2auj2dg8p","6129ba3532102d5c539ff29b","fixation","img/fixation.png","null","","test","","","","","",""
"299.10000002384186","219533","pSARL_v2","pSARL_v2auj2dg8p","6129ba3532102d5c539ff29b","freq","img/orange_2bandit_a2.png","70","70","test","1","67","67","3","",""
"null","220044","pSARL_v2","pSARL_v2auj2dg8p","6129ba3532102d5c539ff29b","freq_resp","img/orange_2bandit_a.png","70","70","test","","","","3","",""
"null","220198","pSARL_v2","pSARL_v2auj2dg8p","6129ba3532102d5c539ff29b","fixation","img/fixation.png","null","","test","","","","","",""
"276.60000002384186","220478","pSARL_v2","pSARL_v2auj2dg8p","6129ba3532102d5c539ff29b","freq","img/orange_2bandit_a2.png","70","70","test","1","68","68","3","",""
"null","221014","pSARL_v2","pSARL_v2auj2dg8p","6129ba3532102d5c539ff29b","freq_resp","img/orange_2bandit_a.png","70","70","test","","","","3","",""
"null","221168","pSARL_v2","pSARL_v2auj2dg8p","6129ba3532102d5c539ff29b","fixation","img/fixation.png","null","","test","","","","","",""
"353.5","221525","pSARL_v2","pSARL_v2auj2dg8p","6129ba3532102d5c539ff29b","infreq","img/green_2bandit_a2.png","68","68","test","1","69","69","3","",""
"null","221984","pSARL_v2","pSARL_v2auj2dg8p","6129ba3532102d5c539ff29b","infreq_resp","img/green_2bandit_a.png","68","68","test","","","","3","",""
"null","222152","pSARL_v2","pSARL_v2auj2dg8p","6129ba3532102d5c539ff29b","fixation","img/fixation.png","null","","test","","","","","",""
"416.10000002384186","222571","pSARL_v2","pSARL_v2auj2dg8p","6129ba3532102d5c539ff29b","freq","img/orange_2bandit_a2.png","70","70","test","1","70","70","3","",""
"null","222967","pSARL_v2","pSARL_v2auj2dg8p","6129ba3532102d5c539ff29b","freq_resp","img/orange_2bandit_a.png","70","70","test","","","","3","",""
"null","223121","pSARL_v2","pSARL_v2auj2dg8p","6129ba3532102d5c539ff29b","fixation","img/fixation.png","null","","test","","","","","",""
"527.1999999284744","223652","pSARL_v2","pSARL_v2auj2dg8p","6129ba3532102d5c539ff29b","reward","img/slot.png","74","","test","","","","","",""
"null","224413","pSARL_v2","pSARL_v2auj2dg8p","6129ba3532102d5c539ff29b","points","<div class=""verylowPoints""> -7 </div>","null","na","test","","","","3","-7","2"
"585.1000000238419","225001","pSARL_v2","pSARL_v2auj2dg8p","6129ba3532102d5c539ff29b","freq","img/orange_2bandit_a2.png","68","70","test","0","71","71","4","",""
"null","225229","pSARL_v2","pSARL_v2auj2dg8p","6129ba3532102d5c539ff29b","freq_resp","img/orange_2bandit_a.png","68","70","test","","","","4","",""
"null","225398","pSARL_v2","pSARL_v2auj2dg8p","6129ba3532102d5c539ff29b","fixation","img/fixation.png","null","","test","","","","","",""
"454","225856","pSARL_v2","pSARL_v2auj2dg8p","6129ba3532102d5c539ff29b","freq","img/orange_2bandit_a2.png","68","70","test","0","72","72","4","",""
"null","226214","pSARL_v2","pSARL_v2auj2dg8p","6129ba3532102d5c539ff29b","freq_resp","img/orange_2bandit_a.png","68","70","test","","","","4","",""
"null","226368","pSARL_v2","pSARL_v2auj2dg8p","6129ba3532102d5c539ff29b","fixation","img/fixation.png","null","","test","","","","","",""
"260.89999997615814","226632","pSARL_v2","pSARL_v2auj2dg8p","6129ba3532102d5c539ff29b","freq","img/orange_2bandit_a2.png","70","70","test","1","73","73","4","",""
"null","227185","pSARL_v2","pSARL_v2auj2dg8p","6129ba3532102d5c539ff29b","freq_resp","img/orange_2bandit_a.png","70","70","test","","","","4","",""
"null","227354","pSARL_v2","pSARL_v2auj2dg8p","6129ba3532102d5c539ff29b","fixation","img/fixation.png","null","","test","","","","","",""
"243.5","227600","pSARL_v2","pSARL_v2auj2dg8p","6129ba3532102d5c539ff29b","freq","img/orange_2bandit_a2.png","70","70","test","1","74","74","4","",""
"null","228170","pSARL_v2","pSARL_v2auj2dg8p","6129ba3532102d5c539ff29b","freq_resp","img/orange_2bandit_a.png","70","70","test","","","","4","",""
"null","228324","pSARL_v2","pSARL_v2auj2dg8p","6129ba3532102d5c539ff29b","fixation","img/fixation.png","null","","test","","","","","",""
"241","228568","pSARL_v2","pSARL_v2auj2dg8p","6129ba3532102d5c539ff29b","freq","img/orange_2bandit_a2.png","70","70","test","1","75","75","4","",""
"null","229139","pSARL_v2","pSARL_v2auj2dg8p","6129ba3532102d5c539ff29b","freq_resp","img/orange_2bandit_a.png","70","70","test","","","","4","",""
"null","229293","pSARL_v2","pSARL_v2auj2dg8p","6129ba3532102d5c539ff29b","fixation","img/fixation.png","null","","test","","","","","",""
"239.10000002384186","229535","pSARL_v2","pSARL_v2auj2dg8p","6129ba3532102d5c539ff29b","freq","img/orange_2bandit_a2.png","70","70","test","1","76","76","4","",""
"null","230107","pSARL_v2","pSARL_v2auj2dg8p","6129ba3532102d5c539ff29b","freq_resp","img/orange_2bandit_a.png","70","70","test","","","","4","",""
"null","230276","pSARL_v2","pSARL_v2auj2dg8p","6129ba3532102d5c539ff29b","fixation","img/fixation.png","null","","test","","","","","",""
"234.60000002384186","230513","pSARL_v2","pSARL_v2auj2dg8p","6129ba3532102d5c539ff29b","freq","img/orange_2bandit_a2.png","70","70","test","1","77","77","4","",""
"null","231092","pSARL_v2","pSARL_v2auj2dg8p","6129ba3532102d5c539ff29b","freq_resp","img/orange_2bandit_a.png","70","70","test","","","","4","",""
"null","231246","pSARL_v2","pSARL_v2auj2dg8p","6129ba3532102d5c539ff29b","fixation","img/fixation.png","null","","test","","","","","",""
"311.2000000476837","231560","pSARL_v2","pSARL_v2auj2dg8p","6129ba3532102d5c539ff29b","infreq","img/green_2bandit_a2.png","68","68","test","1","78","78","4","",""
"null","232061","pSARL_v2","pSARL_v2auj2dg8p","6129ba3532102d5c539ff29b","infreq_resp","img/green_2bandit_a.png","68","68","test","","","","4","",""
"null","232229","pSARL_v2","pSARL_v2auj2dg8p","6129ba3532102d5c539ff29b","fixation","img/fixation.png","null","","test","","","","","",""
"307.5","232540","pSARL_v2","pSARL_v2auj2dg8p","6129ba3532102d5c539ff29b","freq","img/orange_2bandit_a2.png","70","70","test","1","79","79","4","",""
"null","233046","pSARL_v2","pSARL_v2auj2dg8p","6129ba3532102d5c539ff29b","freq_resp","img/orange_2bandit_a.png","70","70","test","","","","4","",""
"null","233201","pSARL_v2","pSARL_v2auj2dg8p","6129ba3532102d5c539ff29b","fixation","img/fixation.png","null","","test","","","","","",""
"313.5","233517","pSARL_v2","pSARL_v2auj2dg8p","6129ba3532102d5c539ff29b","infreq","img/green_2bandit_a2.png","68","68","test","1","80","80","4","",""
"null","234016","pSARL_v2","pSARL_v2auj2dg8p","6129ba3532102d5c539ff29b","infreq_resp","img/green_2bandit_a.png","68","68","test","","","","4","",""
"null","234172","pSARL_v2","pSARL_v2auj2dg8p","6129ba3532102d5c539ff29b","fixation","img/fixation.png","null","","test","","","","","",""
"254.10000002384186","234429","pSARL_v2","pSARL_v2auj2dg8p","6129ba3532102d5c539ff29b","freq","img/orange_2bandit_a2.png","70","70","test","1","81","81","4","",""
"null","234985","pSARL_v2","pSARL_v2auj2dg8p","6129ba3532102d5c539ff29b","freq_resp","img/orange_2bandit_a.png","70","70","test","","","","4","",""
"null","235139","pSARL_v2","pSARL_v2auj2dg8p","6129ba3532102d5c539ff29b","fixation","img/fixation.png","null","","test","","","","","",""
"265.39999997615814","235407","pSARL_v2","pSARL_v2auj2dg8p","6129ba3532102d5c539ff29b","freq","img/orange_2bandit_a2.png","70","70","test","1","82","82","4","",""
"null","235955","pSARL_v2","pSARL_v2auj2dg8p","6129ba3532102d5c539ff29b","freq_resp","img/orange_2bandit_a.png","70","70","test","","","","4","",""
"null","236109","pSARL_v2","pSARL_v2auj2dg8p","6129ba3532102d5c539ff29b","fixation","img/fixation.png","null","","test","","","","","",""
"240.89999997615814","236352","pSARL_v2","pSARL_v2auj2dg8p","6129ba3532102d5c539ff29b","freq","img/orange_2bandit_a2.png","70","70","test","1","83","83","4","",""
"null","236923","pSARL_v2","pSARL_v2auj2dg8p","6129ba3532102d5c539ff29b","freq_resp","img/orange_2bandit_a.png","70","70","test","","","","4","",""
"null","237077","pSARL_v2","pSARL_v2auj2dg8p","6129ba3532102d5c539ff29b","fixation","img/fixation.png","null","","test","","","","","",""
"217.10000002384186","237299","pSARL_v2","pSARL_v2auj2dg8p","6129ba3532102d5c539ff29b","freq","img/orange_2bandit_a2.png","70","70","test","1","84","84","4","",""
"null","237892","pSARL_v2","pSARL_v2auj2dg8p","6129ba3532102d5c539ff29b","freq_resp","img/orange_2bandit_a.png","70","70","test","","","","4","",""
"null","238047","pSARL_v2","pSARL_v2auj2dg8p","6129ba3532102d5c539ff29b","fixation","img/fixation.png","null","","test","","","","","",""
"191.90000009536743","238242","pSARL_v2","pSARL_v2auj2dg8p","6129ba3532102d5c539ff29b","freq","img/orange_2bandit_a2.png","70","70","test","1","85","85","4","",""
"null","238860","pSARL_v2","pSARL_v2auj2dg8p","6129ba3532102d5c539ff29b","freq_resp","img/orange_2bandit_a.png","70","70","test","","","","4","",""
"null","239014","pSARL_v2","pSARL_v2auj2dg8p","6129ba3532102d5c539ff29b","fixation","img/fixation.png","null","","test","","","","","",""
"237.59999990463257","239255","pSARL_v2","pSARL_v2auj2dg8p","6129ba3532102d5c539ff29b","freq","img/orange_2bandit_a2.png","70","70","test","1","86","86","4","",""
"null","239830","pSARL_v2","pSARL_v2auj2dg8p","6129ba3532102d5c539ff29b","freq_resp","img/orange_2bandit_a.png","70","70","test","","","","4","",""
"null","239984","pSARL_v2","pSARL_v2auj2dg8p","6129ba3532102d5c539ff29b","fixation","img/fixation.png","null","","test","","","","","",""
"268.7999999523163","240256","pSARL_v2","pSARL_v2auj2dg8p","6129ba3532102d5c539ff29b","freq","img/orange_2bandit_a2.png","70","70","test","1","87","87","4","",""
"null","240800","pSARL_v2","pSARL_v2auj2dg8p","6129ba3532102d5c539ff29b","freq_resp","img/orange_2bandit_a.png","70","70","test","","","","4","",""
"null","240969","pSARL_v2","pSARL_v2auj2dg8p","6129ba3532102d5c539ff29b","fixation","img/fixation.png","null","","test","","","","","",""
"262","241234","pSARL_v2","pSARL_v2auj2dg8p","6129ba3532102d5c539ff29b","freq","img/orange_2bandit_a2.png","70","70","test","1","88","88","4","",""
"null","241785","pSARL_v2","pSARL_v2auj2dg8p","6129ba3532102d5c539ff29b","freq_resp","img/orange_2bandit_a.png","70","70","test","","","","4","",""
"null","241952","pSARL_v2","pSARL_v2auj2dg8p","6129ba3532102d5c539ff29b","fixation","img/fixation.png","null","","test","","","","","",""
"280.60000002384186","242236","pSARL_v2","pSARL_v2auj2dg8p","6129ba3532102d5c539ff29b","freq","img/orange_2bandit_a2.png","70","70","test","1","89","89","4","",""
"null","242769","pSARL_v2","pSARL_v2auj2dg8p","6129ba3532102d5c539ff29b","freq_resp","img/orange_2bandit_a.png","70","70","test","","","","4","",""
"null","242922","pSARL_v2","pSARL_v2auj2dg8p","6129ba3532102d5c539ff29b","fixation","img/fixation.png","null","","test","","","","","",""
"581.6000000238419","243507","pSARL_v2","pSARL_v2auj2dg8p","6129ba3532102d5c539ff29b","reward","img/slot.png","74","","test","","","","","",""
"null","244262","pSARL_v2","pSARL_v2auj2dg8p","6129ba3532102d5c539ff29b","points","<div class=""verylowPoints""> -3 </div>","null","na","test","","","","4","-3","3"
"557.5","244823","pSARL_v2","pSARL_v2auj2dg8p","6129ba3532102d5c539ff29b","freq","img/orange_2bandit_a2.png","70","70","test","1","90","90","5","",""
"null","245079","pSARL_v2","pSARL_v2auj2dg8p","6129ba3532102d5c539ff29b","freq_resp","img/orange_2bandit_a.png","70","70","test","","","","5","",""
"null","245248","pSARL_v2","pSARL_v2auj2dg8p","6129ba3532102d5c539ff29b","fixation","img/fixation.png","null","","test","","","","","",""
"384.2999999523163","245635","pSARL_v2","pSARL_v2auj2dg8p","6129ba3532102d5c539ff29b","freq","img/orange_2bandit_a2.png","70","70","test","1","91","91","5","",""
"null","246064","pSARL_v2","pSARL_v2auj2dg8p","6129ba3532102d5c539ff29b","freq_resp","img/orange_2bandit_a.png","70","70","test","","","","5","",""
"null","246218","pSARL_v2","pSARL_v2auj2dg8p","6129ba3532102d5c539ff29b","fixation","img/fixation.png","null","","test","","","","","",""
"267.3000000715256","246488","pSARL_v2","pSARL_v2auj2dg8p","6129ba3532102d5c539ff29b","freq","img/orange_2bandit_a2.png","70","70","test","1","92","92","5","",""
"null","247034","pSARL_v2","pSARL_v2auj2dg8p","6129ba3532102d5c539ff29b","freq_resp","img/orange_2bandit_a.png","70","70","test","","","","5","",""
"null","247188","pSARL_v2","pSARL_v2auj2dg8p","6129ba3532102d5c539ff29b","fixation","img/fixation.png","null","","test","","","","","",""
"188.39999997615814","247379","pSARL_v2","pSARL_v2auj2dg8p","6129ba3532102d5c539ff29b","infreq","img/green_2bandit_a2.png","70","68","test","0","93","93","5","",""
"null","248003","pSARL_v2","pSARL_v2auj2dg8p","6129ba3532102d5c539ff29b","infreq_resp","img/green_2bandit_a.png","70","68","test","","","","5","",""
"null","248157","pSARL_v2","pSARL_v2auj2dg8p","6129ba3532102d5c539ff29b","fixation","img/fixation.png","null","","test","","","","","",""
"409.90000009536743","248570","pSARL_v2","pSARL_v2auj2dg8p","6129ba3532102d5c539ff29b","freq","img/orange_2bandit_a2.png","70","70","test","1","94","94","5","",""
"null","248970","pSARL_v2","pSARL_v2auj2dg8p","6129ba3532102d5c539ff29b","freq_resp","img/orange_2bandit_a.png","70","70","test","","","","5","",""
"null","249124","pSARL_v2","pSARL_v2auj2dg8p","6129ba3532102d5c539ff29b","fixation","img/fixation.png","null","","test","","","","","",""
"297.5","249425","pSARL_v2","pSARL_v2auj2dg8p","6129ba3532102d5c539ff29b","freq","img/orange_2bandit_a2.png","70","70","test","1","95","95","5","",""
"null","249939","pSARL_v2","pSARL_v2auj2dg8p","6129ba3532102d5c539ff29b","freq_resp","img/orange_2bandit_a.png","70","70","test","","","","5","",""
"null","250092","pSARL_v2","pSARL_v2auj2dg8p","6129ba3532102d5c539ff29b","fixation","img/fixation.png","null","","test","","","","","",""
"274.7999999523163","250370","pSARL_v2","pSARL_v2auj2dg8p","6129ba3532102d5c539ff29b","freq","img/orange_2bandit_a2.png","70","70","test","1","96","96","5","",""
"null","250908","pSARL_v2","pSARL_v2auj2dg8p","6129ba3532102d5c539ff29b","freq_resp","img/orange_2bandit_a.png","70","70","test","","","","5","",""
"null","251062","pSARL_v2","pSARL_v2auj2dg8p","6129ba3532102d5c539ff29b","fixation","img/fixation.png","null","","test","","","","","",""
"260.5","251326","pSARL_v2","pSARL_v2auj2dg8p","6129ba3532102d5c539ff29b","freq","img/orange_2bandit_a2.png","70","70","test","1","97","97","5","",""
"null","251877","pSARL_v2","pSARL_v2auj2dg8p","6129ba3532102d5c539ff29b","freq_resp","img/orange_2bandit_a.png","70","70","test","","","","5","",""
"null","252030","pSARL_v2","pSARL_v2auj2dg8p","6129ba3532102d5c539ff29b","fixation","img/fixation.png","null","","test","","","","","",""
"271.39999997615814","252305","pSARL_v2","pSARL_v2auj2dg8p","6129ba3532102d5c539ff29b","freq","img/orange_2bandit_a2.png","70","70","test","1","98","98","5","",""
"null","252846","pSARL_v2","pSARL_v2auj2dg8p","6129ba3532102d5c539ff29b","freq_resp","img/orange_2bandit_a.png","70","70","test","","","","5","",""
"null","253014","pSARL_v2","pSARL_v2auj2dg8p","6129ba3532102d5c539ff29b","fixation","img/fixation.png","null","","test","","","","","",""
"255","253272","pSARL_v2","pSARL_v2auj2dg8p","6129ba3532102d5c539ff29b","freq","img/orange_2bandit_a2.png","70","70","test","1","99","99","5","",""
"null","253829","pSARL_v2","pSARL_v2auj2dg8p","6129ba3532102d5c539ff29b","freq_resp","img/orange_2bandit_a.png","70","70","test","","","","5","",""
"null","253983","pSARL_v2","pSARL_v2auj2dg8p","6129ba3532102d5c539ff29b","fixation","img/fixation.png","null","","test","","","","","",""
"265.39999997615814","254251","pSARL_v2","pSARL_v2auj2dg8p","6129ba3532102d5c539ff29b","freq","img/orange_2bandit_a2.png","70","70","test","1","100","100","5","",""
"null","254799","pSARL_v2","pSARL_v2auj2dg8p","6129ba3532102d5c539ff29b","freq_resp","img/orange_2bandit_a.png","70","70","test","","","","5","",""
"null","254953","pSARL_v2","pSARL_v2auj2dg8p","6129ba3532102d5c539ff29b","fixation","img/fixation.png","null","","test","","","","","",""
"228.69999992847443","255185","pSARL_v2","pSARL_v2auj2dg8p","6129ba3532102d5c539ff29b","freq","img/orange_2bandit_a2.png","70","70","test","1","101","101","5","",""
"null","255768","pSARL_v2","pSARL_v2auj2dg8p","6129ba3532102d5c539ff29b","freq_resp","img/orange_2bandit_a.png","70","70","test","","","","5","",""
"null","255922","pSARL_v2","pSARL_v2auj2dg8p","6129ba3532102d5c539ff29b","fixation","img/fixation.png","null","","test","","","","","",""
"238.89999997615814","256165","pSARL_v2","pSARL_v2auj2dg8p","6129ba3532102d5c539ff29b","freq","img/orange_2bandit_a2.png","70","70","test","1","102","102","5","",""
"null","256737","pSARL_v2","pSARL_v2auj2dg8p","6129ba3532102d5c539ff29b","freq_resp","img/orange_2bandit_a.png","70","70","test","","","","5","",""
"null","256891","pSARL_v2","pSARL_v2auj2dg8p","6129ba3532102d5c539ff29b","fixation","img/fixation.png","null","","test","","","","","",""
"271.2000000476837","257165","pSARL_v2","pSARL_v2auj2dg8p","6129ba3532102d5c539ff29b","freq","img/orange_2bandit_a2.png","70","70","test","1","103","103","5","",""
"null","257708","pSARL_v2","pSARL_v2auj2dg8p","6129ba3532102d5c539ff29b","freq_resp","img/orange_2bandit_a.png","70","70","test","","","","5","",""
"null","257878","pSARL_v2","pSARL_v2auj2dg8p","6129ba3532102d5c539ff29b","fixation","img/fixation.png","null","","test","","","","","",""
"240","258121","pSARL_v2","pSARL_v2auj2dg8p","6129ba3532102d5c539ff29b","freq","img/orange_2bandit_a2.png","70","70","test","1","104","104","5","",""
"null","258693","pSARL_v2","pSARL_v2auj2dg8p","6129ba3532102d5c539ff29b","freq_resp","img/orange_2bandit_a.png","70","70","test","","","","5","",""
"null","258847","pSARL_v2","pSARL_v2auj2dg8p","6129ba3532102d5c539ff29b","fixation","img/fixation.png","null","","test","","","","","",""
"182.29999995231628","259032","pSARL_v2","pSARL_v2auj2dg8p","6129ba3532102d5c539ff29b","freq","img/orange_2bandit_a2.png","70","70","test","1","105","105","5","",""
"null","259661","pSARL_v2","pSARL_v2auj2dg8p","6129ba3532102d5c539ff29b","freq_resp","img/orange_2bandit_a.png","70","70","test","","","","5","",""
"null","259815","pSARL_v2","pSARL_v2auj2dg8p","6129ba3532102d5c539ff29b","fixation","img/fixation.png","null","","test","","","","","",""
"215.70000004768372","260034","pSARL_v2","pSARL_v2auj2dg8p","6129ba3532102d5c539ff29b","freq","img/orange_2bandit_a2.png","70","70","test","1","106","106","5","",""
"null","260631","pSARL_v2","pSARL_v2auj2dg8p","6129ba3532102d5c539ff29b","freq_resp","img/orange_2bandit_a.png","70","70","test","","","","5","",""
"null","260784","pSARL_v2","pSARL_v2auj2dg8p","6129ba3532102d5c539ff29b","fixation","img/fixation.png","null","","test","","","","","",""
"190.89999997615814","260978","pSARL_v2","pSARL_v2auj2dg8p","6129ba3532102d5c539ff29b","freq","img/orange_2bandit_a2.png","70","70","test","1","107","107","5","",""
"null","261599","pSARL_v2","pSARL_v2auj2dg8p","6129ba3532102d5c539ff29b","freq_resp","img/orange_2bandit_a.png","70","70","test","","","","5","",""
"null","261753","pSARL_v2","pSARL_v2auj2dg8p","6129ba3532102d5c539ff29b","fixation","img/fixation.png","null","","test","","","","","",""
"111.5","261868","pSARL_v2","pSARL_v2auj2dg8p","6129ba3532102d5c539ff29b","freq","img/orange_2bandit_a2.png","70","70","test","1","108","108","5","",""
"null","262568","pSARL_v2","pSARL_v2auj2dg8p","6129ba3532102d5c539ff29b","freq_resp","img/orange_2bandit_a.png","70","70","test","","","","5","",""
"null","262722","pSARL_v2","pSARL_v2auj2dg8p","6129ba3532102d5c539ff29b","fixation","img/fixation.png","null","","test","","","","","",""
"222.80000007152557","262947","pSARL_v2","pSARL_v2auj2dg8p","6129ba3532102d5c539ff29b","infreq","img/green_2bandit_a2.png","70","68","test","0","109","109","5","",""
"null","263537","pSARL_v2","pSARL_v2auj2dg8p","6129ba3532102d5c539ff29b","infreq_resp","img/green_2bandit_a.png","70","68","test","","","","5","",""
"null","263691","pSARL_v2","pSARL_v2auj2dg8p","6129ba3532102d5c539ff29b","fixation","img/fixation.png","null","","test","","","","","",""
"220","263915","pSARL_v2","pSARL_v2auj2dg8p","6129ba3532102d5c539ff29b","freq","img/orange_2bandit_a2.png","70","70","test","1","110","110","5","",""
"null","264507","pSARL_v2","pSARL_v2auj2dg8p","6129ba3532102d5c539ff29b","freq_resp","img/orange_2bandit_a.png","70","70","test","","","","5","",""
"null","264663","pSARL_v2","pSARL_v2auj2dg8p","6129ba3532102d5c539ff29b","fixation","img/fixation.png","null","","test","","","","","",""
"238.60000002384186","264906","pSARL_v2","pSARL_v2auj2dg8p","6129ba3532102d5c539ff29b","freq","img/orange_2bandit_a2.png","70","70","test","1","111","111","5","",""
"null","265477","pSARL_v2","pSARL_v2auj2dg8p","6129ba3532102d5c539ff29b","freq_resp","img/orange_2bandit_a.png","70","70","test","","","","5","",""
"null","265646","pSARL_v2","pSARL_v2auj2dg8p","6129ba3532102d5c539ff29b","fixation","img/fixation.png","null","","test","","","","","",""
"234.80000007152557","265883","pSARL_v2","pSARL_v2auj2dg8p","6129ba3532102d5c539ff29b","freq","img/orange_2bandit_a2.png","70","70","test","1","112","112","5","",""
"null","266462","pSARL_v2","pSARL_v2auj2dg8p","6129ba3532102d5c539ff29b","freq_resp","img/orange_2bandit_a.png","70","70","test","","","","5","",""
"null","266616","pSARL_v2","pSARL_v2auj2dg8p","6129ba3532102d5c539ff29b","fixation","img/fixation.png","null","","test","","","","","",""
"276.90000009536743","266896","pSARL_v2","pSARL_v2auj2dg8p","6129ba3532102d5c539ff29b","freq","img/orange_2bandit_a2.png","70","70","test","1","113","113","5","",""
"null","267434","pSARL_v2","pSARL_v2auj2dg8p","6129ba3532102d5c539ff29b","freq_resp","img/orange_2bandit_a.png","70","70","test","","","","5","",""
"null","267601","pSARL_v2","pSARL_v2auj2dg8p","6129ba3532102d5c539ff29b","fixation","img/fixation.png","null","","test","","","","","",""
"260.2999999523163","267864","pSARL_v2","pSARL_v2auj2dg8p","6129ba3532102d5c539ff29b","freq","img/orange_2bandit_a2.png","70","70","test","1","114","114","5","",""
"null","268416","pSARL_v2","pSARL_v2auj2dg8p","6129ba3532102d5c539ff29b","freq_resp","img/orange_2bandit_a.png","70","70","test","","","","5","",""
"null","268570","pSARL_v2","pSARL_v2auj2dg8p","6129ba3532102d5c539ff29b","fixation","img/fixation.png","null","","test","","","","","",""
"280.89999997615814","268854","pSARL_v2","pSARL_v2auj2dg8p","6129ba3532102d5c539ff29b","freq","img/orange_2bandit_a2.png","70","70","test","1","115","115","5","",""
"null","269385","pSARL_v2","pSARL_v2auj2dg8p","6129ba3532102d5c539ff29b","freq_resp","img/orange_2bandit_a.png","70","70","test","","","","5","",""
"null","269539","pSARL_v2","pSARL_v2auj2dg8p","6129ba3532102d5c539ff29b","fixation","img/fixation.png","null","","test","","","","","",""
"548.7000000476837","270091","pSARL_v2","pSARL_v2auj2dg8p","6129ba3532102d5c539ff29b","reward","img/slot.png","74","","test","","","","","",""
"null","270847","pSARL_v2","pSARL_v2auj2dg8p","6129ba3532102d5c539ff29b","points","<div class=""veryhighPoints""> +1 </div>","null","na","test","","","","5","1","4"
"422.39999997615814","271273","pSARL_v2","pSARL_v2auj2dg8p","6129ba3532102d5c539ff29b","freq","img/orange_2bandit_a2.png","70","70","test","1","116","116","6","",""
"null","271662","pSARL_v2","pSARL_v2auj2dg8p","6129ba3532102d5c539ff29b","freq_resp","img/orange_2bandit_a.png","70","70","test","","","","6","",""
"null","271815","pSARL_v2","pSARL_v2auj2dg8p","6129ba3532102d5c539ff29b","fixation","img/fixation.png","null","","test","","","","","",""
"196.5","272015","pSARL_v2","pSARL_v2auj2dg8p","6129ba3532102d5c539ff29b","freq","img/orange_2bandit_a2.png","70","70","test","1","117","117","6","",""
"null","272631","pSARL_v2","pSARL_v2auj2dg8p","6129ba3532102d5c539ff29b","freq_resp","img/orange_2bandit_a.png","70","70","test","","","","6","",""
"null","272784","pSARL_v2","pSARL_v2auj2dg8p","6129ba3532102d5c539ff29b","fixation","img/fixation.png","null","","test","","","","","",""
"37.39999997615814","272825","pSARL_v2","pSARL_v2auj2dg8p","6129ba3532102d5c539ff29b","freq","img/orange_2bandit_a2.png","70","70","test","1","118","118","6","",""
"null","273600","pSARL_v2","pSARL_v2auj2dg8p","6129ba3532102d5c539ff29b","freq_resp","img/orange_2bandit_a.png","70","70","test","","","","6","",""
"null","273755","pSARL_v2","pSARL_v2auj2dg8p","6129ba3532102d5c539ff29b","fixation","img/fixation.png","null","","test","","","","","",""
"181","273939","pSARL_v2","pSARL_v2auj2dg8p","6129ba3532102d5c539ff29b","infreq","img/green_2bandit_a2.png","70","68","test","0","119","119","6","",""
"null","274569","pSARL_v2","pSARL_v2auj2dg8p","6129ba3532102d5c539ff29b","infreq_resp","img/green_2bandit_a.png","70","68","test","","","","6","",""
"null","274723","pSARL_v2","pSARL_v2auj2dg8p","6129ba3532102d5c539ff29b","fixation","img/fixation.png","null","","test","","","","","",""
"236","274962","pSARL_v2","pSARL_v2auj2dg8p","6129ba3532102d5c539ff29b","freq","img/orange_2bandit_a2.png","70","70","test","1","120","120","6","",""
"null","275539","pSARL_v2","pSARL_v2auj2dg8p","6129ba3532102d5c539ff29b","freq_resp","img/orange_2bandit_a.png","70","70","test","","","","6","",""
"null","275709","pSARL_v2","pSARL_v2auj2dg8p","6129ba3532102d5c539ff29b","fixation","img/fixation.png","null","","test","","","","","",""
"207","275919","pSARL_v2","pSARL_v2auj2dg8p","6129ba3532102d5c539ff29b","freq","img/orange_2bandit_a2.png","70","70","test","1","121","121","6","",""
"null","276525","pSARL_v2","pSARL_v2auj2dg8p","6129ba3532102d5c539ff29b","freq_resp","img/orange_2bandit_a.png","70","70","test","","","","6","",""
"null","276679","pSARL_v2","pSARL_v2auj2dg8p","6129ba3532102d5c539ff29b","fixation","img/fixation.png","null","","test","","","","","",""
"238","276920","pSARL_v2","pSARL_v2auj2dg8p","6129ba3532102d5c539ff29b","freq","img/orange_2bandit_a2.png","70","70","test","1","122","122","6","",""
"null","277494","pSARL_v2","pSARL_v2auj2dg8p","6129ba3532102d5c539ff29b","freq_resp","img/orange_2bandit_a.png","70","70","test","","","","6","",""
"null","277649","pSARL_v2","pSARL_v2auj2dg8p","6129ba3532102d5c539ff29b","fixation","img/fixation.png","null","","test","","","","","",""
"258.89999997615814","277911","pSARL_v2","pSARL_v2auj2dg8p","6129ba3532102d5c539ff29b","freq","img/orange_2bandit_a2.png","70","70","test","1","123","123","6","",""
"null","278463","pSARL_v2","pSARL_v2auj2dg8p","6129ba3532102d5c539ff29b","freq_resp","img/orange_2bandit_a.png","70","70","test","","","","6","",""
"null","278617","pSARL_v2","pSARL_v2auj2dg8p","6129ba3532102d5c539ff29b","fixation","img/fixation.png","null","","test","","","","","",""
"223.79999995231628","278844","pSARL_v2","pSARL_v2auj2dg8p","6129ba3532102d5c539ff29b","freq","img/orange_2bandit_a2.png","70","70","test","1","124","124","6","",""
"null","279432","pSARL_v2","pSARL_v2auj2dg8p","6129ba3532102d5c539ff29b","freq_resp","img/orange_2bandit_a.png","70","70","test","","","","6","",""
"null","279586","pSARL_v2","pSARL_v2auj2dg8p","6129ba3532102d5c539ff29b","fixation","img/fixation.png","null","","test","","","","","",""
"null","280401","pSARL_v2","pSARL_v2auj2dg8p","6129ba3532102d5c539ff29b","freq","img/orange_2bandit_a2.png","null","70","test","0","125","125","6","",""
"null","280570","pSARL_v2","pSARL_v2auj2dg8p","6129ba3532102d5c539ff29b","fixation","img/fixation.png","null","","test","","","","","",""
"null","281385","pSARL_v2","pSARL_v2auj2dg8p","6129ba3532102d5c539ff29b","freq","img/orange_2bandit_a2.png","null","70","test","0","126","126","6","",""
"null","281539","pSARL_v2","pSARL_v2auj2dg8p","6129ba3532102d5c539ff29b","fixation","img/fixation.png","null","","test","","","","","",""
"587","282129","pSARL_v2","pSARL_v2auj2dg8p","6129ba3532102d5c539ff29b","freq","img/orange_2bandit_a2.png","70","70","test","1","127","127","6","",""
"null","282353","pSARL_v2","pSARL_v2auj2dg8p","6129ba3532102d5c539ff29b","freq_resp","img/orange_2bandit_a.png","70","70","test","","","","6","",""
"null","282522","pSARL_v2","pSARL_v2auj2dg8p","6129ba3532102d5c539ff29b","fixation","img/fixation.png","null","","test","","","","","",""
"357.90000009536743","282883","pSARL_v2","pSARL_v2auj2dg8p","6129ba3532102d5c539ff29b","infreq","img/green_2bandit_a2.png","70","68","test","0","128","128","6","",""
"null","283337","pSARL_v2","pSARL_v2auj2dg8p","6129ba3532102d5c539ff29b","infreq_resp","img/green_2bandit_a.png","70","68","test","","","","6","",""
"null","283491","pSARL_v2","pSARL_v2auj2dg8p","6129ba3532102d5c539ff29b","fixation","img/fixation.png","null","","test","","","","","",""
"321.5","283816","pSARL_v2","pSARL_v2auj2dg8p","6129ba3532102d5c539ff29b","freq","img/orange_2bandit_a2.png","70","70","test","1","129","129","6","",""
"null","284306","pSARL_v2","pSARL_v2auj2dg8p","6129ba3532102d5c539ff29b","freq_resp","img/orange_2bandit_a.png","70","70","test","","","","6","",""
"null","284460","pSARL_v2","pSARL_v2auj2dg8p","6129ba3532102d5c539ff29b","fixation","img/fixation.png","null","","test","","","","","",""
"321.1999999284744","284784","pSARL_v2","pSARL_v2auj2dg8p","6129ba3532102d5c539ff29b","freq","img/orange_2bandit_a2.png","70","70","test","1","130","130","6","",""
"null","285275","pSARL_v2","pSARL_v2auj2dg8p","6129ba3532102d5c539ff29b","freq_resp","img/orange_2bandit_a.png","70","70","test","","","","6","",""
"null","285429","pSARL_v2","pSARL_v2auj2dg8p","6129ba3532102d5c539ff29b","fixation","img/fixation.png","null","","test","","","","","",""
"240.20000004768372","285673","pSARL_v2","pSARL_v2auj2dg8p","6129ba3532102d5c539ff29b","freq","img/orange_2bandit_a2.png","70","70","test","1","131","131","6","",""
"null","286244","pSARL_v2","pSARL_v2auj2dg8p","6129ba3532102d5c539ff29b","freq_resp","img/orange_2bandit_a.png","70","70","test","","","","6","",""
"null","286399","pSARL_v2","pSARL_v2auj2dg8p","6129ba3532102d5c539ff29b","fixation","img/fixation.png","null","","test","","","","","",""
"215.79999995231628","286618","pSARL_v2","pSARL_v2auj2dg8p","6129ba3532102d5c539ff29b","freq","img/orange_2bandit_a2.png","70","70","test","1","132","132","6","",""
"null","287213","pSARL_v2","pSARL_v2auj2dg8p","6129ba3532102d5c539ff29b","freq_resp","img/orange_2bandit_a.png","70","70","test","","","","6","",""
"null","287382","pSARL_v2","pSARL_v2auj2dg8p","6129ba3532102d5c539ff29b","fixation","img/fixation.png","null","","test","","","","","",""
"234.10000002384186","287619","pSARL_v2","pSARL_v2auj2dg8p","6129ba3532102d5c539ff29b","freq","img/orange_2bandit_a2.png","70","70","test","1","133","133","6","",""
"null","288197","pSARL_v2","pSARL_v2auj2dg8p","6129ba3532102d5c539ff29b","freq_resp","img/orange_2bandit_a.png","70","70","test","","","","6","",""
"null","288351","pSARL_v2","pSARL_v2auj2dg8p","6129ba3532102d5c539ff29b","fixation","img/fixation.png","null","","test","","","","","",""
"243.70000004768372","288598","pSARL_v2","pSARL_v2auj2dg8p","6129ba3532102d5c539ff29b","freq","img/orange_2bandit_a2.png","70","70","test","1","134","134","6","",""
"null","289166","pSARL_v2","pSARL_v2auj2dg8p","6129ba3532102d5c539ff29b","freq_resp","img/orange_2bandit_a.png","70","70","test","","","","6","",""
"null","289320","pSARL_v2","pSARL_v2auj2dg8p","6129ba3532102d5c539ff29b","fixation","img/fixation.png","null","","test","","","","","",""
"298.2000000476837","289621","pSARL_v2","pSARL_v2auj2dg8p","6129ba3532102d5c539ff29b","freq","img/orange_2bandit_a2.png","70","70","test","1","135","135","6","",""
"null","290135","pSARL_v2","pSARL_v2auj2dg8p","6129ba3532102d5c539ff29b","freq_resp","img/orange_2bandit_a.png","70","70","test","","","","6","",""
"null","290289","pSARL_v2","pSARL_v2auj2dg8p","6129ba3532102d5c539ff29b","fixation","img/fixation.png","null","","test","","","","","",""
"510.5","290803","pSARL_v2","pSARL_v2auj2dg8p","6129ba3532102d5c539ff29b","reward","img/slot.png","74","","test","","","","","",""
"null","291566","pSARL_v2","pSARL_v2auj2dg8p","6129ba3532102d5c539ff29b","points","<div class=""verylowPoints""> -7 </div>","null","na","test","","","","6","-7","5"
"471.10000002384186","292040","pSARL_v2","pSARL_v2auj2dg8p","6129ba3532102d5c539ff29b","freq","img/orange_2bandit_a2.png","70","70","test","1","136","136","7","",""
"null","292381","pSARL_v2","pSARL_v2auj2dg8p","6129ba3532102d5c539ff29b","freq_resp","img/orange_2bandit_a.png","70","70","test","","","","7","",""
"null","292551","pSARL_v2","pSARL_v2auj2dg8p","6129ba3532102d5c539ff29b","fixation","img/fixation.png","null","","test","","","","","",""
"251.39999997615814","292805","pSARL_v2","pSARL_v2auj2dg8p","6129ba3532102d5c539ff29b","freq","img/orange_2bandit_a2.png","70","70","test","1","137","137","7","",""
"null","293365","pSARL_v2","pSARL_v2auj2dg8p","6129ba3532102d5c539ff29b","freq_resp","img/orange_2bandit_a.png","70","70","test","","","","7","",""
"null","293519","pSARL_v2","pSARL_v2auj2dg8p","6129ba3532102d5c539ff29b","fixation","img/fixation.png","null","","test","","","","","",""
"228","293750","pSARL_v2","pSARL_v2auj2dg8p","6129ba3532102d5c539ff29b","freq","img/orange_2bandit_a2.png","70","70","test","1","138","138","7","",""
"null","294334","pSARL_v2","pSARL_v2auj2dg8p","6129ba3532102d5c539ff29b","freq_resp","img/orange_2bandit_a.png","70","70","test","","","","7","",""
"null","294487","pSARL_v2","pSARL_v2auj2dg8p","6129ba3532102d5c539ff29b","fixation","img/fixation.png","null","","test","","","","","",""
"249.89999997615814","294740","pSARL_v2","pSARL_v2auj2dg8p","6129ba3532102d5c539ff29b","freq","img/orange_2bandit_a2.png","70","70","test","1","139","139","7","",""
"null","295302","pSARL_v2","pSARL_v2auj2dg8p","6129ba3532102d5c539ff29b","freq_resp","img/orange_2bandit_a.png","70","70","test","","","","7","",""
"null","295456","pSARL_v2","pSARL_v2auj2dg8p","6129ba3532102d5c539ff29b","fixation","img/fixation.png","null","","test","","","","","",""
"270.5","295730","pSARL_v2","pSARL_v2auj2dg8p","6129ba3532102d5c539ff29b","freq","img/orange_2bandit_a2.png","70","70","test","1","140","140","7","",""
"null","296271","pSARL_v2","pSARL_v2auj2dg8p","6129ba3532102d5c539ff29b","freq_resp","img/orange_2bandit_a.png","70","70","test","","","","7","",""
"null","296425","pSARL_v2","pSARL_v2auj2dg8p","6129ba3532102d5c539ff29b","fixation","img/fixation.png","null","","test","","","","","",""
"247.60000002384186","296675","pSARL_v2","pSARL_v2auj2dg8p","6129ba3532102d5c539ff29b","freq","img/orange_2bandit_a2.png","70","70","test","1","141","141","7","",""
"null","297241","pSARL_v2","pSARL_v2auj2dg8p","6129ba3532102d5c539ff29b","freq_resp","img/orange_2bandit_a.png","70","70","test","","","","7","",""
"null","297410","pSARL_v2","pSARL_v2auj2dg8p","6129ba3532102d5c539ff29b","fixation","img/fixation.png","null","","test","","","","","",""
"241.19999992847443","297654","pSARL_v2","pSARL_v2auj2dg8p","6129ba3532102d5c539ff29b","freq","img/orange_2bandit_a2.png","70","70","test","1","142","142","7","",""
"null","298225","pSARL_v2","pSARL_v2auj2dg8p","6129ba3532102d5c539ff29b","freq_resp","img/orange_2bandit_a.png","70","70","test","","","","7","",""
"null","298379","pSARL_v2","pSARL_v2auj2dg8p","6129ba3532102d5c539ff29b","fixation","img/fixation.png","null","","test","","","","","",""
"229.20000004768372","298611","pSARL_v2","pSARL_v2auj2dg8p","6129ba3532102d5c539ff29b","freq","img/orange_2bandit_a2.png","70","70","test","1","143","143","7","",""
"null","299195","pSARL_v2","pSARL_v2auj2dg8p","6129ba3532102d5c539ff29b","freq_resp","img/orange_2bandit_a.png","70","70","test","","","","7","",""
"null","299348","pSARL_v2","pSARL_v2auj2dg8p","6129ba3532102d5c539ff29b","fixation","img/fixation.png","null","","test","","","","","",""
"221.09999990463257","299572","pSARL_v2","pSARL_v2auj2dg8p","6129ba3532102d5c539ff29b","freq","img/orange_2bandit_a2.png","70","70","test","1","144","144","7","",""
"null","300165","pSARL_v2","pSARL_v2auj2dg8p","6129ba3532102d5c539ff29b","freq_resp","img/orange_2bandit_a.png","70","70","test","","","","7","",""
"null","300334","pSARL_v2","pSARL_v2auj2dg8p","6129ba3532102d5c539ff29b","fixation","img/fixation.png","null","","test","","","","","",""
"231.10000002384186","300568","pSARL_v2","pSARL_v2auj2dg8p","6129ba3532102d5c539ff29b","freq","img/orange_2bandit_a2.png","70","70","test","1","145","145","7","",""
"null","301150","pSARL_v2","pSARL_v2auj2dg8p","6129ba3532102d5c539ff29b","freq_resp","img/orange_2bandit_a.png","70","70","test","","","","7","",""
"null","301303","pSARL_v2","pSARL_v2auj2dg8p","6129ba3532102d5c539ff29b","fixation","img/fixation.png","null","","test","","","","","",""
"239.29999995231628","301546","pSARL_v2","pSARL_v2auj2dg8p","6129ba3532102d5c539ff29b","freq","img/orange_2bandit_a2.png","70","70","test","1","146","146","7","",""
"null","302118","pSARL_v2","pSARL_v2auj2dg8p","6129ba3532102d5c539ff29b","freq_resp","img/orange_2bandit_a.png","70","70","test","","","","7","",""
"null","302272","pSARL_v2","pSARL_v2auj2dg8p","6129ba3532102d5c539ff29b","fixation","img/fixation.png","null","","test","","","","","",""
"216.20000004768372","302491","pSARL_v2","pSARL_v2auj2dg8p","6129ba3532102d5c539ff29b","freq","img/orange_2bandit_a2.png","70","70","test","1","147","147","7","",""
"null","303088","pSARL_v2","pSARL_v2auj2dg8p","6129ba3532102d5c539ff29b","freq_resp","img/orange_2bandit_a.png","70","70","test","","","","7","",""
"null","303242","pSARL_v2","pSARL_v2auj2dg8p","6129ba3532102d5c539ff29b","fixation","img/fixation.png","null","","test","","","","","",""
"214.20000004768372","303459","pSARL_v2","pSARL_v2auj2dg8p","6129ba3532102d5c539ff29b","freq","img/orange_2bandit_a2.png","70","70","test","1","148","148","7","",""
"null","304057","pSARL_v2","pSARL_v2auj2dg8p","6129ba3532102d5c539ff29b","freq_resp","img/orange_2bandit_a.png","70","70","test","","","","7","",""
"null","304211","pSARL_v2","pSARL_v2auj2dg8p","6129ba3532102d5c539ff29b","fixation","img/fixation.png","null","","test","","","","","",""
"223.70000004768372","304438","pSARL_v2","pSARL_v2auj2dg8p","6129ba3532102d5c539ff29b","freq","img/orange_2bandit_a2.png","70","70","test","1","149","149","7","",""
"null","305027","pSARL_v2","pSARL_v2auj2dg8p","6129ba3532102d5c539ff29b","freq_resp","img/orange_2bandit_a.png","70","70","test","","","","7","",""
"null","305181","pSARL_v2","pSARL_v2auj2dg8p","6129ba3532102d5c539ff29b","fixation","img/fixation.png","null","","test","","","","","",""
"323","305507","pSARL_v2","pSARL_v2auj2dg8p","6129ba3532102d5c539ff29b","infreq","img/green_2bandit_a2.png","68","68","test","1","150","150","7","",""
"null","305995","pSARL_v2","pSARL_v2auj2dg8p","6129ba3532102d5c539ff29b","infreq_resp","img/green_2bandit_a.png","68","68","test","","","","7","",""
"null","306149","pSARL_v2","pSARL_v2auj2dg8p","6129ba3532102d5c539ff29b","fixation","img/fixation.png","null","","test","","","","","",""
"322.2000000476837","306474","pSARL_v2","pSARL_v2auj2dg8p","6129ba3532102d5c539ff29b","freq","img/orange_2bandit_a2.png","70","70","test","1","151","151","7","",""
"null","306965","pSARL_v2","pSARL_v2auj2dg8p","6129ba3532102d5c539ff29b","freq_resp","img/orange_2bandit_a.png","70","70","test","","","","7","",""
"null","307134","pSARL_v2","pSARL_v2auj2dg8p","6129ba3532102d5c539ff29b","fixation","img/fixation.png","null","","test","","","","","",""
"259.89999997615814","307399","pSARL_v2","pSARL_v2auj2dg8p","6129ba3532102d5c539ff29b","freq","img/orange_2bandit_a2.png","70","70","test","1","152","152","7","",""
"null","307949","pSARL_v2","pSARL_v2auj2dg8p","6129ba3532102d5c539ff29b","freq_resp","img/orange_2bandit_a.png","70","70","test","","","","7","",""
"null","308103","pSARL_v2","pSARL_v2auj2dg8p","6129ba3532102d5c539ff29b","fixation","img/fixation.png","null","","test","","","","","",""
"235.79999995231628","308342","pSARL_v2","pSARL_v2auj2dg8p","6129ba3532102d5c539ff29b","freq","img/orange_2bandit_a2.png","70","70","test","1","153","153","7","",""
"null","308920","pSARL_v2","pSARL_v2auj2dg8p","6129ba3532102d5c539ff29b","freq_resp","img/orange_2bandit_a.png","70","70","test","","","","7","",""
"null","309074","pSARL_v2","pSARL_v2auj2dg8p","6129ba3532102d5c539ff29b","fixation","img/fixation.png","null","","test","","","","","",""
"254.79999995231628","309333","pSARL_v2","pSARL_v2auj2dg8p","6129ba3532102d5c539ff29b","freq","img/orange_2bandit_a2.png","70","70","test","1","154","154","7","",""
"null","309889","pSARL_v2","pSARL_v2auj2dg8p","6129ba3532102d5c539ff29b","freq_resp","img/orange_2bandit_a.png","70","70","test","","","","7","",""
"null","310058","pSARL_v2","pSARL_v2auj2dg8p","6129ba3532102d5c539ff29b","fixation","img/fixation.png","null","","test","","","","","",""
"227.10000002384186","310288","pSARL_v2","pSARL_v2auj2dg8p","6129ba3532102d5c539ff29b","freq","img/orange_2bandit_a2.png","70","70","test","1","155","155","7","",""
"null","310875","pSARL_v2","pSARL_v2auj2dg8p","6129ba3532102d5c539ff29b","freq_resp","img/orange_2bandit_a.png","70","70","test","","","","7","",""
"null","311029","pSARL_v2","pSARL_v2auj2dg8p","6129ba3532102d5c539ff29b","fixation","img/fixation.png","null","","test","","","","","",""
"257.10000002384186","311289","pSARL_v2","pSARL_v2auj2dg8p","6129ba3532102d5c539ff29b","freq","img/orange_2bandit_a2.png","70","70","test","1","156","156","7","",""
"null","311845","pSARL_v2","pSARL_v2auj2dg8p","6129ba3532102d5c539ff29b","freq_resp","img/orange_2bandit_a.png","70","70","test","","","","7","",""
"null","312013","pSARL_v2","pSARL_v2auj2dg8p","6129ba3532102d5c539ff29b","fixation","img/fixation.png","null","","test","","","","","",""
"533.3000000715256","312549","pSARL_v2","pSARL_v2auj2dg8p","6129ba3532102d5c539ff29b","infreq","img/green_2bandit_a2.png","68","68","test","1","157","157","7","",""
"null","312826","pSARL_v2","pSARL_v2auj2dg8p","6129ba3532102d5c539ff29b","infreq_resp","img/green_2bandit_a.png","68","68","test","","","","7","",""
"null","312980","pSARL_v2","pSARL_v2auj2dg8p","6129ba3532102d5c539ff29b","fixation","img/fixation.png","null","","test","","","","","",""
"353.89999997615814","313337","pSARL_v2","pSARL_v2auj2dg8p","6129ba3532102d5c539ff29b","freq","img/orange_2bandit_a2.png","70","70","test","1","158","158","7","",""
"null","313795","pSARL_v2","pSARL_v2auj2dg8p","6129ba3532102d5c539ff29b","freq_resp","img/orange_2bandit_a.png","70","70","test","","","","7","",""
"null","313964","pSARL_v2","pSARL_v2auj2dg8p","6129ba3532102d5c539ff29b","fixation","img/fixation.png","null","","test","","","","","",""
"225.09999990463257","314192","pSARL_v2","pSARL_v2auj2dg8p","6129ba3532102d5c539ff29b","freq","img/orange_2bandit_a2.png","70","70","test","1","159","159","7","",""
"null","314779","pSARL_v2","pSARL_v2auj2dg8p","6129ba3532102d5c539ff29b","freq_resp","img/orange_2bandit_a.png","70","70","test","","","","7","",""
"null","314932","pSARL_v2","pSARL_v2auj2dg8p","6129ba3532102d5c539ff29b","fixation","img/fixation.png","null","","test","","","","","",""
"516.5","315452","pSARL_v2","pSARL_v2auj2dg8p","6129ba3532102d5c539ff29b","reward","img/slot.png","74","","test","","","","","",""
"null","316208","pSARL_v2","pSARL_v2auj2dg8p","6129ba3532102d5c539ff29b","points","<div class=""verylowPoints""> -6 </div>","null","na","test","","","","7","-6","6"
"624.2000000476837","316836","pSARL_v2","pSARL_v2auj2dg8p","6129ba3532102d5c539ff29b","freq","img/orange_2bandit_a2.png","70","70","test","1","160","160","8","",""
"null","317023","pSARL_v2","pSARL_v2auj2dg8p","6129ba3532102d5c539ff29b","freq_resp","img/orange_2bandit_a.png","70","70","test","","","","8","",""
"null","317178","pSARL_v2","pSARL_v2auj2dg8p","6129ba3532102d5c539ff29b","fixation","img/fixation.png","null","","test","","","","","",""
"250.5","317431","pSARL_v2","pSARL_v2auj2dg8p","6129ba3532102d5c539ff29b","freq","img/orange_2bandit_a2.png","70","70","test","1","161","161","8","",""
"null","317992","pSARL_v2","pSARL_v2auj2dg8p","6129ba3532102d5c539ff29b","freq_resp","img/orange_2bandit_a.png","70","70","test","","","","8","",""
"null","318161","pSARL_v2","pSARL_v2auj2dg8p","6129ba3532102d5c539ff29b","fixation","img/fixation.png","null","","test","","","","","",""
"325.3000000715256","318490","pSARL_v2","pSARL_v2auj2dg8p","6129ba3532102d5c539ff29b","infreq","img/green_2bandit_a2.png","68","68","test","1","162","162","8","",""
"null","318977","pSARL_v2","pSARL_v2auj2dg8p","6129ba3532102d5c539ff29b","infreq_resp","img/green_2bandit_a.png","68","68","test","","","","8","",""
"null","319147","pSARL_v2","pSARL_v2auj2dg8p","6129ba3532102d5c539ff29b","fixation","img/fixation.png","null","","test","","","","","",""
"329.5","319479","pSARL_v2","pSARL_v2auj2dg8p","6129ba3532102d5c539ff29b","freq","img/orange_2bandit_a2.png","70","70","test","1","163","163","8","",""
"null","319963","pSARL_v2","pSARL_v2auj2dg8p","6129ba3532102d5c539ff29b","freq_resp","img/orange_2bandit_a.png","70","70","test","","","","8","",""
"null","320117","pSARL_v2","pSARL_v2auj2dg8p","6129ba3532102d5c539ff29b","fixation","img/fixation.png","null","","test","","","","","",""
"440","320560","pSARL_v2","pSARL_v2auj2dg8p","6129ba3532102d5c539ff29b","freq","img/orange_2bandit_a2.png","70","70","test","1","164","164","8","",""
"null","320931","pSARL_v2","pSARL_v2auj2dg8p","6129ba3532102d5c539ff29b","freq_resp","img/orange_2bandit_a.png","70","70","test","","","","8","",""
"null","321086","pSARL_v2","pSARL_v2auj2dg8p","6129ba3532102d5c539ff29b","fixation","img/fixation.png","null","","test","","","","","",""
"269.5","321358","pSARL_v2","pSARL_v2auj2dg8p","6129ba3532102d5c539ff29b","freq","img/orange_2bandit_a2.png","70","70","test","1","165","165","8","",""
"null","321901","pSARL_v2","pSARL_v2auj2dg8p","6129ba3532102d5c539ff29b","freq_resp","img/orange_2bandit_a.png","70","70","test","","","","8","",""
"null","322055","pSARL_v2","pSARL_v2auj2dg8p","6129ba3532102d5c539ff29b","fixation","img/fixation.png","null","","test","","","","","",""
"212.20000004768372","322270","pSARL_v2","pSARL_v2auj2dg8p","6129ba3532102d5c539ff29b","freq","img/orange_2bandit_a2.png","70","70","test","1","166","166","8","",""
"null","322869","pSARL_v2","pSARL_v2auj2dg8p","6129ba3532102d5c539ff29b","freq_resp","img/orange_2bandit_a.png","70","70","test","","","","8","",""
"null","323023","pSARL_v2","pSARL_v2auj2dg8p","6129ba3532102d5c539ff29b","fixation","img/fixation.png","null","","test","","","","","",""
"380","323406","pSARL_v2","pSARL_v2auj2dg8p","6129ba3532102d5c539ff29b","infreq","img/green_2bandit_a2.png","68","68","test","1","167","167","8","",""
"null","323838","pSARL_v2","pSARL_v2auj2dg8p","6129ba3532102d5c539ff29b","infreq_resp","img/green_2bandit_a.png","68","68","test","","","","8","",""
"null","323991","pSARL_v2","pSARL_v2auj2dg8p","6129ba3532102d5c539ff29b","fixation","img/fixation.png","null","","test","","","","","",""
"289","324283","pSARL_v2","pSARL_v2auj2dg8p","6129ba3532102d5c539ff29b","infreq","img/green_2bandit_a2.png","68","68","test","1","168","168","8","",""
"null","324808","pSARL_v2","pSARL_v2auj2dg8p","6129ba3532102d5c539ff29b","infreq_resp","img/green_2bandit_a.png","68","68","test","","","","8","",""
"null","324962","pSARL_v2","pSARL_v2auj2dg8p","6129ba3532102d5c539ff29b","fixation","img/fixation.png","null","","test","","","","","",""
"398.60000002384186","325363","pSARL_v2","pSARL_v2auj2dg8p","6129ba3532102d5c539ff29b","freq","img/orange_2bandit_a2.png","70","70","test","1","169","169","8","",""
"null","325775","pSARL_v2","pSARL_v2auj2dg8p","6129ba3532102d5c539ff29b","freq_resp","img/orange_2bandit_a.png","70","70","test","","","","8","",""
"null","325929","pSARL_v2","pSARL_v2auj2dg8p","6129ba3532102d5c539ff29b","fixation","img/fixation.png","null","","test","","","","","",""
"286.5","326218","pSARL_v2","pSARL_v2auj2dg8p","6129ba3532102d5c539ff29b","freq","img/orange_2bandit_a2.png","70","70","test","1","170","170","8","",""
"null","326745","pSARL_v2","pSARL_v2auj2dg8p","6129ba3532102d5c539ff29b","freq_resp","img/orange_2bandit_a.png","70","70","test","","","","8","",""
"null","326914","pSARL_v2","pSARL_v2auj2dg8p","6129ba3532102d5c539ff29b","fixation","img/fixation.png","null","","test","","","","","",""
"235.20000004768372","327152","pSARL_v2","pSARL_v2auj2dg8p","6129ba3532102d5c539ff29b","freq","img/orange_2bandit_a2.png","70","70","test","1","171","171","8","",""
"null","327729","pSARL_v2","pSARL_v2auj2dg8p","6129ba3532102d5c539ff29b","freq_resp","img/orange_2bandit_a.png","70","70","test","","","","8","",""
"null","327884","pSARL_v2","pSARL_v2auj2dg8p","6129ba3532102d5c539ff29b","fixation","img/fixation.png","null","","test","","","","","",""
"232.19999992847443","328119","pSARL_v2","pSARL_v2auj2dg8p","6129ba3532102d5c539ff29b","freq","img/orange_2bandit_a2.png","70","70","test","1","172","172","8","",""
"null","328699","pSARL_v2","pSARL_v2auj2dg8p","6129ba3532102d5c539ff29b","freq_resp","img/orange_2bandit_a.png","70","70","test","","","","8","",""
"null","328868","pSARL_v2","pSARL_v2auj2dg8p","6129ba3532102d5c539ff29b","fixation","img/fixation.png","null","","test","","","","","",""
"249.89999997615814","329121","pSARL_v2","pSARL_v2auj2dg8p","6129ba3532102d5c539ff29b","freq","img/orange_2bandit_a2.png","70","70","test","1","173","173","8","",""
"null","329684","pSARL_v2","pSARL_v2auj2dg8p","6129ba3532102d5c539ff29b","freq_resp","img/orange_2bandit_a.png","70","70","test","","","","8","",""
"null","329838","pSARL_v2","pSARL_v2auj2dg8p","6129ba3532102d5c539ff29b","fixation","img/fixation.png","null","","test","","","","","",""
"270.10000002384186","330111","pSARL_v2","pSARL_v2auj2dg8p","6129ba3532102d5c539ff29b","freq","img/orange_2bandit_a2.png","70","70","test","1","174","174","8","",""
"null","330654","pSARL_v2","pSARL_v2auj2dg8p","6129ba3532102d5c539ff29b","freq_resp","img/orange_2bandit_a.png","70","70","test","","","","8","",""
"null","330823","pSARL_v2","pSARL_v2auj2dg8p","6129ba3532102d5c539ff29b","fixation","img/fixation.png","null","","test","","","","","",""
"229.79999995231628","331056","pSARL_v2","pSARL_v2auj2dg8p","6129ba3532102d5c539ff29b","freq","img/orange_2bandit_a2.png","70","70","test","1","175","175","8","",""
"null","331639","pSARL_v2","pSARL_v2auj2dg8p","6129ba3532102d5c539ff29b","freq_resp","img/orange_2bandit_a.png","70","70","test","","","","8","",""
"null","331794","pSARL_v2","pSARL_v2auj2dg8p","6129ba3532102d5c539ff29b","fixation","img/fixation.png","null","","test","","","","","",""
"226.60000002384186","332023","pSARL_v2","pSARL_v2auj2dg8p","6129ba3532102d5c539ff29b","freq","img/orange_2bandit_a2.png","70","70","test","1","176","176","8","",""
"null","332608","pSARL_v2","pSARL_v2auj2dg8p","6129ba3532102d5c539ff29b","freq_resp","img/orange_2bandit_a.png","70","70","test","","","","8","",""
"null","332777","pSARL_v2","pSARL_v2auj2dg8p","6129ba3532102d5c539ff29b","fixation","img/fixation.png","null","","test","","","","","",""
"356.89999997615814","333137","pSARL_v2","pSARL_v2auj2dg8p","6129ba3532102d5c539ff29b","freq","img/orange_2bandit_a2.png","70","70","test","1","177","177","8","",""
"null","333593","pSARL_v2","pSARL_v2auj2dg8p","6129ba3532102d5c539ff29b","freq_resp","img/orange_2bandit_a.png","70","70","test","","","","8","",""
"null","333761","pSARL_v2","pSARL_v2auj2dg8p","6129ba3532102d5c539ff29b","fixation","img/fixation.png","null","","test","","","","","",""
"283.5","334048","pSARL_v2","pSARL_v2auj2dg8p","6129ba3532102d5c539ff29b","freq","img/orange_2bandit_a2.png","70","70","test","1","178","178","8","",""
"null","334578","pSARL_v2","pSARL_v2auj2dg8p","6129ba3532102d5c539ff29b","freq_resp","img/orange_2bandit_a.png","70","70","test","","","","8","",""
"null","334732","pSARL_v2","pSARL_v2auj2dg8p","6129ba3532102d5c539ff29b","fixation","img/fixation.png","null","","test","","","","","",""
"303.10000002384186","335038","pSARL_v2","pSARL_v2auj2dg8p","6129ba3532102d5c539ff29b","freq","img/orange_2bandit_a2.png","70","70","test","1","179","179","8","",""
"null","335547","pSARL_v2","pSARL_v2auj2dg8p","6129ba3532102d5c539ff29b","freq_resp","img/orange_2bandit_a.png","70","70","test","","","","8","",""
"null","335701","pSARL_v2","pSARL_v2auj2dg8p","6129ba3532102d5c539ff29b","fixation","img/fixation.png","null","","test","","","","","",""
"268.2000000476837","335972","pSARL_v2","pSARL_v2auj2dg8p","6129ba3532102d5c539ff29b","freq","img/orange_2bandit_a2.png","70","70","test","1","180","180","8","",""
"null","336516","pSARL_v2","pSARL_v2auj2dg8p","6129ba3532102d5c539ff29b","freq_resp","img/orange_2bandit_a.png","70","70","test","","","","8","",""
"null","336686","pSARL_v2","pSARL_v2auj2dg8p","6129ba3532102d5c539ff29b","fixation","img/fixation.png","null","","test","","","","","",""
"228.30000007152557","336918","pSARL_v2","pSARL_v2auj2dg8p","6129ba3532102d5c539ff29b","freq","img/orange_2bandit_a2.png","70","70","test","1","181","181","8","",""
"null","337500","pSARL_v2","pSARL_v2auj2dg8p","6129ba3532102d5c539ff29b","freq_resp","img/orange_2bandit_a.png","70","70","test","","","","8","",""
"null","337654","pSARL_v2","pSARL_v2auj2dg8p","6129ba3532102d5c539ff29b","fixation","img/fixation.png","null","","test","","","","","",""
"250.5","337907","pSARL_v2","pSARL_v2auj2dg8p","6129ba3532102d5c539ff29b","freq","img/orange_2bandit_a2.png","70","70","test","1","182","182","8","",""
"null","338468","pSARL_v2","pSARL_v2auj2dg8p","6129ba3532102d5c539ff29b","freq_resp","img/orange_2bandit_a.png","70","70","test","","","","8","",""
"null","338638","pSARL_v2","pSARL_v2auj2dg8p","6129ba3532102d5c539ff29b","fixation","img/fixation.png","null","","test","","","","","",""
"515.6000000238419","339156","pSARL_v2","pSARL_v2auj2dg8p","6129ba3532102d5c539ff29b","reward","img/slot.png","74","","test","","","","","",""
"null","339915","pSARL_v2","pSARL_v2auj2dg8p","6129ba3532102d5c539ff29b","points","<div class=""verylowPoints""> -4 </div>","null","na","test","","","","8","-4","7"
"554.2000000476837","340472","pSARL_v2","pSARL_v2auj2dg8p","6129ba3532102d5c539ff29b","freq","img/orange_2bandit_a2.png","70","70","test","1","183","183","9","",""
"null","340730","pSARL_v2","pSARL_v2auj2dg8p","6129ba3532102d5c539ff29b","freq_resp","img/orange_2bandit_a.png","70","70","test","","","","9","",""
"null","340884","pSARL_v2","pSARL_v2auj2dg8p","6129ba3532102d5c539ff29b","fixation","img/fixation.png","null","","test","","","","","",""
"260.10000002384186","341147","pSARL_v2","pSARL_v2auj2dg8p","6129ba3532102d5c539ff29b","freq","img/orange_2bandit_a2.png","70","70","test","1","184","184","9","",""
"null","341701","pSARL_v2","pSARL_v2auj2dg8p","6129ba3532102d5c539ff29b","freq_resp","img/orange_2bandit_a.png","70","70","test","","","","9","",""
"null","341870","pSARL_v2","pSARL_v2auj2dg8p","6129ba3532102d5c539ff29b","fixation","img/fixation.png","null","","test","","","","","",""
"84.30000007152557","341957","pSARL_v2","pSARL_v2auj2dg8p","6129ba3532102d5c539ff29b","freq","img/orange_2bandit_a2.png","70","70","test","1","185","185","9","",""
"null","342685","pSARL_v2","pSARL_v2auj2dg8p","6129ba3532102d5c539ff29b","freq_resp","img/orange_2bandit_a.png","70","70","test","","","","9","",""
"null","342855","pSARL_v2","pSARL_v2auj2dg8p","6129ba3532102d5c539ff29b","fixation","img/fixation.png","null","","test","","","","","",""
"55.89999997615814","342914","pSARL_v2","pSARL_v2auj2dg8p","6129ba3532102d5c539ff29b","freq","img/orange_2bandit_a2.png","70","70","test","1","186","186","9","",""
"null","343669","pSARL_v2","pSARL_v2auj2dg8p","6129ba3532102d5c539ff29b","freq_resp","img/orange_2bandit_a.png","70","70","test","","","","9","",""
"null","343838","pSARL_v2","pSARL_v2auj2dg8p","6129ba3532102d5c539ff29b","fixation","img/fixation.png","null","","test","","","","","",""
"85.10000002384186","343926","pSARL_v2","pSARL_v2auj2dg8p","6129ba3532102d5c539ff29b","freq","img/orange_2bandit_a2.png","70","70","test","1","187","187","9","",""
"null","344652","pSARL_v2","pSARL_v2auj2dg8p","6129ba3532102d5c539ff29b","freq_resp","img/orange_2bandit_a.png","70","70","test","","","","9","",""
"null","344821","pSARL_v2","pSARL_v2auj2dg8p","6129ba3532102d5c539ff29b","fixation","img/fixation.png","null","","test","","","","","",""
"238.29999995231628","345063","pSARL_v2","pSARL_v2auj2dg8p","6129ba3532102d5c539ff29b","infreq","img/green_2bandit_a2.png","70","68","test","0","188","188","9","",""
"null","345636","pSARL_v2","pSARL_v2auj2dg8p","6129ba3532102d5c539ff29b","infreq_resp","img/green_2bandit_a.png","70","68","test","","","","9","",""
"null","345804","pSARL_v2","pSARL_v2auj2dg8p","6129ba3532102d5c539ff29b","fixation","img/fixation.png","null","","test","","","","","",""
"200","346007","pSARL_v2","pSARL_v2auj2dg8p","6129ba3532102d5c539ff29b","freq","img/orange_2bandit_a2.png","70","70","test","1","189","189","9","",""
"null","346620","pSARL_v2","pSARL_v2auj2dg8p","6129ba3532102d5c539ff29b","freq_resp","img/orange_2bandit_a.png","70","70","test","","","","9","",""
"null","346774","pSARL_v2","pSARL_v2auj2dg8p","6129ba3532102d5c539ff29b","fixation","img/fixation.png","null","","test","","","","","",""
"230.89999997615814","347008","pSARL_v2","pSARL_v2auj2dg8p","6129ba3532102d5c539ff29b","freq","img/orange_2bandit_a2.png","70","70","test","1","190","190","9","",""
"null","347588","pSARL_v2","pSARL_v2auj2dg8p","6129ba3532102d5c539ff29b","freq_resp","img/orange_2bandit_a.png","70","70","test","","","","9","",""
"null","347742","pSARL_v2","pSARL_v2auj2dg8p","6129ba3532102d5c539ff29b","fixation","img/fixation.png","null","","test","","","","","",""
"276.2999999523163","348021","pSARL_v2","pSARL_v2auj2dg8p","6129ba3532102d5c539ff29b","freq","img/orange_2bandit_a2.png","70","70","test","1","191","191","9","",""
"null","348559","pSARL_v2","pSARL_v2auj2dg8p","6129ba3532102d5c539ff29b","freq_resp","img/orange_2bandit_a.png","70","70","test","","","","9","",""
"null","348713","pSARL_v2","pSARL_v2auj2dg8p","6129ba3532102d5c539ff29b","fixation","img/fixation.png","null","","test","","","","","",""
"272.7999999523163","348989","pSARL_v2","pSARL_v2auj2dg8p","6129ba3532102d5c539ff29b","freq","img/orange_2bandit_a2.png","70","70","test","1","192","192","9","",""
"null","349528","pSARL_v2","pSARL_v2auj2dg8p","6129ba3532102d5c539ff29b","freq_resp","img/orange_2bandit_a.png","70","70","test","","","","9","",""
"null","349683","pSARL_v2","pSARL_v2auj2dg8p","6129ba3532102d5c539ff29b","fixation","img/fixation.png","null","","test","","","","","",""
"281.1999999284744","349967","pSARL_v2","pSARL_v2auj2dg8p","6129ba3532102d5c539ff29b","freq","img/orange_2bandit_a2.png","70","70","test","1","193","193","9","",""
"null","350496","pSARL_v2","pSARL_v2auj2dg8p","6129ba3532102d5c539ff29b","freq_resp","img/orange_2bandit_a.png","70","70","test","","","","9","",""
"null","350650","pSARL_v2","pSARL_v2auj2dg8p","6129ba3532102d5c539ff29b","fixation","img/fixation.png","null","","test","","","","","",""
"304.5","350957","pSARL_v2","pSARL_v2auj2dg8p","6129ba3532102d5c539ff29b","freq","img/orange_2bandit_a2.png","70","70","test","1","194","194","9","",""
"null","351464","pSARL_v2","pSARL_v2auj2dg8p","6129ba3532102d5c539ff29b","freq_resp","img/orange_2bandit_a.png","70","70","test","","","","9","",""
"null","351633","pSARL_v2","pSARL_v2auj2dg8p","6129ba3532102d5c539ff29b","fixation","img/fixation.png","null","","test","","","","","",""
"355.90000009536743","351992","pSARL_v2","pSARL_v2auj2dg8p","6129ba3532102d5c539ff29b","freq","img/orange_2bandit_a2.png","70","70","test","1","195","195","9","",""
"null","352450","pSARL_v2","pSARL_v2auj2dg8p","6129ba3532102d5c539ff29b","freq_resp","img/orange_2bandit_a.png","70","70","test","","","","9","",""
"null","352618","pSARL_v2","pSARL_v2auj2dg8p","6129ba3532102d5c539ff29b","fixation","img/fixation.png","null","","test","","","","","",""
"339.2999999523163","352960","pSARL_v2","pSARL_v2auj2dg8p","6129ba3532102d5c539ff29b","freq","img/orange_2bandit_a2.png","70","70","test","1","196","196","9","",""
"null","353433","pSARL_v2","pSARL_v2auj2dg8p","6129ba3532102d5c539ff29b","freq_resp","img/orange_2bandit_a.png","70","70","test","","","","9","",""
"null","353586","pSARL_v2","pSARL_v2auj2dg8p","6129ba3532102d5c539ff29b","fixation","img/fixation.png","null","","test","","","","","",""
"427.60000002384186","354017","pSARL_v2","pSARL_v2auj2dg8p","6129ba3532102d5c539ff29b","freq","img/orange_2bandit_a2.png","70","70","test","1","197","197","9","",""
"null","354403","pSARL_v2","pSARL_v2auj2dg8p","6129ba3532102d5c539ff29b","freq_resp","img/orange_2bandit_a.png","70","70","test","","","","9","",""
"null","354571","pSARL_v2","pSARL_v2auj2dg8p","6129ba3532102d5c539ff29b","fixation","img/fixation.png","null","","test","","","","","",""
"376.60000002384186","354952","pSARL_v2","pSARL_v2auj2dg8p","6129ba3532102d5c539ff29b","freq","img/orange_2bandit_a2.png","70","70","test","1","198","198","9","",""
"null","355386","pSARL_v2","pSARL_v2auj2dg8p","6129ba3532102d5c539ff29b","freq_resp","img/orange_2bandit_a.png","70","70","test","","","","9","",""
"null","355555","pSARL_v2","pSARL_v2auj2dg8p","6129ba3532102d5c539ff29b","fixation","img/fixation.png","null","","test","","","","","",""
"372.2000000476837","355930","pSARL_v2","pSARL_v2auj2dg8p","6129ba3532102d5c539ff29b","infreq","img/green_2bandit_a2.png","68","68","test","1","199","199","9","",""
"null","356370","pSARL_v2","pSARL_v2auj2dg8p","6129ba3532102d5c539ff29b","infreq_resp","img/green_2bandit_a.png","68","68","test","","","","9","",""
"null","356524","pSARL_v2","pSARL_v2auj2dg8p","6129ba3532102d5c539ff29b","fixation","img/fixation.png","null","","test","","","","","",""
"325.6999999284744","356852","pSARL_v2","pSARL_v2auj2dg8p","6129ba3532102d5c539ff29b","freq","img/orange_2bandit_a2.png","70","70","test","1","200","200","9","",""
"null","357340","pSARL_v2","pSARL_v2auj2dg8p","6129ba3532102d5c539ff29b","freq_resp","img/orange_2bandit_a.png","70","70","test","","","","9","",""
"null","357494","pSARL_v2","pSARL_v2auj2dg8p","6129ba3532102d5c539ff29b","fixation","img/fixation.png","null","","test","","","","","",""
"289.3000000715256","357786","pSARL_v2","pSARL_v2auj2dg8p","6129ba3532102d5c539ff29b","freq","img/orange_2bandit_a2.png","70","70","test","1","201","201","9","",""
"null","358309","pSARL_v2","pSARL_v2auj2dg8p","6129ba3532102d5c539ff29b","freq_resp","img/orange_2bandit_a.png","70","70","test","","","","9","",""
"null","358463","pSARL_v2","pSARL_v2auj2dg8p","6129ba3532102d5c539ff29b","fixation","img/fixation.png","null","","test","","","","","",""
"253.89999997615814","358720","pSARL_v2","pSARL_v2auj2dg8p","6129ba3532102d5c539ff29b","freq","img/orange_2bandit_a2.png","70","70","test","1","202","202","9","",""
"null","359279","pSARL_v2","pSARL_v2auj2dg8p","6129ba3532102d5c539ff29b","freq_resp","img/orange_2bandit_a.png","70","70","test","","","","9","",""
"null","359433","pSARL_v2","pSARL_v2auj2dg8p","6129ba3532102d5c539ff29b","fixation","img/fixation.png","null","","test","","","","","",""
"442.10000002384186","359878","pSARL_v2","pSARL_v2auj2dg8p","6129ba3532102d5c539ff29b","reward","img/slot.png","74","","test","","","","","",""
"null","360632","pSARL_v2","pSARL_v2auj2dg8p","6129ba3532102d5c539ff29b","points","<div class=""verylowPoints""> -3 </div>","null","na","test","","","","9","-3","8"
"413.39999997615814","361049","pSARL_v2","pSARL_v2auj2dg8p","6129ba3532102d5c539ff29b","freq","img/orange_2bandit_a2.png","70","70","test","1","203","203","10","",""
"null","361448","pSARL_v2","pSARL_v2auj2dg8p","6129ba3532102d5c539ff29b","freq_resp","img/orange_2bandit_a.png","70","70","test","","","","10","",""
"null","361602","pSARL_v2","pSARL_v2auj2dg8p","6129ba3532102d5c539ff29b","fixation","img/fixation.png","null","","test","","","","","",""
"230.10000002384186","361836","pSARL_v2","pSARL_v2auj2dg8p","6129ba3532102d5c539ff29b","freq","img/orange_2bandit_a2.png","70","70","test","1","204","204","10","",""
"null","362418","pSARL_v2","pSARL_v2auj2dg8p","6129ba3532102d5c539ff29b","freq_resp","img/orange_2bandit_a.png","70","70","test","","","","10","",""
"null","362572","pSARL_v2","pSARL_v2auj2dg8p","6129ba3532102d5c539ff29b","fixation","img/fixation.png","null","","test","","","","","",""
"217.90000009536743","362793","pSARL_v2","pSARL_v2auj2dg8p","6129ba3532102d5c539ff29b","freq","img/orange_2bandit_a2.png","70","70","test","1","205","205","10","",""
"null","363387","pSARL_v2","pSARL_v2auj2dg8p","6129ba3532102d5c539ff29b","freq_resp","img/orange_2bandit_a.png","70","70","test","","","","10","",""
"null","363541","pSARL_v2","pSARL_v2auj2dg8p","6129ba3532102d5c539ff29b","fixation","img/fixation.png","null","","test","","","","","",""
"339.3000000715256","363883","pSARL_v2","pSARL_v2auj2dg8p","6129ba3532102d5c539ff29b","infreq","img/green_2bandit_a2.png","68","68","test","1","206","206","10","",""
