"rt","time_elapsed","expId","subject","prolificID","trialType","stimulus","key_press","corrresp","phase","corr","trialNum","attentionRunNum","blockNum","points","rlNum"
"7562.5","7596","pSARL_v2","pSARL_v2ug43hm3j","631a1f357c56acbb68d5dc14","","","","","","","","","","",""
"","10435","pSARL_v2","pSARL_v2ug43hm3j","631a1f357c56acbb68d5dc14","fullscreen","","","","","","","","","",""
"64367.30000001192","74820","pSARL_v2","pSARL_v2ug43hm3j","631a1f357c56acbb68d5dc14","","","","","","","","","","",""
"null","75638","pSARL_v2","pSARL_v2ug43hm3j","631a1f357c56acbb68d5dc14","freqPrac","img/green_2bandit_b2.png","null","70","prac","0","","","","",""
"null","76650","pSARL_v2","pSARL_v2ug43hm3j","631a1f357c56acbb68d5dc14","feedback","img/tooSlow.png","null","na","prac","","","","","",""
"null","76817","pSARL_v2","pSARL_v2ug43hm3j","631a1f357c56acbb68d5dc14","fixation","img/fixation.png","null","","prac","","","","","",""
"384.89999997615814","77213","pSARL_v2","pSARL_v2ug43hm3j","631a1f357c56acbb68d5dc14","infreqPrac","img/orange_2bandit_b2.png","68","68","prac","1","","","","",""
"384.89999997615814","77643","pSARL_v2","pSARL_v2ug43hm3j","631a1f357c56acbb68d5dc14","infreqPrac_resp","img/orange_2bandit_b.png","68","68","prac","","","","","",""
"null","77817","pSARL_v2","pSARL_v2ug43hm3j","631a1f357c56acbb68d5dc14","fixation","img/fixation.png","null","","prac","","","","","",""
"491.10000002384186","78318","pSARL_v2","pSARL_v2ug43hm3j","631a1f357c56acbb68d5dc14","freqPrac","img/green_2bandit_b2.png","70","70","prac","1","","","","",""
"491.10000002384186","78646","pSARL_v2","pSARL_v2ug43hm3j","631a1f357c56acbb68d5dc14","freqPrac_resp","img/green_2bandit_b.png","70","70","prac","","","","","",""
"null","78820","pSARL_v2","pSARL_v2ug43hm3j","631a1f357c56acbb68d5dc14","fixation","img/fixation.png","null","","prac","","","","","",""
"418.7000000476837","79248","pSARL_v2","pSARL_v2ug43hm3j","631a1f357c56acbb68d5dc14","infreqPrac","img/orange_2bandit_b2.png","68","68","prac","1","","","","",""
"418.7000000476837","79645","pSARL_v2","pSARL_v2ug43hm3j","631a1f357c56acbb68d5dc14","infreqPrac_resp","img/orange_2bandit_b.png","68","68","prac","","","","","",""
"null","79815","pSARL_v2","pSARL_v2ug43hm3j","631a1f357c56acbb68d5dc14","fixation","img/fixation.png","null","","prac","","","","","",""
"441.89999997615814","80266","pSARL_v2","pSARL_v2ug43hm3j","631a1f357c56acbb68d5dc14","infreqPrac","img/orange_2bandit_b2.png","68","68","prac","1","","","","",""
"441.89999997615814","80640","pSARL_v2","pSARL_v2ug43hm3j","631a1f357c56acbb68d5dc14","infreqPrac_resp","img/orange_2bandit_b.png","68","68","prac","","","","","",""
"null","80799","pSARL_v2","pSARL_v2ug43hm3j","631a1f357c56acbb68d5dc14","fixation","img/fixation.png","null","","prac","","","","","",""
"365.19999998807907","81174","pSARL_v2","pSARL_v2ug43hm3j","631a1f357c56acbb68d5dc14","infreqPrac","img/orange_2bandit_b2.png","68","68","prac","1","","","","",""
"365.19999998807907","81629","pSARL_v2","pSARL_v2ug43hm3j","631a1f357c56acbb68d5dc14","infreqPrac_resp","img/orange_2bandit_b.png","68","68","prac","","","","","",""
"null","81802","pSARL_v2","pSARL_v2ug43hm3j","631a1f357c56acbb68d5dc14","fixation","img/fixation.png","null","","prac","","","","","",""
"311","82122","pSARL_v2","pSARL_v2ug43hm3j","631a1f357c56acbb68d5dc14","freqPrac","img/green_2bandit_b2.png","68","70","prac","0","","","","",""
"311","82621","pSARL_v2","pSARL_v2ug43hm3j","631a1f357c56acbb68d5dc14","freqPrac_resp","img/green_2bandit_b.png","68","70","prac","","","","","",""
"null","83633","pSARL_v2","pSARL_v2ug43hm3j","631a1f357c56acbb68d5dc14","feedback","img/wrongKey.png","null","na","prac","","","","","",""
"null","83803","pSARL_v2","pSARL_v2ug43hm3j","631a1f357c56acbb68d5dc14","fixation","img/fixation.png","null","","prac","","","","","",""
"458.19999998807907","84273","pSARL_v2","pSARL_v2ug43hm3j","631a1f357c56acbb68d5dc14","infreqPrac","img/orange_2bandit_b2.png","68","68","prac","1","","","","",""
"458.19999998807907","84629","pSARL_v2","pSARL_v2ug43hm3j","631a1f357c56acbb68d5dc14","infreqPrac_resp","img/orange_2bandit_b.png","68","68","prac","","","","","",""
"null","84801","pSARL_v2","pSARL_v2ug43hm3j","631a1f357c56acbb68d5dc14","fixation","img/fixation.png","null","","prac","","","","","",""
"370.19999998807907","85183","pSARL_v2","pSARL_v2ug43hm3j","631a1f357c56acbb68d5dc14","freqPrac","img/green_2bandit_b2.png","70","70","prac","1","","","","",""
"370.19999998807907","85631","pSARL_v2","pSARL_v2ug43hm3j","631a1f357c56acbb68d5dc14","freqPrac_resp","img/green_2bandit_b.png","70","70","prac","","","","","",""
"null","85795","pSARL_v2","pSARL_v2ug43hm3j","631a1f357c56acbb68d5dc14","fixation","img/fixation.png","null","","prac","","","","","",""
"378.19999998807907","86186","pSARL_v2","pSARL_v2ug43hm3j","631a1f357c56acbb68d5dc14","freqPrac","img/green_2bandit_b2.png","70","70","prac","1","","","","",""
"378.19999998807907","86631","pSARL_v2","pSARL_v2ug43hm3j","631a1f357c56acbb68d5dc14","freqPrac_resp","img/green_2bandit_b.png","70","70","prac","","","","","",""
"null","86803","pSARL_v2","pSARL_v2ug43hm3j","631a1f357c56acbb68d5dc14","fixation","img/fixation.png","null","","prac","","","","","",""
"17926","104738","pSARL_v2","pSARL_v2ug43hm3j","631a1f357c56acbb68d5dc14","","","","","prac","","","","","",""
"547.3999999761581","105295","pSARL_v2","pSARL_v2ug43hm3j","631a1f357c56acbb68d5dc14","rewardPractice","img/slot.png","74","","prac","","","","","",""
"null","106060","pSARL_v2","pSARL_v2ug43hm3j","631a1f357c56acbb68d5dc14","feedback","<div class=""veryhighPoints""> +15 </div>","null","na","prac","","","","","",""
"null","106224","pSARL_v2","pSARL_v2ug43hm3j","631a1f357c56acbb68d5dc14","fixation","img/fixation.png","null","","prac","","","","","",""
"15813.5","122046","pSARL_v2","pSARL_v2ug43hm3j","631a1f357c56acbb68d5dc14","","","","","prac","","","","","",""
"550.1999999880791","122607","pSARL_v2","pSARL_v2ug43hm3j","631a1f357c56acbb68d5dc14","freq","img/green_2bandit_b2.png","70","70","test","1","1","1","1","",""
"null","122870","pSARL_v2","pSARL_v2ug43hm3j","631a1f357c56acbb68d5dc14","freq_resp","img/green_2bandit_b.png","70","70","test","","","","1","",""
"null","123041","pSARL_v2","pSARL_v2ug43hm3j","631a1f357c56acbb68d5dc14","fixation","img/fixation.png","null","","test","","","","","",""
"401.9000000357628","123453","pSARL_v2","pSARL_v2ug43hm3j","631a1f357c56acbb68d5dc14","freq","img/green_2bandit_b2.png","70","70","test","1","2","2","1","",""
"null","123868","pSARL_v2","pSARL_v2ug43hm3j","631a1f357c56acbb68d5dc14","freq_resp","img/green_2bandit_b.png","70","70","test","","","","1","",""
"null","124044","pSARL_v2","pSARL_v2ug43hm3j","631a1f357c56acbb68d5dc14","fixation","img/fixation.png","null","","test","","","","","",""
"336.89999997615814","124391","pSARL_v2","pSARL_v2ug43hm3j","631a1f357c56acbb68d5dc14","freq","img/green_2bandit_b2.png","70","70","test","1","3","3","1","",""
"null","124876","pSARL_v2","pSARL_v2ug43hm3j","631a1f357c56acbb68d5dc14","freq_resp","img/green_2bandit_b.png","70","70","test","","","","1","",""
"null","125038","pSARL_v2","pSARL_v2ug43hm3j","631a1f357c56acbb68d5dc14","fixation","img/fixation.png","null","","test","","","","","",""
"339.10000002384186","125387","pSARL_v2","pSARL_v2ug43hm3j","631a1f357c56acbb68d5dc14","freq","img/green_2bandit_b2.png","70","70","test","1","4","4","1","",""
"null","125861","pSARL_v2","pSARL_v2ug43hm3j","631a1f357c56acbb68d5dc14","freq_resp","img/green_2bandit_b.png","70","70","test","","","","1","",""
"null","126026","pSARL_v2","pSARL_v2ug43hm3j","631a1f357c56acbb68d5dc14","fixation","img/fixation.png","null","","test","","","","","",""
"362.80000001192093","126398","pSARL_v2","pSARL_v2ug43hm3j","631a1f357c56acbb68d5dc14","freq","img/green_2bandit_b2.png","70","70","test","1","5","5","1","",""
"null","126847","pSARL_v2","pSARL_v2ug43hm3j","631a1f357c56acbb68d5dc14","freq_resp","img/green_2bandit_b.png","70","70","test","","","","1","",""
"null","127011","pSARL_v2","pSARL_v2ug43hm3j","631a1f357c56acbb68d5dc14","fixation","img/fixation.png","null","","test","","","","","",""
"414","127434","pSARL_v2","pSARL_v2ug43hm3j","631a1f357c56acbb68d5dc14","infreq","img/orange_2bandit_b2.png","68","68","test","1","6","6","1","",""
"null","127832","pSARL_v2","pSARL_v2ug43hm3j","631a1f357c56acbb68d5dc14","infreq_resp","img/orange_2bandit_b.png","68","68","test","","","","1","",""
"null","127996","pSARL_v2","pSARL_v2ug43hm3j","631a1f357c56acbb68d5dc14","fixation","img/fixation.png","null","","test","","","","","",""
"331.80000001192093","128337","pSARL_v2","pSARL_v2ug43hm3j","631a1f357c56acbb68d5dc14","infreq","img/orange_2bandit_b2.png","68","68","test","1","7","7","1","",""
"null","128821","pSARL_v2","pSARL_v2ug43hm3j","631a1f357c56acbb68d5dc14","infreq_resp","img/orange_2bandit_b.png","68","68","test","","","","1","",""
"null","128997","pSARL_v2","pSARL_v2ug43hm3j","631a1f357c56acbb68d5dc14","fixation","img/fixation.png","null","","test","","","","","",""
"416","129423","pSARL_v2","pSARL_v2ug43hm3j","631a1f357c56acbb68d5dc14","freq","img/green_2bandit_b2.png","70","70","test","1","8","8","1","",""
"null","129825","pSARL_v2","pSARL_v2ug43hm3j","631a1f357c56acbb68d5dc14","freq_resp","img/green_2bandit_b.png","70","70","test","","","","1","",""
"null","129994","pSARL_v2","pSARL_v2ug43hm3j","631a1f357c56acbb68d5dc14","fixation","img/fixation.png","null","","test","","","","","",""
"431.80000001192093","130434","pSARL_v2","pSARL_v2ug43hm3j","631a1f357c56acbb68d5dc14","freq","img/green_2bandit_b2.png","70","70","test","1","9","9","1","",""
"null","130814","pSARL_v2","pSARL_v2ug43hm3j","631a1f357c56acbb68d5dc14","freq_resp","img/green_2bandit_b.png","70","70","test","","","","1","",""
"null","130976","pSARL_v2","pSARL_v2ug43hm3j","631a1f357c56acbb68d5dc14","fixation","img/fixation.png","null","","test","","","","","",""
"342.0999999642372","131327","pSARL_v2","pSARL_v2ug43hm3j","631a1f357c56acbb68d5dc14","freq","img/green_2bandit_b2.png","70","70","test","1","10","10","1","",""
"null","131801","pSARL_v2","pSARL_v2ug43hm3j","631a1f357c56acbb68d5dc14","freq_resp","img/green_2bandit_b.png","70","70","test","","","","1","",""
"null","131967","pSARL_v2","pSARL_v2ug43hm3j","631a1f357c56acbb68d5dc14","fixation","img/fixation.png","null","","test","","","","","",""
"323.7000000476837","132300","pSARL_v2","pSARL_v2ug43hm3j","631a1f357c56acbb68d5dc14","freq","img/green_2bandit_b2.png","70","70","test","1","11","11","1","",""
"null","132793","pSARL_v2","pSARL_v2ug43hm3j","631a1f357c56acbb68d5dc14","freq_resp","img/green_2bandit_b.png","70","70","test","","","","1","",""
"null","132967","pSARL_v2","pSARL_v2ug43hm3j","631a1f357c56acbb68d5dc14","fixation","img/fixation.png","null","","test","","","","","",""
"361.39999997615814","133342","pSARL_v2","pSARL_v2ug43hm3j","631a1f357c56acbb68d5dc14","freq","img/green_2bandit_b2.png","70","70","test","1","12","12","1","",""
"null","133804","pSARL_v2","pSARL_v2ug43hm3j","631a1f357c56acbb68d5dc14","freq_resp","img/green_2bandit_b.png","70","70","test","","","","1","",""
"null","133964","pSARL_v2","pSARL_v2ug43hm3j","631a1f357c56acbb68d5dc14","fixation","img/fixation.png","null","","test","","","","","",""
"408.19999998807907","134382","pSARL_v2","pSARL_v2ug43hm3j","631a1f357c56acbb68d5dc14","freq","img/green_2bandit_b2.png","70","70","test","1","13","13","1","",""
"null","134797","pSARL_v2","pSARL_v2ug43hm3j","631a1f357c56acbb68d5dc14","freq_resp","img/green_2bandit_b.png","70","70","test","","","","1","",""
"null","134966","pSARL_v2","pSARL_v2ug43hm3j","631a1f357c56acbb68d5dc14","fixation","img/fixation.png","null","","test","","","","","",""
"349.0999999642372","135325","pSARL_v2","pSARL_v2ug43hm3j","631a1f357c56acbb68d5dc14","freq","img/green_2bandit_b2.png","70","70","test","1","14","14","1","",""
"null","135789","pSARL_v2","pSARL_v2ug43hm3j","631a1f357c56acbb68d5dc14","freq_resp","img/green_2bandit_b.png","70","70","test","","","","1","",""
"null","135963","pSARL_v2","pSARL_v2ug43hm3j","631a1f357c56acbb68d5dc14","fixation","img/fixation.png","null","","test","","","","","",""
"366.2000000476837","136339","pSARL_v2","pSARL_v2ug43hm3j","631a1f357c56acbb68d5dc14","freq","img/green_2bandit_b2.png","70","70","test","1","15","15","1","",""
"null","136787","pSARL_v2","pSARL_v2ug43hm3j","631a1f357c56acbb68d5dc14","freq_resp","img/green_2bandit_b.png","70","70","test","","","","1","",""
"null","136960","pSARL_v2","pSARL_v2ug43hm3j","631a1f357c56acbb68d5dc14","fixation","img/fixation.png","null","","test","","","","","",""
"310.89999997615814","137280","pSARL_v2","pSARL_v2ug43hm3j","631a1f357c56acbb68d5dc14","freq","img/green_2bandit_b2.png","70","70","test","1","16","16","1","",""
"null","137787","pSARL_v2","pSARL_v2ug43hm3j","631a1f357c56acbb68d5dc14","freq_resp","img/green_2bandit_b.png","70","70","test","","","","1","",""
"null","137962","pSARL_v2","pSARL_v2ug43hm3j","631a1f357c56acbb68d5dc14","fixation","img/fixation.png","null","","test","","","","","",""
"404.39999997615814","138376","pSARL_v2","pSARL_v2ug43hm3j","631a1f357c56acbb68d5dc14","freq","img/green_2bandit_b2.png","70","70","test","1","17","17","1","",""
"null","138788","pSARL_v2","pSARL_v2ug43hm3j","631a1f357c56acbb68d5dc14","freq_resp","img/green_2bandit_b.png","70","70","test","","","","1","",""
"null","138951","pSARL_v2","pSARL_v2ug43hm3j","631a1f357c56acbb68d5dc14","fixation","img/fixation.png","null","","test","","","","","",""
"367.80000001192093","139329","pSARL_v2","pSARL_v2ug43hm3j","631a1f357c56acbb68d5dc14","freq","img/green_2bandit_b2.png","70","70","test","1","18","18","1","",""
"null","139785","pSARL_v2","pSARL_v2ug43hm3j","631a1f357c56acbb68d5dc14","freq_resp","img/green_2bandit_b.png","70","70","test","","","","1","",""
"null","139947","pSARL_v2","pSARL_v2ug43hm3j","631a1f357c56acbb68d5dc14","fixation","img/fixation.png","null","","test","","","","","",""
"312","140270","pSARL_v2","pSARL_v2ug43hm3j","631a1f357c56acbb68d5dc14","freq","img/green_2bandit_b2.png","70","70","test","1","19","19","1","",""
"null","140768","pSARL_v2","pSARL_v2ug43hm3j","631a1f357c56acbb68d5dc14","freq_resp","img/green_2bandit_b.png","70","70","test","","","","1","",""
"null","140935","pSARL_v2","pSARL_v2ug43hm3j","631a1f357c56acbb68d5dc14","fixation","img/fixation.png","null","","test","","","","","",""
"310.10000002384186","141255","pSARL_v2","pSARL_v2ug43hm3j","631a1f357c56acbb68d5dc14","freq","img/green_2bandit_b2.png","70","70","test","1","20","20","1","",""
"null","141768","pSARL_v2","pSARL_v2ug43hm3j","631a1f357c56acbb68d5dc14","freq_resp","img/green_2bandit_b.png","70","70","test","","","","1","",""
"null","141934","pSARL_v2","pSARL_v2ug43hm3j","631a1f357c56acbb68d5dc14","fixation","img/fixation.png","null","","test","","","","","",""
"384.5","142329","pSARL_v2","pSARL_v2ug43hm3j","631a1f357c56acbb68d5dc14","freq","img/green_2bandit_b2.png","70","70","test","1","21","21","1","",""
"null","142761","pSARL_v2","pSARL_v2ug43hm3j","631a1f357c56acbb68d5dc14","freq_resp","img/green_2bandit_b.png","70","70","test","","","","1","",""
"null","142928","pSARL_v2","pSARL_v2ug43hm3j","631a1f357c56acbb68d5dc14","fixation","img/fixation.png","null","","test","","","","","",""
"528.2999999523163","143468","pSARL_v2","pSARL_v2ug43hm3j","631a1f357c56acbb68d5dc14","reward","img/slot.png","74","","test","","","","","",""
"null","144234","pSARL_v2","pSARL_v2ug43hm3j","631a1f357c56acbb68d5dc14","points","<div class=""verylowPoints""> -6 </div>","null","na","test","","","","1","-6","0"
"422.60000002384186","144666","pSARL_v2","pSARL_v2ug43hm3j","631a1f357c56acbb68d5dc14","freq","img/green_2bandit_b2.png","70","70","test","1","22","22","2","",""
"null","145056","pSARL_v2","pSARL_v2ug43hm3j","631a1f357c56acbb68d5dc14","freq_resp","img/green_2bandit_b.png","70","70","test","","","","2","",""
"null","145217","pSARL_v2","pSARL_v2ug43hm3j","631a1f357c56acbb68d5dc14","fixation","img/fixation.png","null","","test","","","","","",""
"401.5999999642372","145630","pSARL_v2","pSARL_v2ug43hm3j","631a1f357c56acbb68d5dc14","infreq","img/orange_2bandit_b2.png","68","68","test","1","23","23","2","",""
"null","146051","pSARL_v2","pSARL_v2ug43hm3j","631a1f357c56acbb68d5dc14","infreq_resp","img/orange_2bandit_b.png","68","68","test","","","","2","",""
"null","146217","pSARL_v2","pSARL_v2ug43hm3j","631a1f357c56acbb68d5dc14","fixation","img/fixation.png","null","","test","","","","","",""
"368.0999999642372","146595","pSARL_v2","pSARL_v2ug43hm3j","631a1f357c56acbb68d5dc14","freq","img/green_2bandit_b2.png","70","70","test","1","24","24","2","",""
"null","147048","pSARL_v2","pSARL_v2ug43hm3j","631a1f357c56acbb68d5dc14","freq_resp","img/green_2bandit_b.png","70","70","test","","","","2","",""
"null","147221","pSARL_v2","pSARL_v2ug43hm3j","631a1f357c56acbb68d5dc14","fixation","img/fixation.png","null","","test","","","","","",""
"393.39999997615814","147624","pSARL_v2","pSARL_v2ug43hm3j","631a1f357c56acbb68d5dc14","freq","img/green_2bandit_b2.png","70","70","test","1","25","25","2","",""
"null","148044","pSARL_v2","pSARL_v2ug43hm3j","631a1f357c56acbb68d5dc14","freq_resp","img/green_2bandit_b.png","70","70","test","","","","2","",""
"null","148215","pSARL_v2","pSARL_v2ug43hm3j","631a1f357c56acbb68d5dc14","fixation","img/fixation.png","null","","test","","","","","",""
"323.5","148550","pSARL_v2","pSARL_v2ug43hm3j","631a1f357c56acbb68d5dc14","freq","img/green_2bandit_b2.png","70","70","test","1","26","26","2","",""
"null","149049","pSARL_v2","pSARL_v2ug43hm3j","631a1f357c56acbb68d5dc14","freq_resp","img/green_2bandit_b.png","70","70","test","","","","2","",""
"null","149218","pSARL_v2","pSARL_v2ug43hm3j","631a1f357c56acbb68d5dc14","fixation","img/fixation.png","null","","test","","","","","",""
"307.9000000357628","149536","pSARL_v2","pSARL_v2ug43hm3j","631a1f357c56acbb68d5dc14","freq","img/green_2bandit_b2.png","70","70","test","1","27","27","2","",""
"null","150049","pSARL_v2","pSARL_v2ug43hm3j","631a1f357c56acbb68d5dc14","freq_resp","img/green_2bandit_b.png","70","70","test","","","","2","",""
"null","150215","pSARL_v2","pSARL_v2ug43hm3j","631a1f357c56acbb68d5dc14","fixation","img/fixation.png","null","","test","","","","","",""
"295.19999998807907","150523","pSARL_v2","pSARL_v2ug43hm3j","631a1f357c56acbb68d5dc14","freq","img/green_2bandit_b2.png","70","70","test","1","28","28","2","",""
"null","151044","pSARL_v2","pSARL_v2ug43hm3j","631a1f357c56acbb68d5dc14","freq_resp","img/green_2bandit_b.png","70","70","test","","","","2","",""
"null","151213","pSARL_v2","pSARL_v2ug43hm3j","631a1f357c56acbb68d5dc14","fixation","img/fixation.png","null","","test","","","","","",""
"506.5","151730","pSARL_v2","pSARL_v2ug43hm3j","631a1f357c56acbb68d5dc14","freq","img/green_2bandit_b2.png","70","70","test","1","29","29","2","",""
"null","152037","pSARL_v2","pSARL_v2ug43hm3j","631a1f357c56acbb68d5dc14","freq_resp","img/green_2bandit_b.png","70","70","test","","","","2","",""
"null","152205","pSARL_v2","pSARL_v2ug43hm3j","631a1f357c56acbb68d5dc14","fixation","img/fixation.png","null","","test","","","","","",""
"368.4000000357628","152583","pSARL_v2","pSARL_v2ug43hm3j","631a1f357c56acbb68d5dc14","freq","img/green_2bandit_b2.png","70","70","test","1","30","30","2","",""
"null","153033","pSARL_v2","pSARL_v2ug43hm3j","631a1f357c56acbb68d5dc14","freq_resp","img/green_2bandit_b.png","70","70","test","","","","2","",""
"null","153201","pSARL_v2","pSARL_v2ug43hm3j","631a1f357c56acbb68d5dc14","fixation","img/fixation.png","null","","test","","","","","",""
"350.5","153564","pSARL_v2","pSARL_v2ug43hm3j","631a1f357c56acbb68d5dc14","freq","img/green_2bandit_b2.png","70","70","test","1","31","31","2","",""
"null","154032","pSARL_v2","pSARL_v2ug43hm3j","631a1f357c56acbb68d5dc14","freq_resp","img/green_2bandit_b.png","70","70","test","","","","2","",""
"null","154201","pSARL_v2","pSARL_v2ug43hm3j","631a1f357c56acbb68d5dc14","fixation","img/fixation.png","null","","test","","","","","",""
"297","154510","pSARL_v2","pSARL_v2ug43hm3j","631a1f357c56acbb68d5dc14","freq","img/green_2bandit_b2.png","70","70","test","1","32","32","2","",""
"null","155024","pSARL_v2","pSARL_v2ug43hm3j","631a1f357c56acbb68d5dc14","freq_resp","img/green_2bandit_b.png","70","70","test","","","","2","",""
"null","155184","pSARL_v2","pSARL_v2ug43hm3j","631a1f357c56acbb68d5dc14","fixation","img/fixation.png","null","","test","","","","","",""
"318.10000002384186","155512","pSARL_v2","pSARL_v2ug43hm3j","631a1f357c56acbb68d5dc14","freq","img/green_2bandit_b2.png","70","70","test","1","33","33","2","",""
"null","156014","pSARL_v2","pSARL_v2ug43hm3j","631a1f357c56acbb68d5dc14","freq_resp","img/green_2bandit_b.png","70","70","test","","","","2","",""
"null","156174","pSARL_v2","pSARL_v2ug43hm3j","631a1f357c56acbb68d5dc14","fixation","img/fixation.png","null","","test","","","","","",""
"298","156483","pSARL_v2","pSARL_v2ug43hm3j","631a1f357c56acbb68d5dc14","freq","img/green_2bandit_b2.png","70","70","test","1","34","34","2","",""
"null","156998","pSARL_v2","pSARL_v2ug43hm3j","631a1f357c56acbb68d5dc14","freq_resp","img/green_2bandit_b.png","70","70","test","","","","2","",""
"null","157161","pSARL_v2","pSARL_v2ug43hm3j","631a1f357c56acbb68d5dc14","fixation","img/fixation.png","null","","test","","","","","",""
"287","157458","pSARL_v2","pSARL_v2ug43hm3j","631a1f357c56acbb68d5dc14","freq","img/green_2bandit_b2.png","70","70","test","1","35","35","2","",""
"null","157998","pSARL_v2","pSARL_v2ug43hm3j","631a1f357c56acbb68d5dc14","freq_resp","img/green_2bandit_b.png","70","70","test","","","","2","",""
"null","158165","pSARL_v2","pSARL_v2ug43hm3j","631a1f357c56acbb68d5dc14","fixation","img/fixation.png","null","","test","","","","","",""
"367.2000000476837","158542","pSARL_v2","pSARL_v2ug43hm3j","631a1f357c56acbb68d5dc14","infreq","img/orange_2bandit_b2.png","68","68","test","1","36","36","2","",""
"null","158989","pSARL_v2","pSARL_v2ug43hm3j","631a1f357c56acbb68d5dc14","infreq_resp","img/orange_2bandit_b.png","68","68","test","","","","2","",""
"null","159158","pSARL_v2","pSARL_v2ug43hm3j","631a1f357c56acbb68d5dc14","fixation","img/fixation.png","null","","test","","","","","",""
"381.5999999642372","159548","pSARL_v2","pSARL_v2ug43hm3j","631a1f357c56acbb68d5dc14","freq","img/green_2bandit_b2.png","70","70","test","1","37","37","2","",""
"null","159990","pSARL_v2","pSARL_v2ug43hm3j","631a1f357c56acbb68d5dc14","freq_resp","img/green_2bandit_b.png","70","70","test","","","","2","",""
"null","160151","pSARL_v2","pSARL_v2ug43hm3j","631a1f357c56acbb68d5dc14","fixation","img/fixation.png","null","","test","","","","","",""
"345.89999997615814","160506","pSARL_v2","pSARL_v2ug43hm3j","631a1f357c56acbb68d5dc14","freq","img/green_2bandit_b2.png","70","70","test","1","38","38","2","",""
"null","160982","pSARL_v2","pSARL_v2ug43hm3j","631a1f357c56acbb68d5dc14","freq_resp","img/green_2bandit_b.png","70","70","test","","","","2","",""
"null","161150","pSARL_v2","pSARL_v2ug43hm3j","631a1f357c56acbb68d5dc14","fixation","img/fixation.png","null","","test","","","","","",""
"372.39999997615814","161532","pSARL_v2","pSARL_v2ug43hm3j","631a1f357c56acbb68d5dc14","freq","img/green_2bandit_b2.png","70","70","test","1","39","39","2","",""
"null","161981","pSARL_v2","pSARL_v2ug43hm3j","631a1f357c56acbb68d5dc14","freq_resp","img/green_2bandit_b.png","70","70","test","","","","2","",""
"null","162143","pSARL_v2","pSARL_v2ug43hm3j","631a1f357c56acbb68d5dc14","fixation","img/fixation.png","null","","test","","","","","",""
"327.19999998807907","162480","pSARL_v2","pSARL_v2ug43hm3j","631a1f357c56acbb68d5dc14","freq","img/green_2bandit_b2.png","70","70","test","1","40","40","2","",""
"null","162972","pSARL_v2","pSARL_v2ug43hm3j","631a1f357c56acbb68d5dc14","freq_resp","img/green_2bandit_b.png","70","70","test","","","","2","",""
"null","163143","pSARL_v2","pSARL_v2ug43hm3j","631a1f357c56acbb68d5dc14","fixation","img/fixation.png","null","","test","","","","","",""
"354.69999998807907","163507","pSARL_v2","pSARL_v2ug43hm3j","631a1f357c56acbb68d5dc14","freq","img/green_2bandit_b2.png","70","70","test","1","41","41","2","",""
"null","163968","pSARL_v2","pSARL_v2ug43hm3j","631a1f357c56acbb68d5dc14","freq_resp","img/green_2bandit_b.png","70","70","test","","","","2","",""
"null","164132","pSARL_v2","pSARL_v2ug43hm3j","631a1f357c56acbb68d5dc14","fixation","img/fixation.png","null","","test","","","","","",""
"352.10000002384186","164494","pSARL_v2","pSARL_v2ug43hm3j","631a1f357c56acbb68d5dc14","freq","img/green_2bandit_b2.png","70","70","test","1","42","42","2","",""
"null","164954","pSARL_v2","pSARL_v2ug43hm3j","631a1f357c56acbb68d5dc14","freq_resp","img/green_2bandit_b.png","70","70","test","","","","2","",""
"null","165116","pSARL_v2","pSARL_v2ug43hm3j","631a1f357c56acbb68d5dc14","fixation","img/fixation.png","null","","test","","","","","",""
"359.5","165486","pSARL_v2","pSARL_v2ug43hm3j","631a1f357c56acbb68d5dc14","freq","img/green_2bandit_b2.png","70","70","test","1","43","43","2","",""
"null","165944","pSARL_v2","pSARL_v2ug43hm3j","631a1f357c56acbb68d5dc14","freq_resp","img/green_2bandit_b.png","70","70","test","","","","2","",""
"null","166107","pSARL_v2","pSARL_v2ug43hm3j","631a1f357c56acbb68d5dc14","fixation","img/fixation.png","null","","test","","","","","",""
"504.80000001192093","166623","pSARL_v2","pSARL_v2ug43hm3j","631a1f357c56acbb68d5dc14","reward","img/slot.png","74","","test","","","","","",""
"null","167385","pSARL_v2","pSARL_v2ug43hm3j","631a1f357c56acbb68d5dc14","points","<div class=""verylowPoints""> -11 </div>","null","na","test","","","","2","-11","1"
"431.80000001192093","167826","pSARL_v2","pSARL_v2ug43hm3j","631a1f357c56acbb68d5dc14","freq","img/green_2bandit_b2.png","70","70","test","1","44","44","3","",""
"null","168220","pSARL_v2","pSARL_v2ug43hm3j","631a1f357c56acbb68d5dc14","freq_resp","img/green_2bandit_b.png","70","70","test","","","","3","",""
"null","168389","pSARL_v2","pSARL_v2ug43hm3j","631a1f357c56acbb68d5dc14","fixation","img/fixation.png","null","","test","","","","","",""
"362.30000001192093","168761","pSARL_v2","pSARL_v2ug43hm3j","631a1f357c56acbb68d5dc14","freq","img/green_2bandit_b2.png","70","70","test","1","45","45","3","",""
"null","169224","pSARL_v2","pSARL_v2ug43hm3j","631a1f357c56acbb68d5dc14","freq_resp","img/green_2bandit_b.png","70","70","test","","","","3","",""
"null","169391","pSARL_v2","pSARL_v2ug43hm3j","631a1f357c56acbb68d5dc14","fixation","img/fixation.png","null","","test","","","","","",""
"349.9000000357628","169751","pSARL_v2","pSARL_v2ug43hm3j","631a1f357c56acbb68d5dc14","freq","img/green_2bandit_b2.png","70","70","test","1","46","46","3","",""
"null","170225","pSARL_v2","pSARL_v2ug43hm3j","631a1f357c56acbb68d5dc14","freq_resp","img/green_2bandit_b.png","70","70","test","","","","3","",""
"null","170398","pSARL_v2","pSARL_v2ug43hm3j","631a1f357c56acbb68d5dc14","fixation","img/fixation.png","null","","test","","","","","",""
"301.5","170711","pSARL_v2","pSARL_v2ug43hm3j","631a1f357c56acbb68d5dc14","freq","img/green_2bandit_b2.png","70","70","test","1","47","47","3","",""
"null","171223","pSARL_v2","pSARL_v2ug43hm3j","631a1f357c56acbb68d5dc14","freq_resp","img/green_2bandit_b.png","70","70","test","","","","3","",""
"null","171393","pSARL_v2","pSARL_v2ug43hm3j","631a1f357c56acbb68d5dc14","fixation","img/fixation.png","null","","test","","","","","",""
"306.60000002384186","171709","pSARL_v2","pSARL_v2ug43hm3j","631a1f357c56acbb68d5dc14","freq","img/green_2bandit_b2.png","70","70","test","1","48","48","3","",""
"null","172225","pSARL_v2","pSARL_v2ug43hm3j","631a1f357c56acbb68d5dc14","freq_resp","img/green_2bandit_b.png","70","70","test","","","","3","",""
"null","172395","pSARL_v2","pSARL_v2ug43hm3j","631a1f357c56acbb68d5dc14","fixation","img/fixation.png","null","","test","","","","","",""
"380.69999998807907","172785","pSARL_v2","pSARL_v2ug43hm3j","631a1f357c56acbb68d5dc14","freq","img/green_2bandit_b2.png","70","70","test","1","49","49","3","",""
"null","173228","pSARL_v2","pSARL_v2ug43hm3j","631a1f357c56acbb68d5dc14","freq_resp","img/green_2bandit_b.png","70","70","test","","","","3","",""
"null","173397","pSARL_v2","pSARL_v2ug43hm3j","631a1f357c56acbb68d5dc14","fixation","img/fixation.png","null","","test","","","","","",""
"346","173753","pSARL_v2","pSARL_v2ug43hm3j","631a1f357c56acbb68d5dc14","freq","img/green_2bandit_b2.png","70","70","test","1","50","50","3","",""
"null","174231","pSARL_v2","pSARL_v2ug43hm3j","631a1f357c56acbb68d5dc14","freq_resp","img/green_2bandit_b.png","70","70","test","","","","3","",""
"null","174400","pSARL_v2","pSARL_v2ug43hm3j","631a1f357c56acbb68d5dc14","fixation","img/fixation.png","null","","test","","","","","",""
"357.30000001192093","174767","pSARL_v2","pSARL_v2ug43hm3j","631a1f357c56acbb68d5dc14","freq","img/green_2bandit_b2.png","70","70","test","1","51","51","3","",""
"null","175233","pSARL_v2","pSARL_v2ug43hm3j","631a1f357c56acbb68d5dc14","freq_resp","img/green_2bandit_b.png","70","70","test","","","","3","",""
"null","175402","pSARL_v2","pSARL_v2ug43hm3j","631a1f357c56acbb68d5dc14","fixation","img/fixation.png","null","","test","","","","","",""
"340","175752","pSARL_v2","pSARL_v2ug43hm3j","631a1f357c56acbb68d5dc14","freq","img/green_2bandit_b2.png","70","70","test","1","52","52","3","",""
"null","176226","pSARL_v2","pSARL_v2ug43hm3j","631a1f357c56acbb68d5dc14","freq_resp","img/green_2bandit_b.png","70","70","test","","","","3","",""
"null","176408","pSARL_v2","pSARL_v2ug43hm3j","631a1f357c56acbb68d5dc14","fixation","img/fixation.png","null","","test","","","","","",""
"364.7000000476837","176783","pSARL_v2","pSARL_v2ug43hm3j","631a1f357c56acbb68d5dc14","freq","img/green_2bandit_b2.png","70","70","test","1","53","53","3","",""
"null","177244","pSARL_v2","pSARL_v2ug43hm3j","631a1f357c56acbb68d5dc14","freq_resp","img/green_2bandit_b.png","70","70","test","","","","3","",""
"null","177410","pSARL_v2","pSARL_v2ug43hm3j","631a1f357c56acbb68d5dc14","fixation","img/fixation.png","null","","test","","","","","",""
"352","177772","pSARL_v2","pSARL_v2ug43hm3j","631a1f357c56acbb68d5dc14","freq","img/green_2bandit_b2.png","70","70","test","1","54","54","3","",""
"null","178246","pSARL_v2","pSARL_v2ug43hm3j","631a1f357c56acbb68d5dc14","freq_resp","img/green_2bandit_b.png","70","70","test","","","","3","",""
"null","178408","pSARL_v2","pSARL_v2ug43hm3j","631a1f357c56acbb68d5dc14","fixation","img/fixation.png","null","","test","","","","","",""
"371.30000001192093","178789","pSARL_v2","pSARL_v2ug43hm3j","631a1f357c56acbb68d5dc14","freq","img/green_2bandit_b2.png","70","70","test","1","55","55","3","",""
"null","179231","pSARL_v2","pSARL_v2ug43hm3j","631a1f357c56acbb68d5dc14","freq_resp","img/green_2bandit_b.png","70","70","test","","","","3","",""
"null","179403","pSARL_v2","pSARL_v2ug43hm3j","631a1f357c56acbb68d5dc14","fixation","img/fixation.png","null","","test","","","","","",""
"343.69999998807907","179756","pSARL_v2","pSARL_v2ug43hm3j","631a1f357c56acbb68d5dc14","freq","img/green_2bandit_b2.png","70","70","test","1","56","56","3","",""
"null","180227","pSARL_v2","pSARL_v2ug43hm3j","631a1f357c56acbb68d5dc14","freq_resp","img/green_2bandit_b.png","70","70","test","","","","3","",""
"null","180394","pSARL_v2","pSARL_v2ug43hm3j","631a1f357c56acbb68d5dc14","fixation","img/fixation.png","null","","test","","","","","",""
"390.30000001192093","180794","pSARL_v2","pSARL_v2ug43hm3j","631a1f357c56acbb68d5dc14","freq","img/green_2bandit_b2.png","70","70","test","1","57","57","3","",""
"null","181216","pSARL_v2","pSARL_v2ug43hm3j","631a1f357c56acbb68d5dc14","freq_resp","img/green_2bandit_b.png","70","70","test","","","","3","",""
"null","181381","pSARL_v2","pSARL_v2ug43hm3j","631a1f357c56acbb68d5dc14","fixation","img/fixation.png","null","","test","","","","","",""
"454","181846","pSARL_v2","pSARL_v2ug43hm3j","631a1f357c56acbb68d5dc14","infreq","img/orange_2bandit_b2.png","68","68","test","1","58","58","3","",""
"null","182214","pSARL_v2","pSARL_v2ug43hm3j","631a1f357c56acbb68d5dc14","infreq_resp","img/orange_2bandit_b.png","68","68","test","","","","3","",""
"null","182388","pSARL_v2","pSARL_v2ug43hm3j","631a1f357c56acbb68d5dc14","fixation","img/fixation.png","null","","test","","","","","",""
"409.10000002384186","182807","pSARL_v2","pSARL_v2ug43hm3j","631a1f357c56acbb68d5dc14","freq","img/green_2bandit_b2.png","70","70","test","1","59","59","3","",""
"null","183209","pSARL_v2","pSARL_v2ug43hm3j","631a1f357c56acbb68d5dc14","freq_resp","img/green_2bandit_b.png","70","70","test","","","","3","",""
"null","183379","pSARL_v2","pSARL_v2ug43hm3j","631a1f357c56acbb68d5dc14","fixation","img/fixation.png","null","","test","","","","","",""
"349.4000000357628","183738","pSARL_v2","pSARL_v2ug43hm3j","631a1f357c56acbb68d5dc14","freq","img/green_2bandit_b2.png","70","70","test","1","60","60","3","",""
"null","184212","pSARL_v2","pSARL_v2ug43hm3j","631a1f357c56acbb68d5dc14","freq_resp","img/green_2bandit_b.png","70","70","test","","","","3","",""
"null","184381","pSARL_v2","pSARL_v2ug43hm3j","631a1f357c56acbb68d5dc14","fixation","img/fixation.png","null","","test","","","","","",""
"450.19999998807907","184841","pSARL_v2","pSARL_v2ug43hm3j","631a1f357c56acbb68d5dc14","freq","img/green_2bandit_b2.png","70","70","test","1","61","61","3","",""
"null","185214","pSARL_v2","pSARL_v2ug43hm3j","631a1f357c56acbb68d5dc14","freq_resp","img/green_2bandit_b.png","70","70","test","","","","3","",""
"null","185388","pSARL_v2","pSARL_v2ug43hm3j","631a1f357c56acbb68d5dc14","fixation","img/fixation.png","null","","test","","","","","",""
"428.80000001192093","185827","pSARL_v2","pSARL_v2ug43hm3j","631a1f357c56acbb68d5dc14","freq","img/green_2bandit_b2.png","70","70","test","1","62","62","3","",""
"null","186221","pSARL_v2","pSARL_v2ug43hm3j","631a1f357c56acbb68d5dc14","freq_resp","img/green_2bandit_b.png","70","70","test","","","","3","",""
"null","186391","pSARL_v2","pSARL_v2ug43hm3j","631a1f357c56acbb68d5dc14","fixation","img/fixation.png","null","","test","","","","","",""
"333.69999998807907","186734","pSARL_v2","pSARL_v2ug43hm3j","631a1f357c56acbb68d5dc14","freq","img/green_2bandit_b2.png","70","70","test","1","63","63","3","",""
"null","187227","pSARL_v2","pSARL_v2ug43hm3j","631a1f357c56acbb68d5dc14","freq_resp","img/green_2bandit_b.png","70","70","test","","","","3","",""
"null","187394","pSARL_v2","pSARL_v2ug43hm3j","631a1f357c56acbb68d5dc14","fixation","img/fixation.png","null","","test","","","","","",""
"370","187775","pSARL_v2","pSARL_v2ug43hm3j","631a1f357c56acbb68d5dc14","freq","img/green_2bandit_b2.png","70","70","test","1","64","64","3","",""
"null","188215","pSARL_v2","pSARL_v2ug43hm3j","631a1f357c56acbb68d5dc14","freq_resp","img/green_2bandit_b.png","70","70","test","","","","3","",""
"null","188377","pSARL_v2","pSARL_v2ug43hm3j","631a1f357c56acbb68d5dc14","fixation","img/fixation.png","null","","test","","","","","",""
"427.9000000357628","188819","pSARL_v2","pSARL_v2ug43hm3j","631a1f357c56acbb68d5dc14","infreq","img/orange_2bandit_b2.png","68","68","test","1","65","65","3","",""
"null","189216","pSARL_v2","pSARL_v2ug43hm3j","631a1f357c56acbb68d5dc14","infreq_resp","img/orange_2bandit_b.png","68","68","test","","","","3","",""
"null","189380","pSARL_v2","pSARL_v2ug43hm3j","631a1f357c56acbb68d5dc14","fixation","img/fixation.png","null","","test","","","","","",""
"449.0999999642372","189841","pSARL_v2","pSARL_v2ug43hm3j","631a1f357c56acbb68d5dc14","freq","img/green_2bandit_b2.png","70","70","test","1","66","66","3","",""
"null","190214","pSARL_v2","pSARL_v2ug43hm3j","631a1f357c56acbb68d5dc14","freq_resp","img/green_2bandit_b.png","70","70","test","","","","3","",""
"null","190392","pSARL_v2","pSARL_v2ug43hm3j","631a1f357c56acbb68d5dc14","fixation","img/fixation.png","null","","test","","","","","",""
"470.39999997615814","190872","pSARL_v2","pSARL_v2ug43hm3j","631a1f357c56acbb68d5dc14","reward","img/slot.png","74","","test","","","","","",""
"null","191643","pSARL_v2","pSARL_v2ug43hm3j","631a1f357c56acbb68d5dc14","points","<div class=""verylowPoints""> -7 </div>","null","na","test","","","","3","-7","2"
"478.7000000476837","192133","pSARL_v2","pSARL_v2ug43hm3j","631a1f357c56acbb68d5dc14","freq","img/green_2bandit_b2.png","70","70","test","1","67","67","4","",""
"null","192474","pSARL_v2","pSARL_v2ug43hm3j","631a1f357c56acbb68d5dc14","freq_resp","img/green_2bandit_b.png","70","70","test","","","","4","",""
"null","192645","pSARL_v2","pSARL_v2ug43hm3j","631a1f357c56acbb68d5dc14","fixation","img/fixation.png","null","","test","","","","","",""
"366.9000000357628","193022","pSARL_v2","pSARL_v2ug43hm3j","631a1f357c56acbb68d5dc14","freq","img/green_2bandit_b2.png","70","70","test","1","68","68","4","",""
"null","193468","pSARL_v2","pSARL_v2ug43hm3j","631a1f357c56acbb68d5dc14","freq_resp","img/green_2bandit_b.png","70","70","test","","","","4","",""
"null","193640","pSARL_v2","pSARL_v2ug43hm3j","631a1f357c56acbb68d5dc14","fixation","img/fixation.png","null","","test","","","","","",""
"334.69999998807907","193989","pSARL_v2","pSARL_v2ug43hm3j","631a1f357c56acbb68d5dc14","freq","img/green_2bandit_b2.png","70","70","test","1","69","69","4","",""
"null","194476","pSARL_v2","pSARL_v2ug43hm3j","631a1f357c56acbb68d5dc14","freq_resp","img/green_2bandit_b.png","70","70","test","","","","4","",""
"null","194648","pSARL_v2","pSARL_v2ug43hm3j","631a1f357c56acbb68d5dc14","fixation","img/fixation.png","null","","test","","","","","",""
"337.2999999523163","194997","pSARL_v2","pSARL_v2ug43hm3j","631a1f357c56acbb68d5dc14","freq","img/green_2bandit_b2.png","70","70","test","1","70","70","4","",""
"null","195485","pSARL_v2","pSARL_v2ug43hm3j","631a1f357c56acbb68d5dc14","freq_resp","img/green_2bandit_b.png","70","70","test","","","","4","",""
"null","195653","pSARL_v2","pSARL_v2ug43hm3j","631a1f357c56acbb68d5dc14","fixation","img/fixation.png","null","","test","","","","","",""
"341","196005","pSARL_v2","pSARL_v2ug43hm3j","631a1f357c56acbb68d5dc14","freq","img/green_2bandit_b2.png","70","70","test","1","71","71","4","",""
"null","196485","pSARL_v2","pSARL_v2ug43hm3j","631a1f357c56acbb68d5dc14","freq_resp","img/green_2bandit_b.png","70","70","test","","","","4","",""
"null","196655","pSARL_v2","pSARL_v2ug43hm3j","631a1f357c56acbb68d5dc14","fixation","img/fixation.png","null","","test","","","","","",""
"363.7000000476837","197028","pSARL_v2","pSARL_v2ug43hm3j","631a1f357c56acbb68d5dc14","freq","img/green_2bandit_b2.png","70","70","test","1","72","72","4","",""
"null","197476","pSARL_v2","pSARL_v2ug43hm3j","631a1f357c56acbb68d5dc14","freq_resp","img/green_2bandit_b.png","70","70","test","","","","4","",""
"null","197648","pSARL_v2","pSARL_v2ug43hm3j","631a1f357c56acbb68d5dc14","fixation","img/fixation.png","null","","test","","","","","",""
"313.60000002384186","197973","pSARL_v2","pSARL_v2ug43hm3j","631a1f357c56acbb68d5dc14","freq","img/green_2bandit_b2.png","70","70","test","1","73","73","4","",""
"null","198479","pSARL_v2","pSARL_v2ug43hm3j","631a1f357c56acbb68d5dc14","freq_resp","img/green_2bandit_b.png","70","70","test","","","","4","",""
"null","198657","pSARL_v2","pSARL_v2ug43hm3j","631a1f357c56acbb68d5dc14","fixation","img/fixation.png","null","","test","","","","","",""
"443.10000002384186","199110","pSARL_v2","pSARL_v2ug43hm3j","631a1f357c56acbb68d5dc14","infreq","img/orange_2bandit_b2.png","68","68","test","1","74","74","4","",""
"null","199484","pSARL_v2","pSARL_v2ug43hm3j","631a1f357c56acbb68d5dc14","infreq_resp","img/orange_2bandit_b.png","68","68","test","","","","4","",""
"null","199656","pSARL_v2","pSARL_v2ug43hm3j","631a1f357c56acbb68d5dc14","fixation","img/fixation.png","null","","test","","","","","",""
"479.39999997615814","200146","pSARL_v2","pSARL_v2ug43hm3j","631a1f357c56acbb68d5dc14","freq","img/green_2bandit_b2.png","70","70","test","1","75","75","4","",""
"null","200490","pSARL_v2","pSARL_v2ug43hm3j","631a1f357c56acbb68d5dc14","freq_resp","img/green_2bandit_b.png","70","70","test","","","","4","",""
"null","200658","pSARL_v2","pSARL_v2ug43hm3j","631a1f357c56acbb68d5dc14","fixation","img/fixation.png","null","","test","","","","","",""
"370.10000002384186","201043","pSARL_v2","pSARL_v2ug43hm3j","631a1f357c56acbb68d5dc14","freq","img/green_2bandit_b2.png","70","70","test","1","76","76","4","",""
"null","201494","pSARL_v2","pSARL_v2ug43hm3j","631a1f357c56acbb68d5dc14","freq_resp","img/green_2bandit_b.png","70","70","test","","","","4","",""
"null","201663","pSARL_v2","pSARL_v2ug43hm3j","631a1f357c56acbb68d5dc14","fixation","img/fixation.png","null","","test","","","","","",""
"348.7000000476837","202022","pSARL_v2","pSARL_v2ug43hm3j","631a1f357c56acbb68d5dc14","freq","img/green_2bandit_b2.png","70","70","test","1","77","77","4","",""
"null","202496","pSARL_v2","pSARL_v2ug43hm3j","631a1f357c56acbb68d5dc14","freq_resp","img/green_2bandit_b.png","70","70","test","","","","4","",""
"null","202670","pSARL_v2","pSARL_v2ug43hm3j","631a1f357c56acbb68d5dc14","fixation","img/fixation.png","null","","test","","","","","",""
"315.0999999642372","202995","pSARL_v2","pSARL_v2ug43hm3j","631a1f357c56acbb68d5dc14","freq","img/green_2bandit_b2.png","70","70","test","1","78","78","4","",""
"null","203503","pSARL_v2","pSARL_v2ug43hm3j","631a1f357c56acbb68d5dc14","freq_resp","img/green_2bandit_b.png","70","70","test","","","","4","",""
"null","203676","pSARL_v2","pSARL_v2ug43hm3j","631a1f357c56acbb68d5dc14","fixation","img/fixation.png","null","","test","","","","","",""
"325.60000002384186","204012","pSARL_v2","pSARL_v2ug43hm3j","631a1f357c56acbb68d5dc14","freq","img/green_2bandit_b2.png","70","70","test","1","79","79","4","",""
"null","204511","pSARL_v2","pSARL_v2ug43hm3j","631a1f357c56acbb68d5dc14","freq_resp","img/green_2bandit_b.png","70","70","test","","","","4","",""
"null","204681","pSARL_v2","pSARL_v2ug43hm3j","631a1f357c56acbb68d5dc14","fixation","img/fixation.png","null","","test","","","","","",""
"345","205038","pSARL_v2","pSARL_v2ug43hm3j","631a1f357c56acbb68d5dc14","freq","img/green_2bandit_b2.png","70","70","test","1","80","80","4","",""
"null","205513","pSARL_v2","pSARL_v2ug43hm3j","631a1f357c56acbb68d5dc14","freq_resp","img/green_2bandit_b.png","70","70","test","","","","4","",""
"null","205685","pSARL_v2","pSARL_v2ug43hm3j","631a1f357c56acbb68d5dc14","fixation","img/fixation.png","null","","test","","","","","",""
"345.10000002384186","206039","pSARL_v2","pSARL_v2ug43hm3j","631a1f357c56acbb68d5dc14","freq","img/green_2bandit_b2.png","70","70","test","1","81","81","4","",""
"null","206518","pSARL_v2","pSARL_v2ug43hm3j","631a1f357c56acbb68d5dc14","freq_resp","img/green_2bandit_b.png","70","70","test","","","","4","",""
"null","206687","pSARL_v2","pSARL_v2ug43hm3j","631a1f357c56acbb68d5dc14","fixation","img/fixation.png","null","","test","","","","","",""
"328.69999998807907","207026","pSARL_v2","pSARL_v2ug43hm3j","631a1f357c56acbb68d5dc14","freq","img/green_2bandit_b2.png","70","70","test","1","82","82","4","",""
"null","207508","pSARL_v2","pSARL_v2ug43hm3j","631a1f357c56acbb68d5dc14","freq_resp","img/green_2bandit_b.png","70","70","test","","","","4","",""
"null","207678","pSARL_v2","pSARL_v2ug43hm3j","631a1f357c56acbb68d5dc14","fixation","img/fixation.png","null","","test","","","","","",""
"338.7000000476837","208027","pSARL_v2","pSARL_v2ug43hm3j","631a1f357c56acbb68d5dc14","freq","img/green_2bandit_b2.png","70","70","test","1","83","83","4","",""
"null","208512","pSARL_v2","pSARL_v2ug43hm3j","631a1f357c56acbb68d5dc14","freq_resp","img/green_2bandit_b.png","70","70","test","","","","4","",""
"null","208682","pSARL_v2","pSARL_v2ug43hm3j","631a1f357c56acbb68d5dc14","fixation","img/fixation.png","null","","test","","","","","",""
"494.39999997615814","209187","pSARL_v2","pSARL_v2ug43hm3j","631a1f357c56acbb68d5dc14","infreq","img/orange_2bandit_b2.png","68","68","test","1","84","84","4","",""
"null","209516","pSARL_v2","pSARL_v2ug43hm3j","631a1f357c56acbb68d5dc14","infreq_resp","img/orange_2bandit_b.png","68","68","test","","","","4","",""
"null","209686","pSARL_v2","pSARL_v2ug43hm3j","631a1f357c56acbb68d5dc14","fixation","img/fixation.png","null","","test","","","","","",""
"446.19999998807907","210141","pSARL_v2","pSARL_v2ug43hm3j","631a1f357c56acbb68d5dc14","freq","img/green_2bandit_b2.png","70","70","test","1","85","85","4","",""
"null","210520","pSARL_v2","pSARL_v2ug43hm3j","631a1f357c56acbb68d5dc14","freq_resp","img/green_2bandit_b.png","70","70","test","","","","4","",""
"null","210691","pSARL_v2","pSARL_v2ug43hm3j","631a1f357c56acbb68d5dc14","fixation","img/fixation.png","null","","test","","","","","",""
"400.80000001192093","211104","pSARL_v2","pSARL_v2ug43hm3j","631a1f357c56acbb68d5dc14","freq","img/green_2bandit_b2.png","70","70","test","1","86","86","4","",""
"null","211524","pSARL_v2","pSARL_v2ug43hm3j","631a1f357c56acbb68d5dc14","freq_resp","img/green_2bandit_b.png","70","70","test","","","","4","",""
"null","211695","pSARL_v2","pSARL_v2ug43hm3j","631a1f357c56acbb68d5dc14","fixation","img/fixation.png","null","","test","","","","","",""
"382.80000001192093","212089","pSARL_v2","pSARL_v2ug43hm3j","631a1f357c56acbb68d5dc14","freq","img/green_2bandit_b2.png","70","70","test","1","87","87","4","",""
"null","212528","pSARL_v2","pSARL_v2ug43hm3j","631a1f357c56acbb68d5dc14","freq_resp","img/green_2bandit_b.png","70","70","test","","","","4","",""
"null","212698","pSARL_v2","pSARL_v2ug43hm3j","631a1f357c56acbb68d5dc14","fixation","img/fixation.png","null","","test","","","","","",""
"323.69999998807907","213031","pSARL_v2","pSARL_v2ug43hm3j","631a1f357c56acbb68d5dc14","freq","img/green_2bandit_b2.png","70","70","test","1","88","88","4","",""
"null","213522","pSARL_v2","pSARL_v2ug43hm3j","631a1f357c56acbb68d5dc14","freq_resp","img/green_2bandit_b.png","70","70","test","","","","4","",""
"null","213691","pSARL_v2","pSARL_v2ug43hm3j","631a1f357c56acbb68d5dc14","fixation","img/fixation.png","null","","test","","","","","",""
"341.80000001192093","214042","pSARL_v2","pSARL_v2ug43hm3j","631a1f357c56acbb68d5dc14","freq","img/green_2bandit_b2.png","70","70","test","1","89","89","4","",""
"null","214512","pSARL_v2","pSARL_v2ug43hm3j","631a1f357c56acbb68d5dc14","freq_resp","img/green_2bandit_b.png","70","70","test","","","","4","",""
"null","214681","pSARL_v2","pSARL_v2ug43hm3j","631a1f357c56acbb68d5dc14","fixation","img/fixation.png","null","","test","","","","","",""
"307.39999997615814","215001","pSARL_v2","pSARL_v2ug43hm3j","631a1f357c56acbb68d5dc14","freq","img/green_2bandit_b2.png","70","70","test","1","90","90","4","",""
"null","215506","pSARL_v2","pSARL_v2ug43hm3j","631a1f357c56acbb68d5dc14","freq_resp","img/green_2bandit_b.png","70","70","test","","","","4","",""
"null","215675","pSARL_v2","pSARL_v2ug43hm3j","631a1f357c56acbb68d5dc14","fixation","img/fixation.png","null","","test","","","","","",""
"290.60000002384186","215976","pSARL_v2","pSARL_v2ug43hm3j","631a1f357c56acbb68d5dc14","freq","img/green_2bandit_b2.png","70","70","test","1","91","91","4","",""
"null","216502","pSARL_v2","pSARL_v2ug43hm3j","631a1f357c56acbb68d5dc14","freq_resp","img/green_2bandit_b.png","70","70","test","","","","4","",""
"null","216666","pSARL_v2","pSARL_v2ug43hm3j","631a1f357c56acbb68d5dc14","fixation","img/fixation.png","null","","test","","","","","",""
"490.39999997615814","217167","pSARL_v2","pSARL_v2ug43hm3j","631a1f357c56acbb68d5dc14","reward","img/slot.png","74","","test","","","","","",""
"null","217931","pSARL_v2","pSARL_v2ug43hm3j","631a1f357c56acbb68d5dc14","points","<div class=""verylowPoints""> -3 </div>","null","na","test","","","","4","-3","3"
"575.1000000238419","218516","pSARL_v2","pSARL_v2ug43hm3j","631a1f357c56acbb68d5dc14","freq","img/green_2bandit_b2.png","70","70","test","1","92","92","5","",""
"null","218759","pSARL_v2","pSARL_v2ug43hm3j","631a1f357c56acbb68d5dc14","freq_resp","img/green_2bandit_b.png","70","70","test","","","","5","",""
"null","218934","pSARL_v2","pSARL_v2ug43hm3j","631a1f357c56acbb68d5dc14","fixation","img/fixation.png","null","","test","","","","","",""
"350.80000001192093","219295","pSARL_v2","pSARL_v2ug43hm3j","631a1f357c56acbb68d5dc14","freq","img/green_2bandit_b2.png","70","70","test","1","93","93","5","",""
"null","219756","pSARL_v2","pSARL_v2ug43hm3j","631a1f357c56acbb68d5dc14","freq_resp","img/green_2bandit_b.png","70","70","test","","","","5","",""
"null","219927","pSARL_v2","pSARL_v2ug43hm3j","631a1f357c56acbb68d5dc14","fixation","img/fixation.png","null","","test","","","","","",""
"334.19999998807907","220273","pSARL_v2","pSARL_v2ug43hm3j","631a1f357c56acbb68d5dc14","freq","img/green_2bandit_b2.png","70","70","test","1","94","94","5","",""
"null","220757","pSARL_v2","pSARL_v2ug43hm3j","631a1f357c56acbb68d5dc14","freq_resp","img/green_2bandit_b.png","70","70","test","","","","5","",""
"null","220930","pSARL_v2","pSARL_v2ug43hm3j","631a1f357c56acbb68d5dc14","fixation","img/fixation.png","null","","test","","","","","",""
"448.5999999642372","221391","pSARL_v2","pSARL_v2ug43hm3j","631a1f357c56acbb68d5dc14","infreq","img/orange_2bandit_b2.png","68","68","test","1","95","95","5","",""
"null","221756","pSARL_v2","pSARL_v2ug43hm3j","631a1f357c56acbb68d5dc14","infreq_resp","img/orange_2bandit_b.png","68","68","test","","","","5","",""
"null","221918","pSARL_v2","pSARL_v2ug43hm3j","631a1f357c56acbb68d5dc14","fixation","img/fixation.png","null","","test","","","","","",""
"418.39999997615814","222347","pSARL_v2","pSARL_v2ug43hm3j","631a1f357c56acbb68d5dc14","freq","img/green_2bandit_b2.png","70","70","test","1","96","96","5","",""
"null","222741","pSARL_v2","pSARL_v2ug43hm3j","631a1f357c56acbb68d5dc14","freq_resp","img/green_2bandit_b.png","70","70","test","","","","5","",""
"null","222904","pSARL_v2","pSARL_v2ug43hm3j","631a1f357c56acbb68d5dc14","fixation","img/fixation.png","null","","test","","","","","",""
"325.89999997615814","223241","pSARL_v2","pSARL_v2ug43hm3j","631a1f357c56acbb68d5dc14","infreq","img/orange_2bandit_b2.png","70","68","test","0","97","97","5","",""
"null","223734","pSARL_v2","pSARL_v2ug43hm3j","631a1f357c56acbb68d5dc14","infreq_resp","img/orange_2bandit_b.png","70","68","test","","","","5","",""
"null","223901","pSARL_v2","pSARL_v2ug43hm3j","631a1f357c56acbb68d5dc14","fixation","img/fixation.png","null","","test","","","","","",""
"494.30000001192093","224405","pSARL_v2","pSARL_v2ug43hm3j","631a1f357c56acbb68d5dc14","freq","img/green_2bandit_b2.png","70","70","test","1","98","98","5","",""
"null","224726","pSARL_v2","pSARL_v2ug43hm3j","631a1f357c56acbb68d5dc14","freq_resp","img/green_2bandit_b.png","70","70","test","","","","5","",""
"null","224894","pSARL_v2","pSARL_v2ug43hm3j","631a1f357c56acbb68d5dc14","fixation","img/fixation.png","null","","test","","","","","",""
"414.60000002384186","225320","pSARL_v2","pSARL_v2ug43hm3j","631a1f357c56acbb68d5dc14","freq","img/green_2bandit_b2.png","70","70","test","1","99","99","5","",""
"null","225724","pSARL_v2","pSARL_v2ug43hm3j","631a1f357c56acbb68d5dc14","freq_resp","img/green_2bandit_b.png","70","70","test","","","","5","",""
"null","225890","pSARL_v2","pSARL_v2ug43hm3j","631a1f357c56acbb68d5dc14","fixation","img/fixation.png","null","","test","","","","","",""
"369.60000002384186","226270","pSARL_v2","pSARL_v2ug43hm3j","631a1f357c56acbb68d5dc14","freq","img/green_2bandit_b2.png","70","70","test","1","100","100","5","",""
"null","226715","pSARL_v2","pSARL_v2ug43hm3j","631a1f357c56acbb68d5dc14","freq_resp","img/green_2bandit_b.png","70","70","test","","","","5","",""
"null","226886","pSARL_v2","pSARL_v2ug43hm3j","631a1f357c56acbb68d5dc14","fixation","img/fixation.png","null","","test","","","","","",""
"338","227238","pSARL_v2","pSARL_v2ug43hm3j","631a1f357c56acbb68d5dc14","freq","img/green_2bandit_b2.png","70","70","test","1","101","101","5","",""
"null","227719","pSARL_v2","pSARL_v2ug43hm3j","631a1f357c56acbb68d5dc14","freq_resp","img/green_2bandit_b.png","70","70","test","","","","5","",""
"null","227893","pSARL_v2","pSARL_v2ug43hm3j","631a1f357c56acbb68d5dc14","fixation","img/fixation.png","null","","test","","","","","",""
"334.5","228237","pSARL_v2","pSARL_v2ug43hm3j","631a1f357c56acbb68d5dc14","freq","img/green_2bandit_b2.png","70","70","test","1","102","102","5","",""
"null","228717","pSARL_v2","pSARL_v2ug43hm3j","631a1f357c56acbb68d5dc14","freq_resp","img/green_2bandit_b.png","70","70","test","","","","5","",""
"null","228891","pSARL_v2","pSARL_v2ug43hm3j","631a1f357c56acbb68d5dc14","fixation","img/fixation.png","null","","test","","","","","",""
"339.9000000357628","229241","pSARL_v2","pSARL_v2ug43hm3j","631a1f357c56acbb68d5dc14","freq","img/green_2bandit_b2.png","70","70","test","1","103","103","5","",""
"null","229722","pSARL_v2","pSARL_v2ug43hm3j","631a1f357c56acbb68d5dc14","freq_resp","img/green_2bandit_b.png","70","70","test","","","","5","",""
"null","229910","pSARL_v2","pSARL_v2ug43hm3j","631a1f357c56acbb68d5dc14","fixation","img/fixation.png","null","","test","","","","","",""
"351.69999998807907","230271","pSARL_v2","pSARL_v2ug43hm3j","631a1f357c56acbb68d5dc14","freq","img/green_2bandit_b2.png","70","70","test","1","104","104","5","",""
"null","230736","pSARL_v2","pSARL_v2ug43hm3j","631a1f357c56acbb68d5dc14","freq_resp","img/green_2bandit_b.png","70","70","test","","","","5","",""
"null","230897","pSARL_v2","pSARL_v2ug43hm3j","631a1f357c56acbb68d5dc14","fixation","img/fixation.png","null","","test","","","","","",""
"328.10000002384186","231236","pSARL_v2","pSARL_v2ug43hm3j","631a1f357c56acbb68d5dc14","freq","img/green_2bandit_b2.png","70","70","test","1","105","105","5","",""
"null","231736","pSARL_v2","pSARL_v2ug43hm3j","631a1f357c56acbb68d5dc14","freq_resp","img/green_2bandit_b.png","70","70","test","","","","5","",""
"null","231911","pSARL_v2","pSARL_v2ug43hm3j","631a1f357c56acbb68d5dc14","fixation","img/fixation.png","null","","test","","","","","",""
"347.5","232269","pSARL_v2","pSARL_v2ug43hm3j","631a1f357c56acbb68d5dc14","freq","img/green_2bandit_b2.png","70","70","test","1","106","106","5","",""
"null","232737","pSARL_v2","pSARL_v2ug43hm3j","631a1f357c56acbb68d5dc14","freq_resp","img/green_2bandit_b.png","70","70","test","","","","5","",""
"null","232897","pSARL_v2","pSARL_v2ug43hm3j","631a1f357c56acbb68d5dc14","fixation","img/fixation.png","null","","test","","","","","",""
"353.39999997615814","233260","pSARL_v2","pSARL_v2ug43hm3j","631a1f357c56acbb68d5dc14","freq","img/green_2bandit_b2.png","70","70","test","1","107","107","5","",""
"null","233722","pSARL_v2","pSARL_v2ug43hm3j","631a1f357c56acbb68d5dc14","freq_resp","img/green_2bandit_b.png","70","70","test","","","","5","",""
"null","233891","pSARL_v2","pSARL_v2ug43hm3j","631a1f357c56acbb68d5dc14","fixation","img/fixation.png","null","","test","","","","","",""
"366.39999997615814","234267","pSARL_v2","pSARL_v2ug43hm3j","631a1f357c56acbb68d5dc14","freq","img/green_2bandit_b2.png","70","70","test","1","108","108","5","",""
"null","234710","pSARL_v2","pSARL_v2ug43hm3j","631a1f357c56acbb68d5dc14","freq_resp","img/green_2bandit_b.png","70","70","test","","","","5","",""
"null","234881","pSARL_v2","pSARL_v2ug43hm3j","631a1f357c56acbb68d5dc14","fixation","img/fixation.png","null","","test","","","","","",""
"358.2000000476837","235250","pSARL_v2","pSARL_v2ug43hm3j","631a1f357c56acbb68d5dc14","freq","img/green_2bandit_b2.png","70","70","test","1","109","109","5","",""
"null","235715","pSARL_v2","pSARL_v2ug43hm3j","631a1f357c56acbb68d5dc14","freq_resp","img/green_2bandit_b.png","70","70","test","","","","5","",""
"null","235886","pSARL_v2","pSARL_v2ug43hm3j","631a1f357c56acbb68d5dc14","fixation","img/fixation.png","null","","test","","","","","",""
"366.30000001192093","236262","pSARL_v2","pSARL_v2ug43hm3j","631a1f357c56acbb68d5dc14","freq","img/green_2bandit_b2.png","70","70","test","1","110","110","5","",""
"null","236716","pSARL_v2","pSARL_v2ug43hm3j","631a1f357c56acbb68d5dc14","freq_resp","img/green_2bandit_b.png","70","70","test","","","","5","",""
"null","236886","pSARL_v2","pSARL_v2ug43hm3j","631a1f357c56acbb68d5dc14","fixation","img/fixation.png","null","","test","","","","","",""
"350.30000001192093","237247","pSARL_v2","pSARL_v2ug43hm3j","631a1f357c56acbb68d5dc14","freq","img/green_2bandit_b2.png","70","70","test","1","111","111","5","",""
"null","237706","pSARL_v2","pSARL_v2ug43hm3j","631a1f357c56acbb68d5dc14","freq_resp","img/green_2bandit_b.png","70","70","test","","","","5","",""
"null","237878","pSARL_v2","pSARL_v2ug43hm3j","631a1f357c56acbb68d5dc14","fixation","img/fixation.png","null","","test","","","","","",""
"523.3999999761581","238413","pSARL_v2","pSARL_v2ug43hm3j","631a1f357c56acbb68d5dc14","infreq","img/orange_2bandit_b2.png","68","68","test","1","112","112","5","",""
"null","238700","pSARL_v2","pSARL_v2ug43hm3j","631a1f357c56acbb68d5dc14","infreq_resp","img/orange_2bandit_b.png","68","68","test","","","","5","",""
"null","238870","pSARL_v2","pSARL_v2ug43hm3j","631a1f357c56acbb68d5dc14","fixation","img/fixation.png","null","","test","","","","","",""
"471.10000002384186","239351","pSARL_v2","pSARL_v2ug43hm3j","631a1f357c56acbb68d5dc14","freq","img/green_2bandit_b2.png","70","70","test","1","113","113","5","",""
"null","239701","pSARL_v2","pSARL_v2ug43hm3j","631a1f357c56acbb68d5dc14","freq_resp","img/green_2bandit_b.png","70","70","test","","","","5","",""
"null","239874","pSARL_v2","pSARL_v2ug43hm3j","631a1f357c56acbb68d5dc14","fixation","img/fixation.png","null","","test","","","","","",""
"360.60000002384186","240244","pSARL_v2","pSARL_v2ug43hm3j","631a1f357c56acbb68d5dc14","freq","img/green_2bandit_b2.png","70","70","test","1","114","114","5","",""
"null","240705","pSARL_v2","pSARL_v2ug43hm3j","631a1f357c56acbb68d5dc14","freq_resp","img/green_2bandit_b.png","70","70","test","","","","5","",""
"null","240882","pSARL_v2","pSARL_v2ug43hm3j","631a1f357c56acbb68d5dc14","fixation","img/fixation.png","null","","test","","","","","",""
"474.4000000357628","241365","pSARL_v2","pSARL_v2ug43hm3j","631a1f357c56acbb68d5dc14","reward","img/slot.png","74","","test","","","","","",""
"null","242128","pSARL_v2","pSARL_v2ug43hm3j","631a1f357c56acbb68d5dc14","points","<div class=""veryhighPoints""> +1 </div>","null","na","test","","","","5","1","4"
"594.5","242733","pSARL_v2","pSARL_v2ug43hm3j","631a1f357c56acbb68d5dc14","freq","img/green_2bandit_b2.png","70","70","test","1","115","115","6","",""
"null","242949","pSARL_v2","pSARL_v2ug43hm3j","631a1f357c56acbb68d5dc14","freq_resp","img/green_2bandit_b.png","70","70","test","","","","6","",""
"null","243119","pSARL_v2","pSARL_v2ug43hm3j","631a1f357c56acbb68d5dc14","fixation","img/fixation.png","null","","test","","","","","",""
"407.89999997615814","243537","pSARL_v2","pSARL_v2ug43hm3j","631a1f357c56acbb68d5dc14","freq","img/green_2bandit_b2.png","70","70","test","1","116","116","6","",""
"null","243955","pSARL_v2","pSARL_v2ug43hm3j","631a1f357c56acbb68d5dc14","freq_resp","img/green_2bandit_b.png","70","70","test","","","","6","",""
"null","244126","pSARL_v2","pSARL_v2ug43hm3j","631a1f357c56acbb68d5dc14","fixation","img/fixation.png","null","","test","","","","","",""
"366","244503","pSARL_v2","pSARL_v2ug43hm3j","631a1f357c56acbb68d5dc14","freq","img/green_2bandit_b2.png","70","70","test","1","117","117","6","",""
"null","244960","pSARL_v2","pSARL_v2ug43hm3j","631a1f357c56acbb68d5dc14","freq_resp","img/green_2bandit_b.png","70","70","test","","","","6","",""
"null","245134","pSARL_v2","pSARL_v2ug43hm3j","631a1f357c56acbb68d5dc14","fixation","img/fixation.png","null","","test","","","","","",""
"401.30000001192093","245545","pSARL_v2","pSARL_v2ug43hm3j","631a1f357c56acbb68d5dc14","freq","img/green_2bandit_b2.png","70","70","test","1","118","118","6","",""
"null","245964","pSARL_v2","pSARL_v2ug43hm3j","631a1f357c56acbb68d5dc14","freq_resp","img/green_2bandit_b.png","70","70","test","","","","6","",""
"null","246135","pSARL_v2","pSARL_v2ug43hm3j","631a1f357c56acbb68d5dc14","fixation","img/fixation.png","null","","test","","","","","",""
"null","246952","pSARL_v2","pSARL_v2ug43hm3j","631a1f357c56acbb68d5dc14","infreq","img/orange_2bandit_b2.png","null","68","test","0","119","119","6","",""
"null","247122","pSARL_v2","pSARL_v2ug43hm3j","631a1f357c56acbb68d5dc14","fixation","img/fixation.png","null","","test","","","","","",""
"597.6999999880791","247730","pSARL_v2","pSARL_v2ug43hm3j","631a1f357c56acbb68d5dc14","freq","img/green_2bandit_b2.png","70","70","test","1","120","120","6","",""
"null","247951","pSARL_v2","pSARL_v2ug43hm3j","631a1f357c56acbb68d5dc14","freq_resp","img/green_2bandit_b.png","70","70","test","","","","6","",""
"null","248120","pSARL_v2","pSARL_v2ug43hm3j","631a1f357c56acbb68d5dc14","fixation","img/fixation.png","null","","test","","","","","",""
"486.2999999523163","248618","pSARL_v2","pSARL_v2ug43hm3j","631a1f357c56acbb68d5dc14","freq","img/green_2bandit_b2.png","70","70","test","1","121","121","6","",""
"null","248950","pSARL_v2","pSARL_v2ug43hm3j","631a1f357c56acbb68d5dc14","freq_resp","img/green_2bandit_b.png","70","70","test","","","","6","",""
"null","249121","pSARL_v2","pSARL_v2ug43hm3j","631a1f357c56acbb68d5dc14","fixation","img/fixation.png","null","","test","","","","","",""
"444.4000000357628","249575","pSARL_v2","pSARL_v2ug43hm3j","631a1f357c56acbb68d5dc14","freq","img/green_2bandit_b2.png","70","70","test","1","122","122","6","",""
"null","249952","pSARL_v2","pSARL_v2ug43hm3j","631a1f357c56acbb68d5dc14","freq_resp","img/green_2bandit_b.png","70","70","test","","","","6","",""
"null","250123","pSARL_v2","pSARL_v2ug43hm3j","631a1f357c56acbb68d5dc14","fixation","img/fixation.png","null","","test","","","","","",""
"400.80000001192093","250533","pSARL_v2","pSARL_v2ug43hm3j","631a1f357c56acbb68d5dc14","freq","img/green_2bandit_b2.png","70","70","test","1","123","123","6","",""
"null","250952","pSARL_v2","pSARL_v2ug43hm3j","631a1f357c56acbb68d5dc14","freq_resp","img/green_2bandit_b.png","70","70","test","","","","6","",""
"null","251128","pSARL_v2","pSARL_v2ug43hm3j","631a1f357c56acbb68d5dc14","fixation","img/fixation.png","null","","test","","","","","",""
"446","251587","pSARL_v2","pSARL_v2ug43hm3j","631a1f357c56acbb68d5dc14","freq","img/green_2bandit_b2.png","70","70","test","1","124","124","6","",""
"null","251959","pSARL_v2","pSARL_v2ug43hm3j","631a1f357c56acbb68d5dc14","freq_resp","img/green_2bandit_b.png","70","70","test","","","","6","",""
"null","252135","pSARL_v2","pSARL_v2ug43hm3j","631a1f357c56acbb68d5dc14","fixation","img/fixation.png","null","","test","","","","","",""
"396.69999998807907","252541","pSARL_v2","pSARL_v2ug43hm3j","631a1f357c56acbb68d5dc14","freq","img/green_2bandit_b2.png","70","70","test","1","125","125","6","",""
"null","252964","pSARL_v2","pSARL_v2ug43hm3j","631a1f357c56acbb68d5dc14","freq_resp","img/green_2bandit_b.png","70","70","test","","","","6","",""
"null","253138","pSARL_v2","pSARL_v2ug43hm3j","631a1f357c56acbb68d5dc14","fixation","img/fixation.png","null","","test","","","","","",""
"415.80000001192093","253564","pSARL_v2","pSARL_v2ug43hm3j","631a1f357c56acbb68d5dc14","freq","img/green_2bandit_b2.png","70","70","test","1","126","126","6","",""
"null","253969","pSARL_v2","pSARL_v2ug43hm3j","631a1f357c56acbb68d5dc14","freq_resp","img/green_2bandit_b.png","70","70","test","","","","6","",""
"null","254145","pSARL_v2","pSARL_v2ug43hm3j","631a1f357c56acbb68d5dc14","fixation","img/fixation.png","null","","test","","","","","",""
"382.5","254538","pSARL_v2","pSARL_v2ug43hm3j","631a1f357c56acbb68d5dc14","freq","img/green_2bandit_b2.png","70","70","test","1","127","127","6","",""
"null","254975","pSARL_v2","pSARL_v2ug43hm3j","631a1f357c56acbb68d5dc14","freq_resp","img/green_2bandit_b.png","70","70","test","","","","6","",""
"null","255149","pSARL_v2","pSARL_v2ug43hm3j","631a1f357c56acbb68d5dc14","fixation","img/fixation.png","null","","test","","","","","",""
"365.80000001192093","255525","pSARL_v2","pSARL_v2ug43hm3j","631a1f357c56acbb68d5dc14","freq","img/green_2bandit_b2.png","70","70","test","1","128","128","6","",""
"null","255979","pSARL_v2","pSARL_v2ug43hm3j","631a1f357c56acbb68d5dc14","freq_resp","img/green_2bandit_b.png","70","70","test","","","","6","",""
"null","256152","pSARL_v2","pSARL_v2ug43hm3j","631a1f357c56acbb68d5dc14","fixation","img/fixation.png","null","","test","","","","","",""
"366.80000001192093","256529","pSARL_v2","pSARL_v2ug43hm3j","631a1f357c56acbb68d5dc14","freq","img/green_2bandit_b2.png","70","70","test","1","129","129","6","",""
"null","256982","pSARL_v2","pSARL_v2ug43hm3j","631a1f357c56acbb68d5dc14","freq_resp","img/green_2bandit_b.png","70","70","test","","","","6","",""
"null","257158","pSARL_v2","pSARL_v2ug43hm3j","631a1f357c56acbb68d5dc14","fixation","img/fixation.png","null","","test","","","","","",""
"353.30000001192093","257521","pSARL_v2","pSARL_v2ug43hm3j","631a1f357c56acbb68d5dc14","freq","img/green_2bandit_b2.png","70","70","test","1","130","130","6","",""
"null","257988","pSARL_v2","pSARL_v2ug43hm3j","631a1f357c56acbb68d5dc14","freq_resp","img/green_2bandit_b.png","70","70","test","","","","6","",""
"null","258166","pSARL_v2","pSARL_v2ug43hm3j","631a1f357c56acbb68d5dc14","fixation","img/fixation.png","null","","test","","","","","",""
"424.9000000357628","258600","pSARL_v2","pSARL_v2ug43hm3j","631a1f357c56acbb68d5dc14","infreq","img/orange_2bandit_b2.png","68","68","test","1","131","131","6","",""
"null","258991","pSARL_v2","pSARL_v2ug43hm3j","631a1f357c56acbb68d5dc14","infreq_resp","img/orange_2bandit_b.png","68","68","test","","","","6","",""
"null","259153","pSARL_v2","pSARL_v2ug43hm3j","631a1f357c56acbb68d5dc14","fixation","img/fixation.png","null","","test","","","","","",""
"490.80000001192093","259654","pSARL_v2","pSARL_v2ug43hm3j","631a1f357c56acbb68d5dc14","freq","img/green_2bandit_b2.png","70","70","test","1","132","132","6","",""
"null","259977","pSARL_v2","pSARL_v2ug43hm3j","631a1f357c56acbb68d5dc14","freq_resp","img/green_2bandit_b.png","70","70","test","","","","6","",""
"null","260140","pSARL_v2","pSARL_v2ug43hm3j","631a1f357c56acbb68d5dc14","fixation","img/fixation.png","null","","test","","","","","",""
"371.19999998807907","260521","pSARL_v2","pSARL_v2ug43hm3j","631a1f357c56acbb68d5dc14","freq","img/green_2bandit_b2.png","70","70","test","1","133","133","6","",""
"null","260980","pSARL_v2","pSARL_v2ug43hm3j","631a1f357c56acbb68d5dc14","freq_resp","img/green_2bandit_b.png","70","70","test","","","","6","",""
"null","261136","pSARL_v2","pSARL_v2ug43hm3j","631a1f357c56acbb68d5dc14","fixation","img/fixation.png","null","","test","","","","","",""
"393.4000000357628","261539","pSARL_v2","pSARL_v2ug43hm3j","631a1f357c56acbb68d5dc14","freq","img/green_2bandit_b2.png","70","70","test","1","134","134","6","",""
"null","261977","pSARL_v2","pSARL_v2ug43hm3j","631a1f357c56acbb68d5dc14","freq_resp","img/green_2bandit_b.png","70","70","test","","","","6","",""
"null","262140","pSARL_v2","pSARL_v2ug43hm3j","631a1f357c56acbb68d5dc14","fixation","img/fixation.png","null","","test","","","","","",""
"368.89999997615814","262518","pSARL_v2","pSARL_v2ug43hm3j","631a1f357c56acbb68d5dc14","freq","img/green_2bandit_b2.png","70","70","test","1","135","135","6","",""
"null","262979","pSARL_v2","pSARL_v2ug43hm3j","631a1f357c56acbb68d5dc14","freq_resp","img/green_2bandit_b.png","70","70","test","","","","6","",""
"null","263142","pSARL_v2","pSARL_v2ug43hm3j","631a1f357c56acbb68d5dc14","fixation","img/fixation.png","null","","test","","","","","",""
"433.4000000357628","263584","pSARL_v2","pSARL_v2ug43hm3j","631a1f357c56acbb68d5dc14","freq","img/green_2bandit_b2.png","70","70","test","1","136","136","6","",""
"null","263981","pSARL_v2","pSARL_v2ug43hm3j","631a1f357c56acbb68d5dc14","freq_resp","img/green_2bandit_b.png","70","70","test","","","","6","",""
"null","264146","pSARL_v2","pSARL_v2ug43hm3j","631a1f357c56acbb68d5dc14","fixation","img/fixation.png","null","","test","","","","","",""
"461.9000000357628","264619","pSARL_v2","pSARL_v2ug43hm3j","631a1f357c56acbb68d5dc14","reward","img/slot.png","74","","test","","","","","",""
"null","265388","pSARL_v2","pSARL_v2ug43hm3j","631a1f357c56acbb68d5dc14","points","<div class=""verylowPoints""> -7 </div>","null","na","test","","","","6","-7","5"
"442.60000002384186","265840","pSARL_v2","pSARL_v2ug43hm3j","631a1f357c56acbb68d5dc14","freq","img/green_2bandit_b2.png","70","70","test","1","137","137","7","",""
"null","266211","pSARL_v2","pSARL_v2ug43hm3j","631a1f357c56acbb68d5dc14","freq_resp","img/green_2bandit_b.png","70","70","test","","","","7","",""
"null","266382","pSARL_v2","pSARL_v2ug43hm3j","631a1f357c56acbb68d5dc14","fixation","img/fixation.png","null","","test","","","","","",""
"422.19999998807907","266815","pSARL_v2","pSARL_v2ug43hm3j","631a1f357c56acbb68d5dc14","freq","img/green_2bandit_b2.png","70","70","test","1","138","138","7","",""
"null","267213","pSARL_v2","pSARL_v2ug43hm3j","631a1f357c56acbb68d5dc14","freq_resp","img/green_2bandit_b.png","70","70","test","","","","7","",""
"null","267383","pSARL_v2","pSARL_v2ug43hm3j","631a1f357c56acbb68d5dc14","fixation","img/fixation.png","null","","test","","","","","",""
"453.69999998807907","267846","pSARL_v2","pSARL_v2ug43hm3j","631a1f357c56acbb68d5dc14","freq","img/green_2bandit_b2.png","70","70","test","1","139","139","7","",""
"null","268218","pSARL_v2","pSARL_v2ug43hm3j","631a1f357c56acbb68d5dc14","freq_resp","img/green_2bandit_b.png","70","70","test","","","","7","",""
"null","268384","pSARL_v2","pSARL_v2ug43hm3j","631a1f357c56acbb68d5dc14","fixation","img/fixation.png","null","","test","","","","","",""
"412.4000000357628","268808","pSARL_v2","pSARL_v2ug43hm3j","631a1f357c56acbb68d5dc14","freq","img/green_2bandit_b2.png","70","70","test","1","140","140","7","",""
"null","269219","pSARL_v2","pSARL_v2ug43hm3j","631a1f357c56acbb68d5dc14","freq_resp","img/green_2bandit_b.png","70","70","test","","","","7","",""
"null","269387","pSARL_v2","pSARL_v2ug43hm3j","631a1f357c56acbb68d5dc14","fixation","img/fixation.png","null","","test","","","","","",""
"469.60000002384186","269867","pSARL_v2","pSARL_v2ug43hm3j","631a1f357c56acbb68d5dc14","freq","img/green_2bandit_b2.png","70","70","test","1","141","141","7","",""
"null","270220","pSARL_v2","pSARL_v2ug43hm3j","631a1f357c56acbb68d5dc14","freq_resp","img/green_2bandit_b.png","70","70","test","","","","7","",""
"null","270396","pSARL_v2","pSARL_v2ug43hm3j","631a1f357c56acbb68d5dc14","fixation","img/fixation.png","null","","test","","","","","",""
"413.0999999642372","270819","pSARL_v2","pSARL_v2ug43hm3j","631a1f357c56acbb68d5dc14","freq","img/green_2bandit_b2.png","70","70","test","1","142","142","7","",""
"null","271228","pSARL_v2","pSARL_v2ug43hm3j","631a1f357c56acbb68d5dc14","freq_resp","img/green_2bandit_b.png","70","70","test","","","","7","",""
"null","271396","pSARL_v2","pSARL_v2ug43hm3j","631a1f357c56acbb68d5dc14","fixation","img/fixation.png","null","","test","","","","","",""
"464.80000001192093","271871","pSARL_v2","pSARL_v2ug43hm3j","631a1f357c56acbb68d5dc14","freq","img/green_2bandit_b2.png","70","70","test","1","143","143","7","",""
"null","272229","pSARL_v2","pSARL_v2ug43hm3j","631a1f357c56acbb68d5dc14","freq_resp","img/green_2bandit_b.png","70","70","test","","","","7","",""
"null","272402","pSARL_v2","pSARL_v2ug43hm3j","631a1f357c56acbb68d5dc14","fixation","img/fixation.png","null","","test","","","","","",""
"458.89999997615814","272871","pSARL_v2","pSARL_v2ug43hm3j","631a1f357c56acbb68d5dc14","infreq","img/orange_2bandit_b2.png","68","68","test","1","144","144","7","",""
"null","273235","pSARL_v2","pSARL_v2ug43hm3j","631a1f357c56acbb68d5dc14","infreq_resp","img/orange_2bandit_b.png","68","68","test","","","","7","",""
"null","273407","pSARL_v2","pSARL_v2ug43hm3j","631a1f357c56acbb68d5dc14","fixation","img/fixation.png","null","","test","","","","","",""
"449.2000000476837","273867","pSARL_v2","pSARL_v2ug43hm3j","631a1f357c56acbb68d5dc14","infreq","img/orange_2bandit_b2.png","68","68","test","1","145","145","7","",""
"null","274240","pSARL_v2","pSARL_v2ug43hm3j","631a1f357c56acbb68d5dc14","infreq_resp","img/orange_2bandit_b.png","68","68","test","","","","7","",""
"null","274414","pSARL_v2","pSARL_v2ug43hm3j","631a1f357c56acbb68d5dc14","fixation","img/fixation.png","null","","test","","","","","",""
"427.7999999523163","274852","pSARL_v2","pSARL_v2ug43hm3j","631a1f357c56acbb68d5dc14","freq","img/green_2bandit_b2.png","70","70","test","1","146","146","7","",""
"null","275249","pSARL_v2","pSARL_v2ug43hm3j","631a1f357c56acbb68d5dc14","freq_resp","img/green_2bandit_b.png","70","70","test","","","","7","",""
"null","275421","pSARL_v2","pSARL_v2ug43hm3j","631a1f357c56acbb68d5dc14","fixation","img/fixation.png","null","","test","","","","","",""
"381.69999998807907","275815","pSARL_v2","pSARL_v2ug43hm3j","631a1f357c56acbb68d5dc14","freq","img/green_2bandit_b2.png","70","70","test","1","147","147","7","",""
"null","276257","pSARL_v2","pSARL_v2ug43hm3j","631a1f357c56acbb68d5dc14","freq_resp","img/green_2bandit_b.png","70","70","test","","","","7","",""
"null","276432","pSARL_v2","pSARL_v2ug43hm3j","631a1f357c56acbb68d5dc14","fixation","img/fixation.png","null","","test","","","","","",""
"401.9000000357628","276846","pSARL_v2","pSARL_v2ug43hm3j","631a1f357c56acbb68d5dc14","freq","img/green_2bandit_b2.png","70","70","test","1","148","148","7","",""
"null","277268","pSARL_v2","pSARL_v2ug43hm3j","631a1f357c56acbb68d5dc14","freq_resp","img/green_2bandit_b.png","70","70","test","","","","7","",""
"null","277439","pSARL_v2","pSARL_v2ug43hm3j","631a1f357c56acbb68d5dc14","fixation","img/fixation.png","null","","test","","","","","",""
"384","277833","pSARL_v2","pSARL_v2ug43hm3j","631a1f357c56acbb68d5dc14","freq","img/green_2bandit_b2.png","70","70","test","1","149","149","7","",""
"null","278262","pSARL_v2","pSARL_v2ug43hm3j","631a1f357c56acbb68d5dc14","freq_resp","img/green_2bandit_b.png","70","70","test","","","","7","",""
"null","278423","pSARL_v2","pSARL_v2ug43hm3j","631a1f357c56acbb68d5dc14","fixation","img/fixation.png","null","","test","","","","","",""
"369.30000001192093","278802","pSARL_v2","pSARL_v2ug43hm3j","631a1f357c56acbb68d5dc14","freq","img/green_2bandit_b2.png","70","70","test","1","150","150","7","",""
"null","279255","pSARL_v2","pSARL_v2ug43hm3j","631a1f357c56acbb68d5dc14","freq_resp","img/green_2bandit_b.png","70","70","test","","","","7","",""
"null","279414","pSARL_v2","pSARL_v2ug43hm3j","631a1f357c56acbb68d5dc14","fixation","img/fixation.png","null","","test","","","","","",""
"408.80000001192093","279834","pSARL_v2","pSARL_v2ug43hm3j","631a1f357c56acbb68d5dc14","freq","img/green_2bandit_b2.png","70","70","test","1","151","151","7","",""
"null","280247","pSARL_v2","pSARL_v2ug43hm3j","631a1f357c56acbb68d5dc14","freq_resp","img/green_2bandit_b.png","70","70","test","","","","7","",""
"null","280415","pSARL_v2","pSARL_v2ug43hm3j","631a1f357c56acbb68d5dc14","fixation","img/fixation.png","null","","test","","","","","",""
"339","280765","pSARL_v2","pSARL_v2ug43hm3j","631a1f357c56acbb68d5dc14","freq","img/green_2bandit_b2.png","70","70","test","1","152","152","7","",""
"null","281249","pSARL_v2","pSARL_v2ug43hm3j","631a1f357c56acbb68d5dc14","freq_resp","img/green_2bandit_b.png","70","70","test","","","","7","",""
"null","281421","pSARL_v2","pSARL_v2ug43hm3j","631a1f357c56acbb68d5dc14","fixation","img/fixation.png","null","","test","","","","","",""
"365.5","281796","pSARL_v2","pSARL_v2ug43hm3j","631a1f357c56acbb68d5dc14","freq","img/green_2bandit_b2.png","70","70","test","1","153","153","7","",""
"null","282250","pSARL_v2","pSARL_v2ug43hm3j","631a1f357c56acbb68d5dc14","freq_resp","img/green_2bandit_b.png","70","70","test","","","","7","",""
"null","282416","pSARL_v2","pSARL_v2ug43hm3j","631a1f357c56acbb68d5dc14","fixation","img/fixation.png","null","","test","","","","","",""
"405.2999999523163","282833","pSARL_v2","pSARL_v2ug43hm3j","631a1f357c56acbb68d5dc14","freq","img/green_2bandit_b2.png","70","70","test","1","154","154","7","",""
"null","283237","pSARL_v2","pSARL_v2ug43hm3j","631a1f357c56acbb68d5dc14","freq_resp","img/green_2bandit_b.png","70","70","test","","","","7","",""
"null","283415","pSARL_v2","pSARL_v2ug43hm3j","631a1f357c56acbb68d5dc14","fixation","img/fixation.png","null","","test","","","","","",""
"364.89999997615814","283792","pSARL_v2","pSARL_v2ug43hm3j","631a1f357c56acbb68d5dc14","freq","img/green_2bandit_b2.png","70","70","test","1","155","155","7","",""
"null","284246","pSARL_v2","pSARL_v2ug43hm3j","631a1f357c56acbb68d5dc14","freq_resp","img/green_2bandit_b.png","70","70","test","","","","7","",""
"null","284412","pSARL_v2","pSARL_v2ug43hm3j","631a1f357c56acbb68d5dc14","fixation","img/fixation.png","null","","test","","","","","",""
"415.19999998807907","284838","pSARL_v2","pSARL_v2ug43hm3j","631a1f357c56acbb68d5dc14","freq","img/green_2bandit_b2.png","70","70","test","1","156","156","7","",""
"null","285234","pSARL_v2","pSARL_v2ug43hm3j","631a1f357c56acbb68d5dc14","freq_resp","img/green_2bandit_b.png","70","70","test","","","","7","",""
"null","285410","pSARL_v2","pSARL_v2ug43hm3j","631a1f357c56acbb68d5dc14","fixation","img/fixation.png","null","","test","","","","","",""
"487.39999997615814","285908","pSARL_v2","pSARL_v2ug43hm3j","631a1f357c56acbb68d5dc14","freq","img/green_2bandit_b2.png","70","70","test","1","157","157","7","",""
"null","286243","pSARL_v2","pSARL_v2ug43hm3j","631a1f357c56acbb68d5dc14","freq_resp","img/green_2bandit_b.png","70","70","test","","","","7","",""
"null","286411","pSARL_v2","pSARL_v2ug43hm3j","631a1f357c56acbb68d5dc14","fixation","img/fixation.png","null","","test","","","","","",""
"388.5999999642372","286810","pSARL_v2","pSARL_v2ug43hm3j","631a1f357c56acbb68d5dc14","freq","img/green_2bandit_b2.png","70","70","test","1","158","158","7","",""
"null","287241","pSARL_v2","pSARL_v2ug43hm3j","631a1f357c56acbb68d5dc14","freq_resp","img/green_2bandit_b.png","70","70","test","","","","7","",""
"null","287405","pSARL_v2","pSARL_v2ug43hm3j","631a1f357c56acbb68d5dc14","fixation","img/fixation.png","null","","test","","","","","",""
"366","287783","pSARL_v2","pSARL_v2ug43hm3j","631a1f357c56acbb68d5dc14","freq","img/green_2bandit_b2.png","70","70","test","1","159","159","7","",""
"null","288239","pSARL_v2","pSARL_v2ug43hm3j","631a1f357c56acbb68d5dc14","freq_resp","img/green_2bandit_b.png","70","70","test","","","","7","",""
"null","288412","pSARL_v2","pSARL_v2ug43hm3j","631a1f357c56acbb68d5dc14","fixation","img/fixation.png","null","","test","","","","","",""
"399.80000001192093","288822","pSARL_v2","pSARL_v2ug43hm3j","631a1f357c56acbb68d5dc14","freq","img/green_2bandit_b2.png","70","70","test","1","160","160","7","",""
"null","289236","pSARL_v2","pSARL_v2ug43hm3j","631a1f357c56acbb68d5dc14","freq_resp","img/green_2bandit_b.png","70","70","test","","","","7","",""
"null","289408","pSARL_v2","pSARL_v2ug43hm3j","631a1f357c56acbb68d5dc14","fixation","img/fixation.png","null","","test","","","","","",""
"533.6999999880791","289955","pSARL_v2","pSARL_v2ug43hm3j","631a1f357c56acbb68d5dc14","reward","img/slot.png","74","","test","","","","","",""
"null","290718","pSARL_v2","pSARL_v2ug43hm3j","631a1f357c56acbb68d5dc14","points","<div class=""verylowPoints""> -6 </div>","null","na","test","","","","7","-6","6"
"539.5999999642372","291268","pSARL_v2","pSARL_v2ug43hm3j","631a1f357c56acbb68d5dc14","freq","img/green_2bandit_b2.png","70","70","test","1","161","161","8","",""
"null","291545","pSARL_v2","pSARL_v2ug43hm3j","631a1f357c56acbb68d5dc14","freq_resp","img/green_2bandit_b.png","70","70","test","","","","8","",""
"null","291715","pSARL_v2","pSARL_v2ug43hm3j","631a1f357c56acbb68d5dc14","fixation","img/fixation.png","null","","test","","","","","",""
"671.8999999761581","292398","pSARL_v2","pSARL_v2ug43hm3j","631a1f357c56acbb68d5dc14","freq","img/green_2bandit_b2.png","70","70","test","1","162","162","8","",""
"null","292540","pSARL_v2","pSARL_v2ug43hm3j","631a1f357c56acbb68d5dc14","freq_resp","img/green_2bandit_b.png","70","70","test","","","","8","",""
"null","292710","pSARL_v2","pSARL_v2ug43hm3j","631a1f357c56acbb68d5dc14","fixation","img/fixation.png","null","","test","","","","","",""
"null","293529","pSARL_v2","pSARL_v2ug43hm3j","631a1f357c56acbb68d5dc14","freq","img/green_2bandit_b2.png","null","70","test","0","163","163","8","",""
"null","293700","pSARL_v2","pSARL_v2ug43hm3j","631a1f357c56acbb68d5dc14","fixation","img/fixation.png","null","","test","","","","","",""
"706.8999999761581","294418","pSARL_v2","pSARL_v2ug43hm3j","631a1f357c56acbb68d5dc14","freq","img/green_2bandit_b2.png","70","70","test","1","164","164","8","",""
"null","294534","pSARL_v2","pSARL_v2ug43hm3j","631a1f357c56acbb68d5dc14","freq_resp","img/green_2bandit_b.png","70","70","test","","","","8","",""
"null","294710","pSARL_v2","pSARL_v2ug43hm3j","631a1f357c56acbb68d5dc14","fixation","img/fixation.png","null","","test","","","","","",""
"519.6999999880791","295241","pSARL_v2","pSARL_v2ug43hm3j","631a1f357c56acbb68d5dc14","freq","img/green_2bandit_b2.png","70","70","test","1","165","165","8","",""
"null","295544","pSARL_v2","pSARL_v2ug43hm3j","631a1f357c56acbb68d5dc14","freq_resp","img/green_2bandit_b.png","70","70","test","","","","8","",""
"null","295715","pSARL_v2","pSARL_v2ug43hm3j","631a1f357c56acbb68d5dc14","fixation","img/fixation.png","null","","test","","","","","",""
"536.5","296263","pSARL_v2","pSARL_v2ug43hm3j","631a1f357c56acbb68d5dc14","infreq","img/orange_2bandit_b2.png","68","68","test","1","166","166","8","",""
"null","296541","pSARL_v2","pSARL_v2ug43hm3j","631a1f357c56acbb68d5dc14","infreq_resp","img/orange_2bandit_b.png","68","68","test","","","","8","",""
"null","296715","pSARL_v2","pSARL_v2ug43hm3j","631a1f357c56acbb68d5dc14","fixation","img/fixation.png","null","","test","","","","","",""
"442.30000001192093","297169","pSARL_v2","pSARL_v2ug43hm3j","631a1f357c56acbb68d5dc14","freq","img/green_2bandit_b2.png","70","70","test","1","167","167","8","",""
"null","297537","pSARL_v2","pSARL_v2ug43hm3j","631a1f357c56acbb68d5dc14","freq_resp","img/green_2bandit_b.png","70","70","test","","","","8","",""
"null","297708","pSARL_v2","pSARL_v2ug43hm3j","631a1f357c56acbb68d5dc14","fixation","img/fixation.png","null","","test","","","","","",""
"392.9000000357628","298112","pSARL_v2","pSARL_v2ug43hm3j","631a1f357c56acbb68d5dc14","freq","img/green_2bandit_b2.png","70","70","test","1","168","168","8","",""
"null","298537","pSARL_v2","pSARL_v2ug43hm3j","631a1f357c56acbb68d5dc14","freq_resp","img/green_2bandit_b.png","70","70","test","","","","8","",""
"null","298701","pSARL_v2","pSARL_v2ug43hm3j","631a1f357c56acbb68d5dc14","fixation","img/fixation.png","null","","test","","","","","",""
"379.30000001192093","299092","pSARL_v2","pSARL_v2ug43hm3j","631a1f357c56acbb68d5dc14","freq","img/green_2bandit_b2.png","70","70","test","1","169","169","8","",""
"null","299539","pSARL_v2","pSARL_v2ug43hm3j","631a1f357c56acbb68d5dc14","freq_resp","img/green_2bandit_b.png","70","70","test","","","","8","",""
"null","299702","pSARL_v2","pSARL_v2ug43hm3j","631a1f357c56acbb68d5dc14","fixation","img/fixation.png","null","","test","","","","","",""
"347","300060","pSARL_v2","pSARL_v2ug43hm3j","631a1f357c56acbb68d5dc14","freq","img/green_2bandit_b2.png","70","70","test","1","170","170","8","",""
"null","300532","pSARL_v2","pSARL_v2ug43hm3j","631a1f357c56acbb68d5dc14","freq_resp","img/green_2bandit_b.png","70","70","test","","","","8","",""
"null","300698","pSARL_v2","pSARL_v2ug43hm3j","631a1f357c56acbb68d5dc14","fixation","img/fixation.png","null","","test","","","","","",""
"315.2000000476837","301023","pSARL_v2","pSARL_v2ug43hm3j","631a1f357c56acbb68d5dc14","freq","img/green_2bandit_b2.png","70","70","test","1","171","171","8","",""
"null","301520","pSARL_v2","pSARL_v2ug43hm3j","631a1f357c56acbb68d5dc14","freq_resp","img/green_2bandit_b.png","70","70","test","","","","8","",""
"null","301693","pSARL_v2","pSARL_v2ug43hm3j","631a1f357c56acbb68d5dc14","fixation","img/fixation.png","null","","test","","","","","",""
"486.19999998807907","302189","pSARL_v2","pSARL_v2ug43hm3j","631a1f357c56acbb68d5dc14","infreq","img/orange_2bandit_b2.png","68","68","test","1","172","172","8","",""
"null","302513","pSARL_v2","pSARL_v2ug43hm3j","631a1f357c56acbb68d5dc14","infreq_resp","img/orange_2bandit_b.png","68","68","test","","","","8","",""
"null","302676","pSARL_v2","pSARL_v2ug43hm3j","631a1f357c56acbb68d5dc14","fixation","img/fixation.png","null","","test","","","","","",""
"461.0999999642372","303147","pSARL_v2","pSARL_v2ug43hm3j","631a1f357c56acbb68d5dc14","freq","img/green_2bandit_b2.png","70","70","test","1","173","173","8","",""
"null","303497","pSARL_v2","pSARL_v2ug43hm3j","631a1f357c56acbb68d5dc14","freq_resp","img/green_2bandit_b.png","70","70","test","","","","8","",""
"null","303666","pSARL_v2","pSARL_v2ug43hm3j","631a1f357c56acbb68d5dc14","fixation","img/fixation.png","null","","test","","","","","",""
"375","304054","pSARL_v2","pSARL_v2ug43hm3j","631a1f357c56acbb68d5dc14","freq","img/green_2bandit_b2.png","70","70","test","1","174","174","8","",""
"null","304499","pSARL_v2","pSARL_v2ug43hm3j","631a1f357c56acbb68d5dc14","freq_resp","img/green_2bandit_b.png","70","70","test","","","","8","",""
"null","304671","pSARL_v2","pSARL_v2ug43hm3j","631a1f357c56acbb68d5dc14","fixation","img/fixation.png","null","","test","","","","","",""
"374.5","305056","pSARL_v2","pSARL_v2ug43hm3j","631a1f357c56acbb68d5dc14","freq","img/green_2bandit_b2.png","70","70","test","1","175","175","8","",""
"null","305500","pSARL_v2","pSARL_v2ug43hm3j","631a1f357c56acbb68d5dc14","freq_resp","img/green_2bandit_b.png","70","70","test","","","","8","",""
"null","305667","pSARL_v2","pSARL_v2ug43hm3j","631a1f357c56acbb68d5dc14","fixation","img/fixation.png","null","","test","","","","","",""
"371","306050","pSARL_v2","pSARL_v2ug43hm3j","631a1f357c56acbb68d5dc14","freq","img/green_2bandit_b2.png","70","70","test","1","176","176","8","",""
"null","306494","pSARL_v2","pSARL_v2ug43hm3j","631a1f357c56acbb68d5dc14","freq_resp","img/green_2bandit_b.png","70","70","test","","","","8","",""
"null","306662","pSARL_v2","pSARL_v2ug43hm3j","631a1f357c56acbb68d5dc14","fixation","img/fixation.png","null","","test","","","","","",""
"371.60000002384186","307044","pSARL_v2","pSARL_v2ug43hm3j","631a1f357c56acbb68d5dc14","freq","img/green_2bandit_b2.png","70","70","test","1","177","177","8","",""
"null","307485","pSARL_v2","pSARL_v2ug43hm3j","631a1f357c56acbb68d5dc14","freq_resp","img/green_2bandit_b.png","70","70","test","","","","8","",""
"null","307647","pSARL_v2","pSARL_v2ug43hm3j","631a1f357c56acbb68d5dc14","fixation","img/fixation.png","null","","test","","","","","",""
"464.80000001192093","308122","pSARL_v2","pSARL_v2ug43hm3j","631a1f357c56acbb68d5dc14","freq","img/green_2bandit_b2.png","70","70","test","1","178","178","8","",""
"null","308472","pSARL_v2","pSARL_v2ug43hm3j","631a1f357c56acbb68d5dc14","freq_resp","img/green_2bandit_b.png","70","70","test","","","","8","",""
"null","308636","pSARL_v2","pSARL_v2ug43hm3j","631a1f357c56acbb68d5dc14","fixation","img/fixation.png","null","","test","","","","","",""
"441.80000001192093","309090","pSARL_v2","pSARL_v2ug43hm3j","631a1f357c56acbb68d5dc14","freq","img/green_2bandit_b2.png","70","70","test","1","179","179","8","",""
"null","309469","pSARL_v2","pSARL_v2ug43hm3j","631a1f357c56acbb68d5dc14","freq_resp","img/green_2bandit_b.png","70","70","test","","","","8","",""
"null","309641","pSARL_v2","pSARL_v2ug43hm3j","631a1f357c56acbb68d5dc14","fixation","img/fixation.png","null","","test","","","","","",""
"516.8999999761581","310169","pSARL_v2","pSARL_v2ug43hm3j","631a1f357c56acbb68d5dc14","freq","img/green_2bandit_b2.png","70","70","test","1","180","180","8","",""
"null","310475","pSARL_v2","pSARL_v2ug43hm3j","631a1f357c56acbb68d5dc14","freq_resp","img/green_2bandit_b.png","70","70","test","","","","8","",""
"null","310643","pSARL_v2","pSARL_v2ug43hm3j","631a1f357c56acbb68d5dc14","fixation","img/fixation.png","null","","test","","","","","",""
"null","311470","pSARL_v2","pSARL_v2ug43hm3j","631a1f357c56acbb68d5dc14","freq","img/green_2bandit_b2.png","null","70","test","0","181","181","8","",""
"null","311645","pSARL_v2","pSARL_v2ug43hm3j","631a1f357c56acbb68d5dc14","fixation","img/fixation.png","null","","test","","","","","",""
"643.8000000119209","312300","pSARL_v2","pSARL_v2ug43hm3j","631a1f357c56acbb68d5dc14","freq","img/green_2bandit_b2.png","70","70","test","1","182","182","8","",""
"null","312478","pSARL_v2","pSARL_v2ug43hm3j","631a1f357c56acbb68d5dc14","freq_resp","img/green_2bandit_b.png","70","70","test","","","","8","",""
"null","312649","pSARL_v2","pSARL_v2ug43hm3j","631a1f357c56acbb68d5dc14","fixation","img/fixation.png","null","","test","","","","","",""
"419","313080","pSARL_v2","pSARL_v2ug43hm3j","631a1f357c56acbb68d5dc14","freq","img/green_2bandit_b2.png","70","70","test","1","183","183","8","",""
"null","313481","pSARL_v2","pSARL_v2ug43hm3j","631a1f357c56acbb68d5dc14","freq_resp","img/green_2bandit_b.png","70","70","test","","","","8","",""
"null","313649","pSARL_v2","pSARL_v2ug43hm3j","631a1f357c56acbb68d5dc14","fixation","img/fixation.png","null","","test","","","","","",""
"501.69999998807907","314161","pSARL_v2","pSARL_v2ug43hm3j","631a1f357c56acbb68d5dc14","reward","img/slot.png","74","","test","","","","","",""
"null","314939","pSARL_v2","pSARL_v2ug43hm3j","631a1f357c56acbb68d5dc14","points","<div class=""verylowPoints""> -4 </div>","null","na","test","","","","8","-4","7"
"439.7000000476837","315391","pSARL_v2","pSARL_v2ug43hm3j","631a1f357c56acbb68d5dc14","freq","img/green_2bandit_b2.png","70","70","test","1","184","184","9","",""
"null","315772","pSARL_v2","pSARL_v2ug43hm3j","631a1f357c56acbb68d5dc14","freq_resp","img/green_2bandit_b.png","70","70","test","","","","9","",""
"null","315940","pSARL_v2","pSARL_v2ug43hm3j","631a1f357c56acbb68d5dc14","fixation","img/fixation.png","null","","test","","","","","",""
"357.5999999642372","316307","pSARL_v2","pSARL_v2ug43hm3j","631a1f357c56acbb68d5dc14","freq","img/green_2bandit_b2.png","70","70","test","1","185","185","9","",""
"null","316765","pSARL_v2","pSARL_v2ug43hm3j","631a1f357c56acbb68d5dc14","freq_resp","img/green_2bandit_b.png","70","70","test","","","","9","",""
"null","316935","pSARL_v2","pSARL_v2ug43hm3j","631a1f357c56acbb68d5dc14","fixation","img/fixation.png","null","","test","","","","","",""
"339.19999998807907","317285","pSARL_v2","pSARL_v2ug43hm3j","631a1f357c56acbb68d5dc14","freq","img/green_2bandit_b2.png","70","70","test","1","186","186","9","",""
"null","317764","pSARL_v2","pSARL_v2ug43hm3j","631a1f357c56acbb68d5dc14","freq_resp","img/green_2bandit_b.png","70","70","test","","","","9","",""
"null","317938","pSARL_v2","pSARL_v2ug43hm3j","631a1f357c56acbb68d5dc14","fixation","img/fixation.png","null","","test","","","","","",""
"352.19999998807907","318300","pSARL_v2","pSARL_v2ug43hm3j","631a1f357c56acbb68d5dc14","freq","img/green_2bandit_b2.png","70","70","test","1","187","187","9","",""
"null","318761","pSARL_v2","pSARL_v2ug43hm3j","631a1f357c56acbb68d5dc14","freq_resp","img/green_2bandit_b.png","70","70","test","","","","9","",""
"null","318927","pSARL_v2","pSARL_v2ug43hm3j","631a1f357c56acbb68d5dc14","fixation","img/fixation.png","null","","test","","","","","",""
"361.69999998807907","319299","pSARL_v2","pSARL_v2ug43hm3j","631a1f357c56acbb68d5dc14","freq","img/green_2bandit_b2.png","70","70","test","1","188","188","9","",""
"null","319756","pSARL_v2","pSARL_v2ug43hm3j","631a1f357c56acbb68d5dc14","freq_resp","img/green_2bandit_b.png","70","70","test","","","","9","",""
"null","319918","pSARL_v2","pSARL_v2ug43hm3j","631a1f357c56acbb68d5dc14","fixation","img/fixation.png","null","","test","","","","","",""
"345.10000002384186","320274","pSARL_v2","pSARL_v2ug43hm3j","631a1f357c56acbb68d5dc14","freq","img/green_2bandit_b2.png","70","70","test","1","189","189","9","",""
"null","320740","pSARL_v2","pSARL_v2ug43hm3j","631a1f357c56acbb68d5dc14","freq_resp","img/green_2bandit_b.png","70","70","test","","","","9","",""
"null","320912","pSARL_v2","pSARL_v2ug43hm3j","631a1f357c56acbb68d5dc14","fixation","img/fixation.png","null","","test","","","","","",""
"315.2999999523163","321242","pSARL_v2","pSARL_v2ug43hm3j","631a1f357c56acbb68d5dc14","freq","img/green_2bandit_b2.png","70","70","test","1","190","190","9","",""
"null","321743","pSARL_v2","pSARL_v2ug43hm3j","631a1f357c56acbb68d5dc14","freq_resp","img/green_2bandit_b.png","70","70","test","","","","9","",""
"null","321919","pSARL_v2","pSARL_v2ug43hm3j","631a1f357c56acbb68d5dc14","fixation","img/fixation.png","null","","test","","","","","",""
"495","322424","pSARL_v2","pSARL_v2ug43hm3j","631a1f357c56acbb68d5dc14","infreq","img/orange_2bandit_b2.png","68","68","test","1","191","191","9","",""
"null","322753","pSARL_v2","pSARL_v2ug43hm3j","631a1f357c56acbb68d5dc14","infreq_resp","img/orange_2bandit_b.png","68","68","test","","","","9","",""
"null","322919","pSARL_v2","pSARL_v2ug43hm3j","631a1f357c56acbb68d5dc14","fixation","img/fixation.png","null","","test","","","","","",""
"420.30000001192093","323349","pSARL_v2","pSARL_v2ug43hm3j","631a1f357c56acbb68d5dc14","freq","img/green_2bandit_b2.png","70","70","test","1","192","192","9","",""
"null","323741","pSARL_v2","pSARL_v2ug43hm3j","631a1f357c56acbb68d5dc14","freq_resp","img/green_2bandit_b.png","70","70","test","","","","9","",""
"null","323906","pSARL_v2","pSARL_v2ug43hm3j","631a1f357c56acbb68d5dc14","fixation","img/fixation.png","null","","test","","","","","",""
"375.5999999642372","324292","pSARL_v2","pSARL_v2ug43hm3j","631a1f357c56acbb68d5dc14","freq","img/green_2bandit_b2.png","70","70","test","1","193","193","9","",""
"null","324738","pSARL_v2","pSARL_v2ug43hm3j","631a1f357c56acbb68d5dc14","freq_resp","img/green_2bandit_b.png","70","70","test","","","","9","",""
"null","324904","pSARL_v2","pSARL_v2ug43hm3j","631a1f357c56acbb68d5dc14","fixation","img/fixation.png","null","","test","","","","","",""
"499.80000001192093","325415","pSARL_v2","pSARL_v2ug43hm3j","631a1f357c56acbb68d5dc14","infreq","img/orange_2bandit_b2.png","68","68","test","1","194","194","9","",""
"null","325737","pSARL_v2","pSARL_v2ug43hm3j","631a1f357c56acbb68d5dc14","infreq_resp","img/orange_2bandit_b.png","68","68","test","","","","9","",""
"null","325903","pSARL_v2","pSARL_v2ug43hm3j","631a1f357c56acbb68d5dc14","fixation","img/fixation.png","null","","test","","","","","",""
"451.7000000476837","326365","pSARL_v2","pSARL_v2ug43hm3j","631a1f357c56acbb68d5dc14","infreq","img/orange_2bandit_b2.png","68","68","test","1","195","195","9","",""
"null","326738","pSARL_v2","pSARL_v2ug43hm3j","631a1f357c56acbb68d5dc14","infreq_resp","img/orange_2bandit_b.png","68","68","test","","","","9","",""
"null","326909","pSARL_v2","pSARL_v2ug43hm3j","631a1f357c56acbb68d5dc14","fixation","img/fixation.png","null","","test","","","","","",""
"427","327346","pSARL_v2","pSARL_v2ug43hm3j","631a1f357c56acbb68d5dc14","freq","img/green_2bandit_b2.png","70","70","test","1","196","196","9","",""
"null","327736","pSARL_v2","pSARL_v2ug43hm3j","631a1f357c56acbb68d5dc14","freq_resp","img/green_2bandit_b.png","70","70","test","","","","9","",""
"null","327909","pSARL_v2","pSARL_v2ug43hm3j","631a1f357c56acbb68d5dc14","fixation","img/fixation.png","null","","test","","","","","",""
"401.69999998807907","328321","pSARL_v2","pSARL_v2ug43hm3j","631a1f357c56acbb68d5dc14","freq","img/green_2bandit_b2.png","70","70","test","1","197","197","9","",""
"null","328740","pSARL_v2","pSARL_v2ug43hm3j","631a1f357c56acbb68d5dc14","freq_resp","img/green_2bandit_b.png","70","70","test","","","","9","",""
"null","328912","pSARL_v2","pSARL_v2ug43hm3j","631a1f357c56acbb68d5dc14","fixation","img/fixation.png","null","","test","","","","","",""
"382.80000001192093","329306","pSARL_v2","pSARL_v2ug43hm3j","631a1f357c56acbb68d5dc14","freq","img/green_2bandit_b2.png","70","70","test","1","198","198","9","",""
"null","329743","pSARL_v2","pSARL_v2ug43hm3j","631a1f357c56acbb68d5dc14","freq_resp","img/green_2bandit_b.png","70","70","test","","","","9","",""
"null","329909","pSARL_v2","pSARL_v2ug43hm3j","631a1f357c56acbb68d5dc14","fixation","img/fixation.png","null","","test","","","","","",""
"366.69999998807907","330287","pSARL_v2","pSARL_v2ug43hm3j","631a1f357c56acbb68d5dc14","freq","img/green_2bandit_b2.png","70","70","test","1","199","199","9","",""
"null","330742","pSARL_v2","pSARL_v2ug43hm3j","631a1f357c56acbb68d5dc14","freq_resp","img/green_2bandit_b.png","70","70","test","","","","9","",""
"null","330916","pSARL_v2","pSARL_v2ug43hm3j","631a1f357c56acbb68d5dc14","fixation","img/fixation.png","null","","test","","","","","",""
"383.5","331313","pSARL_v2","pSARL_v2ug43hm3j","631a1f357c56acbb68d5dc14","freq","img/green_2bandit_b2.png","70","70","test","1","200","200","9","",""
"null","331751","pSARL_v2","pSARL_v2ug43hm3j","631a1f357c56acbb68d5dc14","freq_resp","img/green_2bandit_b.png","70","70","test","","","","9","",""
"null","331928","pSARL_v2","pSARL_v2ug43hm3j","631a1f357c56acbb68d5dc14","fixation","img/fixation.png","null","","test","","","","","",""
"374.0999999642372","332313","pSARL_v2","pSARL_v2ug43hm3j","631a1f357c56acbb68d5dc14","freq","img/green_2bandit_b2.png","70","70","test","1","201","201","9","",""
"null","332752","pSARL_v2","pSARL_v2ug43hm3j","631a1f357c56acbb68d5dc14","freq_resp","img/green_2bandit_b.png","70","70","test","","","","9","",""
"null","332915","pSARL_v2","pSARL_v2ug43hm3j","631a1f357c56acbb68d5dc14","fixation","img/fixation.png","null","","test","","","","","",""
"390.89999997615814","333316","pSARL_v2","pSARL_v2ug43hm3j","631a1f357c56acbb68d5dc14","freq","img/green_2bandit_b2.png","70","70","test","1","202","202","9","",""
"null","333746","pSARL_v2","pSARL_v2ug43hm3j","631a1f357c56acbb68d5dc14","freq_resp","img/green_2bandit_b.png","70","70","test","","","","9","",""
"null","333920","pSARL_v2","pSARL_v2ug43hm3j","631a1f357c56acbb68d5dc14","fixation","img/fixation.png","null","","test","","","","","",""
"436.30000001192093","334367","pSARL_v2","pSARL_v2ug43hm3j","631a1f357c56acbb68d5dc14","freq","img/green_2bandit_b2.png","70","70","test","1","203","203","9","",""
"null","334753","pSARL_v2","pSARL_v2ug43hm3j","631a1f357c56acbb68d5dc14","freq_resp","img/green_2bandit_b.png","70","70","test","","","","9","",""
"null","334916","pSARL_v2","pSARL_v2ug43hm3j","631a1f357c56acbb68d5dc14","fixation","img/fixation.png","null","","test","","","","","",""
"394","335320","pSARL_v2","pSARL_v2ug43hm3j","631a1f357c56acbb68d5dc14","freq","img/green_2bandit_b2.png","70","70","test","1","204","204","9","",""
"null","335737","pSARL_v2","pSARL_v2ug43hm3j","631a1f357c56acbb68d5dc14","freq_resp","img/green_2bandit_b.png","70","70","test","","","","9","",""
"null","335907","pSARL_v2","pSARL_v2ug43hm3j","631a1f357c56acbb68d5dc14","fixation","img/fixation.png","null","","test","","","","","",""
"341.80000001192093","336262","pSARL_v2","pSARL_v2ug43hm3j","631a1f357c56acbb68d5dc14","freq","img/green_2bandit_b2.png","70","70","test","1","205","205","9","",""
"null","336746","pSARL_v2","pSARL_v2ug43hm3j","631a1f357c56acbb68d5dc14","freq_resp","img/green_2bandit_b.png","70","70","test","","","","9","",""
"null","336913","pSARL_v2","pSARL_v2ug43hm3j","631a1f357c56acbb68d5dc14","fixation","img/fixation.png","null","","test","","","","","",""
"355","337279","pSARL_v2","pSARL_v2ug43hm3j","631a1f357c56acbb68d5dc14","freq","img/green_2bandit_b2.png","70","70","test","1","206","206","9","",""
"null","337737","pSARL_v2","pSARL_v2ug43hm3j","631a1f357c56acbb68d5dc14","freq_resp","img/green_2bandit_b.png","70","70","test","","","","9","",""
"null","337909","pSARL_v2","pSARL_v2ug43hm3j","631a1f357c56acbb68d5dc14","fixation","img/fixation.png","null","","test","","","","","",""
"372.4000000357628","338293","pSARL_v2","pSARL_v2ug43hm3j","631a1f357c56acbb68d5dc14","freq","img/green_2bandit_b2.png","70","70","test","1","207","207","9","",""
"null","338740","pSARL_v2","pSARL_v2ug43hm3j","631a1f357c56acbb68d5dc14","freq_resp","img/green_2bandit_b.png","70","70","test","","","","9","",""
