"rt","time_elapsed","expId","subject","prolificID","trialType","stimulus","key_press","corrresp","phase","corr","trialNum","attentionRunNum","blockNum","points","rlNum"
"6991.300000000745","7019","pSARL_v2","pSARL_v2fg4ovwa2","61464fe94ab78bd0f17d0dc0","","","","","","","","","","",""
"","9811","pSARL_v2","pSARL_v2fg4ovwa2","61464fe94ab78bd0f17d0dc0","fullscreen","","","","","","","","","",""
"223175.30000000075","233003","pSARL_v2","pSARL_v2fg4ovwa2","61464fe94ab78bd0f17d0dc0","","","","","","","","","","",""
"null","233853","pSARL_v2","pSARL_v2fg4ovwa2","61464fe94ab78bd0f17d0dc0","freqPrac","img/orange_2bandit_b2.png","null","70","prac","0","","","","",""
"null","234876","pSARL_v2","pSARL_v2fg4ovwa2","61464fe94ab78bd0f17d0dc0","feedback","img/tooSlow.png","null","na","prac","","","","","",""
"null","235045","pSARL_v2","pSARL_v2fg4ovwa2","61464fe94ab78bd0f17d0dc0","fixation","img/fixation.png","null","","prac","","","","","",""
"null","235869","pSARL_v2","pSARL_v2fg4ovwa2","61464fe94ab78bd0f17d0dc0","infreqPrac","img/green_2bandit_b2.png","null","68","prac","0","","","","",""
"null","236919","pSARL_v2","pSARL_v2fg4ovwa2","61464fe94ab78bd0f17d0dc0","feedback","img/tooSlow.png","null","na","prac","","","","","",""
"null","237091","pSARL_v2","pSARL_v2fg4ovwa2","61464fe94ab78bd0f17d0dc0","fixation","img/fixation.png","null","","prac","","","","","",""
"493","237599","pSARL_v2","pSARL_v2fg4ovwa2","61464fe94ab78bd0f17d0dc0","freqPrac","img/orange_2bandit_b2.png","68","70","prac","0","","","","",""
"493","237924","pSARL_v2","pSARL_v2fg4ovwa2","61464fe94ab78bd0f17d0dc0","freqPrac_resp","img/orange_2bandit_b.png","68","70","prac","","","","","",""
"null","238944","pSARL_v2","pSARL_v2fg4ovwa2","61464fe94ab78bd0f17d0dc0","feedback","img/wrongKey.png","null","na","prac","","","","","",""
"null","239141","pSARL_v2","pSARL_v2fg4ovwa2","61464fe94ab78bd0f17d0dc0","fixation","img/fixation.png","null","","prac","","","","","",""
"518.6999999992549","239701","pSARL_v2","pSARL_v2fg4ovwa2","61464fe94ab78bd0f17d0dc0","infreqPrac","img/green_2bandit_b2.png","70","68","prac","0","","","","",""
"518.6999999992549","240030","pSARL_v2","pSARL_v2fg4ovwa2","61464fe94ab78bd0f17d0dc0","infreqPrac_resp","img/green_2bandit_b.png","70","68","prac","","","","","",""
"null","241076","pSARL_v2","pSARL_v2fg4ovwa2","61464fe94ab78bd0f17d0dc0","feedback","img/wrongKey.png","null","na","prac","","","","","",""
"null","241263","pSARL_v2","pSARL_v2fg4ovwa2","61464fe94ab78bd0f17d0dc0","fixation","img/fixation.png","null","","prac","","","","","",""
"545.2000000029802","241850","pSARL_v2","pSARL_v2fg4ovwa2","61464fe94ab78bd0f17d0dc0","infreqPrac","img/green_2bandit_b2.png","68","68","prac","1","","","","",""
"545.2000000029802","242150","pSARL_v2","pSARL_v2fg4ovwa2","61464fe94ab78bd0f17d0dc0","infreqPrac_resp","img/green_2bandit_b.png","68","68","prac","","","","","",""
"null","242340","pSARL_v2","pSARL_v2fg4ovwa2","61464fe94ab78bd0f17d0dc0","fixation","img/fixation.png","null","","prac","","","","","",""
"550","242931","pSARL_v2","pSARL_v2fg4ovwa2","61464fe94ab78bd0f17d0dc0","infreqPrac","img/green_2bandit_b2.png","68","68","prac","1","","","","",""
"550","243229","pSARL_v2","pSARL_v2fg4ovwa2","61464fe94ab78bd0f17d0dc0","infreqPrac_resp","img/green_2bandit_b.png","68","68","prac","","","","","",""
"null","243419","pSARL_v2","pSARL_v2fg4ovwa2","61464fe94ab78bd0f17d0dc0","fixation","img/fixation.png","null","","prac","","","","","",""
"382.5","243838","pSARL_v2","pSARL_v2fg4ovwa2","61464fe94ab78bd0f17d0dc0","freqPrac","img/orange_2bandit_b2.png","70","70","prac","1","","","","",""
"382.5","244278","pSARL_v2","pSARL_v2fg4ovwa2","61464fe94ab78bd0f17d0dc0","freqPrac_resp","img/orange_2bandit_b.png","70","70","prac","","","","","",""
"null","244447","pSARL_v2","pSARL_v2fg4ovwa2","61464fe94ab78bd0f17d0dc0","fixation","img/fixation.png","null","","prac","","","","","",""
"400.6000000014901","244886","pSARL_v2","pSARL_v2fg4ovwa2","61464fe94ab78bd0f17d0dc0","infreqPrac","img/green_2bandit_b2.png","68","68","prac","1","","","","",""
"400.6000000014901","245332","pSARL_v2","pSARL_v2fg4ovwa2","61464fe94ab78bd0f17d0dc0","infreqPrac_resp","img/green_2bandit_b.png","68","68","prac","","","","","",""
"null","245526","pSARL_v2","pSARL_v2fg4ovwa2","61464fe94ab78bd0f17d0dc0","fixation","img/fixation.png","null","","prac","","","","","",""
"298.1000000014901","245839","pSARL_v2","pSARL_v2fg4ovwa2","61464fe94ab78bd0f17d0dc0","freqPrac","img/orange_2bandit_b2.png","70","70","prac","1","","","","",""
"298.1000000014901","246359","pSARL_v2","pSARL_v2fg4ovwa2","61464fe94ab78bd0f17d0dc0","freqPrac_resp","img/orange_2bandit_b.png","70","70","prac","","","","","",""
"null","246559","pSARL_v2","pSARL_v2fg4ovwa2","61464fe94ab78bd0f17d0dc0","fixation","img/fixation.png","null","","prac","","","","","",""
"337.20000000298023","246935","pSARL_v2","pSARL_v2fg4ovwa2","61464fe94ab78bd0f17d0dc0","freqPrac","img/orange_2bandit_b2.png","70","70","prac","1","","","","",""
"337.20000000298023","247423","pSARL_v2","pSARL_v2fg4ovwa2","61464fe94ab78bd0f17d0dc0","freqPrac_resp","img/orange_2bandit_b.png","70","70","prac","","","","","",""
"null","247621","pSARL_v2","pSARL_v2fg4ovwa2","61464fe94ab78bd0f17d0dc0","fixation","img/fixation.png","null","","prac","","","","","",""
"203555.1000000015","451190","pSARL_v2","pSARL_v2fg4ovwa2","61464fe94ab78bd0f17d0dc0","","","","","prac","","","","","",""
"468.30000000074506","451673","pSARL_v2","pSARL_v2fg4ovwa2","61464fe94ab78bd0f17d0dc0","rewardPractice","img/slot.png","74","","prac","","","","","",""
"null","452469","pSARL_v2","pSARL_v2fg4ovwa2","61464fe94ab78bd0f17d0dc0","feedback","<div class=""veryhighPoints""> +15 </div>","null","na","prac","","","","","",""
"null","452661","pSARL_v2","pSARL_v2fg4ovwa2","61464fe94ab78bd0f17d0dc0","fixation","img/fixation.png","null","","prac","","","","","",""
"332924","785598","pSARL_v2","pSARL_v2fg4ovwa2","61464fe94ab78bd0f17d0dc0","","","","","prac","","","","","",""
"466.79999999701977","786102","pSARL_v2","pSARL_v2fg4ovwa2","61464fe94ab78bd0f17d0dc0","freq","img/orange_2bandit_b2.png","70","70","test","1","1","1","1","",""
"null","786476","pSARL_v2","pSARL_v2fg4ovwa2","61464fe94ab78bd0f17d0dc0","freq_resp","img/orange_2bandit_b.png","70","70","test","","","","1","",""
"null","786668","pSARL_v2","pSARL_v2fg4ovwa2","61464fe94ab78bd0f17d0dc0","fixation","img/fixation.png","null","","test","","","","","",""
"null","787519","pSARL_v2","pSARL_v2fg4ovwa2","61464fe94ab78bd0f17d0dc0","infreq","img/green_2bandit_b2.png","null","68","test","0","2","2","1","",""
"null","787716","pSARL_v2","pSARL_v2fg4ovwa2","61464fe94ab78bd0f17d0dc0","fixation","img/fixation.png","null","","test","","","","","",""
"483.29999999701977","788238","pSARL_v2","pSARL_v2fg4ovwa2","61464fe94ab78bd0f17d0dc0","freq","img/orange_2bandit_b2.png","70","70","test","1","3","3","1","",""
"null","788596","pSARL_v2","pSARL_v2fg4ovwa2","61464fe94ab78bd0f17d0dc0","freq_resp","img/orange_2bandit_b.png","70","70","test","","","","1","",""
"null","788789","pSARL_v2","pSARL_v2fg4ovwa2","61464fe94ab78bd0f17d0dc0","fixation","img/fixation.png","null","","test","","","","","",""
"466.80000000074506","789296","pSARL_v2","pSARL_v2fg4ovwa2","61464fe94ab78bd0f17d0dc0","freq","img/orange_2bandit_b2.png","70","70","test","1","4","4","1","",""
"null","789676","pSARL_v2","pSARL_v2fg4ovwa2","61464fe94ab78bd0f17d0dc0","freq_resp","img/orange_2bandit_b.png","70","70","test","","","","1","",""
"null","789869","pSARL_v2","pSARL_v2fg4ovwa2","61464fe94ab78bd0f17d0dc0","fixation","img/fixation.png","null","","test","","","","","",""
"433.5","790342","pSARL_v2","pSARL_v2fg4ovwa2","61464fe94ab78bd0f17d0dc0","freq","img/orange_2bandit_b2.png","70","70","test","1","5","5","1","",""
"null","790756","pSARL_v2","pSARL_v2fg4ovwa2","61464fe94ab78bd0f17d0dc0","freq_resp","img/orange_2bandit_b.png","70","70","test","","","","1","",""
"null","790948","pSARL_v2","pSARL_v2fg4ovwa2","61464fe94ab78bd0f17d0dc0","fixation","img/fixation.png","null","","test","","","","","",""
"366.29999999701977","791354","pSARL_v2","pSARL_v2fg4ovwa2","61464fe94ab78bd0f17d0dc0","freq","img/orange_2bandit_b2.png","70","70","test","1","6","6","1","",""
"null","791830","pSARL_v2","pSARL_v2fg4ovwa2","61464fe94ab78bd0f17d0dc0","freq_resp","img/orange_2bandit_b.png","70","70","test","","","","1","",""
"null","792029","pSARL_v2","pSARL_v2fg4ovwa2","61464fe94ab78bd0f17d0dc0","fixation","img/fixation.png","null","","test","","","","","",""
"384.69999999925494","792452","pSARL_v2","pSARL_v2fg4ovwa2","61464fe94ab78bd0f17d0dc0","freq","img/orange_2bandit_b2.png","70","70","test","1","7","7","1","",""
"null","792908","pSARL_v2","pSARL_v2fg4ovwa2","61464fe94ab78bd0f17d0dc0","freq_resp","img/orange_2bandit_b.png","70","70","test","","","","1","",""
"null","793100","pSARL_v2","pSARL_v2fg4ovwa2","61464fe94ab78bd0f17d0dc0","fixation","img/fixation.png","null","","test","","","","","",""
"396.5","793536","pSARL_v2","pSARL_v2fg4ovwa2","61464fe94ab78bd0f17d0dc0","freq","img/orange_2bandit_b2.png","70","70","test","1","8","8","1","",""
"null","793980","pSARL_v2","pSARL_v2fg4ovwa2","61464fe94ab78bd0f17d0dc0","freq_resp","img/orange_2bandit_b.png","70","70","test","","","","1","",""
"null","794173","pSARL_v2","pSARL_v2fg4ovwa2","61464fe94ab78bd0f17d0dc0","fixation","img/fixation.png","null","","test","","","","","",""
"369.69999999925494","794581","pSARL_v2","pSARL_v2fg4ovwa2","61464fe94ab78bd0f17d0dc0","freq","img/orange_2bandit_b2.png","70","70","test","1","9","9","1","",""
"null","795053","pSARL_v2","pSARL_v2fg4ovwa2","61464fe94ab78bd0f17d0dc0","freq_resp","img/orange_2bandit_b.png","70","70","test","","","","1","",""
"null","795245","pSARL_v2","pSARL_v2fg4ovwa2","61464fe94ab78bd0f17d0dc0","fixation","img/fixation.png","null","","test","","","","","",""
"393.1000000014901","795677","pSARL_v2","pSARL_v2fg4ovwa2","61464fe94ab78bd0f17d0dc0","freq","img/orange_2bandit_b2.png","70","70","test","1","10","10","1","",""
"null","796126","pSARL_v2","pSARL_v2fg4ovwa2","61464fe94ab78bd0f17d0dc0","freq_resp","img/orange_2bandit_b.png","70","70","test","","","","1","",""
"null","796316","pSARL_v2","pSARL_v2fg4ovwa2","61464fe94ab78bd0f17d0dc0","fixation","img/fixation.png","null","","test","","","","","",""
"527","796882","pSARL_v2","pSARL_v2fg4ovwa2","61464fe94ab78bd0f17d0dc0","infreq","img/green_2bandit_b2.png","68","68","test","1","11","11","1","",""
"null","797197","pSARL_v2","pSARL_v2fg4ovwa2","61464fe94ab78bd0f17d0dc0","infreq_resp","img/green_2bandit_b.png","68","68","test","","","","1","",""
"null","797389","pSARL_v2","pSARL_v2fg4ovwa2","61464fe94ab78bd0f17d0dc0","fixation","img/fixation.png","null","","test","","","","","",""
"404","797831","pSARL_v2","pSARL_v2fg4ovwa2","61464fe94ab78bd0f17d0dc0","freq","img/orange_2bandit_b2.png","70","70","test","1","12","12","1","",""
"null","798269","pSARL_v2","pSARL_v2fg4ovwa2","61464fe94ab78bd0f17d0dc0","freq_resp","img/orange_2bandit_b.png","70","70","test","","","","1","",""
"null","798460","pSARL_v2","pSARL_v2fg4ovwa2","61464fe94ab78bd0f17d0dc0","fixation","img/fixation.png","null","","test","","","","","",""
"428","798927","pSARL_v2","pSARL_v2fg4ovwa2","61464fe94ab78bd0f17d0dc0","freq","img/orange_2bandit_b2.png","70","70","test","1","13","13","1","",""
"null","799340","pSARL_v2","pSARL_v2fg4ovwa2","61464fe94ab78bd0f17d0dc0","freq_resp","img/orange_2bandit_b.png","70","70","test","","","","1","",""
"null","799537","pSARL_v2","pSARL_v2fg4ovwa2","61464fe94ab78bd0f17d0dc0","fixation","img/fixation.png","null","","test","","","","","",""
"361.69999999925494","799937","pSARL_v2","pSARL_v2fg4ovwa2","61464fe94ab78bd0f17d0dc0","freq","img/orange_2bandit_b2.png","70","70","test","1","14","14","1","",""
"null","800420","pSARL_v2","pSARL_v2fg4ovwa2","61464fe94ab78bd0f17d0dc0","freq_resp","img/orange_2bandit_b.png","70","70","test","","","","1","",""
"null","800612","pSARL_v2","pSARL_v2fg4ovwa2","61464fe94ab78bd0f17d0dc0","fixation","img/fixation.png","null","","test","","","","","",""
"341.8999999985099","800992","pSARL_v2","pSARL_v2fg4ovwa2","61464fe94ab78bd0f17d0dc0","freq","img/orange_2bandit_b2.png","70","70","test","1","15","15","1","",""
"null","801492","pSARL_v2","pSARL_v2fg4ovwa2","61464fe94ab78bd0f17d0dc0","freq_resp","img/orange_2bandit_b.png","70","70","test","","","","1","",""
"null","801684","pSARL_v2","pSARL_v2fg4ovwa2","61464fe94ab78bd0f17d0dc0","fixation","img/fixation.png","null","","test","","","","","",""
"363","802086","pSARL_v2","pSARL_v2fg4ovwa2","61464fe94ab78bd0f17d0dc0","freq","img/orange_2bandit_b2.png","70","70","test","1","16","16","1","",""
"null","802565","pSARL_v2","pSARL_v2fg4ovwa2","61464fe94ab78bd0f17d0dc0","freq_resp","img/orange_2bandit_b.png","70","70","test","","","","1","",""
"null","802756","pSARL_v2","pSARL_v2fg4ovwa2","61464fe94ab78bd0f17d0dc0","fixation","img/fixation.png","null","","test","","","","","",""
"337","803132","pSARL_v2","pSARL_v2fg4ovwa2","61464fe94ab78bd0f17d0dc0","freq","img/orange_2bandit_b2.png","70","70","test","1","17","17","1","",""
"null","803636","pSARL_v2","pSARL_v2fg4ovwa2","61464fe94ab78bd0f17d0dc0","freq_resp","img/orange_2bandit_b.png","70","70","test","","","","1","",""
"null","803828","pSARL_v2","pSARL_v2fg4ovwa2","61464fe94ab78bd0f17d0dc0","fixation","img/fixation.png","null","","test","","","","","",""
"415.30000000074506","804282","pSARL_v2","pSARL_v2fg4ovwa2","61464fe94ab78bd0f17d0dc0","freq","img/orange_2bandit_b2.png","70","70","test","1","18","18","1","",""
"null","804708","pSARL_v2","pSARL_v2fg4ovwa2","61464fe94ab78bd0f17d0dc0","freq_resp","img/orange_2bandit_b.png","70","70","test","","","","1","",""
"null","804901","pSARL_v2","pSARL_v2fg4ovwa2","61464fe94ab78bd0f17d0dc0","fixation","img/fixation.png","null","","test","","","","","",""
"608.1999999992549","805549","pSARL_v2","pSARL_v2fg4ovwa2","61464fe94ab78bd0f17d0dc0","freq","img/orange_2bandit_b2.png","70","70","test","1","19","19","1","",""
"null","805788","pSARL_v2","pSARL_v2fg4ovwa2","61464fe94ab78bd0f17d0dc0","freq_resp","img/orange_2bandit_b.png","70","70","test","","","","1","",""
"null","805981","pSARL_v2","pSARL_v2fg4ovwa2","61464fe94ab78bd0f17d0dc0","fixation","img/fixation.png","null","","test","","","","","",""
"721.3000000007451","806744","pSARL_v2","pSARL_v2fg4ovwa2","61464fe94ab78bd0f17d0dc0","freq","img/orange_2bandit_b2.png","70","70","test","1","20","20","1","",""
"null","806868","pSARL_v2","pSARL_v2fg4ovwa2","61464fe94ab78bd0f17d0dc0","freq_resp","img/orange_2bandit_b.png","70","70","test","","","","1","",""
"null","807060","pSARL_v2","pSARL_v2fg4ovwa2","61464fe94ab78bd0f17d0dc0","fixation","img/fixation.png","null","","test","","","","","",""
"584","807683","pSARL_v2","pSARL_v2fg4ovwa2","61464fe94ab78bd0f17d0dc0","freq","img/orange_2bandit_b2.png","70","70","test","1","21","21","1","",""
"null","807940","pSARL_v2","pSARL_v2fg4ovwa2","61464fe94ab78bd0f17d0dc0","freq_resp","img/orange_2bandit_b.png","70","70","test","","","","1","",""
"null","808134","pSARL_v2","pSARL_v2fg4ovwa2","61464fe94ab78bd0f17d0dc0","fixation","img/fixation.png","null","","test","","","","","",""
"397.30000000074506","808574","pSARL_v2","pSARL_v2fg4ovwa2","61464fe94ab78bd0f17d0dc0","freq","img/orange_2bandit_b2.png","70","70","test","1","22","22","1","",""
"null","809021","pSARL_v2","pSARL_v2fg4ovwa2","61464fe94ab78bd0f17d0dc0","freq_resp","img/orange_2bandit_b.png","70","70","test","","","","1","",""
"null","809213","pSARL_v2","pSARL_v2fg4ovwa2","61464fe94ab78bd0f17d0dc0","fixation","img/fixation.png","null","","test","","","","","",""
"320.30000000074506","809574","pSARL_v2","pSARL_v2fg4ovwa2","61464fe94ab78bd0f17d0dc0","freq","img/orange_2bandit_b2.png","70","70","test","1","23","23","1","",""
"null","810101","pSARL_v2","pSARL_v2fg4ovwa2","61464fe94ab78bd0f17d0dc0","freq_resp","img/orange_2bandit_b.png","70","70","test","","","","1","",""
"null","810297","pSARL_v2","pSARL_v2fg4ovwa2","61464fe94ab78bd0f17d0dc0","fixation","img/fixation.png","null","","test","","","","","",""
"256.69999999925494","810593","pSARL_v2","pSARL_v2fg4ovwa2","61464fe94ab78bd0f17d0dc0","freq","img/orange_2bandit_b2.png","70","70","test","1","24","24","1","",""
"null","811181","pSARL_v2","pSARL_v2fg4ovwa2","61464fe94ab78bd0f17d0dc0","freq_resp","img/orange_2bandit_b.png","70","70","test","","","","1","",""
"null","811373","pSARL_v2","pSARL_v2fg4ovwa2","61464fe94ab78bd0f17d0dc0","fixation","img/fixation.png","null","","test","","","","","",""
"290.30000000074506","811702","pSARL_v2","pSARL_v2fg4ovwa2","61464fe94ab78bd0f17d0dc0","freq","img/orange_2bandit_b2.png","70","70","test","1","25","25","1","",""
"null","812252","pSARL_v2","pSARL_v2fg4ovwa2","61464fe94ab78bd0f17d0dc0","freq_resp","img/orange_2bandit_b.png","70","70","test","","","","1","",""
"null","812444","pSARL_v2","pSARL_v2fg4ovwa2","61464fe94ab78bd0f17d0dc0","fixation","img/fixation.png","null","","test","","","","","",""
"250.5","812733","pSARL_v2","pSARL_v2fg4ovwa2","61464fe94ab78bd0f17d0dc0","freq","img/orange_2bandit_b2.png","70","70","test","1","26","26","1","",""
"null","813325","pSARL_v2","pSARL_v2fg4ovwa2","61464fe94ab78bd0f17d0dc0","freq_resp","img/orange_2bandit_b.png","70","70","test","","","","1","",""
"null","813517","pSARL_v2","pSARL_v2fg4ovwa2","61464fe94ab78bd0f17d0dc0","fixation","img/fixation.png","null","","test","","","","","",""
"473.29999999701977","814028","pSARL_v2","pSARL_v2fg4ovwa2","61464fe94ab78bd0f17d0dc0","reward","img/slot.png","74","","test","","","","","",""
"null","814821","pSARL_v2","pSARL_v2fg4ovwa2","61464fe94ab78bd0f17d0dc0","points","<div class=""verylowPoints""> -6 </div>","null","na","test","","","","1","-6","0"
"null","815671","pSARL_v2","pSARL_v2fg4ovwa2","61464fe94ab78bd0f17d0dc0","freq","img/orange_2bandit_b2.png","null","70","test","0","27","27","2","",""
"null","815868","pSARL_v2","pSARL_v2fg4ovwa2","61464fe94ab78bd0f17d0dc0","fixation","img/fixation.png","null","","test","","","","","",""
"555.8000000007451","816463","pSARL_v2","pSARL_v2fg4ovwa2","61464fe94ab78bd0f17d0dc0","freq","img/orange_2bandit_b2.png","70","70","test","1","28","28","2","",""
"null","816749","pSARL_v2","pSARL_v2fg4ovwa2","61464fe94ab78bd0f17d0dc0","freq_resp","img/orange_2bandit_b.png","70","70","test","","","","2","",""
"null","816940","pSARL_v2","pSARL_v2fg4ovwa2","61464fe94ab78bd0f17d0dc0","fixation","img/fixation.png","null","","test","","","","","",""
"360.4000000022352","817340","pSARL_v2","pSARL_v2fg4ovwa2","61464fe94ab78bd0f17d0dc0","infreq","img/green_2bandit_b2.png","70","68","test","0","29","29","2","",""
"null","817821","pSARL_v2","pSARL_v2fg4ovwa2","61464fe94ab78bd0f17d0dc0","infreq_resp","img/green_2bandit_b.png","70","68","test","","","","2","",""
"null","818013","pSARL_v2","pSARL_v2fg4ovwa2","61464fe94ab78bd0f17d0dc0","fixation","img/fixation.png","null","","test","","","","","",""
"330.3999999985099","818383","pSARL_v2","pSARL_v2fg4ovwa2","61464fe94ab78bd0f17d0dc0","freq","img/orange_2bandit_b2.png","70","70","test","1","30","30","2","",""
"null","818901","pSARL_v2","pSARL_v2fg4ovwa2","61464fe94ab78bd0f17d0dc0","freq_resp","img/orange_2bandit_b.png","70","70","test","","","","2","",""
"null","819093","pSARL_v2","pSARL_v2fg4ovwa2","61464fe94ab78bd0f17d0dc0","fixation","img/fixation.png","null","","test","","","","","",""
"370.70000000298023","819502","pSARL_v2","pSARL_v2fg4ovwa2","61464fe94ab78bd0f17d0dc0","freq","img/orange_2bandit_b2.png","70","70","test","1","31","31","2","",""
"null","819972","pSARL_v2","pSARL_v2fg4ovwa2","61464fe94ab78bd0f17d0dc0","freq_resp","img/orange_2bandit_b.png","70","70","test","","","","2","",""
"null","820165","pSARL_v2","pSARL_v2fg4ovwa2","61464fe94ab78bd0f17d0dc0","fixation","img/fixation.png","null","","test","","","","","",""
"363.0999999977648","820570","pSARL_v2","pSARL_v2fg4ovwa2","61464fe94ab78bd0f17d0dc0","freq","img/orange_2bandit_b2.png","70","70","test","1","32","32","2","",""
"null","821053","pSARL_v2","pSARL_v2fg4ovwa2","61464fe94ab78bd0f17d0dc0","freq_resp","img/orange_2bandit_b.png","70","70","test","","","","2","",""
"null","821244","pSARL_v2","pSARL_v2fg4ovwa2","61464fe94ab78bd0f17d0dc0","fixation","img/fixation.png","null","","test","","","","","",""
"378.19999999925494","821661","pSARL_v2","pSARL_v2fg4ovwa2","61464fe94ab78bd0f17d0dc0","freq","img/orange_2bandit_b2.png","70","70","test","1","33","33","2","",""
"null","822126","pSARL_v2","pSARL_v2fg4ovwa2","61464fe94ab78bd0f17d0dc0","freq_resp","img/orange_2bandit_b.png","70","70","test","","","","2","",""
"null","822317","pSARL_v2","pSARL_v2fg4ovwa2","61464fe94ab78bd0f17d0dc0","fixation","img/fixation.png","null","","test","","","","","",""
"316.80000000074506","822672","pSARL_v2","pSARL_v2fg4ovwa2","61464fe94ab78bd0f17d0dc0","freq","img/orange_2bandit_b2.png","70","70","test","1","34","34","2","",""
"null","823196","pSARL_v2","pSARL_v2fg4ovwa2","61464fe94ab78bd0f17d0dc0","freq_resp","img/orange_2bandit_b.png","70","70","test","","","","2","",""
"null","823389","pSARL_v2","pSARL_v2fg4ovwa2","61464fe94ab78bd0f17d0dc0","fixation","img/fixation.png","null","","test","","","","","",""
"351.69999999925494","823780","pSARL_v2","pSARL_v2fg4ovwa2","61464fe94ab78bd0f17d0dc0","freq","img/orange_2bandit_b2.png","70","70","test","1","35","35","2","",""
"null","824269","pSARL_v2","pSARL_v2fg4ovwa2","61464fe94ab78bd0f17d0dc0","freq_resp","img/orange_2bandit_b.png","70","70","test","","","","2","",""
"null","824461","pSARL_v2","pSARL_v2fg4ovwa2","61464fe94ab78bd0f17d0dc0","fixation","img/fixation.png","null","","test","","","","","",""
"374.5","824874","pSARL_v2","pSARL_v2fg4ovwa2","61464fe94ab78bd0f17d0dc0","freq","img/orange_2bandit_b2.png","70","70","test","1","36","36","2","",""
"null","825340","pSARL_v2","pSARL_v2fg4ovwa2","61464fe94ab78bd0f17d0dc0","freq_resp","img/orange_2bandit_b.png","70","70","test","","","","2","",""
"null","825533","pSARL_v2","pSARL_v2fg4ovwa2","61464fe94ab78bd0f17d0dc0","fixation","img/fixation.png","null","","test","","","","","",""
"311.80000000074506","825859","pSARL_v2","pSARL_v2fg4ovwa2","61464fe94ab78bd0f17d0dc0","freq","img/orange_2bandit_b2.png","70","70","test","1","37","37","2","",""
"null","826366","pSARL_v2","pSARL_v2fg4ovwa2","61464fe94ab78bd0f17d0dc0","freq_resp","img/orange_2bandit_b.png","70","70","test","","","","2","",""
"null","826557","pSARL_v2","pSARL_v2fg4ovwa2","61464fe94ab78bd0f17d0dc0","fixation","img/fixation.png","null","","test","","","","","",""
"356","826956","pSARL_v2","pSARL_v2fg4ovwa2","61464fe94ab78bd0f17d0dc0","freq","img/orange_2bandit_b2.png","70","70","test","1","38","38","2","",""
"null","827445","pSARL_v2","pSARL_v2fg4ovwa2","61464fe94ab78bd0f17d0dc0","freq_resp","img/orange_2bandit_b.png","70","70","test","","","","2","",""
"null","827637","pSARL_v2","pSARL_v2fg4ovwa2","61464fe94ab78bd0f17d0dc0","fixation","img/fixation.png","null","","test","","","","","",""
"472.1000000014901","828150","pSARL_v2","pSARL_v2fg4ovwa2","61464fe94ab78bd0f17d0dc0","infreq","img/green_2bandit_b2.png","68","68","test","1","39","39","2","",""
"null","828525","pSARL_v2","pSARL_v2fg4ovwa2","61464fe94ab78bd0f17d0dc0","infreq_resp","img/green_2bandit_b.png","68","68","test","","","","2","",""
"null","828716","pSARL_v2","pSARL_v2fg4ovwa2","61464fe94ab78bd0f17d0dc0","fixation","img/fixation.png","null","","test","","","","","",""
"372.80000000074506","829128","pSARL_v2","pSARL_v2fg4ovwa2","61464fe94ab78bd0f17d0dc0","freq","img/orange_2bandit_b2.png","70","70","test","1","40","40","2","",""
"null","829598","pSARL_v2","pSARL_v2fg4ovwa2","61464fe94ab78bd0f17d0dc0","freq_resp","img/orange_2bandit_b.png","70","70","test","","","","2","",""
"null","829789","pSARL_v2","pSARL_v2fg4ovwa2","61464fe94ab78bd0f17d0dc0","fixation","img/fixation.png","null","","test","","","","","",""
"338.69999999925494","830168","pSARL_v2","pSARL_v2fg4ovwa2","61464fe94ab78bd0f17d0dc0","freq","img/orange_2bandit_b2.png","70","70","test","1","41","41","2","",""
"null","830676","pSARL_v2","pSARL_v2fg4ovwa2","61464fe94ab78bd0f17d0dc0","freq_resp","img/orange_2bandit_b.png","70","70","test","","","","2","",""
"null","830867","pSARL_v2","pSARL_v2fg4ovwa2","61464fe94ab78bd0f17d0dc0","fixation","img/fixation.png","null","","test","","","","","",""
"319.29999999701977","831226","pSARL_v2","pSARL_v2fg4ovwa2","61464fe94ab78bd0f17d0dc0","freq","img/orange_2bandit_b2.png","70","70","test","1","42","42","2","",""
"null","831749","pSARL_v2","pSARL_v2fg4ovwa2","61464fe94ab78bd0f17d0dc0","freq_resp","img/orange_2bandit_b.png","70","70","test","","","","2","",""
"null","831940","pSARL_v2","pSARL_v2fg4ovwa2","61464fe94ab78bd0f17d0dc0","fixation","img/fixation.png","null","","test","","","","","",""
"218.39999999850988","832198","pSARL_v2","pSARL_v2fg4ovwa2","61464fe94ab78bd0f17d0dc0","freq","img/orange_2bandit_b2.png","70","70","test","1","43","43","2","",""
"null","832821","pSARL_v2","pSARL_v2fg4ovwa2","61464fe94ab78bd0f17d0dc0","freq_resp","img/orange_2bandit_b.png","70","70","test","","","","2","",""
"null","833012","pSARL_v2","pSARL_v2fg4ovwa2","61464fe94ab78bd0f17d0dc0","fixation","img/fixation.png","null","","test","","","","","",""
"132.39999999850988","833183","pSARL_v2","pSARL_v2fg4ovwa2","61464fe94ab78bd0f17d0dc0","freq","img/orange_2bandit_b2.png","70","70","test","1","44","44","2","",""
"null","833892","pSARL_v2","pSARL_v2fg4ovwa2","61464fe94ab78bd0f17d0dc0","freq_resp","img/orange_2bandit_b.png","70","70","test","","","","2","",""
"null","834085","pSARL_v2","pSARL_v2fg4ovwa2","61464fe94ab78bd0f17d0dc0","fixation","img/fixation.png","null","","test","","","","","",""
"283.80000000074506","834408","pSARL_v2","pSARL_v2fg4ovwa2","61464fe94ab78bd0f17d0dc0","freq","img/orange_2bandit_b2.png","70","70","test","1","45","45","2","",""
"null","834965","pSARL_v2","pSARL_v2fg4ovwa2","61464fe94ab78bd0f17d0dc0","freq_resp","img/orange_2bandit_b.png","70","70","test","","","","2","",""
"null","835158","pSARL_v2","pSARL_v2fg4ovwa2","61464fe94ab78bd0f17d0dc0","fixation","img/fixation.png","null","","test","","","","","",""
"486.69999999925494","835684","pSARL_v2","pSARL_v2fg4ovwa2","61464fe94ab78bd0f17d0dc0","reward","img/slot.png","74","","test","","","","","",""
"null","836478","pSARL_v2","pSARL_v2fg4ovwa2","61464fe94ab78bd0f17d0dc0","points","<div class=""verylowPoints""> -11 </div>","null","na","test","","","","2","-11","1"
"495.1000000014901","837012","pSARL_v2","pSARL_v2fg4ovwa2","61464fe94ab78bd0f17d0dc0","freq","img/orange_2bandit_b2.png","70","70","test","1","46","46","3","",""
"null","837358","pSARL_v2","pSARL_v2fg4ovwa2","61464fe94ab78bd0f17d0dc0","freq_resp","img/orange_2bandit_b.png","70","70","test","","","","3","",""
"null","837548","pSARL_v2","pSARL_v2fg4ovwa2","61464fe94ab78bd0f17d0dc0","fixation","img/fixation.png","null","","test","","","","","",""
"327.9000000022352","837917","pSARL_v2","pSARL_v2fg4ovwa2","61464fe94ab78bd0f17d0dc0","freq","img/orange_2bandit_b2.png","70","70","test","1","47","47","3","",""
"null","838437","pSARL_v2","pSARL_v2fg4ovwa2","61464fe94ab78bd0f17d0dc0","freq_resp","img/orange_2bandit_b.png","70","70","test","","","","3","",""
"null","838629","pSARL_v2","pSARL_v2fg4ovwa2","61464fe94ab78bd0f17d0dc0","fixation","img/fixation.png","null","","test","","","","","",""
"272","838941","pSARL_v2","pSARL_v2fg4ovwa2","61464fe94ab78bd0f17d0dc0","freq","img/orange_2bandit_b2.png","70","70","test","1","48","48","3","",""
"null","839517","pSARL_v2","pSARL_v2fg4ovwa2","61464fe94ab78bd0f17d0dc0","freq_resp","img/orange_2bandit_b.png","70","70","test","","","","3","",""
"null","839708","pSARL_v2","pSARL_v2fg4ovwa2","61464fe94ab78bd0f17d0dc0","fixation","img/fixation.png","null","","test","","","","","",""
"249.5","839997","pSARL_v2","pSARL_v2fg4ovwa2","61464fe94ab78bd0f17d0dc0","freq","img/orange_2bandit_b2.png","70","70","test","1","49","49","3","",""
"null","840595","pSARL_v2","pSARL_v2fg4ovwa2","61464fe94ab78bd0f17d0dc0","freq_resp","img/orange_2bandit_b.png","70","70","test","","","","3","",""
"null","840789","pSARL_v2","pSARL_v2fg4ovwa2","61464fe94ab78bd0f17d0dc0","fixation","img/fixation.png","null","","test","","","","","",""
"256.3999999985099","841084","pSARL_v2","pSARL_v2fg4ovwa2","61464fe94ab78bd0f17d0dc0","freq","img/orange_2bandit_b2.png","70","70","test","1","50","50","3","",""
"null","841669","pSARL_v2","pSARL_v2fg4ovwa2","61464fe94ab78bd0f17d0dc0","freq_resp","img/orange_2bandit_b.png","70","70","test","","","","3","",""
"null","841861","pSARL_v2","pSARL_v2fg4ovwa2","61464fe94ab78bd0f17d0dc0","fixation","img/fixation.png","null","","test","","","","","",""
"252.39999999850988","842154","pSARL_v2","pSARL_v2fg4ovwa2","61464fe94ab78bd0f17d0dc0","freq","img/orange_2bandit_b2.png","70","70","test","1","51","51","3","",""
"null","842750","pSARL_v2","pSARL_v2fg4ovwa2","61464fe94ab78bd0f17d0dc0","freq_resp","img/orange_2bandit_b.png","70","70","test","","","","3","",""
"null","842942","pSARL_v2","pSARL_v2fg4ovwa2","61464fe94ab78bd0f17d0dc0","fixation","img/fixation.png","null","","test","","","","","",""
"251.89999999850988","843234","pSARL_v2","pSARL_v2fg4ovwa2","61464fe94ab78bd0f17d0dc0","freq","img/orange_2bandit_b2.png","70","70","test","1","52","52","3","",""
"null","843829","pSARL_v2","pSARL_v2fg4ovwa2","61464fe94ab78bd0f17d0dc0","freq_resp","img/orange_2bandit_b.png","70","70","test","","","","3","",""
"null","844020","pSARL_v2","pSARL_v2fg4ovwa2","61464fe94ab78bd0f17d0dc0","fixation","img/fixation.png","null","","test","","","","","",""
"136.79999999701977","844196","pSARL_v2","pSARL_v2fg4ovwa2","61464fe94ab78bd0f17d0dc0","freq","img/orange_2bandit_b2.png","70","70","test","1","53","53","3","",""
"null","844900","pSARL_v2","pSARL_v2fg4ovwa2","61464fe94ab78bd0f17d0dc0","freq_resp","img/orange_2bandit_b.png","70","70","test","","","","3","",""
"null","845092","pSARL_v2","pSARL_v2fg4ovwa2","61464fe94ab78bd0f17d0dc0","fixation","img/fixation.png","null","","test","","","","","",""
"268.5","845400","pSARL_v2","pSARL_v2fg4ovwa2","61464fe94ab78bd0f17d0dc0","freq","img/orange_2bandit_b2.png","70","70","test","1","54","54","3","",""
"null","845973","pSARL_v2","pSARL_v2fg4ovwa2","61464fe94ab78bd0f17d0dc0","freq_resp","img/orange_2bandit_b.png","70","70","test","","","","3","",""
"null","846166","pSARL_v2","pSARL_v2fg4ovwa2","61464fe94ab78bd0f17d0dc0","fixation","img/fixation.png","null","","test","","","","","",""
"271.80000000074506","846475","pSARL_v2","pSARL_v2fg4ovwa2","61464fe94ab78bd0f17d0dc0","freq","img/orange_2bandit_b2.png","70","70","test","1","55","55","3","",""
"null","847045","pSARL_v2","pSARL_v2fg4ovwa2","61464fe94ab78bd0f17d0dc0","freq_resp","img/orange_2bandit_b.png","70","70","test","","","","3","",""
"null","847239","pSARL_v2","pSARL_v2fg4ovwa2","61464fe94ab78bd0f17d0dc0","fixation","img/fixation.png","null","","test","","","","","",""
"298.9000000022352","847577","pSARL_v2","pSARL_v2fg4ovwa2","61464fe94ab78bd0f17d0dc0","infreq","img/green_2bandit_b2.png","70","68","test","0","56","56","3","",""
"null","848124","pSARL_v2","pSARL_v2fg4ovwa2","61464fe94ab78bd0f17d0dc0","infreq_resp","img/green_2bandit_b.png","70","68","test","","","","3","",""
"null","848317","pSARL_v2","pSARL_v2fg4ovwa2","61464fe94ab78bd0f17d0dc0","fixation","img/fixation.png","null","","test","","","","","",""
"371.19999999925494","848729","pSARL_v2","pSARL_v2fg4ovwa2","61464fe94ab78bd0f17d0dc0","freq","img/orange_2bandit_b2.png","70","70","test","1","57","57","3","",""
"null","849204","pSARL_v2","pSARL_v2fg4ovwa2","61464fe94ab78bd0f17d0dc0","freq_resp","img/orange_2bandit_b.png","70","70","test","","","","3","",""
"null","849396","pSARL_v2","pSARL_v2fg4ovwa2","61464fe94ab78bd0f17d0dc0","fixation","img/fixation.png","null","","test","","","","","",""
"376.8999999985099","849812","pSARL_v2","pSARL_v2fg4ovwa2","61464fe94ab78bd0f17d0dc0","freq","img/orange_2bandit_b2.png","70","70","test","1","58","58","3","",""
"null","850277","pSARL_v2","pSARL_v2fg4ovwa2","61464fe94ab78bd0f17d0dc0","freq_resp","img/orange_2bandit_b.png","70","70","test","","","","3","",""
"null","850472","pSARL_v2","pSARL_v2fg4ovwa2","61464fe94ab78bd0f17d0dc0","fixation","img/fixation.png","null","","test","","","","","",""
"335.5999999977648","850846","pSARL_v2","pSARL_v2fg4ovwa2","61464fe94ab78bd0f17d0dc0","freq","img/orange_2bandit_b2.png","70","70","test","1","59","59","3","",""
"null","851358","pSARL_v2","pSARL_v2fg4ovwa2","61464fe94ab78bd0f17d0dc0","freq_resp","img/orange_2bandit_b.png","70","70","test","","","","3","",""
"null","851549","pSARL_v2","pSARL_v2fg4ovwa2","61464fe94ab78bd0f17d0dc0","fixation","img/fixation.png","null","","test","","","","","",""
"353.6000000014901","851918","pSARL_v2","pSARL_v2fg4ovwa2","61464fe94ab78bd0f17d0dc0","freq","img/orange_2bandit_b2.png","70","70","test","1","60","60","3","",""
"null","852405","pSARL_v2","pSARL_v2fg4ovwa2","61464fe94ab78bd0f17d0dc0","freq_resp","img/orange_2bandit_b.png","70","70","test","","","","3","",""
"null","852596","pSARL_v2","pSARL_v2fg4ovwa2","61464fe94ab78bd0f17d0dc0","fixation","img/fixation.png","null","","test","","","","","",""
"441.6000000014901","853077","pSARL_v2","pSARL_v2fg4ovwa2","61464fe94ab78bd0f17d0dc0","infreq","img/green_2bandit_b2.png","68","68","test","1","61","61","3","",""
"null","853477","pSARL_v2","pSARL_v2fg4ovwa2","61464fe94ab78bd0f17d0dc0","infreq_resp","img/green_2bandit_b.png","68","68","test","","","","3","",""
"null","853669","pSARL_v2","pSARL_v2fg4ovwa2","61464fe94ab78bd0f17d0dc0","fixation","img/fixation.png","null","","test","","","","","",""
"386","854094","pSARL_v2","pSARL_v2fg4ovwa2","61464fe94ab78bd0f17d0dc0","freq","img/orange_2bandit_b2.png","70","70","test","1","62","62","3","",""
"null","854557","pSARL_v2","pSARL_v2fg4ovwa2","61464fe94ab78bd0f17d0dc0","freq_resp","img/orange_2bandit_b.png","70","70","test","","","","3","",""
"null","854749","pSARL_v2","pSARL_v2fg4ovwa2","61464fe94ab78bd0f17d0dc0","fixation","img/fixation.png","null","","test","","","","","",""
"272.69999999925494","855061","pSARL_v2","pSARL_v2fg4ovwa2","61464fe94ab78bd0f17d0dc0","freq","img/orange_2bandit_b2.png","70","70","test","1","63","63","3","",""
"null","855629","pSARL_v2","pSARL_v2fg4ovwa2","61464fe94ab78bd0f17d0dc0","freq_resp","img/orange_2bandit_b.png","70","70","test","","","","3","",""
"null","855821","pSARL_v2","pSARL_v2fg4ovwa2","61464fe94ab78bd0f17d0dc0","fixation","img/fixation.png","null","","test","","","","","",""
"279.19999999925494","856139","pSARL_v2","pSARL_v2fg4ovwa2","61464fe94ab78bd0f17d0dc0","freq","img/orange_2bandit_b2.png","70","70","test","1","64","64","3","",""
"null","856701","pSARL_v2","pSARL_v2fg4ovwa2","61464fe94ab78bd0f17d0dc0","freq_resp","img/orange_2bandit_b.png","70","70","test","","","","3","",""
"null","856893","pSARL_v2","pSARL_v2fg4ovwa2","61464fe94ab78bd0f17d0dc0","fixation","img/fixation.png","null","","test","","","","","",""
"277.80000000074506","857209","pSARL_v2","pSARL_v2fg4ovwa2","61464fe94ab78bd0f17d0dc0","freq","img/orange_2bandit_b2.png","70","70","test","1","65","65","3","",""
"null","857773","pSARL_v2","pSARL_v2fg4ovwa2","61464fe94ab78bd0f17d0dc0","freq_resp","img/orange_2bandit_b.png","70","70","test","","","","3","",""
"null","857965","pSARL_v2","pSARL_v2fg4ovwa2","61464fe94ab78bd0f17d0dc0","fixation","img/fixation.png","null","","test","","","","","",""
"302.19999999925494","858306","pSARL_v2","pSARL_v2fg4ovwa2","61464fe94ab78bd0f17d0dc0","freq","img/orange_2bandit_b2.png","70","70","test","1","66","66","3","",""
"null","858845","pSARL_v2","pSARL_v2fg4ovwa2","61464fe94ab78bd0f17d0dc0","freq_resp","img/orange_2bandit_b.png","70","70","test","","","","3","",""
"null","859036","pSARL_v2","pSARL_v2fg4ovwa2","61464fe94ab78bd0f17d0dc0","fixation","img/fixation.png","null","","test","","","","","",""
"380.8999999985099","859457","pSARL_v2","pSARL_v2fg4ovwa2","61464fe94ab78bd0f17d0dc0","freq","img/orange_2bandit_b2.png","70","70","test","1","67","67","3","",""
"null","859917","pSARL_v2","pSARL_v2fg4ovwa2","61464fe94ab78bd0f17d0dc0","freq_resp","img/orange_2bandit_b.png","70","70","test","","","","3","",""
"null","860109","pSARL_v2","pSARL_v2fg4ovwa2","61464fe94ab78bd0f17d0dc0","fixation","img/fixation.png","null","","test","","","","","",""
"373.5","860521","pSARL_v2","pSARL_v2fg4ovwa2","61464fe94ab78bd0f17d0dc0","freq","img/orange_2bandit_b2.png","70","70","test","1","68","68","3","",""
"null","860989","pSARL_v2","pSARL_v2fg4ovwa2","61464fe94ab78bd0f17d0dc0","freq_resp","img/orange_2bandit_b.png","70","70","test","","","","3","",""
"null","861181","pSARL_v2","pSARL_v2fg4ovwa2","61464fe94ab78bd0f17d0dc0","fixation","img/fixation.png","null","","test","","","","","",""
"454.19999999925494","861675","pSARL_v2","pSARL_v2fg4ovwa2","61464fe94ab78bd0f17d0dc0","infreq","img/green_2bandit_b2.png","68","68","test","1","69","69","3","",""
"null","862061","pSARL_v2","pSARL_v2fg4ovwa2","61464fe94ab78bd0f17d0dc0","infreq_resp","img/green_2bandit_b.png","68","68","test","","","","3","",""
"null","862253","pSARL_v2","pSARL_v2fg4ovwa2","61464fe94ab78bd0f17d0dc0","fixation","img/fixation.png","null","","test","","","","","",""
"281","862573","pSARL_v2","pSARL_v2fg4ovwa2","61464fe94ab78bd0f17d0dc0","freq","img/orange_2bandit_b2.png","70","70","test","1","70","70","3","",""
"null","863133","pSARL_v2","pSARL_v2fg4ovwa2","61464fe94ab78bd0f17d0dc0","freq_resp","img/orange_2bandit_b.png","70","70","test","","","","3","",""
"null","863325","pSARL_v2","pSARL_v2fg4ovwa2","61464fe94ab78bd0f17d0dc0","fixation","img/fixation.png","null","","test","","","","","",""
"493.8999999985099","863857","pSARL_v2","pSARL_v2fg4ovwa2","61464fe94ab78bd0f17d0dc0","reward","img/slot.png","74","","test","","","","","",""
"null","864655","pSARL_v2","pSARL_v2fg4ovwa2","61464fe94ab78bd0f17d0dc0","points","<div class=""verylowPoints""> -7 </div>","null","na","test","","","","3","-7","2"
"529.2999999970198","865223","pSARL_v2","pSARL_v2fg4ovwa2","61464fe94ab78bd0f17d0dc0","freq","img/orange_2bandit_b2.png","70","70","test","1","71","71","4","",""
"null","865540","pSARL_v2","pSARL_v2fg4ovwa2","61464fe94ab78bd0f17d0dc0","freq_resp","img/orange_2bandit_b.png","70","70","test","","","","4","",""
"null","865733","pSARL_v2","pSARL_v2fg4ovwa2","61464fe94ab78bd0f17d0dc0","fixation","img/fixation.png","null","","test","","","","","",""
"425.30000000074506","866199","pSARL_v2","pSARL_v2fg4ovwa2","61464fe94ab78bd0f17d0dc0","freq","img/orange_2bandit_b2.png","70","70","test","1","72","72","4","",""
"null","866624","pSARL_v2","pSARL_v2fg4ovwa2","61464fe94ab78bd0f17d0dc0","freq_resp","img/orange_2bandit_b.png","70","70","test","","","","4","",""
"null","866821","pSARL_v2","pSARL_v2fg4ovwa2","61464fe94ab78bd0f17d0dc0","fixation","img/fixation.png","null","","test","","","","","",""
"364.0999999977648","867224","pSARL_v2","pSARL_v2fg4ovwa2","61464fe94ab78bd0f17d0dc0","freq","img/orange_2bandit_b2.png","70","70","test","1","73","73","4","",""
"null","867701","pSARL_v2","pSARL_v2fg4ovwa2","61464fe94ab78bd0f17d0dc0","freq_resp","img/orange_2bandit_b.png","70","70","test","","","","4","",""
"null","867892","pSARL_v2","pSARL_v2fg4ovwa2","61464fe94ab78bd0f17d0dc0","fixation","img/fixation.png","null","","test","","","","","",""
"318.5999999977648","868250","pSARL_v2","pSARL_v2fg4ovwa2","61464fe94ab78bd0f17d0dc0","freq","img/orange_2bandit_b2.png","70","70","test","1","74","74","4","",""
"null","868773","pSARL_v2","pSARL_v2fg4ovwa2","61464fe94ab78bd0f17d0dc0","freq_resp","img/orange_2bandit_b.png","70","70","test","","","","4","",""
"null","868965","pSARL_v2","pSARL_v2fg4ovwa2","61464fe94ab78bd0f17d0dc0","fixation","img/fixation.png","null","","test","","","","","",""
"309.70000000298023","869314","pSARL_v2","pSARL_v2fg4ovwa2","61464fe94ab78bd0f17d0dc0","freq","img/orange_2bandit_b2.png","70","70","test","1","75","75","4","",""
"null","869845","pSARL_v2","pSARL_v2fg4ovwa2","61464fe94ab78bd0f17d0dc0","freq_resp","img/orange_2bandit_b.png","70","70","test","","","","4","",""
"null","870037","pSARL_v2","pSARL_v2fg4ovwa2","61464fe94ab78bd0f17d0dc0","fixation","img/fixation.png","null","","test","","","","","",""
"287.4000000022352","870364","pSARL_v2","pSARL_v2fg4ovwa2","61464fe94ab78bd0f17d0dc0","freq","img/orange_2bandit_b2.png","70","70","test","1","76","76","4","",""
"null","870916","pSARL_v2","pSARL_v2fg4ovwa2","61464fe94ab78bd0f17d0dc0","freq_resp","img/orange_2bandit_b.png","70","70","test","","","","4","",""
"null","871109","pSARL_v2","pSARL_v2fg4ovwa2","61464fe94ab78bd0f17d0dc0","fixation","img/fixation.png","null","","test","","","","","",""
"283.30000000074506","871431","pSARL_v2","pSARL_v2fg4ovwa2","61464fe94ab78bd0f17d0dc0","freq","img/orange_2bandit_b2.png","70","70","test","1","77","77","4","",""
"null","871989","pSARL_v2","pSARL_v2fg4ovwa2","61464fe94ab78bd0f17d0dc0","freq_resp","img/orange_2bandit_b.png","70","70","test","","","","4","",""
"null","872181","pSARL_v2","pSARL_v2fg4ovwa2","61464fe94ab78bd0f17d0dc0","fixation","img/fixation.png","null","","test","","","","","",""
"386.29999999701977","872607","pSARL_v2","pSARL_v2fg4ovwa2","61464fe94ab78bd0f17d0dc0","infreq","img/green_2bandit_b2.png","68","68","test","1","78","78","4","",""
"null","873069","pSARL_v2","pSARL_v2fg4ovwa2","61464fe94ab78bd0f17d0dc0","infreq_resp","img/green_2bandit_b.png","68","68","test","","","","4","",""
"null","873261","pSARL_v2","pSARL_v2fg4ovwa2","61464fe94ab78bd0f17d0dc0","fixation","img/fixation.png","null","","test","","","","","",""
"356.6000000014901","873657","pSARL_v2","pSARL_v2fg4ovwa2","61464fe94ab78bd0f17d0dc0","freq","img/orange_2bandit_b2.png","70","70","test","1","79","79","4","",""
"null","874141","pSARL_v2","pSARL_v2fg4ovwa2","61464fe94ab78bd0f17d0dc0","freq_resp","img/orange_2bandit_b.png","70","70","test","","","","4","",""
"null","874333","pSARL_v2","pSARL_v2fg4ovwa2","61464fe94ab78bd0f17d0dc0","fixation","img/fixation.png","null","","test","","","","","",""
"377","874749","pSARL_v2","pSARL_v2fg4ovwa2","61464fe94ab78bd0f17d0dc0","infreq","img/green_2bandit_b2.png","68","68","test","1","80","80","4","",""
"null","875221","pSARL_v2","pSARL_v2fg4ovwa2","61464fe94ab78bd0f17d0dc0","infreq_resp","img/green_2bandit_b.png","68","68","test","","","","4","",""
"null","875413","pSARL_v2","pSARL_v2fg4ovwa2","61464fe94ab78bd0f17d0dc0","fixation","img/fixation.png","null","","test","","","","","",""
"384.80000000074506","875837","pSARL_v2","pSARL_v2fg4ovwa2","61464fe94ab78bd0f17d0dc0","freq","img/orange_2bandit_b2.png","70","70","test","1","81","81","4","",""
"null","876301","pSARL_v2","pSARL_v2fg4ovwa2","61464fe94ab78bd0f17d0dc0","freq_resp","img/orange_2bandit_b.png","70","70","test","","","","4","",""
"null","876493","pSARL_v2","pSARL_v2fg4ovwa2","61464fe94ab78bd0f17d0dc0","fixation","img/fixation.png","null","","test","","","","","",""
"309.5","876844","pSARL_v2","pSARL_v2fg4ovwa2","61464fe94ab78bd0f17d0dc0","freq","img/orange_2bandit_b2.png","70","70","test","1","82","82","4","",""
"null","877381","pSARL_v2","pSARL_v2fg4ovwa2","61464fe94ab78bd0f17d0dc0","freq_resp","img/orange_2bandit_b.png","70","70","test","","","","4","",""
"null","877573","pSARL_v2","pSARL_v2fg4ovwa2","61464fe94ab78bd0f17d0dc0","fixation","img/fixation.png","null","","test","","","","","",""
"415.6000000014901","878028","pSARL_v2","pSARL_v2fg4ovwa2","61464fe94ab78bd0f17d0dc0","freq","img/orange_2bandit_b2.png","70","70","test","1","83","83","4","",""
"null","878461","pSARL_v2","pSARL_v2fg4ovwa2","61464fe94ab78bd0f17d0dc0","freq_resp","img/orange_2bandit_b.png","70","70","test","","","","4","",""
"null","878654","pSARL_v2","pSARL_v2fg4ovwa2","61464fe94ab78bd0f17d0dc0","fixation","img/fixation.png","null","","test","","","","","",""
"351.1000000014901","879045","pSARL_v2","pSARL_v2fg4ovwa2","61464fe94ab78bd0f17d0dc0","freq","img/orange_2bandit_b2.png","70","70","test","1","84","84","4","",""
"null","879541","pSARL_v2","pSARL_v2fg4ovwa2","61464fe94ab78bd0f17d0dc0","freq_resp","img/orange_2bandit_b.png","70","70","test","","","","4","",""
"null","879733","pSARL_v2","pSARL_v2fg4ovwa2","61464fe94ab78bd0f17d0dc0","fixation","img/fixation.png","null","","test","","","","","",""
"277.5999999977648","880050","pSARL_v2","pSARL_v2fg4ovwa2","61464fe94ab78bd0f17d0dc0","freq","img/orange_2bandit_b2.png","70","70","test","1","85","85","4","",""
"null","880613","pSARL_v2","pSARL_v2fg4ovwa2","61464fe94ab78bd0f17d0dc0","freq_resp","img/orange_2bandit_b.png","70","70","test","","","","4","",""
"null","880806","pSARL_v2","pSARL_v2fg4ovwa2","61464fe94ab78bd0f17d0dc0","fixation","img/fixation.png","null","","test","","","","","",""
"287.6000000014901","881133","pSARL_v2","pSARL_v2fg4ovwa2","61464fe94ab78bd0f17d0dc0","freq","img/orange_2bandit_b2.png","70","70","test","1","86","86","4","",""
"null","881696","pSARL_v2","pSARL_v2fg4ovwa2","61464fe94ab78bd0f17d0dc0","freq_resp","img/orange_2bandit_b.png","70","70","test","","","","4","",""
"null","881893","pSARL_v2","pSARL_v2fg4ovwa2","61464fe94ab78bd0f17d0dc0","fixation","img/fixation.png","null","","test","","","","","",""
"301.20000000298023","882235","pSARL_v2","pSARL_v2fg4ovwa2","61464fe94ab78bd0f17d0dc0","freq","img/orange_2bandit_b2.png","70","70","test","1","87","87","4","",""
"null","882781","pSARL_v2","pSARL_v2fg4ovwa2","61464fe94ab78bd0f17d0dc0","freq_resp","img/orange_2bandit_b.png","70","70","test","","","","4","",""
"null","882973","pSARL_v2","pSARL_v2fg4ovwa2","61464fe94ab78bd0f17d0dc0","fixation","img/fixation.png","null","","test","","","","","",""
"249.80000000074506","883262","pSARL_v2","pSARL_v2fg4ovwa2","61464fe94ab78bd0f17d0dc0","freq","img/orange_2bandit_b2.png","70","70","test","1","88","88","4","",""
"null","883862","pSARL_v2","pSARL_v2fg4ovwa2","61464fe94ab78bd0f17d0dc0","freq_resp","img/orange_2bandit_b.png","70","70","test","","","","4","",""
"null","884053","pSARL_v2","pSARL_v2fg4ovwa2","61464fe94ab78bd0f17d0dc0","fixation","img/fixation.png","null","","test","","","","","",""
"299.80000000074506","884392","pSARL_v2","pSARL_v2fg4ovwa2","61464fe94ab78bd0f17d0dc0","freq","img/orange_2bandit_b2.png","70","70","test","1","89","89","4","",""
"null","884942","pSARL_v2","pSARL_v2fg4ovwa2","61464fe94ab78bd0f17d0dc0","freq_resp","img/orange_2bandit_b.png","70","70","test","","","","4","",""
"null","885133","pSARL_v2","pSARL_v2fg4ovwa2","61464fe94ab78bd0f17d0dc0","fixation","img/fixation.png","null","","test","","","","","",""
"1120.2000000029802","886291","pSARL_v2","pSARL_v2fg4ovwa2","61464fe94ab78bd0f17d0dc0","reward","img/slot.png","74","","test","","","","","",""
"null","887063","pSARL_v2","pSARL_v2fg4ovwa2","61464fe94ab78bd0f17d0dc0","points","<div class=""verylowPoints""> -3 </div>","null","na","test","","","","4","-3","3"
"604.6000000014901","887707","pSARL_v2","pSARL_v2fg4ovwa2","61464fe94ab78bd0f17d0dc0","freq","img/orange_2bandit_b2.png","70","70","test","1","90","90","5","",""
"null","887949","pSARL_v2","pSARL_v2fg4ovwa2","61464fe94ab78bd0f17d0dc0","freq_resp","img/orange_2bandit_b.png","70","70","test","","","","5","",""
"null","888140","pSARL_v2","pSARL_v2fg4ovwa2","61464fe94ab78bd0f17d0dc0","fixation","img/fixation.png","null","","test","","","","","",""
"363.29999999701977","888543","pSARL_v2","pSARL_v2fg4ovwa2","61464fe94ab78bd0f17d0dc0","freq","img/orange_2bandit_b2.png","70","70","test","1","91","91","5","",""
"null","889021","pSARL_v2","pSARL_v2fg4ovwa2","61464fe94ab78bd0f17d0dc0","freq_resp","img/orange_2bandit_b.png","70","70","test","","","","5","",""
"null","889213","pSARL_v2","pSARL_v2fg4ovwa2","61464fe94ab78bd0f17d0dc0","fixation","img/fixation.png","null","","test","","","","","",""
"311.30000000074506","889563","pSARL_v2","pSARL_v2fg4ovwa2","61464fe94ab78bd0f17d0dc0","freq","img/orange_2bandit_b2.png","70","70","test","1","92","92","5","",""
"null","890093","pSARL_v2","pSARL_v2fg4ovwa2","61464fe94ab78bd0f17d0dc0","freq_resp","img/orange_2bandit_b.png","70","70","test","","","","5","",""
"null","890285","pSARL_v2","pSARL_v2fg4ovwa2","61464fe94ab78bd0f17d0dc0","fixation","img/fixation.png","null","","test","","","","","",""
"406.1000000014901","890730","pSARL_v2","pSARL_v2fg4ovwa2","61464fe94ab78bd0f17d0dc0","infreq","img/green_2bandit_b2.png","68","68","test","1","93","93","5","",""
"null","891165","pSARL_v2","pSARL_v2fg4ovwa2","61464fe94ab78bd0f17d0dc0","infreq_resp","img/green_2bandit_b.png","68","68","test","","","","5","",""
"null","891359","pSARL_v2","pSARL_v2fg4ovwa2","61464fe94ab78bd0f17d0dc0","fixation","img/fixation.png","null","","test","","","","","",""
"307.5","891707","pSARL_v2","pSARL_v2fg4ovwa2","61464fe94ab78bd0f17d0dc0","freq","img/orange_2bandit_b2.png","70","70","test","1","94","94","5","",""
"null","892245","pSARL_v2","pSARL_v2fg4ovwa2","61464fe94ab78bd0f17d0dc0","freq_resp","img/orange_2bandit_b.png","70","70","test","","","","5","",""
"null","892437","pSARL_v2","pSARL_v2fg4ovwa2","61464fe94ab78bd0f17d0dc0","fixation","img/fixation.png","null","","test","","","","","",""
"288.80000000074506","892765","pSARL_v2","pSARL_v2fg4ovwa2","61464fe94ab78bd0f17d0dc0","freq","img/orange_2bandit_b2.png","70","70","test","1","95","95","5","",""
"null","893317","pSARL_v2","pSARL_v2fg4ovwa2","61464fe94ab78bd0f17d0dc0","freq_resp","img/orange_2bandit_b.png","70","70","test","","","","5","",""
"null","893509","pSARL_v2","pSARL_v2fg4ovwa2","61464fe94ab78bd0f17d0dc0","fixation","img/fixation.png","null","","test","","","","","",""
"303.0999999977648","893852","pSARL_v2","pSARL_v2fg4ovwa2","61464fe94ab78bd0f17d0dc0","freq","img/orange_2bandit_b2.png","70","70","test","1","96","96","5","",""
"null","894397","pSARL_v2","pSARL_v2fg4ovwa2","61464fe94ab78bd0f17d0dc0","freq_resp","img/orange_2bandit_b.png","70","70","test","","","","5","",""
"null","894589","pSARL_v2","pSARL_v2fg4ovwa2","61464fe94ab78bd0f17d0dc0","fixation","img/fixation.png","null","","test","","","","","",""
"323.3999999985099","894951","pSARL_v2","pSARL_v2fg4ovwa2","61464fe94ab78bd0f17d0dc0","freq","img/orange_2bandit_b2.png","70","70","test","1","97","97","5","",""
"null","895468","pSARL_v2","pSARL_v2fg4ovwa2","61464fe94ab78bd0f17d0dc0","freq_resp","img/orange_2bandit_b.png","70","70","test","","","","5","",""
"null","895661","pSARL_v2","pSARL_v2fg4ovwa2","61464fe94ab78bd0f17d0dc0","fixation","img/fixation.png","null","","test","","","","","",""
"271.80000000074506","895972","pSARL_v2","pSARL_v2fg4ovwa2","61464fe94ab78bd0f17d0dc0","freq","img/orange_2bandit_b2.png","70","70","test","1","98","98","5","",""
"null","896541","pSARL_v2","pSARL_v2fg4ovwa2","61464fe94ab78bd0f17d0dc0","freq_resp","img/orange_2bandit_b.png","70","70","test","","","","5","",""
"null","896733","pSARL_v2","pSARL_v2fg4ovwa2","61464fe94ab78bd0f17d0dc0","fixation","img/fixation.png","null","","test","","","","","",""
"139.19999999925494","896934","pSARL_v2","pSARL_v2fg4ovwa2","61464fe94ab78bd0f17d0dc0","freq","img/orange_2bandit_b2.png","70","70","test","1","99","99","5","",""
"null","897637","pSARL_v2","pSARL_v2fg4ovwa2","61464fe94ab78bd0f17d0dc0","freq_resp","img/orange_2bandit_b.png","70","70","test","","","","5","",""
"null","897830","pSARL_v2","pSARL_v2fg4ovwa2","61464fe94ab78bd0f17d0dc0","fixation","img/fixation.png","null","","test","","","","","",""
"308.9000000022352","898178","pSARL_v2","pSARL_v2fg4ovwa2","61464fe94ab78bd0f17d0dc0","freq","img/orange_2bandit_b2.png","70","70","test","1","100","100","5","",""
"null","898719","pSARL_v2","pSARL_v2fg4ovwa2","61464fe94ab78bd0f17d0dc0","freq_resp","img/orange_2bandit_b.png","70","70","test","","","","5","",""
"null","898917","pSARL_v2","pSARL_v2fg4ovwa2","61464fe94ab78bd0f17d0dc0","fixation","img/fixation.png","null","","test","","","","","",""
"281.30000000074506","899238","pSARL_v2","pSARL_v2fg4ovwa2","61464fe94ab78bd0f17d0dc0","freq","img/orange_2bandit_b2.png","70","70","test","1","101","101","5","",""
"null","899805","pSARL_v2","pSARL_v2fg4ovwa2","61464fe94ab78bd0f17d0dc0","freq_resp","img/orange_2bandit_b.png","70","70","test","","","","5","",""
"null","899997","pSARL_v2","pSARL_v2fg4ovwa2","61464fe94ab78bd0f17d0dc0","fixation","img/fixation.png","null","","test","","","","","",""
"251.10000000149012","900288","pSARL_v2","pSARL_v2fg4ovwa2","61464fe94ab78bd0f17d0dc0","freq","img/orange_2bandit_b2.png","70","70","test","1","102","102","5","",""
"null","900877","pSARL_v2","pSARL_v2fg4ovwa2","61464fe94ab78bd0f17d0dc0","freq_resp","img/orange_2bandit_b.png","70","70","test","","","","5","",""
"null","901070","pSARL_v2","pSARL_v2fg4ovwa2","61464fe94ab78bd0f17d0dc0","fixation","img/fixation.png","null","","test","","","","","",""
"252.69999999925494","901362","pSARL_v2","pSARL_v2fg4ovwa2","61464fe94ab78bd0f17d0dc0","freq","img/orange_2bandit_b2.png","70","70","test","1","103","103","5","",""
"null","901957","pSARL_v2","pSARL_v2fg4ovwa2","61464fe94ab78bd0f17d0dc0","freq_resp","img/orange_2bandit_b.png","70","70","test","","","","5","",""
"null","902149","pSARL_v2","pSARL_v2fg4ovwa2","61464fe94ab78bd0f17d0dc0","fixation","img/fixation.png","null","","test","","","","","",""
"319.5","902508","pSARL_v2","pSARL_v2fg4ovwa2","61464fe94ab78bd0f17d0dc0","freq","img/orange_2bandit_b2.png","70","70","test","1","104","104","5","",""
"null","903029","pSARL_v2","pSARL_v2fg4ovwa2","61464fe94ab78bd0f17d0dc0","freq_resp","img/orange_2bandit_b.png","70","70","test","","","","5","",""
"null","903221","pSARL_v2","pSARL_v2fg4ovwa2","61464fe94ab78bd0f17d0dc0","fixation","img/fixation.png","null","","test","","","","","",""
"276.79999999701977","903537","pSARL_v2","pSARL_v2fg4ovwa2","61464fe94ab78bd0f17d0dc0","freq","img/orange_2bandit_b2.png","70","70","test","1","105","105","5","",""
"null","904101","pSARL_v2","pSARL_v2fg4ovwa2","61464fe94ab78bd0f17d0dc0","freq_resp","img/orange_2bandit_b.png","70","70","test","","","","5","",""
"null","904293","pSARL_v2","pSARL_v2fg4ovwa2","61464fe94ab78bd0f17d0dc0","fixation","img/fixation.png","null","","test","","","","","",""
"174","904506","pSARL_v2","pSARL_v2fg4ovwa2","61464fe94ab78bd0f17d0dc0","freq","img/orange_2bandit_b2.png","70","70","test","1","106","106","5","",""
"null","905173","pSARL_v2","pSARL_v2fg4ovwa2","61464fe94ab78bd0f17d0dc0","freq_resp","img/orange_2bandit_b.png","70","70","test","","","","5","",""
"null","905365","pSARL_v2","pSARL_v2fg4ovwa2","61464fe94ab78bd0f17d0dc0","fixation","img/fixation.png","null","","test","","","","","",""
"282.69999999925494","905687","pSARL_v2","pSARL_v2fg4ovwa2","61464fe94ab78bd0f17d0dc0","freq","img/orange_2bandit_b2.png","70","70","test","1","107","107","5","",""
"null","906253","pSARL_v2","pSARL_v2fg4ovwa2","61464fe94ab78bd0f17d0dc0","freq_resp","img/orange_2bandit_b.png","70","70","test","","","","5","",""
"null","906446","pSARL_v2","pSARL_v2fg4ovwa2","61464fe94ab78bd0f17d0dc0","fixation","img/fixation.png","null","","test","","","","","",""
"280.19999999925494","906764","pSARL_v2","pSARL_v2fg4ovwa2","61464fe94ab78bd0f17d0dc0","freq","img/orange_2bandit_b2.png","70","70","test","1","108","108","5","",""
"null","907327","pSARL_v2","pSARL_v2fg4ovwa2","61464fe94ab78bd0f17d0dc0","freq_resp","img/orange_2bandit_b.png","70","70","test","","","","5","",""
"null","907526","pSARL_v2","pSARL_v2fg4ovwa2","61464fe94ab78bd0f17d0dc0","fixation","img/fixation.png","null","","test","","","","","",""
"276.3999999985099","907842","pSARL_v2","pSARL_v2fg4ovwa2","61464fe94ab78bd0f17d0dc0","infreq","img/green_2bandit_b2.png","70","68","test","0","109","109","5","",""
"null","908413","pSARL_v2","pSARL_v2fg4ovwa2","61464fe94ab78bd0f17d0dc0","infreq_resp","img/green_2bandit_b.png","70","68","test","","","","5","",""
"null","908605","pSARL_v2","pSARL_v2fg4ovwa2","61464fe94ab78bd0f17d0dc0","fixation","img/fixation.png","null","","test","","","","","",""
"301.80000000074506","908946","pSARL_v2","pSARL_v2fg4ovwa2","61464fe94ab78bd0f17d0dc0","freq","img/orange_2bandit_b2.png","70","70","test","1","110","110","5","",""
"null","909493","pSARL_v2","pSARL_v2fg4ovwa2","61464fe94ab78bd0f17d0dc0","freq_resp","img/orange_2bandit_b.png","70","70","test","","","","5","",""
"null","909685","pSARL_v2","pSARL_v2fg4ovwa2","61464fe94ab78bd0f17d0dc0","fixation","img/fixation.png","null","","test","","","","","",""
"289.70000000298023","910014","pSARL_v2","pSARL_v2fg4ovwa2","61464fe94ab78bd0f17d0dc0","freq","img/orange_2bandit_b2.png","70","70","test","1","111","111","5","",""
"null","910565","pSARL_v2","pSARL_v2fg4ovwa2","61464fe94ab78bd0f17d0dc0","freq_resp","img/orange_2bandit_b.png","70","70","test","","","","5","",""
"null","910757","pSARL_v2","pSARL_v2fg4ovwa2","61464fe94ab78bd0f17d0dc0","fixation","img/fixation.png","null","","test","","","","","",""
"285.19999999925494","911082","pSARL_v2","pSARL_v2fg4ovwa2","61464fe94ab78bd0f17d0dc0","freq","img/orange_2bandit_b2.png","70","70","test","1","112","112","5","",""
"null","911645","pSARL_v2","pSARL_v2fg4ovwa2","61464fe94ab78bd0f17d0dc0","freq_resp","img/orange_2bandit_b.png","70","70","test","","","","5","",""
"null","911839","pSARL_v2","pSARL_v2fg4ovwa2","61464fe94ab78bd0f17d0dc0","fixation","img/fixation.png","null","","test","","","","","",""
"330.19999999925494","912209","pSARL_v2","pSARL_v2fg4ovwa2","61464fe94ab78bd0f17d0dc0","freq","img/orange_2bandit_b2.png","70","70","test","1","113","113","5","",""
"null","912726","pSARL_v2","pSARL_v2fg4ovwa2","61464fe94ab78bd0f17d0dc0","freq_resp","img/orange_2bandit_b.png","70","70","test","","","","5","",""
"null","912917","pSARL_v2","pSARL_v2fg4ovwa2","61464fe94ab78bd0f17d0dc0","fixation","img/fixation.png","null","","test","","","","","",""
"301.19999999925494","913257","pSARL_v2","pSARL_v2fg4ovwa2","61464fe94ab78bd0f17d0dc0","freq","img/orange_2bandit_b2.png","70","70","test","1","114","114","5","",""
"null","913796","pSARL_v2","pSARL_v2fg4ovwa2","61464fe94ab78bd0f17d0dc0","freq_resp","img/orange_2bandit_b.png","70","70","test","","","","5","",""
"null","913989","pSARL_v2","pSARL_v2fg4ovwa2","61464fe94ab78bd0f17d0dc0","fixation","img/fixation.png","null","","test","","","","","",""
"301.79999999701977","914331","pSARL_v2","pSARL_v2fg4ovwa2","61464fe94ab78bd0f17d0dc0","freq","img/orange_2bandit_b2.png","70","70","test","1","115","115","5","",""
"null","914876","pSARL_v2","pSARL_v2fg4ovwa2","61464fe94ab78bd0f17d0dc0","freq_resp","img/orange_2bandit_b.png","70","70","test","","","","5","",""
"null","915069","pSARL_v2","pSARL_v2fg4ovwa2","61464fe94ab78bd0f17d0dc0","fixation","img/fixation.png","null","","test","","","","","",""
"514.0999999977648","915623","pSARL_v2","pSARL_v2fg4ovwa2","61464fe94ab78bd0f17d0dc0","reward","img/slot.png","74","","test","","","","","",""
"null","916413","pSARL_v2","pSARL_v2fg4ovwa2","61464fe94ab78bd0f17d0dc0","points","<div class=""veryhighPoints""> +1 </div>","null","na","test","","","","5","1","4"
"null","917260","pSARL_v2","pSARL_v2fg4ovwa2","61464fe94ab78bd0f17d0dc0","freq","img/orange_2bandit_b2.png","null","70","test","0","116","116","6","",""
"null","917453","pSARL_v2","pSARL_v2fg4ovwa2","61464fe94ab78bd0f17d0dc0","fixation","img/fixation.png","null","","test","","","","","",""
"517.5","918010","pSARL_v2","pSARL_v2fg4ovwa2","61464fe94ab78bd0f17d0dc0","freq","img/orange_2bandit_b2.png","70","70","test","1","117","117","6","",""
"null","918341","pSARL_v2","pSARL_v2fg4ovwa2","61464fe94ab78bd0f17d0dc0","freq_resp","img/orange_2bandit_b.png","70","70","test","","","","6","",""
"null","918533","pSARL_v2","pSARL_v2fg4ovwa2","61464fe94ab78bd0f17d0dc0","fixation","img/fixation.png","null","","test","","","","","",""
"358.19999999925494","918931","pSARL_v2","pSARL_v2fg4ovwa2","61464fe94ab78bd0f17d0dc0","freq","img/orange_2bandit_b2.png","70","70","test","1","118","118","6","",""
"null","919421","pSARL_v2","pSARL_v2fg4ovwa2","61464fe94ab78bd0f17d0dc0","freq_resp","img/orange_2bandit_b.png","70","70","test","","","","6","",""
"null","919613","pSARL_v2","pSARL_v2fg4ovwa2","61464fe94ab78bd0f17d0dc0","fixation","img/fixation.png","null","","test","","","","","",""
"426","920078","pSARL_v2","pSARL_v2fg4ovwa2","61464fe94ab78bd0f17d0dc0","infreq","img/green_2bandit_b2.png","68","68","test","1","119","119","6","",""
"null","920501","pSARL_v2","pSARL_v2fg4ovwa2","61464fe94ab78bd0f17d0dc0","infreq_resp","img/green_2bandit_b.png","68","68","test","","","","6","",""
"null","920693","pSARL_v2","pSARL_v2fg4ovwa2","61464fe94ab78bd0f17d0dc0","fixation","img/fixation.png","null","","test","","","","","",""
"192.10000000149012","920925","pSARL_v2","pSARL_v2fg4ovwa2","61464fe94ab78bd0f17d0dc0","freq","img/orange_2bandit_b2.png","70","70","test","1","120","120","6","",""
"null","921573","pSARL_v2","pSARL_v2fg4ovwa2","61464fe94ab78bd0f17d0dc0","freq_resp","img/orange_2bandit_b.png","70","70","test","","","","6","",""
"null","921765","pSARL_v2","pSARL_v2fg4ovwa2","61464fe94ab78bd0f17d0dc0","fixation","img/fixation.png","null","","test","","","","","",""
"328.1000000014901","922132","pSARL_v2","pSARL_v2fg4ovwa2","61464fe94ab78bd0f17d0dc0","freq","img/orange_2bandit_b2.png","70","70","test","1","121","121","6","",""
"null","922645","pSARL_v2","pSARL_v2fg4ovwa2","61464fe94ab78bd0f17d0dc0","freq_resp","img/orange_2bandit_b.png","70","70","test","","","","6","",""
"null","922837","pSARL_v2","pSARL_v2fg4ovwa2","61464fe94ab78bd0f17d0dc0","fixation","img/fixation.png","null","","test","","","","","",""
"404.19999999925494","923281","pSARL_v2","pSARL_v2fg4ovwa2","61464fe94ab78bd0f17d0dc0","freq","img/orange_2bandit_b2.png","70","70","test","1","122","122","6","",""
"null","923720","pSARL_v2","pSARL_v2fg4ovwa2","61464fe94ab78bd0f17d0dc0","freq_resp","img/orange_2bandit_b.png","70","70","test","","","","6","",""
"null","923917","pSARL_v2","pSARL_v2fg4ovwa2","61464fe94ab78bd0f17d0dc0","fixation","img/fixation.png","null","","test","","","","","",""
"379.8999999985099","924337","pSARL_v2","pSARL_v2fg4ovwa2","61464fe94ab78bd0f17d0dc0","freq","img/orange_2bandit_b2.png","70","70","test","1","123","123","6","",""
"null","924805","pSARL_v2","pSARL_v2fg4ovwa2","61464fe94ab78bd0f17d0dc0","freq_resp","img/orange_2bandit_b.png","70","70","test","","","","6","",""
"null","924997","pSARL_v2","pSARL_v2fg4ovwa2","61464fe94ab78bd0f17d0dc0","fixation","img/fixation.png","null","","test","","","","","",""
"375.4000000022352","925413","pSARL_v2","pSARL_v2fg4ovwa2","61464fe94ab78bd0f17d0dc0","freq","img/orange_2bandit_b2.png","70","70","test","1","124","124","6","",""
"null","925885","pSARL_v2","pSARL_v2fg4ovwa2","61464fe94ab78bd0f17d0dc0","freq_resp","img/orange_2bandit_b.png","70","70","test","","","","6","",""
"null","926077","pSARL_v2","pSARL_v2fg4ovwa2","61464fe94ab78bd0f17d0dc0","fixation","img/fixation.png","null","","test","","","","","",""
"567.5","926685","pSARL_v2","pSARL_v2fg4ovwa2","61464fe94ab78bd0f17d0dc0","freq","img/orange_2bandit_b2.png","70","70","test","1","125","125","6","",""
"null","926965","pSARL_v2","pSARL_v2fg4ovwa2","61464fe94ab78bd0f17d0dc0","freq_resp","img/orange_2bandit_b.png","70","70","test","","","","6","",""
"null","927157","pSARL_v2","pSARL_v2fg4ovwa2","61464fe94ab78bd0f17d0dc0","fixation","img/fixation.png","null","","test","","","","","",""
"487.80000000074506","927684","pSARL_v2","pSARL_v2fg4ovwa2","61464fe94ab78bd0f17d0dc0","freq","img/orange_2bandit_b2.png","70","70","test","1","126","126","6","",""
"null","928045","pSARL_v2","pSARL_v2fg4ovwa2","61464fe94ab78bd0f17d0dc0","freq_resp","img/orange_2bandit_b.png","70","70","test","","","","6","",""
"null","928237","pSARL_v2","pSARL_v2fg4ovwa2","61464fe94ab78bd0f17d0dc0","fixation","img/fixation.png","null","","test","","","","","",""
"353.6000000014901","928630","pSARL_v2","pSARL_v2fg4ovwa2","61464fe94ab78bd0f17d0dc0","freq","img/orange_2bandit_b2.png","70","70","test","1","127","127","6","",""
"null","929125","pSARL_v2","pSARL_v2fg4ovwa2","61464fe94ab78bd0f17d0dc0","freq_resp","img/orange_2bandit_b.png","70","70","test","","","","6","",""
"null","929317","pSARL_v2","pSARL_v2fg4ovwa2","61464fe94ab78bd0f17d0dc0","fixation","img/fixation.png","null","","test","","","","","",""
"392.5","929754","pSARL_v2","pSARL_v2fg4ovwa2","61464fe94ab78bd0f17d0dc0","infreq","img/green_2bandit_b2.png","68","68","test","1","128","128","6","",""
"null","930205","pSARL_v2","pSARL_v2fg4ovwa2","61464fe94ab78bd0f17d0dc0","infreq_resp","img/green_2bandit_b.png","68","68","test","","","","6","",""
"null","930397","pSARL_v2","pSARL_v2fg4ovwa2","61464fe94ab78bd0f17d0dc0","fixation","img/fixation.png","null","","test","","","","","",""
"412.9000000022352","930849","pSARL_v2","pSARL_v2fg4ovwa2","61464fe94ab78bd0f17d0dc0","freq","img/orange_2bandit_b2.png","70","70","test","1","129","129","6","",""
"null","931285","pSARL_v2","pSARL_v2fg4ovwa2","61464fe94ab78bd0f17d0dc0","freq_resp","img/orange_2bandit_b.png","70","70","test","","","","6","",""
"null","931476","pSARL_v2","pSARL_v2fg4ovwa2","61464fe94ab78bd0f17d0dc0","fixation","img/fixation.png","null","","test","","","","","",""
"376.30000000074506","931892","pSARL_v2","pSARL_v2fg4ovwa2","61464fe94ab78bd0f17d0dc0","freq","img/orange_2bandit_b2.png","70","70","test","1","130","130","6","",""
"null","932359","pSARL_v2","pSARL_v2fg4ovwa2","61464fe94ab78bd0f17d0dc0","freq_resp","img/orange_2bandit_b.png","70","70","test","","","","6","",""
"null","932557","pSARL_v2","pSARL_v2fg4ovwa2","61464fe94ab78bd0f17d0dc0","fixation","img/fixation.png","null","","test","","","","","",""
"321.8999999985099","932919","pSARL_v2","pSARL_v2fg4ovwa2","61464fe94ab78bd0f17d0dc0","freq","img/orange_2bandit_b2.png","70","70","test","1","131","131","6","",""
"null","933445","pSARL_v2","pSARL_v2fg4ovwa2","61464fe94ab78bd0f17d0dc0","freq_resp","img/orange_2bandit_b.png","70","70","test","","","","6","",""
"null","933611","pSARL_v2","pSARL_v2fg4ovwa2","61464fe94ab78bd0f17d0dc0","fixation","img/fixation.png","null","","test","","","","","",""
"334.19999999925494","933983","pSARL_v2","pSARL_v2fg4ovwa2","61464fe94ab78bd0f17d0dc0","freq","img/orange_2bandit_b2.png","70","70","test","1","132","132","6","",""
"null","934493","pSARL_v2","pSARL_v2fg4ovwa2","61464fe94ab78bd0f17d0dc0","freq_resp","img/orange_2bandit_b.png","70","70","test","","","","6","",""
"null","934685","pSARL_v2","pSARL_v2fg4ovwa2","61464fe94ab78bd0f17d0dc0","fixation","img/fixation.png","null","","test","","","","","",""
"340.19999999925494","935065","pSARL_v2","pSARL_v2fg4ovwa2","61464fe94ab78bd0f17d0dc0","freq","img/orange_2bandit_b2.png","70","70","test","1","133","133","6","",""
"null","935565","pSARL_v2","pSARL_v2fg4ovwa2","61464fe94ab78bd0f17d0dc0","freq_resp","img/orange_2bandit_b.png","70","70","test","","","","6","",""
"null","935757","pSARL_v2","pSARL_v2fg4ovwa2","61464fe94ab78bd0f17d0dc0","fixation","img/fixation.png","null","","test","","","","","",""
"350.1000000014901","936149","pSARL_v2","pSARL_v2fg4ovwa2","61464fe94ab78bd0f17d0dc0","freq","img/orange_2bandit_b2.png","70","70","test","1","134","134","6","",""
"null","936645","pSARL_v2","pSARL_v2fg4ovwa2","61464fe94ab78bd0f17d0dc0","freq_resp","img/orange_2bandit_b.png","70","70","test","","","","6","",""
"null","936837","pSARL_v2","pSARL_v2fg4ovwa2","61464fe94ab78bd0f17d0dc0","fixation","img/fixation.png","null","","test","","","","","",""
"341.19999999925494","937218","pSARL_v2","pSARL_v2fg4ovwa2","61464fe94ab78bd0f17d0dc0","freq","img/orange_2bandit_b2.png","70","70","test","1","135","135","6","",""
"null","937717","pSARL_v2","pSARL_v2fg4ovwa2","61464fe94ab78bd0f17d0dc0","freq_resp","img/orange_2bandit_b.png","70","70","test","","","","6","",""
"null","937909","pSARL_v2","pSARL_v2fg4ovwa2","61464fe94ab78bd0f17d0dc0","fixation","img/fixation.png","null","","test","","","","","",""
"431.4000000022352","938379","pSARL_v2","pSARL_v2fg4ovwa2","61464fe94ab78bd0f17d0dc0","reward","img/slot.png","74","","test","","","","","",""
"null","939149","pSARL_v2","pSARL_v2fg4ovwa2","61464fe94ab78bd0f17d0dc0","points","<div class=""verylowPoints""> -7 </div>","null","na","test","","","","6","-7","5"
"472.69999999925494","939661","pSARL_v2","pSARL_v2fg4ovwa2","61464fe94ab78bd0f17d0dc0","freq","img/orange_2bandit_b2.png","70","70","test","1","136","136","7","",""
"null","940030","pSARL_v2","pSARL_v2fg4ovwa2","61464fe94ab78bd0f17d0dc0","freq_resp","img/orange_2bandit_b.png","70","70","test","","","","7","",""
"null","940221","pSARL_v2","pSARL_v2fg4ovwa2","61464fe94ab78bd0f17d0dc0","fixation","img/fixation.png","null","","test","","","","","",""
"301.3999999985099","940562","pSARL_v2","pSARL_v2fg4ovwa2","61464fe94ab78bd0f17d0dc0","freq","img/orange_2bandit_b2.png","70","70","test","1","137","137","7","",""
"null","941101","pSARL_v2","pSARL_v2fg4ovwa2","61464fe94ab78bd0f17d0dc0","freq_resp","img/orange_2bandit_b.png","70","70","test","","","","7","",""
"null","941293","pSARL_v2","pSARL_v2fg4ovwa2","61464fe94ab78bd0f17d0dc0","fixation","img/fixation.png","null","","test","","","","","",""
"319.9000000022352","941652","pSARL_v2","pSARL_v2fg4ovwa2","61464fe94ab78bd0f17d0dc0","freq","img/orange_2bandit_b2.png","70","70","test","1","138","138","7","",""
"null","942181","pSARL_v2","pSARL_v2fg4ovwa2","61464fe94ab78bd0f17d0dc0","freq_resp","img/orange_2bandit_b.png","70","70","test","","","","7","",""
"null","942373","pSARL_v2","pSARL_v2fg4ovwa2","61464fe94ab78bd0f17d0dc0","fixation","img/fixation.png","null","","test","","","","","",""
"322.80000000074506","942735","pSARL_v2","pSARL_v2fg4ovwa2","61464fe94ab78bd0f17d0dc0","freq","img/orange_2bandit_b2.png","70","70","test","1","139","139","7","",""
"null","943261","pSARL_v2","pSARL_v2fg4ovwa2","61464fe94ab78bd0f17d0dc0","freq_resp","img/orange_2bandit_b.png","70","70","test","","","","7","",""
"null","943453","pSARL_v2","pSARL_v2fg4ovwa2","61464fe94ab78bd0f17d0dc0","fixation","img/fixation.png","null","","test","","","","","",""
"319.4000000022352","943812","pSARL_v2","pSARL_v2fg4ovwa2","61464fe94ab78bd0f17d0dc0","freq","img/orange_2bandit_b2.png","70","70","test","1","140","140","7","",""
"null","944341","pSARL_v2","pSARL_v2fg4ovwa2","61464fe94ab78bd0f17d0dc0","freq_resp","img/orange_2bandit_b.png","70","70","test","","","","7","",""
"null","944533","pSARL_v2","pSARL_v2fg4ovwa2","61464fe94ab78bd0f17d0dc0","fixation","img/fixation.png","null","","test","","","","","",""
"320.69999999925494","944893","pSARL_v2","pSARL_v2fg4ovwa2","61464fe94ab78bd0f17d0dc0","freq","img/orange_2bandit_b2.png","70","70","test","1","141","141","7","",""
"null","945421","pSARL_v2","pSARL_v2fg4ovwa2","61464fe94ab78bd0f17d0dc0","freq_resp","img/orange_2bandit_b.png","70","70","test","","","","7","",""
"null","945613","pSARL_v2","pSARL_v2fg4ovwa2","61464fe94ab78bd0f17d0dc0","fixation","img/fixation.png","null","","test","","","","","",""
"309.19999999925494","945962","pSARL_v2","pSARL_v2fg4ovwa2","61464fe94ab78bd0f17d0dc0","freq","img/orange_2bandit_b2.png","70","70","test","1","142","142","7","",""
"null","946493","pSARL_v2","pSARL_v2fg4ovwa2","61464fe94ab78bd0f17d0dc0","freq_resp","img/orange_2bandit_b.png","70","70","test","","","","7","",""
"null","946685","pSARL_v2","pSARL_v2fg4ovwa2","61464fe94ab78bd0f17d0dc0","fixation","img/fixation.png","null","","test","","","","","",""
"296.80000000074506","947021","pSARL_v2","pSARL_v2fg4ovwa2","61464fe94ab78bd0f17d0dc0","freq","img/orange_2bandit_b2.png","70","70","test","1","143","143","7","",""
"null","947550","pSARL_v2","pSARL_v2fg4ovwa2","61464fe94ab78bd0f17d0dc0","freq_resp","img/orange_2bandit_b.png","70","70","test","","","","7","",""
"null","947741","pSARL_v2","pSARL_v2fg4ovwa2","61464fe94ab78bd0f17d0dc0","fixation","img/fixation.png","null","","test","","","","","",""
"337.8999999985099","948119","pSARL_v2","pSARL_v2fg4ovwa2","61464fe94ab78bd0f17d0dc0","freq","img/orange_2bandit_b2.png","70","70","test","1","144","144","7","",""
"null","948629","pSARL_v2","pSARL_v2fg4ovwa2","61464fe94ab78bd0f17d0dc0","freq_resp","img/orange_2bandit_b.png","70","70","test","","","","7","",""
"null","948821","pSARL_v2","pSARL_v2fg4ovwa2","61464fe94ab78bd0f17d0dc0","fixation","img/fixation.png","null","","test","","","","","",""
"309.19999999925494","949170","pSARL_v2","pSARL_v2fg4ovwa2","61464fe94ab78bd0f17d0dc0","freq","img/orange_2bandit_b2.png","70","70","test","1","145","145","7","",""
"null","949701","pSARL_v2","pSARL_v2fg4ovwa2","61464fe94ab78bd0f17d0dc0","freq_resp","img/orange_2bandit_b.png","70","70","test","","","","7","",""
"null","949893","pSARL_v2","pSARL_v2fg4ovwa2","61464fe94ab78bd0f17d0dc0","fixation","img/fixation.png","null","","test","","","","","",""
"282.5999999977648","950215","pSARL_v2","pSARL_v2fg4ovwa2","61464fe94ab78bd0f17d0dc0","freq","img/orange_2bandit_b2.png","70","70","test","1","146","146","7","",""
"null","950782","pSARL_v2","pSARL_v2fg4ovwa2","61464fe94ab78bd0f17d0dc0","freq_resp","img/orange_2bandit_b.png","70","70","test","","","","7","",""
"null","950981","pSARL_v2","pSARL_v2fg4ovwa2","61464fe94ab78bd0f17d0dc0","fixation","img/fixation.png","null","","test","","","","","",""
"287.20000000298023","951309","pSARL_v2","pSARL_v2fg4ovwa2","61464fe94ab78bd0f17d0dc0","freq","img/orange_2bandit_b2.png","70","70","test","1","147","147","7","",""
"null","951869","pSARL_v2","pSARL_v2fg4ovwa2","61464fe94ab78bd0f17d0dc0","freq_resp","img/orange_2bandit_b.png","70","70","test","","","","7","",""
"null","952061","pSARL_v2","pSARL_v2fg4ovwa2","61464fe94ab78bd0f17d0dc0","fixation","img/fixation.png","null","","test","","","","","",""
"289.5","952390","pSARL_v2","pSARL_v2fg4ovwa2","61464fe94ab78bd0f17d0dc0","freq","img/orange_2bandit_b2.png","70","70","test","1","148","148","7","",""
"null","952949","pSARL_v2","pSARL_v2fg4ovwa2","61464fe94ab78bd0f17d0dc0","freq_resp","img/orange_2bandit_b.png","70","70","test","","","","7","",""
"null","953141","pSARL_v2","pSARL_v2fg4ovwa2","61464fe94ab78bd0f17d0dc0","fixation","img/fixation.png","null","","test","","","","","",""
"324.29999999701977","953505","pSARL_v2","pSARL_v2fg4ovwa2","61464fe94ab78bd0f17d0dc0","freq","img/orange_2bandit_b2.png","70","70","test","1","149","149","7","",""
"null","954021","pSARL_v2","pSARL_v2fg4ovwa2","61464fe94ab78bd0f17d0dc0","freq_resp","img/orange_2bandit_b.png","70","70","test","","","","7","",""
"null","954213","pSARL_v2","pSARL_v2fg4ovwa2","61464fe94ab78bd0f17d0dc0","fixation","img/fixation.png","null","","test","","","","","",""
"445","954698","pSARL_v2","pSARL_v2fg4ovwa2","61464fe94ab78bd0f17d0dc0","infreq","img/green_2bandit_b2.png","68","68","test","1","150","150","7","",""
"null","955101","pSARL_v2","pSARL_v2fg4ovwa2","61464fe94ab78bd0f17d0dc0","infreq_resp","img/green_2bandit_b.png","68","68","test","","","","7","",""
"null","955293","pSARL_v2","pSARL_v2fg4ovwa2","61464fe94ab78bd0f17d0dc0","fixation","img/fixation.png","null","","test","","","","","",""
"412.4000000022352","955745","pSARL_v2","pSARL_v2fg4ovwa2","61464fe94ab78bd0f17d0dc0","freq","img/orange_2bandit_b2.png","70","70","test","1","151","151","7","",""
"null","956158","pSARL_v2","pSARL_v2fg4ovwa2","61464fe94ab78bd0f17d0dc0","freq_resp","img/orange_2bandit_b.png","70","70","test","","","","7","",""
"null","956352","pSARL_v2","pSARL_v2fg4ovwa2","61464fe94ab78bd0f17d0dc0","fixation","img/fixation.png","null","","test","","","","","",""
"326","956718","pSARL_v2","pSARL_v2fg4ovwa2","61464fe94ab78bd0f17d0dc0","freq","img/orange_2bandit_b2.png","70","70","test","1","152","152","7","",""
"null","957237","pSARL_v2","pSARL_v2fg4ovwa2","61464fe94ab78bd0f17d0dc0","freq_resp","img/orange_2bandit_b.png","70","70","test","","","","7","",""
"null","957429","pSARL_v2","pSARL_v2fg4ovwa2","61464fe94ab78bd0f17d0dc0","fixation","img/fixation.png","null","","test","","","","","",""
"321.19999999925494","957791","pSARL_v2","pSARL_v2fg4ovwa2","61464fe94ab78bd0f17d0dc0","freq","img/orange_2bandit_b2.png","70","70","test","1","153","153","7","",""
"null","958318","pSARL_v2","pSARL_v2fg4ovwa2","61464fe94ab78bd0f17d0dc0","freq_resp","img/orange_2bandit_b.png","70","70","test","","","","7","",""
"null","958509","pSARL_v2","pSARL_v2fg4ovwa2","61464fe94ab78bd0f17d0dc0","fixation","img/fixation.png","null","","test","","","","","",""
"321.4000000022352","958870","pSARL_v2","pSARL_v2fg4ovwa2","61464fe94ab78bd0f17d0dc0","freq","img/orange_2bandit_b2.png","70","70","test","1","154","154","7","",""
"null","959397","pSARL_v2","pSARL_v2fg4ovwa2","61464fe94ab78bd0f17d0dc0","freq_resp","img/orange_2bandit_b.png","70","70","test","","","","7","",""
"null","959589","pSARL_v2","pSARL_v2fg4ovwa2","61464fe94ab78bd0f17d0dc0","fixation","img/fixation.png","null","","test","","","","","",""
"374.1000000014901","960003","pSARL_v2","pSARL_v2fg4ovwa2","61464fe94ab78bd0f17d0dc0","freq","img/orange_2bandit_b2.png","70","70","test","1","155","155","7","",""
"null","960470","pSARL_v2","pSARL_v2fg4ovwa2","61464fe94ab78bd0f17d0dc0","freq_resp","img/orange_2bandit_b.png","70","70","test","","","","7","",""
"null","960661","pSARL_v2","pSARL_v2fg4ovwa2","61464fe94ab78bd0f17d0dc0","fixation","img/fixation.png","null","","test","","","","","",""
"301.3999999985099","961002","pSARL_v2","pSARL_v2fg4ovwa2","61464fe94ab78bd0f17d0dc0","freq","img/orange_2bandit_b2.png","70","70","test","1","156","156","7","",""
"null","961549","pSARL_v2","pSARL_v2fg4ovwa2","61464fe94ab78bd0f17d0dc0","freq_resp","img/orange_2bandit_b.png","70","70","test","","","","7","",""
"null","961742","pSARL_v2","pSARL_v2fg4ovwa2","61464fe94ab78bd0f17d0dc0","fixation","img/fixation.png","null","","test","","","","","",""
"427.79999999701977","962210","pSARL_v2","pSARL_v2fg4ovwa2","61464fe94ab78bd0f17d0dc0","infreq","img/green_2bandit_b2.png","68","68","test","1","157","157","7","",""
"null","962625","pSARL_v2","pSARL_v2fg4ovwa2","61464fe94ab78bd0f17d0dc0","infreq_resp","img/green_2bandit_b.png","68","68","test","","","","7","",""
"null","962822","pSARL_v2","pSARL_v2fg4ovwa2","61464fe94ab78bd0f17d0dc0","fixation","img/fixation.png","null","","test","","","","","",""
"324.69999999925494","963187","pSARL_v2","pSARL_v2fg4ovwa2","61464fe94ab78bd0f17d0dc0","freq","img/orange_2bandit_b2.png","70","70","test","1","158","158","7","",""
"null","963709","pSARL_v2","pSARL_v2fg4ovwa2","61464fe94ab78bd0f17d0dc0","freq_resp","img/orange_2bandit_b.png","70","70","test","","","","7","",""
"null","963901","pSARL_v2","pSARL_v2fg4ovwa2","61464fe94ab78bd0f17d0dc0","fixation","img/fixation.png","null","","test","","","","","",""
"289.80000000074506","964231","pSARL_v2","pSARL_v2fg4ovwa2","61464fe94ab78bd0f17d0dc0","freq","img/orange_2bandit_b2.png","70","70","test","1","159","159","7","",""
"null","964789","pSARL_v2","pSARL_v2fg4ovwa2","61464fe94ab78bd0f17d0dc0","freq_resp","img/orange_2bandit_b.png","70","70","test","","","","7","",""
"null","964981","pSARL_v2","pSARL_v2fg4ovwa2","61464fe94ab78bd0f17d0dc0","fixation","img/fixation.png","null","","test","","","","","",""
"433.3999999985099","965456","pSARL_v2","pSARL_v2fg4ovwa2","61464fe94ab78bd0f17d0dc0","reward","img/slot.png","74","","test","","","","","",""
"null","966253","pSARL_v2","pSARL_v2fg4ovwa2","61464fe94ab78bd0f17d0dc0","points","<div class=""verylowPoints""> -6 </div>","null","na","test","","","","7","-6","6"
"417.5","966711","pSARL_v2","pSARL_v2fg4ovwa2","61464fe94ab78bd0f17d0dc0","freq","img/orange_2bandit_b2.png","70","70","test","1","160","160","8","",""
"null","967142","pSARL_v2","pSARL_v2fg4ovwa2","61464fe94ab78bd0f17d0dc0","freq_resp","img/orange_2bandit_b.png","70","70","test","","","","8","",""
"null","967341","pSARL_v2","pSARL_v2fg4ovwa2","61464fe94ab78bd0f17d0dc0","fixation","img/fixation.png","null","","test","","","","","",""
"307.5","967686","pSARL_v2","pSARL_v2fg4ovwa2","61464fe94ab78bd0f17d0dc0","freq","img/orange_2bandit_b2.png","70","70","test","1","161","161","8","",""
"null","968222","pSARL_v2","pSARL_v2fg4ovwa2","61464fe94ab78bd0f17d0dc0","freq_resp","img/orange_2bandit_b.png","70","70","test","","","","8","",""
"null","968413","pSARL_v2","pSARL_v2fg4ovwa2","61464fe94ab78bd0f17d0dc0","fixation","img/fixation.png","null","","test","","","","","",""
"386.0999999977648","968840","pSARL_v2","pSARL_v2fg4ovwa2","61464fe94ab78bd0f17d0dc0","infreq","img/green_2bandit_b2.png","68","68","test","1","162","162","8","",""
"null","969302","pSARL_v2","pSARL_v2fg4ovwa2","61464fe94ab78bd0f17d0dc0","infreq_resp","img/green_2bandit_b.png","68","68","test","","","","8","",""
"null","969493","pSARL_v2","pSARL_v2fg4ovwa2","61464fe94ab78bd0f17d0dc0","fixation","img/fixation.png","null","","test","","","","","",""
"415.30000000074506","969948","pSARL_v2","pSARL_v2fg4ovwa2","61464fe94ab78bd0f17d0dc0","freq","img/orange_2bandit_b2.png","70","70","test","1","163","163","8","",""
"null","970381","pSARL_v2","pSARL_v2fg4ovwa2","61464fe94ab78bd0f17d0dc0","freq_resp","img/orange_2bandit_b.png","70","70","test","","","","8","",""
"null","970573","pSARL_v2","pSARL_v2fg4ovwa2","61464fe94ab78bd0f17d0dc0","fixation","img/fixation.png","null","","test","","","","","",""
"291.30000000074506","970904","pSARL_v2","pSARL_v2fg4ovwa2","61464fe94ab78bd0f17d0dc0","freq","img/orange_2bandit_b2.png","70","70","test","1","164","164","8","",""
"null","971461","pSARL_v2","pSARL_v2fg4ovwa2","61464fe94ab78bd0f17d0dc0","freq_resp","img/orange_2bandit_b.png","70","70","test","","","","8","",""
"null","971653","pSARL_v2","pSARL_v2fg4ovwa2","61464fe94ab78bd0f17d0dc0","fixation","img/fixation.png","null","","test","","","","","",""
"295","971988","pSARL_v2","pSARL_v2fg4ovwa2","61464fe94ab78bd0f17d0dc0","freq","img/orange_2bandit_b2.png","70","70","test","1","165","165","8","",""
"null","972541","pSARL_v2","pSARL_v2fg4ovwa2","61464fe94ab78bd0f17d0dc0","freq_resp","img/orange_2bandit_b.png","70","70","test","","","","8","",""
"null","972733","pSARL_v2","pSARL_v2fg4ovwa2","61464fe94ab78bd0f17d0dc0","fixation","img/fixation.png","null","","test","","","","","",""
"310.3999999985099","973083","pSARL_v2","pSARL_v2fg4ovwa2","61464fe94ab78bd0f17d0dc0","freq","img/orange_2bandit_b2.png","70","70","test","1","166","166","8","",""
"null","973621","pSARL_v2","pSARL_v2fg4ovwa2","61464fe94ab78bd0f17d0dc0","freq_resp","img/orange_2bandit_b.png","70","70","test","","","","8","",""
"null","973814","pSARL_v2","pSARL_v2fg4ovwa2","61464fe94ab78bd0f17d0dc0","fixation","img/fixation.png","null","","test","","","","","",""
"401.1000000014901","974255","pSARL_v2","pSARL_v2fg4ovwa2","61464fe94ab78bd0f17d0dc0","infreq","img/green_2bandit_b2.png","68","68","test","1","167","167","8","",""
"null","974701","pSARL_v2","pSARL_v2fg4ovwa2","61464fe94ab78bd0f17d0dc0","infreq_resp","img/green_2bandit_b.png","68","68","test","","","","8","",""
"null","974893","pSARL_v2","pSARL_v2fg4ovwa2","61464fe94ab78bd0f17d0dc0","fixation","img/fixation.png","null","","test","","","","","",""
"338.69999999925494","975272","pSARL_v2","pSARL_v2fg4ovwa2","61464fe94ab78bd0f17d0dc0","infreq","img/green_2bandit_b2.png","70","68","test","0","168","168","8","",""
"null","975781","pSARL_v2","pSARL_v2fg4ovwa2","61464fe94ab78bd0f17d0dc0","infreq_resp","img/green_2bandit_b.png","70","68","test","","","","8","",""
"null","975973","pSARL_v2","pSARL_v2fg4ovwa2","61464fe94ab78bd0f17d0dc0","fixation","img/fixation.png","null","","test","","","","","",""
"501.8999999985099","976514","pSARL_v2","pSARL_v2fg4ovwa2","61464fe94ab78bd0f17d0dc0","freq","img/orange_2bandit_b2.png","70","70","test","1","169","169","8","",""
"null","976861","pSARL_v2","pSARL_v2fg4ovwa2","61464fe94ab78bd0f17d0dc0","freq_resp","img/orange_2bandit_b.png","70","70","test","","","","8","",""
"null","977053","pSARL_v2","pSARL_v2fg4ovwa2","61464fe94ab78bd0f17d0dc0","fixation","img/fixation.png","null","","test","","","","","",""
"351","977444","pSARL_v2","pSARL_v2fg4ovwa2","61464fe94ab78bd0f17d0dc0","freq","img/orange_2bandit_b2.png","70","70","test","1","170","170","8","",""
"null","977941","pSARL_v2","pSARL_v2fg4ovwa2","61464fe94ab78bd0f17d0dc0","freq_resp","img/orange_2bandit_b.png","70","70","test","","","","8","",""
"null","978134","pSARL_v2","pSARL_v2fg4ovwa2","61464fe94ab78bd0f17d0dc0","fixation","img/fixation.png","null","","test","","","","","",""
"339.6000000014901","978513","pSARL_v2","pSARL_v2fg4ovwa2","61464fe94ab78bd0f17d0dc0","freq","img/orange_2bandit_b2.png","70","70","test","1","171","171","8","",""
"null","979021","pSARL_v2","pSARL_v2fg4ovwa2","61464fe94ab78bd0f17d0dc0","freq_resp","img/orange_2bandit_b.png","70","70","test","","","","8","",""
"null","979213","pSARL_v2","pSARL_v2fg4ovwa2","61464fe94ab78bd0f17d0dc0","fixation","img/fixation.png","null","","test","","","","","",""
"318.30000000074506","979571","pSARL_v2","pSARL_v2fg4ovwa2","61464fe94ab78bd0f17d0dc0","freq","img/orange_2bandit_b2.png","70","70","test","1","172","172","8","",""
"null","980101","pSARL_v2","pSARL_v2fg4ovwa2","61464fe94ab78bd0f17d0dc0","freq_resp","img/orange_2bandit_b.png","70","70","test","","","","8","",""
"null","980293","pSARL_v2","pSARL_v2fg4ovwa2","61464fe94ab78bd0f17d0dc0","fixation","img/fixation.png","null","","test","","","","","",""
"344.79999999701977","980678","pSARL_v2","pSARL_v2fg4ovwa2","61464fe94ab78bd0f17d0dc0","freq","img/orange_2bandit_b2.png","70","70","test","1","173","173","8","",""
"null","981179","pSARL_v2","pSARL_v2fg4ovwa2","61464fe94ab78bd0f17d0dc0","freq_resp","img/orange_2bandit_b.png","70","70","test","","","","8","",""
"null","981373","pSARL_v2","pSARL_v2fg4ovwa2","61464fe94ab78bd0f17d0dc0","fixation","img/fixation.png","null","","test","","","","","",""
"317.19999999925494","981729","pSARL_v2","pSARL_v2fg4ovwa2","61464fe94ab78bd0f17d0dc0","freq","img/orange_2bandit_b2.png","70","70","test","1","174","174","8","",""
"null","982254","pSARL_v2","pSARL_v2fg4ovwa2","61464fe94ab78bd0f17d0dc0","freq_resp","img/orange_2bandit_b.png","70","70","test","","","","8","",""
"null","982445","pSARL_v2","pSARL_v2fg4ovwa2","61464fe94ab78bd0f17d0dc0","fixation","img/fixation.png","null","","test","","","","","",""
"325.6000000014901","982810","pSARL_v2","pSARL_v2fg4ovwa2","61464fe94ab78bd0f17d0dc0","freq","img/orange_2bandit_b2.png","70","70","test","1","175","175","8","",""
"null","983334","pSARL_v2","pSARL_v2fg4ovwa2","61464fe94ab78bd0f17d0dc0","freq_resp","img/orange_2bandit_b.png","70","70","test","","","","8","",""
"null","983526","pSARL_v2","pSARL_v2fg4ovwa2","61464fe94ab78bd0f17d0dc0","fixation","img/fixation.png","null","","test","","","","","",""
"300.70000000298023","983866","pSARL_v2","pSARL_v2fg4ovwa2","61464fe94ab78bd0f17d0dc0","freq","img/orange_2bandit_b2.png","70","70","test","1","176","176","8","",""
"null","984413","pSARL_v2","pSARL_v2fg4ovwa2","61464fe94ab78bd0f17d0dc0","freq_resp","img/orange_2bandit_b.png","70","70","test","","","","8","",""
"null","984605","pSARL_v2","pSARL_v2fg4ovwa2","61464fe94ab78bd0f17d0dc0","fixation","img/fixation.png","null","","test","","","","","",""
"305.69999999925494","984951","pSARL_v2","pSARL_v2fg4ovwa2","61464fe94ab78bd0f17d0dc0","freq","img/orange_2bandit_b2.png","70","70","test","1","177","177","8","",""
"null","985492","pSARL_v2","pSARL_v2fg4ovwa2","61464fe94ab78bd0f17d0dc0","freq_resp","img/orange_2bandit_b.png","70","70","test","","","","8","",""
"null","985685","pSARL_v2","pSARL_v2fg4ovwa2","61464fe94ab78bd0f17d0dc0","fixation","img/fixation.png","null","","test","","","","","",""
"312","986038","pSARL_v2","pSARL_v2fg4ovwa2","61464fe94ab78bd0f17d0dc0","freq","img/orange_2bandit_b2.png","70","70","test","1","178","178","8","",""
"null","986573","pSARL_v2","pSARL_v2fg4ovwa2","61464fe94ab78bd0f17d0dc0","freq_resp","img/orange_2bandit_b.png","70","70","test","","","","8","",""
"null","986766","pSARL_v2","pSARL_v2fg4ovwa2","61464fe94ab78bd0f17d0dc0","fixation","img/fixation.png","null","","test","","","","","",""
"325.4000000022352","987131","pSARL_v2","pSARL_v2fg4ovwa2","61464fe94ab78bd0f17d0dc0","freq","img/orange_2bandit_b2.png","70","70","test","1","179","179","8","",""
"null","987654","pSARL_v2","pSARL_v2fg4ovwa2","61464fe94ab78bd0f17d0dc0","freq_resp","img/orange_2bandit_b.png","70","70","test","","","","8","",""
"null","987846","pSARL_v2","pSARL_v2fg4ovwa2","61464fe94ab78bd0f17d0dc0","fixation","img/fixation.png","null","","test","","","","","",""
"278.70000000298023","988164","pSARL_v2","pSARL_v2fg4ovwa2","61464fe94ab78bd0f17d0dc0","freq","img/orange_2bandit_b2.png","70","70","test","1","180","180","8","",""
"null","988733","pSARL_v2","pSARL_v2fg4ovwa2","61464fe94ab78bd0f17d0dc0","freq_resp","img/orange_2bandit_b.png","70","70","test","","","","8","",""
"null","988925","pSARL_v2","pSARL_v2fg4ovwa2","61464fe94ab78bd0f17d0dc0","fixation","img/fixation.png","null","","test","","","","","",""
"290.8999999985099","989234","pSARL_v2","pSARL_v2fg4ovwa2","61464fe94ab78bd0f17d0dc0","freq","img/orange_2bandit_b2.png","70","70","test","1","181","181","8","",""
"null","989762","pSARL_v2","pSARL_v2fg4ovwa2","61464fe94ab78bd0f17d0dc0","freq_resp","img/orange_2bandit_b.png","70","70","test","","","","8","",""
"null","989957","pSARL_v2","pSARL_v2fg4ovwa2","61464fe94ab78bd0f17d0dc0","fixation","img/fixation.png","null","","test","","","","","",""
"377.5","990376","pSARL_v2","pSARL_v2fg4ovwa2","61464fe94ab78bd0f17d0dc0","freq","img/orange_2bandit_b2.png","70","70","test","1","182","182","8","",""
"null","990850","pSARL_v2","pSARL_v2fg4ovwa2","61464fe94ab78bd0f17d0dc0","freq_resp","img/orange_2bandit_b.png","70","70","test","","","","8","",""
"null","991046","pSARL_v2","pSARL_v2fg4ovwa2","61464fe94ab78bd0f17d0dc0","fixation","img/fixation.png","null","","test","","","","","",""
"423.5999999977648","991508","pSARL_v2","pSARL_v2fg4ovwa2","61464fe94ab78bd0f17d0dc0","reward","img/slot.png","74","","test","","","","","",""
"null","992302","pSARL_v2","pSARL_v2fg4ovwa2","61464fe94ab78bd0f17d0dc0","points","<div class=""verylowPoints""> -4 </div>","null","na","test","","","","8","-4","7"
"434.4000000022352","992777","pSARL_v2","pSARL_v2fg4ovwa2","61464fe94ab78bd0f17d0dc0","freq","img/orange_2bandit_b2.png","70","70","test","1","183","183","9","",""
"null","993190","pSARL_v2","pSARL_v2fg4ovwa2","61464fe94ab78bd0f17d0dc0","freq_resp","img/orange_2bandit_b.png","70","70","test","","","","9","",""
"null","993382","pSARL_v2","pSARL_v2fg4ovwa2","61464fe94ab78bd0f17d0dc0","fixation","img/fixation.png","null","","test","","","","","",""
"336.5","993758","pSARL_v2","pSARL_v2fg4ovwa2","61464fe94ab78bd0f17d0dc0","freq","img/orange_2bandit_b2.png","70","70","test","1","184","184","9","",""
"null","994269","pSARL_v2","pSARL_v2fg4ovwa2","61464fe94ab78bd0f17d0dc0","freq_resp","img/orange_2bandit_b.png","70","70","test","","","","9","",""
"null","994461","pSARL_v2","pSARL_v2fg4ovwa2","61464fe94ab78bd0f17d0dc0","fixation","img/fixation.png","null","","test","","","","","",""
"390.69999999925494","994892","pSARL_v2","pSARL_v2fg4ovwa2","61464fe94ab78bd0f17d0dc0","freq","img/orange_2bandit_b2.png","70","70","test","1","185","185","9","",""
"null","995351","pSARL_v2","pSARL_v2fg4ovwa2","61464fe94ab78bd0f17d0dc0","freq_resp","img/orange_2bandit_b.png","70","70","test","","","","9","",""
"null","995549","pSARL_v2","pSARL_v2fg4ovwa2","61464fe94ab78bd0f17d0dc0","fixation","img/fixation.png","null","","test","","","","","",""
"339.9000000022352","995929","pSARL_v2","pSARL_v2fg4ovwa2","61464fe94ab78bd0f17d0dc0","freq","img/orange_2bandit_b2.png","70","70","test","1","186","186","9","",""
"null","996438","pSARL_v2","pSARL_v2fg4ovwa2","61464fe94ab78bd0f17d0dc0","freq_resp","img/orange_2bandit_b.png","70","70","test","","","","9","",""
"null","996629","pSARL_v2","pSARL_v2fg4ovwa2","61464fe94ab78bd0f17d0dc0","fixation","img/fixation.png","null","","test","","","","","",""
"314.19999999925494","996983","pSARL_v2","pSARL_v2fg4ovwa2","61464fe94ab78bd0f17d0dc0","freq","img/orange_2bandit_b2.png","70","70","test","1","187","187","9","",""
"null","997517","pSARL_v2","pSARL_v2fg4ovwa2","61464fe94ab78bd0f17d0dc0","freq_resp","img/orange_2bandit_b.png","70","70","test","","","","9","",""
"null","997709","pSARL_v2","pSARL_v2fg4ovwa2","61464fe94ab78bd0f17d0dc0","fixation","img/fixation.png","null","","test","","","","","",""
"577.3999999985099","998328","pSARL_v2","pSARL_v2fg4ovwa2","61464fe94ab78bd0f17d0dc0","infreq","img/green_2bandit_b2.png","68","68","test","1","188","188","9","",""
"null","998597","pSARL_v2","pSARL_v2fg4ovwa2","61464fe94ab78bd0f17d0dc0","infreq_resp","img/green_2bandit_b.png","68","68","test","","","","9","",""
"null","998789","pSARL_v2","pSARL_v2fg4ovwa2","61464fe94ab78bd0f17d0dc0","fixation","img/fixation.png","null","","test","","","","","",""
"561","999391","pSARL_v2","pSARL_v2fg4ovwa2","61464fe94ab78bd0f17d0dc0","freq","img/orange_2bandit_b2.png","70","70","test","1","189","189","9","",""
"null","999678","pSARL_v2","pSARL_v2fg4ovwa2","61464fe94ab78bd0f17d0dc0","freq_resp","img/orange_2bandit_b.png","70","70","test","","","","9","",""
"null","999870","pSARL_v2","pSARL_v2fg4ovwa2","61464fe94ab78bd0f17d0dc0","fixation","img/fixation.png","null","","test","","","","","",""
"524.2999999970198","1000434","pSARL_v2","pSARL_v2fg4ovwa2","61464fe94ab78bd0f17d0dc0","freq","img/orange_2bandit_b2.png","70","70","test","1","190","190","9","",""
"null","1000757","pSARL_v2","pSARL_v2fg4ovwa2","61464fe94ab78bd0f17d0dc0","freq_resp","img/orange_2bandit_b.png","70","70","test","","","","9","",""
"null","1000949","pSARL_v2","pSARL_v2fg4ovwa2","61464fe94ab78bd0f17d0dc0","fixation","img/fixation.png","null","","test","","","","","",""
"405","1001394","pSARL_v2","pSARL_v2fg4ovwa2","61464fe94ab78bd0f17d0dc0","freq","img/orange_2bandit_b2.png","70","70","test","1","191","191","9","",""
"null","1001837","pSARL_v2","pSARL_v2fg4ovwa2","61464fe94ab78bd0f17d0dc0","freq_resp","img/orange_2bandit_b.png","70","70","test","","","","9","",""
"null","1002030","pSARL_v2","pSARL_v2fg4ovwa2","61464fe94ab78bd0f17d0dc0","fixation","img/fixation.png","null","","test","","","","","",""
"375.30000000074506","1002445","pSARL_v2","pSARL_v2fg4ovwa2","61464fe94ab78bd0f17d0dc0","freq","img/orange_2bandit_b2.png","70","70","test","1","192","192","9","",""
"null","1002917","pSARL_v2","pSARL_v2fg4ovwa2","61464fe94ab78bd0f17d0dc0","freq_resp","img/orange_2bandit_b.png","70","70","test","","","","9","",""
"null","1003109","pSARL_v2","pSARL_v2fg4ovwa2","61464fe94ab78bd0f17d0dc0","fixation","img/fixation.png","null","","test","","","","","",""
"377.19999999925494","1003526","pSARL_v2","pSARL_v2fg4ovwa2","61464fe94ab78bd0f17d0dc0","freq","img/orange_2bandit_b2.png","70","70","test","1","193","193","9","",""
"null","1003998","pSARL_v2","pSARL_v2fg4ovwa2","61464fe94ab78bd0f17d0dc0","freq_resp","img/orange_2bandit_b.png","70","70","test","","","","9","",""
"null","1004198","pSARL_v2","pSARL_v2fg4ovwa2","61464fe94ab78bd0f17d0dc0","fixation","img/fixation.png","null","","test","","","","","",""
"338.8999999985099","1004577","pSARL_v2","pSARL_v2fg4ovwa2","61464fe94ab78bd0f17d0dc0","freq","img/orange_2bandit_b2.png","70","70","test","1","194","194","9","",""
"null","1005085","pSARL_v2","pSARL_v2fg4ovwa2","61464fe94ab78bd0f17d0dc0","freq_resp","img/orange_2bandit_b.png","70","70","test","","","","9","",""
"null","1005276","pSARL_v2","pSARL_v2fg4ovwa2","61464fe94ab78bd0f17d0dc0","fixation","img/fixation.png","null","","test","","","","","",""
"501.70000000298023","1005817","pSARL_v2","pSARL_v2fg4ovwa2","61464fe94ab78bd0f17d0dc0","freq","img/orange_2bandit_b2.png","70","70","test","1","195","195","9","",""
"null","1006157","pSARL_v2","pSARL_v2fg4ovwa2","61464fe94ab78bd0f17d0dc0","freq_resp","img/orange_2bandit_b.png","70","70","test","","","","9","",""
"null","1006350","pSARL_v2","pSARL_v2fg4ovwa2","61464fe94ab78bd0f17d0dc0","fixation","img/fixation.png","null","","test","","","","","",""
"312.3999999985099","1006703","pSARL_v2","pSARL_v2fg4ovwa2","61464fe94ab78bd0f17d0dc0","freq","img/orange_2bandit_b2.png","70","70","test","1","196","196","9","",""
"null","1007238","pSARL_v2","pSARL_v2fg4ovwa2","61464fe94ab78bd0f17d0dc0","freq_resp","img/orange_2bandit_b.png","70","70","test","","","","9","",""
"null","1007426","pSARL_v2","pSARL_v2fg4ovwa2","61464fe94ab78bd0f17d0dc0","fixation","img/fixation.png","null","","test","","","","","",""
"337.80000000074506","1007779","pSARL_v2","pSARL_v2fg4ovwa2","61464fe94ab78bd0f17d0dc0","freq","img/orange_2bandit_b2.png","70","70","test","1","197","197","9","",""
"null","1008286","pSARL_v2","pSARL_v2fg4ovwa2","61464fe94ab78bd0f17d0dc0","freq_resp","img/orange_2bandit_b.png","70","70","test","","","","9","",""
"null","1008478","pSARL_v2","pSARL_v2fg4ovwa2","61464fe94ab78bd0f17d0dc0","fixation","img/fixation.png","null","","test","","","","","",""
"432.9000000022352","1008950","pSARL_v2","pSARL_v2fg4ovwa2","61464fe94ab78bd0f17d0dc0","freq","img/orange_2bandit_b2.png","70","70","test","1","198","198","9","",""
"null","1009365","pSARL_v2","pSARL_v2fg4ovwa2","61464fe94ab78bd0f17d0dc0","freq_resp","img/orange_2bandit_b.png","70","70","test","","","","9","",""
"null","1009557","pSARL_v2","pSARL_v2fg4ovwa2","61464fe94ab78bd0f17d0dc0","fixation","img/fixation.png","null","","test","","","","","",""
"409.19999999925494","1010007","pSARL_v2","pSARL_v2fg4ovwa2","61464fe94ab78bd0f17d0dc0","infreq","img/green_2bandit_b2.png","68","68","test","1","199","199","9","",""
"null","1010445","pSARL_v2","pSARL_v2fg4ovwa2","61464fe94ab78bd0f17d0dc0","infreq_resp","img/green_2bandit_b.png","68","68","test","","","","9","",""
"null","1010638","pSARL_v2","pSARL_v2fg4ovwa2","61464fe94ab78bd0f17d0dc0","fixation","img/fixation.png","null","","test","","","","","",""
"254.70000000298023","1010932","pSARL_v2","pSARL_v2fg4ovwa2","61464fe94ab78bd0f17d0dc0","freq","img/orange_2bandit_b2.png","70","70","test","1","200","200","9","",""
"null","1011526","pSARL_v2","pSARL_v2fg4ovwa2","61464fe94ab78bd0f17d0dc0","freq_resp","img/orange_2bandit_b.png","70","70","test","","","","9","",""
"null","1011717","pSARL_v2","pSARL_v2fg4ovwa2","61464fe94ab78bd0f17d0dc0","fixation","img/fixation.png","null","","test","","","","","",""
"292.80000000074506","1012051","pSARL_v2","pSARL_v2fg4ovwa2","61464fe94ab78bd0f17d0dc0","freq","img/orange_2bandit_b2.png","70","70","test","1","201","201","9","",""
"null","1012605","pSARL_v2","pSARL_v2fg4ovwa2","61464fe94ab78bd0f17d0dc0","freq_resp","img/orange_2bandit_b.png","70","70","test","","","","9","",""
"null","1012797","pSARL_v2","pSARL_v2fg4ovwa2","61464fe94ab78bd0f17d0dc0","fixation","img/fixation.png","null","","test","","","","","",""
"296.80000000074506","1013134","pSARL_v2","pSARL_v2fg4ovwa2","61464fe94ab78bd0f17d0dc0","freq","img/orange_2bandit_b2.png","70","70","test","1","202","202","9","",""
"null","1013685","pSARL_v2","pSARL_v2fg4ovwa2","61464fe94ab78bd0f17d0dc0","freq_resp","img/orange_2bandit_b.png","70","70","test","","","","9","",""
"null","1013880","pSARL_v2","pSARL_v2fg4ovwa2","61464fe94ab78bd0f17d0dc0","fixation","img/fixation.png","null","","test","","","","","",""
"443","1014362","pSARL_v2","pSARL_v2fg4ovwa2","61464fe94ab78bd0f17d0dc0","reward","img/slot.png","74","","test","","","","","",""
"null","1015158","pSARL_v2","pSARL_v2fg4ovwa2","61464fe94ab78bd0f17d0dc0","points","<div class=""verylowPoints""> -3 </div>","null","na","test","","","","9","-3","8"
"396.69999999925494","1015594","pSARL_v2","pSARL_v2fg4ovwa2","61464fe94ab78bd0f17d0dc0","freq","img/orange_2bandit_b2.png","70","70","test","1","203","203","10","",""
"null","1016046","pSARL_v2","pSARL_v2fg4ovwa2","61464fe94ab78bd0f17d0dc0","freq_resp","img/orange_2bandit_b.png","70","70","test","","","","10","",""
"null","1016238","pSARL_v2","pSARL_v2fg4ovwa2","61464fe94ab78bd0f17d0dc0","fixation","img/fixation.png","null","","test","","","","","",""
"486.20000000298023","1016764","pSARL_v2","pSARL_v2fg4ovwa2","61464fe94ab78bd0f17d0dc0","freq","img/orange_2bandit_b2.png","70","70","test","1","204","204","10","",""
"null","1017126","pSARL_v2","pSARL_v2fg4ovwa2","61464fe94ab78bd0f17d0dc0","freq_resp","img/orange_2bandit_b.png","70","70","test","","","","10","",""
"null","1017319","pSARL_v2","pSARL_v2fg4ovwa2","61464fe94ab78bd0f17d0dc0","fixation","img/fixation.png","null","","test","","","","","",""
"304.70000000298023","1017663","pSARL_v2","pSARL_v2fg4ovwa2","61464fe94ab78bd0f17d0dc0","freq","img/orange_2bandit_b2.png","70","70","test","1","205","205","10","",""
"null","1018205","pSARL_v2","pSARL_v2fg4ovwa2","61464fe94ab78bd0f17d0dc0","freq_resp","img/orange_2bandit_b.png","70","70","test","","","","10","",""
"null","1018397","pSARL_v2","pSARL_v2fg4ovwa2","61464fe94ab78bd0f17d0dc0","fixation","img/fixation.png","null","","test","","","","","",""
