"rt","time_elapsed","expId","subject","prolificID","trialType","stimulus","key_press","corrresp","phase","corr","trialNum","attentionRunNum","blockNum","points","rlNum"
"5950","6010","pSARL_v2","pSARL_v2fvv5wtwq","5dd74005794e106ec44df770","","","","","","","","","","",""
"","9201","pSARL_v2","pSARL_v2fvv5wtwq","5dd74005794e106ec44df770","fullscreen","","","","","","","","","",""
"61245","70465","pSARL_v2","pSARL_v2fvv5wtwq","5dd74005794e106ec44df770","","","","","","","","","","",""
"null","71305","pSARL_v2","pSARL_v2fvv5wtwq","5dd74005794e106ec44df770","freqPrac","img/orange_2bandit_b2.png","null","70","prac","0","","","","",""
"null","72330","pSARL_v2","pSARL_v2fvv5wtwq","5dd74005794e106ec44df770","feedback","img/tooSlow.png","null","na","prac","","","","","",""
"null","72505","pSARL_v2","pSARL_v2fvv5wtwq","5dd74005794e106ec44df770","fixation","img/fixation.png","null","","prac","","","","","",""
"479","72996","pSARL_v2","pSARL_v2fvv5wtwq","5dd74005794e106ec44df770","infreqPrac","img/green_2bandit_b2.png","68","68","prac","1","","","","",""
"479","73340","pSARL_v2","pSARL_v2fvv5wtwq","5dd74005794e106ec44df770","infreqPrac_resp","img/green_2bandit_b.png","68","68","prac","","","","","",""
"null","73522","pSARL_v2","pSARL_v2fvv5wtwq","5dd74005794e106ec44df770","fixation","img/fixation.png","null","","prac","","","","","",""
"500","74040","pSARL_v2","pSARL_v2fvv5wtwq","5dd74005794e106ec44df770","freqPrac","img/orange_2bandit_b2.png","70","70","prac","1","","","","",""
"500","74365","pSARL_v2","pSARL_v2fvv5wtwq","5dd74005794e106ec44df770","freqPrac_resp","img/orange_2bandit_b.png","70","70","prac","","","","","",""
"null","74547","pSARL_v2","pSARL_v2fvv5wtwq","5dd74005794e106ec44df770","fixation","img/fixation.png","null","","prac","","","","","",""
"451","75012","pSARL_v2","pSARL_v2fvv5wtwq","5dd74005794e106ec44df770","infreqPrac","img/green_2bandit_b2.png","68","68","prac","1","","","","",""
"451","75378","pSARL_v2","pSARL_v2fvv5wtwq","5dd74005794e106ec44df770","infreqPrac_resp","img/green_2bandit_b.png","68","68","prac","","","","","",""
"null","75557","pSARL_v2","pSARL_v2fvv5wtwq","5dd74005794e106ec44df770","fixation","img/fixation.png","null","","prac","","","","","",""
"402","75974","pSARL_v2","pSARL_v2fvv5wtwq","5dd74005794e106ec44df770","infreqPrac","img/green_2bandit_b2.png","68","68","prac","1","","","","",""
"402","76392","pSARL_v2","pSARL_v2fvv5wtwq","5dd74005794e106ec44df770","infreqPrac_resp","img/green_2bandit_b.png","68","68","prac","","","","","",""
"null","76570","pSARL_v2","pSARL_v2fvv5wtwq","5dd74005794e106ec44df770","fixation","img/fixation.png","null","","prac","","","","","",""
"398","76987","pSARL_v2","pSARL_v2fvv5wtwq","5dd74005794e106ec44df770","infreqPrac","img/green_2bandit_b2.png","68","68","prac","1","","","","",""
"398","77419","pSARL_v2","pSARL_v2fvv5wtwq","5dd74005794e106ec44df770","infreqPrac_resp","img/green_2bandit_b.png","68","68","prac","","","","","",""
"null","77586","pSARL_v2","pSARL_v2fvv5wtwq","5dd74005794e106ec44df770","fixation","img/fixation.png","null","","prac","","","","","",""
"437","78043","pSARL_v2","pSARL_v2fvv5wtwq","5dd74005794e106ec44df770","freqPrac","img/orange_2bandit_b2.png","70","70","prac","1","","","","",""
"437","78428","pSARL_v2","pSARL_v2fvv5wtwq","5dd74005794e106ec44df770","freqPrac_resp","img/orange_2bandit_b.png","70","70","prac","","","","","",""
"null","78599","pSARL_v2","pSARL_v2fvv5wtwq","5dd74005794e106ec44df770","fixation","img/fixation.png","null","","prac","","","","","",""
"369","78979","pSARL_v2","pSARL_v2fvv5wtwq","5dd74005794e106ec44df770","infreqPrac","img/green_2bandit_b2.png","68","68","prac","1","","","","",""
"369","79433","pSARL_v2","pSARL_v2fvv5wtwq","5dd74005794e106ec44df770","infreqPrac_resp","img/green_2bandit_b.png","68","68","prac","","","","","",""
"null","79611","pSARL_v2","pSARL_v2fvv5wtwq","5dd74005794e106ec44df770","fixation","img/fixation.png","null","","prac","","","","","",""
"420","80046","pSARL_v2","pSARL_v2fvv5wtwq","5dd74005794e106ec44df770","freqPrac","img/orange_2bandit_b2.png","70","70","prac","1","","","","",""
"420","80447","pSARL_v2","pSARL_v2fvv5wtwq","5dd74005794e106ec44df770","freqPrac_resp","img/orange_2bandit_b.png","70","70","prac","","","","","",""
"null","80612","pSARL_v2","pSARL_v2fvv5wtwq","5dd74005794e106ec44df770","fixation","img/fixation.png","null","","prac","","","","","",""
"299","80929","pSARL_v2","pSARL_v2fvv5wtwq","5dd74005794e106ec44df770","freqPrac","img/orange_2bandit_b2.png","68","70","prac","0","","","","",""
"299","81460","pSARL_v2","pSARL_v2fvv5wtwq","5dd74005794e106ec44df770","freqPrac_resp","img/orange_2bandit_b.png","68","70","prac","","","","","",""
"null","82483","pSARL_v2","pSARL_v2fvv5wtwq","5dd74005794e106ec44df770","feedback","img/wrongKey.png","null","na","prac","","","","","",""
"null","82654","pSARL_v2","pSARL_v2fvv5wtwq","5dd74005794e106ec44df770","fixation","img/fixation.png","null","","prac","","","","","",""
"16369","99032","pSARL_v2","pSARL_v2fvv5wtwq","5dd74005794e106ec44df770","","","","","prac","","","","","",""
"711","99754","pSARL_v2","pSARL_v2fvv5wtwq","5dd74005794e106ec44df770","rewardPractice","img/slot.png","74","","prac","","","","","",""
"null","100524","pSARL_v2","pSARL_v2fvv5wtwq","5dd74005794e106ec44df770","feedback","<div class=""veryhighPoints""> +15 </div>","null","na","prac","","","","","",""
"null","100698","pSARL_v2","pSARL_v2fvv5wtwq","5dd74005794e106ec44df770","fixation","img/fixation.png","null","","prac","","","","","",""
"3844","104557","pSARL_v2","pSARL_v2fvv5wtwq","5dd74005794e106ec44df770","","","","","prac","","","","","",""
"554","105128","pSARL_v2","pSARL_v2fvv5wtwq","5dd74005794e106ec44df770","freq","img/orange_2bandit_b2.png","70","70","test","1","1","1","1","",""
"null","105396","pSARL_v2","pSARL_v2fvv5wtwq","5dd74005794e106ec44df770","freq_resp","img/orange_2bandit_b.png","70","70","test","","","","1","",""
"null","105578","pSARL_v2","pSARL_v2fvv5wtwq","5dd74005794e106ec44df770","fixation","img/fixation.png","null","","test","","","","","",""
"420","106014","pSARL_v2","pSARL_v2fvv5wtwq","5dd74005794e106ec44df770","freq","img/orange_2bandit_b2.png","70","70","test","1","2","2","1","",""
"null","106420","pSARL_v2","pSARL_v2fvv5wtwq","5dd74005794e106ec44df770","freq_resp","img/orange_2bandit_b.png","70","70","test","","","","1","",""
"null","106593","pSARL_v2","pSARL_v2fvv5wtwq","5dd74005794e106ec44df770","fixation","img/fixation.png","null","","test","","","","","",""
"383","106991","pSARL_v2","pSARL_v2fvv5wtwq","5dd74005794e106ec44df770","freq","img/orange_2bandit_b2.png","70","70","test","1","3","3","1","",""
"null","107431","pSARL_v2","pSARL_v2fvv5wtwq","5dd74005794e106ec44df770","freq_resp","img/orange_2bandit_b.png","70","70","test","","","","1","",""
"null","107600","pSARL_v2","pSARL_v2fvv5wtwq","5dd74005794e106ec44df770","fixation","img/fixation.png","null","","test","","","","","",""
"423","108037","pSARL_v2","pSARL_v2fvv5wtwq","5dd74005794e106ec44df770","infreq","img/green_2bandit_b2.png","68","68","test","1","4","4","1","",""
"null","108442","pSARL_v2","pSARL_v2fvv5wtwq","5dd74005794e106ec44df770","infreq_resp","img/green_2bandit_b.png","68","68","test","","","","1","",""
"null","108620","pSARL_v2","pSARL_v2fvv5wtwq","5dd74005794e106ec44df770","fixation","img/fixation.png","null","","test","","","","","",""
"500","109137","pSARL_v2","pSARL_v2fvv5wtwq","5dd74005794e106ec44df770","freq","img/orange_2bandit_b2.png","70","70","test","1","5","5","1","",""
"null","109452","pSARL_v2","pSARL_v2fvv5wtwq","5dd74005794e106ec44df770","freq_resp","img/orange_2bandit_b.png","70","70","test","","","","1","",""
"null","109629","pSARL_v2","pSARL_v2fvv5wtwq","5dd74005794e106ec44df770","fixation","img/fixation.png","null","","test","","","","","",""
"514","110165","pSARL_v2","pSARL_v2fvv5wtwq","5dd74005794e106ec44df770","infreq","img/green_2bandit_b2.png","68","68","test","1","6","6","1","",""
"null","110474","pSARL_v2","pSARL_v2fvv5wtwq","5dd74005794e106ec44df770","infreq_resp","img/green_2bandit_b.png","68","68","test","","","","1","",""
"null","110646","pSARL_v2","pSARL_v2fvv5wtwq","5dd74005794e106ec44df770","fixation","img/fixation.png","null","","test","","","","","",""
"425","111088","pSARL_v2","pSARL_v2fvv5wtwq","5dd74005794e106ec44df770","freq","img/orange_2bandit_b2.png","70","70","test","1","7","7","1","",""
"null","111481","pSARL_v2","pSARL_v2fvv5wtwq","5dd74005794e106ec44df770","freq_resp","img/orange_2bandit_b.png","70","70","test","","","","1","",""
"null","111649","pSARL_v2","pSARL_v2fvv5wtwq","5dd74005794e106ec44df770","fixation","img/fixation.png","null","","test","","","","","",""
"445","112113","pSARL_v2","pSARL_v2fvv5wtwq","5dd74005794e106ec44df770","freq","img/orange_2bandit_b2.png","70","70","test","1","8","8","1","",""
"null","112489","pSARL_v2","pSARL_v2fvv5wtwq","5dd74005794e106ec44df770","freq_resp","img/orange_2bandit_b.png","70","70","test","","","","1","",""
"null","112662","pSARL_v2","pSARL_v2fvv5wtwq","5dd74005794e106ec44df770","fixation","img/fixation.png","null","","test","","","","","",""
"385","113062","pSARL_v2","pSARL_v2fvv5wtwq","5dd74005794e106ec44df770","freq","img/orange_2bandit_b2.png","70","70","test","1","9","9","1","",""
"null","113502","pSARL_v2","pSARL_v2fvv5wtwq","5dd74005794e106ec44df770","freq_resp","img/orange_2bandit_b.png","70","70","test","","","","1","",""
"null","113671","pSARL_v2","pSARL_v2fvv5wtwq","5dd74005794e106ec44df770","fixation","img/fixation.png","null","","test","","","","","",""
"344","114033","pSARL_v2","pSARL_v2fvv5wtwq","5dd74005794e106ec44df770","freq","img/orange_2bandit_b2.png","70","70","test","1","10","10","1","",""
"null","114514","pSARL_v2","pSARL_v2fvv5wtwq","5dd74005794e106ec44df770","freq_resp","img/orange_2bandit_b.png","70","70","test","","","","1","",""
"null","114693","pSARL_v2","pSARL_v2fvv5wtwq","5dd74005794e106ec44df770","fixation","img/fixation.png","null","","test","","","","","",""
"347","115050","pSARL_v2","pSARL_v2fvv5wtwq","5dd74005794e106ec44df770","freq","img/orange_2bandit_b2.png","70","70","test","1","11","11","1","",""
"null","115524","pSARL_v2","pSARL_v2fvv5wtwq","5dd74005794e106ec44df770","freq_resp","img/orange_2bandit_b.png","70","70","test","","","","1","",""
"null","115697","pSARL_v2","pSARL_v2fvv5wtwq","5dd74005794e106ec44df770","fixation","img/fixation.png","null","","test","","","","","",""
"382","116093","pSARL_v2","pSARL_v2fvv5wtwq","5dd74005794e106ec44df770","freq","img/orange_2bandit_b2.png","70","70","test","1","12","12","1","",""
"null","116538","pSARL_v2","pSARL_v2fvv5wtwq","5dd74005794e106ec44df770","freq_resp","img/orange_2bandit_b.png","70","70","test","","","","1","",""
"null","116714","pSARL_v2","pSARL_v2fvv5wtwq","5dd74005794e106ec44df770","fixation","img/fixation.png","null","","test","","","","","",""
"317","117043","pSARL_v2","pSARL_v2fvv5wtwq","5dd74005794e106ec44df770","freq","img/orange_2bandit_b2.png","70","70","test","1","13","13","1","",""
"null","117548","pSARL_v2","pSARL_v2fvv5wtwq","5dd74005794e106ec44df770","freq_resp","img/orange_2bandit_b.png","70","70","test","","","","1","",""
"null","117720","pSARL_v2","pSARL_v2fvv5wtwq","5dd74005794e106ec44df770","fixation","img/fixation.png","null","","test","","","","","",""
"327","118061","pSARL_v2","pSARL_v2fvv5wtwq","5dd74005794e106ec44df770","freq","img/orange_2bandit_b2.png","70","70","test","1","14","14","1","",""
"null","118563","pSARL_v2","pSARL_v2fvv5wtwq","5dd74005794e106ec44df770","freq_resp","img/orange_2bandit_b.png","70","70","test","","","","1","",""
"null","118730","pSARL_v2","pSARL_v2fvv5wtwq","5dd74005794e106ec44df770","fixation","img/fixation.png","null","","test","","","","","",""
"308","119053","pSARL_v2","pSARL_v2fvv5wtwq","5dd74005794e106ec44df770","freq","img/orange_2bandit_b2.png","70","70","test","1","15","15","1","",""
"null","119565","pSARL_v2","pSARL_v2fvv5wtwq","5dd74005794e106ec44df770","freq_resp","img/orange_2bandit_b.png","70","70","test","","","","1","",""
"null","119740","pSARL_v2","pSARL_v2fvv5wtwq","5dd74005794e106ec44df770","fixation","img/fixation.png","null","","test","","","","","",""
"332","120090","pSARL_v2","pSARL_v2fvv5wtwq","5dd74005794e106ec44df770","freq","img/orange_2bandit_b2.png","70","70","test","1","16","16","1","",""
"null","120585","pSARL_v2","pSARL_v2fvv5wtwq","5dd74005794e106ec44df770","freq_resp","img/orange_2bandit_b.png","70","70","test","","","","1","",""
"null","120757","pSARL_v2","pSARL_v2fvv5wtwq","5dd74005794e106ec44df770","fixation","img/fixation.png","null","","test","","","","","",""
"314","121083","pSARL_v2","pSARL_v2fvv5wtwq","5dd74005794e106ec44df770","freq","img/orange_2bandit_b2.png","70","70","test","1","17","17","1","",""
"null","121585","pSARL_v2","pSARL_v2fvv5wtwq","5dd74005794e106ec44df770","freq_resp","img/orange_2bandit_b.png","70","70","test","","","","1","",""
"null","121764","pSARL_v2","pSARL_v2fvv5wtwq","5dd74005794e106ec44df770","fixation","img/fixation.png","null","","test","","","","","",""
"299","122078","pSARL_v2","pSARL_v2fvv5wtwq","5dd74005794e106ec44df770","freq","img/orange_2bandit_b2.png","70","70","test","1","18","18","1","",""
"null","122637","pSARL_v2","pSARL_v2fvv5wtwq","5dd74005794e106ec44df770","freq_resp","img/orange_2bandit_b.png","70","70","test","","","","1","",""
"null","122812","pSARL_v2","pSARL_v2fvv5wtwq","5dd74005794e106ec44df770","fixation","img/fixation.png","null","","test","","","","","",""
"306","123134","pSARL_v2","pSARL_v2fvv5wtwq","5dd74005794e106ec44df770","freq","img/orange_2bandit_b2.png","70","70","test","1","19","19","1","",""
"null","123643","pSARL_v2","pSARL_v2fvv5wtwq","5dd74005794e106ec44df770","freq_resp","img/orange_2bandit_b.png","70","70","test","","","","1","",""
"null","123823","pSARL_v2","pSARL_v2fvv5wtwq","5dd74005794e106ec44df770","fixation","img/fixation.png","null","","test","","","","","",""
"304","124146","pSARL_v2","pSARL_v2fvv5wtwq","5dd74005794e106ec44df770","freq","img/orange_2bandit_b2.png","70","70","test","1","20","20","1","",""
"null","124656","pSARL_v2","pSARL_v2fvv5wtwq","5dd74005794e106ec44df770","freq_resp","img/orange_2bandit_b.png","70","70","test","","","","1","",""
"null","124837","pSARL_v2","pSARL_v2fvv5wtwq","5dd74005794e106ec44df770","fixation","img/fixation.png","null","","test","","","","","",""
"626","125475","pSARL_v2","pSARL_v2fvv5wtwq","5dd74005794e106ec44df770","reward","img/slot.png","74","","test","","","","","",""
"null","126242","pSARL_v2","pSARL_v2fvv5wtwq","5dd74005794e106ec44df770","points","<div class=""verylowPoints""> -6 </div>","null","na","test","","","","1","-6","0"
"742","126996","pSARL_v2","pSARL_v2fvv5wtwq","5dd74005794e106ec44df770","freq","img/orange_2bandit_b2.png","70","70","test","1","21","21","2","",""
"null","127080","pSARL_v2","pSARL_v2fvv5wtwq","5dd74005794e106ec44df770","freq_resp","img/orange_2bandit_b.png","70","70","test","","","","2","",""
"null","127246","pSARL_v2","pSARL_v2fvv5wtwq","5dd74005794e106ec44df770","fixation","img/fixation.png","null","","test","","","","","",""
"776","128037","pSARL_v2","pSARL_v2fvv5wtwq","5dd74005794e106ec44df770","freq","img/orange_2bandit_b2.png","70","70","test","1","22","22","2","",""
"null","128096","pSARL_v2","pSARL_v2fvv5wtwq","5dd74005794e106ec44df770","freq_resp","img/orange_2bandit_b.png","70","70","test","","","","2","",""
"null","128265","pSARL_v2","pSARL_v2fvv5wtwq","5dd74005794e106ec44df770","fixation","img/fixation.png","null","","test","","","","","",""
"581","128860","pSARL_v2","pSARL_v2fvv5wtwq","5dd74005794e106ec44df770","freq","img/orange_2bandit_b2.png","70","70","test","1","23","23","2","",""
"null","129108","pSARL_v2","pSARL_v2fvv5wtwq","5dd74005794e106ec44df770","freq_resp","img/orange_2bandit_b.png","70","70","test","","","","2","",""
"null","129281","pSARL_v2","pSARL_v2fvv5wtwq","5dd74005794e106ec44df770","fixation","img/fixation.png","null","","test","","","","","",""
"374","129673","pSARL_v2","pSARL_v2fvv5wtwq","5dd74005794e106ec44df770","freq","img/orange_2bandit_b2.png","70","70","test","1","24","24","2","",""
"null","130120","pSARL_v2","pSARL_v2fvv5wtwq","5dd74005794e106ec44df770","freq_resp","img/orange_2bandit_b.png","70","70","test","","","","2","",""
"null","130299","pSARL_v2","pSARL_v2fvv5wtwq","5dd74005794e106ec44df770","fixation","img/fixation.png","null","","test","","","","","",""
"348","130662","pSARL_v2","pSARL_v2fvv5wtwq","5dd74005794e106ec44df770","freq","img/orange_2bandit_b2.png","70","70","test","1","25","25","2","",""
"null","131129","pSARL_v2","pSARL_v2fvv5wtwq","5dd74005794e106ec44df770","freq_resp","img/orange_2bandit_b.png","70","70","test","","","","2","",""
"null","131305","pSARL_v2","pSARL_v2fvv5wtwq","5dd74005794e106ec44df770","fixation","img/fixation.png","null","","test","","","","","",""
"349","131670","pSARL_v2","pSARL_v2fvv5wtwq","5dd74005794e106ec44df770","freq","img/orange_2bandit_b2.png","70","70","test","1","26","26","2","",""
"null","132146","pSARL_v2","pSARL_v2fvv5wtwq","5dd74005794e106ec44df770","freq_resp","img/orange_2bandit_b.png","70","70","test","","","","2","",""
"null","132314","pSARL_v2","pSARL_v2fvv5wtwq","5dd74005794e106ec44df770","fixation","img/fixation.png","null","","test","","","","","",""
"341","132668","pSARL_v2","pSARL_v2fvv5wtwq","5dd74005794e106ec44df770","freq","img/orange_2bandit_b2.png","70","70","test","1","27","27","2","",""
"null","133147","pSARL_v2","pSARL_v2fvv5wtwq","5dd74005794e106ec44df770","freq_resp","img/orange_2bandit_b.png","70","70","test","","","","2","",""
"null","133326","pSARL_v2","pSARL_v2fvv5wtwq","5dd74005794e106ec44df770","fixation","img/fixation.png","null","","test","","","","","",""
"320","133657","pSARL_v2","pSARL_v2fvv5wtwq","5dd74005794e106ec44df770","freq","img/orange_2bandit_b2.png","70","70","test","1","28","28","2","",""
"null","134161","pSARL_v2","pSARL_v2fvv5wtwq","5dd74005794e106ec44df770","freq_resp","img/orange_2bandit_b.png","70","70","test","","","","2","",""
"null","134338","pSARL_v2","pSARL_v2fvv5wtwq","5dd74005794e106ec44df770","fixation","img/fixation.png","null","","test","","","","","",""
"357","134710","pSARL_v2","pSARL_v2fvv5wtwq","5dd74005794e106ec44df770","freq","img/orange_2bandit_b2.png","70","70","test","1","29","29","2","",""
"null","135166","pSARL_v2","pSARL_v2fvv5wtwq","5dd74005794e106ec44df770","freq_resp","img/orange_2bandit_b.png","70","70","test","","","","2","",""
"null","135345","pSARL_v2","pSARL_v2fvv5wtwq","5dd74005794e106ec44df770","fixation","img/fixation.png","null","","test","","","","","",""
"341","135697","pSARL_v2","pSARL_v2fvv5wtwq","5dd74005794e106ec44df770","freq","img/orange_2bandit_b2.png","70","70","test","1","30","30","2","",""
"null","136178","pSARL_v2","pSARL_v2fvv5wtwq","5dd74005794e106ec44df770","freq_resp","img/orange_2bandit_b.png","70","70","test","","","","2","",""
"null","136349","pSARL_v2","pSARL_v2fvv5wtwq","5dd74005794e106ec44df770","fixation","img/fixation.png","null","","test","","","","","",""
"641","137002","pSARL_v2","pSARL_v2fvv5wtwq","5dd74005794e106ec44df770","infreq","img/green_2bandit_b2.png","68","68","test","1","31","31","2","",""
"null","137185","pSARL_v2","pSARL_v2fvv5wtwq","5dd74005794e106ec44df770","infreq_resp","img/green_2bandit_b.png","68","68","test","","","","2","",""
"null","137367","pSARL_v2","pSARL_v2fvv5wtwq","5dd74005794e106ec44df770","fixation","img/fixation.png","null","","test","","","","","",""
"438","137815","pSARL_v2","pSARL_v2fvv5wtwq","5dd74005794e106ec44df770","freq","img/orange_2bandit_b2.png","70","70","test","1","32","32","2","",""
"null","138195","pSARL_v2","pSARL_v2fvv5wtwq","5dd74005794e106ec44df770","freq_resp","img/orange_2bandit_b.png","70","70","test","","","","2","",""
"null","138359","pSARL_v2","pSARL_v2fvv5wtwq","5dd74005794e106ec44df770","fixation","img/fixation.png","null","","test","","","","","",""
"423","138795","pSARL_v2","pSARL_v2fvv5wtwq","5dd74005794e106ec44df770","freq","img/orange_2bandit_b2.png","70","70","test","1","33","33","2","",""
"null","139196","pSARL_v2","pSARL_v2fvv5wtwq","5dd74005794e106ec44df770","freq_resp","img/orange_2bandit_b.png","70","70","test","","","","2","",""
"null","139370","pSARL_v2","pSARL_v2fvv5wtwq","5dd74005794e106ec44df770","fixation","img/fixation.png","null","","test","","","","","",""
"558","139943","pSARL_v2","pSARL_v2fvv5wtwq","5dd74005794e106ec44df770","freq","img/orange_2bandit_b2.png","70","70","test","1","34","34","2","",""
"null","140197","pSARL_v2","pSARL_v2fvv5wtwq","5dd74005794e106ec44df770","freq_resp","img/orange_2bandit_b.png","70","70","test","","","","2","",""
"null","140381","pSARL_v2","pSARL_v2fvv5wtwq","5dd74005794e106ec44df770","fixation","img/fixation.png","null","","test","","","","","",""
"524","140916","pSARL_v2","pSARL_v2fvv5wtwq","5dd74005794e106ec44df770","freq","img/orange_2bandit_b2.png","70","70","test","1","35","35","2","",""
"null","141213","pSARL_v2","pSARL_v2fvv5wtwq","5dd74005794e106ec44df770","freq_resp","img/orange_2bandit_b.png","70","70","test","","","","2","",""
"null","141383","pSARL_v2","pSARL_v2fvv5wtwq","5dd74005794e106ec44df770","fixation","img/fixation.png","null","","test","","","","","",""
"359","141756","pSARL_v2","pSARL_v2fvv5wtwq","5dd74005794e106ec44df770","freq","img/orange_2bandit_b2.png","70","70","test","1","36","36","2","",""
"null","142217","pSARL_v2","pSARL_v2fvv5wtwq","5dd74005794e106ec44df770","freq_resp","img/orange_2bandit_b.png","70","70","test","","","","2","",""
"null","142397","pSARL_v2","pSARL_v2fvv5wtwq","5dd74005794e106ec44df770","fixation","img/fixation.png","null","","test","","","","","",""
"353","142761","pSARL_v2","pSARL_v2fvv5wtwq","5dd74005794e106ec44df770","freq","img/orange_2bandit_b2.png","70","70","test","1","37","37","2","",""
"null","143230","pSARL_v2","pSARL_v2fvv5wtwq","5dd74005794e106ec44df770","freq_resp","img/orange_2bandit_b.png","70","70","test","","","","2","",""
"null","143411","pSARL_v2","pSARL_v2fvv5wtwq","5dd74005794e106ec44df770","fixation","img/fixation.png","null","","test","","","","","",""
"330","143760","pSARL_v2","pSARL_v2fvv5wtwq","5dd74005794e106ec44df770","freq","img/orange_2bandit_b2.png","70","70","test","1","38","38","2","",""
"null","144248","pSARL_v2","pSARL_v2fvv5wtwq","5dd74005794e106ec44df770","freq_resp","img/orange_2bandit_b.png","70","70","test","","","","2","",""
"null","144424","pSARL_v2","pSARL_v2fvv5wtwq","5dd74005794e106ec44df770","fixation","img/fixation.png","null","","test","","","","","",""
"326","144764","pSARL_v2","pSARL_v2fvv5wtwq","5dd74005794e106ec44df770","freq","img/orange_2bandit_b2.png","70","70","test","1","39","39","2","",""
"null","145264","pSARL_v2","pSARL_v2fvv5wtwq","5dd74005794e106ec44df770","freq_resp","img/orange_2bandit_b.png","70","70","test","","","","2","",""
"null","145439","pSARL_v2","pSARL_v2fvv5wtwq","5dd74005794e106ec44df770","fixation","img/fixation.png","null","","test","","","","","",""
"321","145773","pSARL_v2","pSARL_v2fvv5wtwq","5dd74005794e106ec44df770","freq","img/orange_2bandit_b2.png","70","70","test","1","40","40","2","",""
"null","146275","pSARL_v2","pSARL_v2fvv5wtwq","5dd74005794e106ec44df770","freq_resp","img/orange_2bandit_b.png","70","70","test","","","","2","",""
"null","146453","pSARL_v2","pSARL_v2fvv5wtwq","5dd74005794e106ec44df770","fixation","img/fixation.png","null","","test","","","","","",""
"450","146912","pSARL_v2","pSARL_v2fvv5wtwq","5dd74005794e106ec44df770","infreq","img/green_2bandit_b2.png","68","68","test","1","41","41","2","",""
"null","147285","pSARL_v2","pSARL_v2fvv5wtwq","5dd74005794e106ec44df770","infreq_resp","img/green_2bandit_b.png","68","68","test","","","","2","",""
"null","147452","pSARL_v2","pSARL_v2fvv5wtwq","5dd74005794e106ec44df770","fixation","img/fixation.png","null","","test","","","","","",""
"532","147994","pSARL_v2","pSARL_v2fvv5wtwq","5dd74005794e106ec44df770","freq","img/orange_2bandit_b2.png","70","70","test","1","42","42","2","",""
"null","148278","pSARL_v2","pSARL_v2fvv5wtwq","5dd74005794e106ec44df770","freq_resp","img/orange_2bandit_b.png","70","70","test","","","","2","",""
"null","148451","pSARL_v2","pSARL_v2fvv5wtwq","5dd74005794e106ec44df770","fixation","img/fixation.png","null","","test","","","","","",""
"506","148972","pSARL_v2","pSARL_v2fvv5wtwq","5dd74005794e106ec44df770","reward","img/slot.png","74","","test","","","","","",""
"null","149747","pSARL_v2","pSARL_v2fvv5wtwq","5dd74005794e106ec44df770","points","<div class=""verylowPoints""> -11 </div>","null","na","test","","","","2","-11","1"
"null","150572","pSARL_v2","pSARL_v2fvv5wtwq","5dd74005794e106ec44df770","freq","img/orange_2bandit_b2.png","null","70","test","0","43","43","3","",""
"null","150747","pSARL_v2","pSARL_v2fvv5wtwq","5dd74005794e106ec44df770","fixation","img/fixation.png","null","","test","","","","","",""
"581","151341","pSARL_v2","pSARL_v2fvv5wtwq","5dd74005794e106ec44df770","freq","img/orange_2bandit_b2.png","70","70","test","1","44","44","3","",""
"null","151582","pSARL_v2","pSARL_v2fvv5wtwq","5dd74005794e106ec44df770","freq_resp","img/orange_2bandit_b.png","70","70","test","","","","3","",""
"null","151753","pSARL_v2","pSARL_v2fvv5wtwq","5dd74005794e106ec44df770","fixation","img/fixation.png","null","","test","","","","","",""
"326","152095","pSARL_v2","pSARL_v2fvv5wtwq","5dd74005794e106ec44df770","freq","img/orange_2bandit_b2.png","70","70","test","1","45","45","3","",""
"null","152595","pSARL_v2","pSARL_v2fvv5wtwq","5dd74005794e106ec44df770","freq_resp","img/orange_2bandit_b.png","70","70","test","","","","3","",""
"null","152765","pSARL_v2","pSARL_v2fvv5wtwq","5dd74005794e106ec44df770","fixation","img/fixation.png","null","","test","","","","","",""
"314","153098","pSARL_v2","pSARL_v2fvv5wtwq","5dd74005794e106ec44df770","freq","img/orange_2bandit_b2.png","70","70","test","1","46","46","3","",""
"null","153598","pSARL_v2","pSARL_v2fvv5wtwq","5dd74005794e106ec44df770","freq_resp","img/orange_2bandit_b.png","70","70","test","","","","3","",""
"null","153779","pSARL_v2","pSARL_v2fvv5wtwq","5dd74005794e106ec44df770","fixation","img/fixation.png","null","","test","","","","","",""
"348","154145","pSARL_v2","pSARL_v2fvv5wtwq","5dd74005794e106ec44df770","freq","img/orange_2bandit_b2.png","70","70","test","1","47","47","3","",""
"null","154614","pSARL_v2","pSARL_v2fvv5wtwq","5dd74005794e106ec44df770","freq_resp","img/orange_2bandit_b.png","70","70","test","","","","3","",""
"null","154783","pSARL_v2","pSARL_v2fvv5wtwq","5dd74005794e106ec44df770","fixation","img/fixation.png","null","","test","","","","","",""
"345","155153","pSARL_v2","pSARL_v2fvv5wtwq","5dd74005794e106ec44df770","freq","img/orange_2bandit_b2.png","70","70","test","1","48","48","3","",""
"null","155625","pSARL_v2","pSARL_v2fvv5wtwq","5dd74005794e106ec44df770","freq_resp","img/orange_2bandit_b.png","70","70","test","","","","3","",""
"null","155799","pSARL_v2","pSARL_v2fvv5wtwq","5dd74005794e106ec44df770","fixation","img/fixation.png","null","","test","","","","","",""
"400","156220","pSARL_v2","pSARL_v2fvv5wtwq","5dd74005794e106ec44df770","infreq","img/green_2bandit_b2.png","68","68","test","1","49","49","3","",""
"null","156641","pSARL_v2","pSARL_v2fvv5wtwq","5dd74005794e106ec44df770","infreq_resp","img/green_2bandit_b.png","68","68","test","","","","3","",""
"null","156814","pSARL_v2","pSARL_v2fvv5wtwq","5dd74005794e106ec44df770","fixation","img/fixation.png","null","","test","","","","","",""
"384","157215","pSARL_v2","pSARL_v2fvv5wtwq","5dd74005794e106ec44df770","freq","img/orange_2bandit_b2.png","70","70","test","1","50","50","3","",""
"null","157647","pSARL_v2","pSARL_v2fvv5wtwq","5dd74005794e106ec44df770","freq_resp","img/orange_2bandit_b.png","70","70","test","","","","3","",""
"null","157825","pSARL_v2","pSARL_v2fvv5wtwq","5dd74005794e106ec44df770","fixation","img/fixation.png","null","","test","","","","","",""
"350","158190","pSARL_v2","pSARL_v2fvv5wtwq","5dd74005794e106ec44df770","freq","img/orange_2bandit_b2.png","70","70","test","1","51","51","3","",""
"null","158661","pSARL_v2","pSARL_v2fvv5wtwq","5dd74005794e106ec44df770","freq_resp","img/orange_2bandit_b.png","70","70","test","","","","3","",""
"null","158840","pSARL_v2","pSARL_v2fvv5wtwq","5dd74005794e106ec44df770","fixation","img/fixation.png","null","","test","","","","","",""
"349","159207","pSARL_v2","pSARL_v2fvv5wtwq","5dd74005794e106ec44df770","freq","img/orange_2bandit_b2.png","70","70","test","1","52","52","3","",""
"null","159679","pSARL_v2","pSARL_v2fvv5wtwq","5dd74005794e106ec44df770","freq_resp","img/orange_2bandit_b.png","70","70","test","","","","3","",""
"null","159855","pSARL_v2","pSARL_v2fvv5wtwq","5dd74005794e106ec44df770","fixation","img/fixation.png","null","","test","","","","","",""
"337","160209","pSARL_v2","pSARL_v2fvv5wtwq","5dd74005794e106ec44df770","freq","img/orange_2bandit_b2.png","70","70","test","1","53","53","3","",""
"null","160691","pSARL_v2","pSARL_v2fvv5wtwq","5dd74005794e106ec44df770","freq_resp","img/orange_2bandit_b.png","70","70","test","","","","3","",""
"null","160869","pSARL_v2","pSARL_v2fvv5wtwq","5dd74005794e106ec44df770","fixation","img/fixation.png","null","","test","","","","","",""
"417","161303","pSARL_v2","pSARL_v2fvv5wtwq","5dd74005794e106ec44df770","freq","img/orange_2bandit_b2.png","70","70","test","1","54","54","3","",""
"null","161707","pSARL_v2","pSARL_v2fvv5wtwq","5dd74005794e106ec44df770","freq_resp","img/orange_2bandit_b.png","70","70","test","","","","3","",""
"null","161881","pSARL_v2","pSARL_v2fvv5wtwq","5dd74005794e106ec44df770","fixation","img/fixation.png","null","","test","","","","","",""
"430","162326","pSARL_v2","pSARL_v2fvv5wtwq","5dd74005794e106ec44df770","infreq","img/green_2bandit_b2.png","68","68","test","1","55","55","3","",""
"null","162725","pSARL_v2","pSARL_v2fvv5wtwq","5dd74005794e106ec44df770","infreq_resp","img/green_2bandit_b.png","68","68","test","","","","3","",""
"null","162908","pSARL_v2","pSARL_v2fvv5wtwq","5dd74005794e106ec44df770","fixation","img/fixation.png","null","","test","","","","","",""
"403","163329","pSARL_v2","pSARL_v2fvv5wtwq","5dd74005794e106ec44df770","freq","img/orange_2bandit_b2.png","70","70","test","1","56","56","3","",""
"null","163747","pSARL_v2","pSARL_v2fvv5wtwq","5dd74005794e106ec44df770","freq_resp","img/orange_2bandit_b.png","70","70","test","","","","3","",""
"null","163928","pSARL_v2","pSARL_v2fvv5wtwq","5dd74005794e106ec44df770","fixation","img/fixation.png","null","","test","","","","","",""
"582","164532","pSARL_v2","pSARL_v2fvv5wtwq","5dd74005794e106ec44df770","freq","img/orange_2bandit_b2.png","70","70","test","1","57","57","3","",""
"null","164775","pSARL_v2","pSARL_v2fvv5wtwq","5dd74005794e106ec44df770","freq_resp","img/orange_2bandit_b.png","70","70","test","","","","3","",""
"null","164944","pSARL_v2","pSARL_v2fvv5wtwq","5dd74005794e106ec44df770","fixation","img/fixation.png","null","","test","","","","","",""
"415","165374","pSARL_v2","pSARL_v2fvv5wtwq","5dd74005794e106ec44df770","freq","img/orange_2bandit_b2.png","70","70","test","1","58","58","3","",""
"null","165785","pSARL_v2","pSARL_v2fvv5wtwq","5dd74005794e106ec44df770","freq_resp","img/orange_2bandit_b.png","70","70","test","","","","3","",""
"null","165956","pSARL_v2","pSARL_v2fvv5wtwq","5dd74005794e106ec44df770","fixation","img/fixation.png","null","","test","","","","","",""
"332","166299","pSARL_v2","pSARL_v2fvv5wtwq","5dd74005794e106ec44df770","freq","img/orange_2bandit_b2.png","70","70","test","1","59","59","3","",""
"null","166790","pSARL_v2","pSARL_v2fvv5wtwq","5dd74005794e106ec44df770","freq_resp","img/orange_2bandit_b.png","70","70","test","","","","3","",""
"null","166960","pSARL_v2","pSARL_v2fvv5wtwq","5dd74005794e106ec44df770","fixation","img/fixation.png","null","","test","","","","","",""
"343","167320","pSARL_v2","pSARL_v2fvv5wtwq","5dd74005794e106ec44df770","freq","img/orange_2bandit_b2.png","70","70","test","1","60","60","3","",""
"null","167801","pSARL_v2","pSARL_v2fvv5wtwq","5dd74005794e106ec44df770","freq_resp","img/orange_2bandit_b.png","70","70","test","","","","3","",""
"null","167976","pSARL_v2","pSARL_v2fvv5wtwq","5dd74005794e106ec44df770","fixation","img/fixation.png","null","","test","","","","","",""
"376","168369","pSARL_v2","pSARL_v2fvv5wtwq","5dd74005794e106ec44df770","freq","img/orange_2bandit_b2.png","70","70","test","1","61","61","3","",""
"null","168819","pSARL_v2","pSARL_v2fvv5wtwq","5dd74005794e106ec44df770","freq_resp","img/orange_2bandit_b.png","70","70","test","","","","3","",""
"null","168999","pSARL_v2","pSARL_v2fvv5wtwq","5dd74005794e106ec44df770","fixation","img/fixation.png","null","","test","","","","","",""
"400","169419","pSARL_v2","pSARL_v2fvv5wtwq","5dd74005794e106ec44df770","freq","img/orange_2bandit_b2.png","70","70","test","1","62","62","3","",""
"null","169830","pSARL_v2","pSARL_v2fvv5wtwq","5dd74005794e106ec44df770","freq_resp","img/orange_2bandit_b.png","70","70","test","","","","3","",""
"null","170008","pSARL_v2","pSARL_v2fvv5wtwq","5dd74005794e106ec44df770","fixation","img/fixation.png","null","","test","","","","","",""
"351","170372","pSARL_v2","pSARL_v2fvv5wtwq","5dd74005794e106ec44df770","freq","img/orange_2bandit_b2.png","70","70","test","1","63","63","3","",""
"null","170841","pSARL_v2","pSARL_v2fvv5wtwq","5dd74005794e106ec44df770","freq_resp","img/orange_2bandit_b.png","70","70","test","","","","3","",""
"null","171021","pSARL_v2","pSARL_v2fvv5wtwq","5dd74005794e106ec44df770","fixation","img/fixation.png","null","","test","","","","","",""
"347","171380","pSARL_v2","pSARL_v2fvv5wtwq","5dd74005794e106ec44df770","freq","img/orange_2bandit_b2.png","70","70","test","1","64","64","3","",""
"null","171852","pSARL_v2","pSARL_v2fvv5wtwq","5dd74005794e106ec44df770","freq_resp","img/orange_2bandit_b.png","70","70","test","","","","3","",""
"null","172029","pSARL_v2","pSARL_v2fvv5wtwq","5dd74005794e106ec44df770","fixation","img/fixation.png","null","","test","","","","","",""
"490","172539","pSARL_v2","pSARL_v2fvv5wtwq","5dd74005794e106ec44df770","reward","img/slot.png","74","","test","","","","","",""
"null","173310","pSARL_v2","pSARL_v2fvv5wtwq","5dd74005794e106ec44df770","points","<div class=""verylowPoints""> -7 </div>","null","na","test","","","","3","-7","2"
"664","173989","pSARL_v2","pSARL_v2fvv5wtwq","5dd74005794e106ec44df770","freq","img/orange_2bandit_b2.png","70","70","test","1","65","65","4","",""
"null","174156","pSARL_v2","pSARL_v2fvv5wtwq","5dd74005794e106ec44df770","freq_resp","img/orange_2bandit_b.png","70","70","test","","","","4","",""
"null","174322","pSARL_v2","pSARL_v2fvv5wtwq","5dd74005794e106ec44df770","fixation","img/fixation.png","null","","test","","","","","",""
"781","175115","pSARL_v2","pSARL_v2fvv5wtwq","5dd74005794e106ec44df770","freq","img/orange_2bandit_b2.png","70","70","test","1","66","66","4","",""
"null","175154","pSARL_v2","pSARL_v2fvv5wtwq","5dd74005794e106ec44df770","freq_resp","img/orange_2bandit_b.png","70","70","test","","","","4","",""
"null","175322","pSARL_v2","pSARL_v2fvv5wtwq","5dd74005794e106ec44df770","fixation","img/fixation.png","null","","test","","","","","",""
"772","176109","pSARL_v2","pSARL_v2fvv5wtwq","5dd74005794e106ec44df770","freq","img/orange_2bandit_b2.png","70","70","test","1","67","67","4","",""
"null","176162","pSARL_v2","pSARL_v2fvv5wtwq","5dd74005794e106ec44df770","freq_resp","img/orange_2bandit_b.png","70","70","test","","","","4","",""
"null","176341","pSARL_v2","pSARL_v2fvv5wtwq","5dd74005794e106ec44df770","fixation","img/fixation.png","null","","test","","","","","",""
"562","176921","pSARL_v2","pSARL_v2fvv5wtwq","5dd74005794e106ec44df770","freq","img/orange_2bandit_b2.png","70","70","test","1","68","68","4","",""
"null","177178","pSARL_v2","pSARL_v2fvv5wtwq","5dd74005794e106ec44df770","freq_resp","img/orange_2bandit_b.png","70","70","test","","","","4","",""
"null","177354","pSARL_v2","pSARL_v2fvv5wtwq","5dd74005794e106ec44df770","fixation","img/fixation.png","null","","test","","","","","",""
"389","177757","pSARL_v2","pSARL_v2fvv5wtwq","5dd74005794e106ec44df770","freq","img/orange_2bandit_b2.png","70","70","test","1","69","69","4","",""
"null","178192","pSARL_v2","pSARL_v2fvv5wtwq","5dd74005794e106ec44df770","freq_resp","img/orange_2bandit_b.png","70","70","test","","","","4","",""
"null","178364","pSARL_v2","pSARL_v2fvv5wtwq","5dd74005794e106ec44df770","fixation","img/fixation.png","null","","test","","","","","",""
"323","178705","pSARL_v2","pSARL_v2fvv5wtwq","5dd74005794e106ec44df770","freq","img/orange_2bandit_b2.png","70","70","test","1","70","70","4","",""
"null","179207","pSARL_v2","pSARL_v2fvv5wtwq","5dd74005794e106ec44df770","freq_resp","img/orange_2bandit_b.png","70","70","test","","","","4","",""
"null","179380","pSARL_v2","pSARL_v2fvv5wtwq","5dd74005794e106ec44df770","fixation","img/fixation.png","null","","test","","","","","",""
"339","179737","pSARL_v2","pSARL_v2fvv5wtwq","5dd74005794e106ec44df770","freq","img/orange_2bandit_b2.png","70","70","test","1","71","71","4","",""
"null","180213","pSARL_v2","pSARL_v2fvv5wtwq","5dd74005794e106ec44df770","freq_resp","img/orange_2bandit_b.png","70","70","test","","","","4","",""
"null","180396","pSARL_v2","pSARL_v2fvv5wtwq","5dd74005794e106ec44df770","fixation","img/fixation.png","null","","test","","","","","",""
"316","180723","pSARL_v2","pSARL_v2fvv5wtwq","5dd74005794e106ec44df770","freq","img/orange_2bandit_b2.png","70","70","test","1","72","72","4","",""
"null","181225","pSARL_v2","pSARL_v2fvv5wtwq","5dd74005794e106ec44df770","freq_resp","img/orange_2bandit_b.png","70","70","test","","","","4","",""
"null","181404","pSARL_v2","pSARL_v2fvv5wtwq","5dd74005794e106ec44df770","fixation","img/fixation.png","null","","test","","","","","",""
"338","181756","pSARL_v2","pSARL_v2fvv5wtwq","5dd74005794e106ec44df770","freq","img/orange_2bandit_b2.png","70","70","test","1","73","73","4","",""
"null","182238","pSARL_v2","pSARL_v2fvv5wtwq","5dd74005794e106ec44df770","freq_resp","img/orange_2bandit_b.png","70","70","test","","","","4","",""
"null","182415","pSARL_v2","pSARL_v2fvv5wtwq","5dd74005794e106ec44df770","fixation","img/fixation.png","null","","test","","","","","",""
"337","182764","pSARL_v2","pSARL_v2fvv5wtwq","5dd74005794e106ec44df770","freq","img/orange_2bandit_b2.png","70","70","test","1","74","74","4","",""
"null","183247","pSARL_v2","pSARL_v2fvv5wtwq","5dd74005794e106ec44df770","freq_resp","img/orange_2bandit_b.png","70","70","test","","","","4","",""
"null","183427","pSARL_v2","pSARL_v2fvv5wtwq","5dd74005794e106ec44df770","fixation","img/fixation.png","null","","test","","","","","",""
"611","184053","pSARL_v2","pSARL_v2fvv5wtwq","5dd74005794e106ec44df770","infreq","img/green_2bandit_b2.png","68","68","test","1","75","75","4","",""
"null","184264","pSARL_v2","pSARL_v2fvv5wtwq","5dd74005794e106ec44df770","infreq_resp","img/green_2bandit_b.png","68","68","test","","","","4","",""
"null","184434","pSARL_v2","pSARL_v2fvv5wtwq","5dd74005794e106ec44df770","fixation","img/fixation.png","null","","test","","","","","",""
"475","184926","pSARL_v2","pSARL_v2fvv5wtwq","5dd74005794e106ec44df770","freq","img/orange_2bandit_b2.png","70","70","test","1","76","76","4","",""
"null","185277","pSARL_v2","pSARL_v2fvv5wtwq","5dd74005794e106ec44df770","freq_resp","img/orange_2bandit_b.png","70","70","test","","","","4","",""
"null","185456","pSARL_v2","pSARL_v2fvv5wtwq","5dd74005794e106ec44df770","fixation","img/fixation.png","null","","test","","","","","",""
"519","185990","pSARL_v2","pSARL_v2fvv5wtwq","5dd74005794e106ec44df770","freq","img/orange_2bandit_b2.png","70","70","test","1","77","77","4","",""
"null","186299","pSARL_v2","pSARL_v2fvv5wtwq","5dd74005794e106ec44df770","freq_resp","img/orange_2bandit_b.png","70","70","test","","","","4","",""
"null","186464","pSARL_v2","pSARL_v2fvv5wtwq","5dd74005794e106ec44df770","fixation","img/fixation.png","null","","test","","","","","",""
"367","186849","pSARL_v2","pSARL_v2fvv5wtwq","5dd74005794e106ec44df770","freq","img/orange_2bandit_b2.png","70","70","test","1","78","78","4","",""
"null","187313","pSARL_v2","pSARL_v2fvv5wtwq","5dd74005794e106ec44df770","freq_resp","img/orange_2bandit_b.png","70","70","test","","","","4","",""
"null","187480","pSARL_v2","pSARL_v2fvv5wtwq","5dd74005794e106ec44df770","fixation","img/fixation.png","null","","test","","","","","",""
"447","187944","pSARL_v2","pSARL_v2fvv5wtwq","5dd74005794e106ec44df770","infreq","img/green_2bandit_b2.png","68","68","test","1","79","79","4","",""
"null","188322","pSARL_v2","pSARL_v2fvv5wtwq","5dd74005794e106ec44df770","infreq_resp","img/green_2bandit_b.png","68","68","test","","","","4","",""
"null","188492","pSARL_v2","pSARL_v2fvv5wtwq","5dd74005794e106ec44df770","fixation","img/fixation.png","null","","test","","","","","",""
"404","188909","pSARL_v2","pSARL_v2fvv5wtwq","5dd74005794e106ec44df770","freq","img/orange_2bandit_b2.png","70","70","test","1","80","80","4","",""
"null","189358","pSARL_v2","pSARL_v2fvv5wtwq","5dd74005794e106ec44df770","freq_resp","img/orange_2bandit_b.png","70","70","test","","","","4","",""
"null","189541","pSARL_v2","pSARL_v2fvv5wtwq","5dd74005794e106ec44df770","fixation","img/fixation.png","null","","test","","","","","",""
"369","189929","pSARL_v2","pSARL_v2fvv5wtwq","5dd74005794e106ec44df770","freq","img/orange_2bandit_b2.png","70","70","test","1","81","81","4","",""
"null","190385","pSARL_v2","pSARL_v2fvv5wtwq","5dd74005794e106ec44df770","freq_resp","img/orange_2bandit_b.png","70","70","test","","","","4","",""
"null","190564","pSARL_v2","pSARL_v2fvv5wtwq","5dd74005794e106ec44df770","fixation","img/fixation.png","null","","test","","","","","",""
"433","191015","pSARL_v2","pSARL_v2fvv5wtwq","5dd74005794e106ec44df770","freq","img/orange_2bandit_b2.png","70","70","test","1","82","82","4","",""
"null","191403","pSARL_v2","pSARL_v2fvv5wtwq","5dd74005794e106ec44df770","freq_resp","img/orange_2bandit_b.png","70","70","test","","","","4","",""
"null","191576","pSARL_v2","pSARL_v2fvv5wtwq","5dd74005794e106ec44df770","fixation","img/fixation.png","null","","test","","","","","",""
"430","192020","pSARL_v2","pSARL_v2fvv5wtwq","5dd74005794e106ec44df770","freq","img/orange_2bandit_b2.png","70","70","test","1","83","83","4","",""
"null","192411","pSARL_v2","pSARL_v2fvv5wtwq","5dd74005794e106ec44df770","freq_resp","img/orange_2bandit_b.png","70","70","test","","","","4","",""
"null","192582","pSARL_v2","pSARL_v2fvv5wtwq","5dd74005794e106ec44df770","fixation","img/fixation.png","null","","test","","","","","",""
"359","192959","pSARL_v2","pSARL_v2fvv5wtwq","5dd74005794e106ec44df770","freq","img/orange_2bandit_b2.png","70","70","test","1","84","84","4","",""
"null","193427","pSARL_v2","pSARL_v2fvv5wtwq","5dd74005794e106ec44df770","freq_resp","img/orange_2bandit_b.png","70","70","test","","","","4","",""
"null","193603","pSARL_v2","pSARL_v2fvv5wtwq","5dd74005794e106ec44df770","fixation","img/fixation.png","null","","test","","","","","",""
"331","193947","pSARL_v2","pSARL_v2fvv5wtwq","5dd74005794e106ec44df770","freq","img/orange_2bandit_b2.png","70","70","test","1","85","85","4","",""
"null","194440","pSARL_v2","pSARL_v2fvv5wtwq","5dd74005794e106ec44df770","freq_resp","img/orange_2bandit_b.png","70","70","test","","","","4","",""
"null","194611","pSARL_v2","pSARL_v2fvv5wtwq","5dd74005794e106ec44df770","fixation","img/fixation.png","null","","test","","","","","",""
"340","194968","pSARL_v2","pSARL_v2fvv5wtwq","5dd74005794e106ec44df770","freq","img/orange_2bandit_b2.png","70","70","test","1","86","86","4","",""
"null","195446","pSARL_v2","pSARL_v2fvv5wtwq","5dd74005794e106ec44df770","freq_resp","img/orange_2bandit_b.png","70","70","test","","","","4","",""
"null","195622","pSARL_v2","pSARL_v2fvv5wtwq","5dd74005794e106ec44df770","fixation","img/fixation.png","null","","test","","","","","",""
"347","195984","pSARL_v2","pSARL_v2fvv5wtwq","5dd74005794e106ec44df770","freq","img/orange_2bandit_b2.png","70","70","test","1","87","87","4","",""
"null","196457","pSARL_v2","pSARL_v2fvv5wtwq","5dd74005794e106ec44df770","freq_resp","img/orange_2bandit_b.png","70","70","test","","","","4","",""
"null","196633","pSARL_v2","pSARL_v2fvv5wtwq","5dd74005794e106ec44df770","fixation","img/fixation.png","null","","test","","","","","",""
"567","197210","pSARL_v2","pSARL_v2fvv5wtwq","5dd74005794e106ec44df770","freq","img/orange_2bandit_b2.png","70","70","test","1","88","88","4","",""
"null","197470","pSARL_v2","pSARL_v2fvv5wtwq","5dd74005794e106ec44df770","freq_resp","img/orange_2bandit_b.png","70","70","test","","","","4","",""
"null","197646","pSARL_v2","pSARL_v2fvv5wtwq","5dd74005794e106ec44df770","fixation","img/fixation.png","null","","test","","","","","",""
"464","198125","pSARL_v2","pSARL_v2fvv5wtwq","5dd74005794e106ec44df770","reward","img/slot.png","74","","test","","","","","",""
"null","198904","pSARL_v2","pSARL_v2fvv5wtwq","5dd74005794e106ec44df770","points","<div class=""verylowPoints""> -3 </div>","null","na","test","","","","4","-3","3"
"null","199715","pSARL_v2","pSARL_v2fvv5wtwq","5dd74005794e106ec44df770","freq","img/orange_2bandit_b2.png","null","70","test","0","89","89","5","",""
"null","199894","pSARL_v2","pSARL_v2fvv5wtwq","5dd74005794e106ec44df770","fixation","img/fixation.png","null","","test","","","","","",""
"768","200674","pSARL_v2","pSARL_v2fvv5wtwq","5dd74005794e106ec44df770","freq","img/orange_2bandit_b2.png","70","70","test","1","90","90","5","",""
"null","200730","pSARL_v2","pSARL_v2fvv5wtwq","5dd74005794e106ec44df770","freq_resp","img/orange_2bandit_b.png","70","70","test","","","","5","",""
"null","200914","pSARL_v2","pSARL_v2fvv5wtwq","5dd74005794e106ec44df770","fixation","img/fixation.png","null","","test","","","","","",""
"612","201541","pSARL_v2","pSARL_v2fvv5wtwq","5dd74005794e106ec44df770","freq","img/orange_2bandit_b2.png","70","70","test","1","91","91","5","",""
"null","201742","pSARL_v2","pSARL_v2fvv5wtwq","5dd74005794e106ec44df770","freq_resp","img/orange_2bandit_b.png","70","70","test","","","","5","",""
"null","201921","pSARL_v2","pSARL_v2fvv5wtwq","5dd74005794e106ec44df770","fixation","img/fixation.png","null","","test","","","","","",""
"416","202357","pSARL_v2","pSARL_v2fvv5wtwq","5dd74005794e106ec44df770","freq","img/orange_2bandit_b2.png","70","70","test","1","92","92","5","",""
"null","202771","pSARL_v2","pSARL_v2fvv5wtwq","5dd74005794e106ec44df770","freq_resp","img/orange_2bandit_b.png","70","70","test","","","","5","",""
"null","202940","pSARL_v2","pSARL_v2fvv5wtwq","5dd74005794e106ec44df770","fixation","img/fixation.png","null","","test","","","","","",""
"322","203282","pSARL_v2","pSARL_v2fvv5wtwq","5dd74005794e106ec44df770","freq","img/orange_2bandit_b2.png","70","70","test","1","93","93","5","",""
"null","203781","pSARL_v2","pSARL_v2fvv5wtwq","5dd74005794e106ec44df770","freq_resp","img/orange_2bandit_b.png","70","70","test","","","","5","",""
"null","203947","pSARL_v2","pSARL_v2fvv5wtwq","5dd74005794e106ec44df770","fixation","img/fixation.png","null","","test","","","","","",""
"322","204284","pSARL_v2","pSARL_v2fvv5wtwq","5dd74005794e106ec44df770","freq","img/orange_2bandit_b2.png","70","70","test","1","94","94","5","",""
"null","204774","pSARL_v2","pSARL_v2fvv5wtwq","5dd74005794e106ec44df770","freq_resp","img/orange_2bandit_b.png","70","70","test","","","","5","",""
"null","204955","pSARL_v2","pSARL_v2fvv5wtwq","5dd74005794e106ec44df770","fixation","img/fixation.png","null","","test","","","","","",""
"322","205291","pSARL_v2","pSARL_v2fvv5wtwq","5dd74005794e106ec44df770","freq","img/orange_2bandit_b2.png","70","70","test","1","95","95","5","",""
"null","205786","pSARL_v2","pSARL_v2fvv5wtwq","5dd74005794e106ec44df770","freq_resp","img/orange_2bandit_b.png","70","70","test","","","","5","",""
"null","205954","pSARL_v2","pSARL_v2fvv5wtwq","5dd74005794e106ec44df770","fixation","img/fixation.png","null","","test","","","","","",""
"258","206224","pSARL_v2","pSARL_v2fvv5wtwq","5dd74005794e106ec44df770","freq","img/orange_2bandit_b2.png","70","70","test","1","96","96","5","",""
"null","206796","pSARL_v2","pSARL_v2fvv5wtwq","5dd74005794e106ec44df770","freq_resp","img/orange_2bandit_b.png","70","70","test","","","","5","",""
"null","206967","pSARL_v2","pSARL_v2fvv5wtwq","5dd74005794e106ec44df770","fixation","img/fixation.png","null","","test","","","","","",""
"167","207146","pSARL_v2","pSARL_v2fvv5wtwq","5dd74005794e106ec44df770","freq","img/orange_2bandit_b2.png","70","70","test","1","97","97","5","",""
"null","207804","pSARL_v2","pSARL_v2fvv5wtwq","5dd74005794e106ec44df770","freq_resp","img/orange_2bandit_b.png","70","70","test","","","","5","",""
"null","207985","pSARL_v2","pSARL_v2fvv5wtwq","5dd74005794e106ec44df770","fixation","img/fixation.png","null","","test","","","","","",""
"292","208289","pSARL_v2","pSARL_v2fvv5wtwq","5dd74005794e106ec44df770","freq","img/orange_2bandit_b2.png","70","70","test","1","98","98","5","",""
"null","208818","pSARL_v2","pSARL_v2fvv5wtwq","5dd74005794e106ec44df770","freq_resp","img/orange_2bandit_b.png","70","70","test","","","","5","",""
"null","209001","pSARL_v2","pSARL_v2fvv5wtwq","5dd74005794e106ec44df770","fixation","img/fixation.png","null","","test","","","","","",""
"429","209444","pSARL_v2","pSARL_v2fvv5wtwq","5dd74005794e106ec44df770","infreq","img/green_2bandit_b2.png","68","68","test","1","99","99","5","",""
"null","209832","pSARL_v2","pSARL_v2fvv5wtwq","5dd74005794e106ec44df770","infreq_resp","img/green_2bandit_b.png","68","68","test","","","","5","",""
"null","209999","pSARL_v2","pSARL_v2fvv5wtwq","5dd74005794e106ec44df770","fixation","img/fixation.png","null","","test","","","","","",""
"504","210521","pSARL_v2","pSARL_v2fvv5wtwq","5dd74005794e106ec44df770","infreq","img/green_2bandit_b2.png","68","68","test","1","100","100","5","",""
"null","210833","pSARL_v2","pSARL_v2fvv5wtwq","5dd74005794e106ec44df770","infreq_resp","img/green_2bandit_b.png","68","68","test","","","","5","",""
"null","210999","pSARL_v2","pSARL_v2fvv5wtwq","5dd74005794e106ec44df770","fixation","img/fixation.png","null","","test","","","","","",""
"413","211429","pSARL_v2","pSARL_v2fvv5wtwq","5dd74005794e106ec44df770","freq","img/orange_2bandit_b2.png","70","70","test","1","101","101","5","",""
"null","211832","pSARL_v2","pSARL_v2fvv5wtwq","5dd74005794e106ec44df770","freq_resp","img/orange_2bandit_b.png","70","70","test","","","","5","",""
"null","212011","pSARL_v2","pSARL_v2fvv5wtwq","5dd74005794e106ec44df770","fixation","img/fixation.png","null","","test","","","","","",""
"356","212378","pSARL_v2","pSARL_v2fvv5wtwq","5dd74005794e106ec44df770","freq","img/orange_2bandit_b2.png","70","70","test","1","102","102","5","",""
"null","212846","pSARL_v2","pSARL_v2fvv5wtwq","5dd74005794e106ec44df770","freq_resp","img/orange_2bandit_b.png","70","70","test","","","","5","",""
"null","213023","pSARL_v2","pSARL_v2fvv5wtwq","5dd74005794e106ec44df770","fixation","img/fixation.png","null","","test","","","","","",""
"319","213354","pSARL_v2","pSARL_v2fvv5wtwq","5dd74005794e106ec44df770","freq","img/orange_2bandit_b2.png","70","70","test","1","103","103","5","",""
"null","213854","pSARL_v2","pSARL_v2fvv5wtwq","5dd74005794e106ec44df770","freq_resp","img/orange_2bandit_b.png","70","70","test","","","","5","",""
"null","214029","pSARL_v2","pSARL_v2fvv5wtwq","5dd74005794e106ec44df770","fixation","img/fixation.png","null","","test","","","","","",""
"338","214385","pSARL_v2","pSARL_v2fvv5wtwq","5dd74005794e106ec44df770","freq","img/orange_2bandit_b2.png","70","70","test","1","104","104","5","",""
"null","214863","pSARL_v2","pSARL_v2fvv5wtwq","5dd74005794e106ec44df770","freq_resp","img/orange_2bandit_b.png","70","70","test","","","","5","",""
"null","215043","pSARL_v2","pSARL_v2fvv5wtwq","5dd74005794e106ec44df770","fixation","img/fixation.png","null","","test","","","","","",""
"314","215369","pSARL_v2","pSARL_v2fvv5wtwq","5dd74005794e106ec44df770","freq","img/orange_2bandit_b2.png","70","70","test","1","105","105","5","",""
"null","215875","pSARL_v2","pSARL_v2fvv5wtwq","5dd74005794e106ec44df770","freq_resp","img/orange_2bandit_b.png","70","70","test","","","","5","",""
"null","216054","pSARL_v2","pSARL_v2fvv5wtwq","5dd74005794e106ec44df770","fixation","img/fixation.png","null","","test","","","","","",""
"346","216414","pSARL_v2","pSARL_v2fvv5wtwq","5dd74005794e106ec44df770","freq","img/orange_2bandit_b2.png","70","70","test","1","106","106","5","",""
"null","216896","pSARL_v2","pSARL_v2fvv5wtwq","5dd74005794e106ec44df770","freq_resp","img/orange_2bandit_b.png","70","70","test","","","","5","",""
"null","217072","pSARL_v2","pSARL_v2fvv5wtwq","5dd74005794e106ec44df770","fixation","img/fixation.png","null","","test","","","","","",""
"326","217422","pSARL_v2","pSARL_v2fvv5wtwq","5dd74005794e106ec44df770","freq","img/orange_2bandit_b2.png","70","70","test","1","107","107","5","",""
"null","217924","pSARL_v2","pSARL_v2fvv5wtwq","5dd74005794e106ec44df770","freq_resp","img/orange_2bandit_b.png","70","70","test","","","","5","",""
"null","218097","pSARL_v2","pSARL_v2fvv5wtwq","5dd74005794e106ec44df770","fixation","img/fixation.png","null","","test","","","","","",""
"324","218432","pSARL_v2","pSARL_v2fvv5wtwq","5dd74005794e106ec44df770","freq","img/orange_2bandit_b2.png","70","70","test","1","108","108","5","",""
"null","218942","pSARL_v2","pSARL_v2fvv5wtwq","5dd74005794e106ec44df770","freq_resp","img/orange_2bandit_b.png","70","70","test","","","","5","",""
"null","219119","pSARL_v2","pSARL_v2fvv5wtwq","5dd74005794e106ec44df770","fixation","img/fixation.png","null","","test","","","","","",""
"320","219449","pSARL_v2","pSARL_v2fvv5wtwq","5dd74005794e106ec44df770","freq","img/orange_2bandit_b2.png","70","70","test","1","109","109","5","",""
"null","219954","pSARL_v2","pSARL_v2fvv5wtwq","5dd74005794e106ec44df770","freq_resp","img/orange_2bandit_b.png","70","70","test","","","","5","",""
"null","220138","pSARL_v2","pSARL_v2fvv5wtwq","5dd74005794e106ec44df770","fixation","img/fixation.png","null","","test","","","","","",""
"398","220548","pSARL_v2","pSARL_v2fvv5wtwq","5dd74005794e106ec44df770","freq","img/orange_2bandit_b2.png","70","70","test","1","110","110","5","",""
"null","220970","pSARL_v2","pSARL_v2fvv5wtwq","5dd74005794e106ec44df770","freq_resp","img/orange_2bandit_b.png","70","70","test","","","","5","",""
"null","221156","pSARL_v2","pSARL_v2fvv5wtwq","5dd74005794e106ec44df770","fixation","img/fixation.png","null","","test","","","","","",""
"521","221693","pSARL_v2","pSARL_v2fvv5wtwq","5dd74005794e106ec44df770","freq","img/orange_2bandit_b2.png","70","70","test","1","111","111","5","",""
"null","221990","pSARL_v2","pSARL_v2fvv5wtwq","5dd74005794e106ec44df770","freq_resp","img/orange_2bandit_b.png","70","70","test","","","","5","",""
"null","222165","pSARL_v2","pSARL_v2fvv5wtwq","5dd74005794e106ec44df770","fixation","img/fixation.png","null","","test","","","","","",""
"520","222700","pSARL_v2","pSARL_v2fvv5wtwq","5dd74005794e106ec44df770","reward","img/slot.png","74","","test","","","","","",""
"null","223476","pSARL_v2","pSARL_v2fvv5wtwq","5dd74005794e106ec44df770","points","<div class=""veryhighPoints""> +1 </div>","null","na","test","","","","5","1","4"
"492","223984","pSARL_v2","pSARL_v2fvv5wtwq","5dd74005794e106ec44df770","freq","img/orange_2bandit_b2.png","70","70","test","1","112","112","6","",""
"null","224319","pSARL_v2","pSARL_v2fvv5wtwq","5dd74005794e106ec44df770","freq_resp","img/orange_2bandit_b.png","70","70","test","","","","6","",""
"null","224492","pSARL_v2","pSARL_v2fvv5wtwq","5dd74005794e106ec44df770","fixation","img/fixation.png","null","","test","","","","","",""
"411","224916","pSARL_v2","pSARL_v2fvv5wtwq","5dd74005794e106ec44df770","freq","img/orange_2bandit_b2.png","70","70","test","1","113","113","6","",""
"null","225328","pSARL_v2","pSARL_v2fvv5wtwq","5dd74005794e106ec44df770","freq_resp","img/orange_2bandit_b.png","70","70","test","","","","6","",""
"null","225488","pSARL_v2","pSARL_v2fvv5wtwq","5dd74005794e106ec44df770","fixation","img/fixation.png","null","","test","","","","","",""
"334","225838","pSARL_v2","pSARL_v2fvv5wtwq","5dd74005794e106ec44df770","freq","img/orange_2bandit_b2.png","70","70","test","1","114","114","6","",""
"null","226331","pSARL_v2","pSARL_v2fvv5wtwq","5dd74005794e106ec44df770","freq_resp","img/orange_2bandit_b.png","70","70","test","","","","6","",""
"null","226503","pSARL_v2","pSARL_v2fvv5wtwq","5dd74005794e106ec44df770","fixation","img/fixation.png","null","","test","","","","","",""
"344","226858","pSARL_v2","pSARL_v2fvv5wtwq","5dd74005794e106ec44df770","freq","img/orange_2bandit_b2.png","70","70","test","1","115","115","6","",""
"null","227338","pSARL_v2","pSARL_v2fvv5wtwq","5dd74005794e106ec44df770","freq_resp","img/orange_2bandit_b.png","70","70","test","","","","6","",""
"null","227513","pSARL_v2","pSARL_v2fvv5wtwq","5dd74005794e106ec44df770","fixation","img/fixation.png","null","","test","","","","","",""
"629","228156","pSARL_v2","pSARL_v2fvv5wtwq","5dd74005794e106ec44df770","infreq","img/green_2bandit_b2.png","68","68","test","1","116","116","6","",""
"null","228355","pSARL_v2","pSARL_v2fvv5wtwq","5dd74005794e106ec44df770","infreq_resp","img/green_2bandit_b.png","68","68","test","","","","6","",""
"null","228526","pSARL_v2","pSARL_v2fvv5wtwq","5dd74005794e106ec44df770","fixation","img/fixation.png","null","","test","","","","","",""
"651","229191","pSARL_v2","pSARL_v2fvv5wtwq","5dd74005794e106ec44df770","freq","img/orange_2bandit_b2.png","70","70","test","1","117","117","6","",""
"null","229361","pSARL_v2","pSARL_v2fvv5wtwq","5dd74005794e106ec44df770","freq_resp","img/orange_2bandit_b.png","70","70","test","","","","6","",""
"null","229536","pSARL_v2","pSARL_v2fvv5wtwq","5dd74005794e106ec44df770","fixation","img/fixation.png","null","","test","","","","","",""
"567","230111","pSARL_v2","pSARL_v2fvv5wtwq","5dd74005794e106ec44df770","freq","img/orange_2bandit_b2.png","70","70","test","1","118","118","6","",""
"null","230358","pSARL_v2","pSARL_v2fvv5wtwq","5dd74005794e106ec44df770","freq_resp","img/orange_2bandit_b.png","70","70","test","","","","6","",""
"null","230543","pSARL_v2","pSARL_v2fvv5wtwq","5dd74005794e106ec44df770","fixation","img/fixation.png","null","","test","","","","","",""
"544","231104","pSARL_v2","pSARL_v2fvv5wtwq","5dd74005794e106ec44df770","freq","img/orange_2bandit_b2.png","70","70","test","1","119","119","6","",""
"null","231381","pSARL_v2","pSARL_v2fvv5wtwq","5dd74005794e106ec44df770","freq_resp","img/orange_2bandit_b.png","70","70","test","","","","6","",""
"null","231552","pSARL_v2","pSARL_v2fvv5wtwq","5dd74005794e106ec44df770","fixation","img/fixation.png","null","","test","","","","","",""
"367","231931","pSARL_v2","pSARL_v2fvv5wtwq","5dd74005794e106ec44df770","freq","img/orange_2bandit_b2.png","70","70","test","1","120","120","6","",""
"null","232393","pSARL_v2","pSARL_v2fvv5wtwq","5dd74005794e106ec44df770","freq_resp","img/orange_2bandit_b.png","70","70","test","","","","6","",""
"null","232568","pSARL_v2","pSARL_v2fvv5wtwq","5dd74005794e106ec44df770","fixation","img/fixation.png","null","","test","","","","","",""
"324","232910","pSARL_v2","pSARL_v2fvv5wtwq","5dd74005794e106ec44df770","freq","img/orange_2bandit_b2.png","70","70","test","1","121","121","6","",""
"null","233415","pSARL_v2","pSARL_v2fvv5wtwq","5dd74005794e106ec44df770","freq_resp","img/orange_2bandit_b.png","70","70","test","","","","6","",""
"null","233587","pSARL_v2","pSARL_v2fvv5wtwq","5dd74005794e106ec44df770","fixation","img/fixation.png","null","","test","","","","","",""
"499","234098","pSARL_v2","pSARL_v2fvv5wtwq","5dd74005794e106ec44df770","infreq","img/green_2bandit_b2.png","68","68","test","1","122","122","6","",""
"null","234421","pSARL_v2","pSARL_v2fvv5wtwq","5dd74005794e106ec44df770","infreq_resp","img/green_2bandit_b.png","68","68","test","","","","6","",""
"null","234600","pSARL_v2","pSARL_v2fvv5wtwq","5dd74005794e106ec44df770","fixation","img/fixation.png","null","","test","","","","","",""
"430","235044","pSARL_v2","pSARL_v2fvv5wtwq","5dd74005794e106ec44df770","freq","img/orange_2bandit_b2.png","70","70","test","1","123","123","6","",""
"null","235431","pSARL_v2","pSARL_v2fvv5wtwq","5dd74005794e106ec44df770","freq_resp","img/orange_2bandit_b.png","70","70","test","","","","6","",""
"null","235614","pSARL_v2","pSARL_v2fvv5wtwq","5dd74005794e106ec44df770","fixation","img/fixation.png","null","","test","","","","","",""
"681","236312","pSARL_v2","pSARL_v2fvv5wtwq","5dd74005794e106ec44df770","infreq","img/green_2bandit_b2.png","68","68","test","1","124","124","6","",""
"null","236450","pSARL_v2","pSARL_v2fvv5wtwq","5dd74005794e106ec44df770","infreq_resp","img/green_2bandit_b.png","68","68","test","","","","6","",""
"null","236628","pSARL_v2","pSARL_v2fvv5wtwq","5dd74005794e106ec44df770","fixation","img/fixation.png","null","","test","","","","","",""
"523","237168","pSARL_v2","pSARL_v2fvv5wtwq","5dd74005794e106ec44df770","freq","img/orange_2bandit_b2.png","70","70","test","1","125","125","6","",""
"null","237472","pSARL_v2","pSARL_v2fvv5wtwq","5dd74005794e106ec44df770","freq_resp","img/orange_2bandit_b.png","70","70","test","","","","6","",""
"null","237644","pSARL_v2","pSARL_v2fvv5wtwq","5dd74005794e106ec44df770","fixation","img/fixation.png","null","","test","","","","","",""
"427","238087","pSARL_v2","pSARL_v2fvv5wtwq","5dd74005794e106ec44df770","freq","img/orange_2bandit_b2.png","70","70","test","1","126","126","6","",""
"null","238481","pSARL_v2","pSARL_v2fvv5wtwq","5dd74005794e106ec44df770","freq_resp","img/orange_2bandit_b.png","70","70","test","","","","6","",""
"null","238657","pSARL_v2","pSARL_v2fvv5wtwq","5dd74005794e106ec44df770","fixation","img/fixation.png","null","","test","","","","","",""
"534","239203","pSARL_v2","pSARL_v2fvv5wtwq","5dd74005794e106ec44df770","freq","img/orange_2bandit_b2.png","70","70","test","1","127","127","6","",""
"null","239498","pSARL_v2","pSARL_v2fvv5wtwq","5dd74005794e106ec44df770","freq_resp","img/orange_2bandit_b.png","70","70","test","","","","6","",""
"null","239662","pSARL_v2","pSARL_v2fvv5wtwq","5dd74005794e106ec44df770","fixation","img/fixation.png","null","","test","","","","","",""
"399","240074","pSARL_v2","pSARL_v2fvv5wtwq","5dd74005794e106ec44df770","freq","img/orange_2bandit_b2.png","70","70","test","1","128","128","6","",""
"null","240505","pSARL_v2","pSARL_v2fvv5wtwq","5dd74005794e106ec44df770","freq_resp","img/orange_2bandit_b.png","70","70","test","","","","6","",""
"null","240671","pSARL_v2","pSARL_v2fvv5wtwq","5dd74005794e106ec44df770","fixation","img/fixation.png","null","","test","","","","","",""
"464","241154","pSARL_v2","pSARL_v2fvv5wtwq","5dd74005794e106ec44df770","freq","img/orange_2bandit_b2.png","70","70","test","1","129","129","6","",""
"null","241506","pSARL_v2","pSARL_v2fvv5wtwq","5dd74005794e106ec44df770","freq_resp","img/orange_2bandit_b.png","70","70","test","","","","6","",""
"null","241683","pSARL_v2","pSARL_v2fvv5wtwq","5dd74005794e106ec44df770","fixation","img/fixation.png","null","","test","","","","","",""
"402","242098","pSARL_v2","pSARL_v2fvv5wtwq","5dd74005794e106ec44df770","freq","img/orange_2bandit_b2.png","70","70","test","1","130","130","6","",""
"null","242512","pSARL_v2","pSARL_v2fvv5wtwq","5dd74005794e106ec44df770","freq_resp","img/orange_2bandit_b.png","70","70","test","","","","6","",""
"null","242686","pSARL_v2","pSARL_v2fvv5wtwq","5dd74005794e106ec44df770","fixation","img/fixation.png","null","","test","","","","","",""
"360","243067","pSARL_v2","pSARL_v2fvv5wtwq","5dd74005794e106ec44df770","freq","img/orange_2bandit_b2.png","70","70","test","1","131","131","6","",""
"null","243531","pSARL_v2","pSARL_v2fvv5wtwq","5dd74005794e106ec44df770","freq_resp","img/orange_2bandit_b.png","70","70","test","","","","6","",""
"null","243710","pSARL_v2","pSARL_v2fvv5wtwq","5dd74005794e106ec44df770","fixation","img/fixation.png","null","","test","","","","","",""
"393","244113","pSARL_v2","pSARL_v2fvv5wtwq","5dd74005794e106ec44df770","freq","img/orange_2bandit_b2.png","70","70","test","1","132","132","6","",""
"null","244532","pSARL_v2","pSARL_v2fvv5wtwq","5dd74005794e106ec44df770","freq_resp","img/orange_2bandit_b.png","70","70","test","","","","6","",""
"null","244706","pSARL_v2","pSARL_v2fvv5wtwq","5dd74005794e106ec44df770","fixation","img/fixation.png","null","","test","","","","","",""
"388","245110","pSARL_v2","pSARL_v2fvv5wtwq","5dd74005794e106ec44df770","freq","img/orange_2bandit_b2.png","70","70","test","1","133","133","6","",""
"null","245539","pSARL_v2","pSARL_v2fvv5wtwq","5dd74005794e106ec44df770","freq_resp","img/orange_2bandit_b.png","70","70","test","","","","6","",""
"null","245715","pSARL_v2","pSARL_v2fvv5wtwq","5dd74005794e106ec44df770","fixation","img/fixation.png","null","","test","","","","","",""
"514","246242","pSARL_v2","pSARL_v2fvv5wtwq","5dd74005794e106ec44df770","reward","img/slot.png","74","","test","","","","","",""
"null","247006","pSARL_v2","pSARL_v2fvv5wtwq","5dd74005794e106ec44df770","points","<div class=""verylowPoints""> -7 </div>","null","na","test","","","","6","-7","5"
"null","247823","pSARL_v2","pSARL_v2fvv5wtwq","5dd74005794e106ec44df770","freq","img/orange_2bandit_b2.png","null","70","test","0","134","134","7","",""
"null","248002","pSARL_v2","pSARL_v2fvv5wtwq","5dd74005794e106ec44df770","fixation","img/fixation.png","null","","test","","","","","",""
"null","248821","pSARL_v2","pSARL_v2fvv5wtwq","5dd74005794e106ec44df770","freq","img/orange_2bandit_b2.png","null","70","test","0","135","135","7","",""
"null","248995","pSARL_v2","pSARL_v2fvv5wtwq","5dd74005794e106ec44df770","fixation","img/fixation.png","null","","test","","","","","",""
"730","249740","pSARL_v2","pSARL_v2fvv5wtwq","5dd74005794e106ec44df770","freq","img/orange_2bandit_b2.png","70","70","test","1","136","136","7","",""
"null","249834","pSARL_v2","pSARL_v2fvv5wtwq","5dd74005794e106ec44df770","freq_resp","img/orange_2bandit_b.png","70","70","test","","","","7","",""
"null","250005","pSARL_v2","pSARL_v2fvv5wtwq","5dd74005794e106ec44df770","fixation","img/fixation.png","null","","test","","","","","",""
"449","250467","pSARL_v2","pSARL_v2fvv5wtwq","5dd74005794e106ec44df770","freq","img/orange_2bandit_b2.png","70","70","test","1","137","137","7","",""
"null","250844","pSARL_v2","pSARL_v2fvv5wtwq","5dd74005794e106ec44df770","freq_resp","img/orange_2bandit_b.png","70","70","test","","","","7","",""
"null","251015","pSARL_v2","pSARL_v2fvv5wtwq","5dd74005794e106ec44df770","fixation","img/fixation.png","null","","test","","","","","",""
"623","251653","pSARL_v2","pSARL_v2fvv5wtwq","5dd74005794e106ec44df770","freq","img/orange_2bandit_b2.png","70","70","test","1","138","138","7","",""
"null","251854","pSARL_v2","pSARL_v2fvv5wtwq","5dd74005794e106ec44df770","freq_resp","img/orange_2bandit_b.png","70","70","test","","","","7","",""
"null","252017","pSARL_v2","pSARL_v2fvv5wtwq","5dd74005794e106ec44df770","fixation","img/fixation.png","null","","test","","","","","",""
"null","252848","pSARL_v2","pSARL_v2fvv5wtwq","5dd74005794e106ec44df770","freq","img/orange_2bandit_b2.png","null","70","test","0","139","139","7","",""
"null","253018","pSARL_v2","pSARL_v2fvv5wtwq","5dd74005794e106ec44df770","fixation","img/fixation.png","null","","test","","","","","",""
"780","253812","pSARL_v2","pSARL_v2fvv5wtwq","5dd74005794e106ec44df770","freq","img/orange_2bandit_b2.png","70","70","test","1","140","140","7","",""
"null","253920","pSARL_v2","pSARL_v2fvv5wtwq","5dd74005794e106ec44df770","freq_resp","img/orange_2bandit_b.png","70","70","test","","","","7","",""
"null","254089","pSARL_v2","pSARL_v2fvv5wtwq","5dd74005794e106ec44df770","fixation","img/fixation.png","null","","test","","","","","",""
"461","254564","pSARL_v2","pSARL_v2fvv5wtwq","5dd74005794e106ec44df770","freq","img/orange_2bandit_b2.png","70","70","test","1","141","141","7","",""
"null","254931","pSARL_v2","pSARL_v2fvv5wtwq","5dd74005794e106ec44df770","freq_resp","img/orange_2bandit_b.png","70","70","test","","","","7","",""
"null","255104","pSARL_v2","pSARL_v2fvv5wtwq","5dd74005794e106ec44df770","fixation","img/fixation.png","null","","test","","","","","",""
"397","255517","pSARL_v2","pSARL_v2fvv5wtwq","5dd74005794e106ec44df770","freq","img/orange_2bandit_b2.png","70","70","test","1","142","142","7","",""
"null","255938","pSARL_v2","pSARL_v2fvv5wtwq","5dd74005794e106ec44df770","freq_resp","img/orange_2bandit_b.png","70","70","test","","","","7","",""
"null","256119","pSARL_v2","pSARL_v2fvv5wtwq","5dd74005794e106ec44df770","fixation","img/fixation.png","null","","test","","","","","",""
"382","256519","pSARL_v2","pSARL_v2fvv5wtwq","5dd74005794e106ec44df770","freq","img/orange_2bandit_b2.png","70","70","test","1","143","143","7","",""
"null","256969","pSARL_v2","pSARL_v2fvv5wtwq","5dd74005794e106ec44df770","freq_resp","img/orange_2bandit_b.png","70","70","test","","","","7","",""
"null","257131","pSARL_v2","pSARL_v2fvv5wtwq","5dd74005794e106ec44df770","fixation","img/fixation.png","null","","test","","","","","",""
"330","257480","pSARL_v2","pSARL_v2fvv5wtwq","5dd74005794e106ec44df770","freq","img/orange_2bandit_b2.png","70","70","test","1","144","144","7","",""
"null","257967","pSARL_v2","pSARL_v2fvv5wtwq","5dd74005794e106ec44df770","freq_resp","img/orange_2bandit_b.png","70","70","test","","","","7","",""
"null","258141","pSARL_v2","pSARL_v2fvv5wtwq","5dd74005794e106ec44df770","fixation","img/fixation.png","null","","test","","","","","",""
"353","258510","pSARL_v2","pSARL_v2fvv5wtwq","5dd74005794e106ec44df770","freq","img/orange_2bandit_b2.png","70","70","test","1","145","145","7","",""
"null","258988","pSARL_v2","pSARL_v2fvv5wtwq","5dd74005794e106ec44df770","freq_resp","img/orange_2bandit_b.png","70","70","test","","","","7","",""
"null","259151","pSARL_v2","pSARL_v2fvv5wtwq","5dd74005794e106ec44df770","fixation","img/fixation.png","null","","test","","","","","",""
"325","259496","pSARL_v2","pSARL_v2fvv5wtwq","5dd74005794e106ec44df770","freq","img/orange_2bandit_b2.png","70","70","test","1","146","146","7","",""
"null","259990","pSARL_v2","pSARL_v2fvv5wtwq","5dd74005794e106ec44df770","freq_resp","img/orange_2bandit_b.png","70","70","test","","","","7","",""
"null","260165","pSARL_v2","pSARL_v2fvv5wtwq","5dd74005794e106ec44df770","fixation","img/fixation.png","null","","test","","","","","",""
"448","260628","pSARL_v2","pSARL_v2fvv5wtwq","5dd74005794e106ec44df770","freq","img/orange_2bandit_b2.png","70","70","test","1","147","147","7","",""
"null","260997","pSARL_v2","pSARL_v2fvv5wtwq","5dd74005794e106ec44df770","freq_resp","img/orange_2bandit_b.png","70","70","test","","","","7","",""
"null","261173","pSARL_v2","pSARL_v2fvv5wtwq","5dd74005794e106ec44df770","fixation","img/fixation.png","null","","test","","","","","",""
"330","261516","pSARL_v2","pSARL_v2fvv5wtwq","5dd74005794e106ec44df770","freq","img/orange_2bandit_b2.png","70","70","test","1","148","148","7","",""
"null","262008","pSARL_v2","pSARL_v2fvv5wtwq","5dd74005794e106ec44df770","freq_resp","img/orange_2bandit_b.png","70","70","test","","","","7","",""
"null","262180","pSARL_v2","pSARL_v2fvv5wtwq","5dd74005794e106ec44df770","fixation","img/fixation.png","null","","test","","","","","",""
"434","262631","pSARL_v2","pSARL_v2fvv5wtwq","5dd74005794e106ec44df770","infreq","img/green_2bandit_b2.png","68","68","test","1","149","149","7","",""
"null","263023","pSARL_v2","pSARL_v2fvv5wtwq","5dd74005794e106ec44df770","infreq_resp","img/green_2bandit_b.png","68","68","test","","","","7","",""
"null","263190","pSARL_v2","pSARL_v2fvv5wtwq","5dd74005794e106ec44df770","fixation","img/fixation.png","null","","test","","","","","",""
"432","263636","pSARL_v2","pSARL_v2fvv5wtwq","5dd74005794e106ec44df770","infreq","img/green_2bandit_b2.png","68","68","test","1","150","150","7","",""
"null","264022","pSARL_v2","pSARL_v2fvv5wtwq","5dd74005794e106ec44df770","infreq_resp","img/green_2bandit_b.png","68","68","test","","","","7","",""
"null","264191","pSARL_v2","pSARL_v2fvv5wtwq","5dd74005794e106ec44df770","fixation","img/fixation.png","null","","test","","","","","",""
"438","264643","pSARL_v2","pSARL_v2fvv5wtwq","5dd74005794e106ec44df770","freq","img/orange_2bandit_b2.png","70","70","test","1","151","151","7","",""
"null","265036","pSARL_v2","pSARL_v2fvv5wtwq","5dd74005794e106ec44df770","freq_resp","img/orange_2bandit_b.png","70","70","test","","","","7","",""
"null","265205","pSARL_v2","pSARL_v2fvv5wtwq","5dd74005794e106ec44df770","fixation","img/fixation.png","null","","test","","","","","",""
"352","265576","pSARL_v2","pSARL_v2fvv5wtwq","5dd74005794e106ec44df770","freq","img/orange_2bandit_b2.png","70","70","test","1","152","152","7","",""
"null","266037","pSARL_v2","pSARL_v2fvv5wtwq","5dd74005794e106ec44df770","freq_resp","img/orange_2bandit_b.png","70","70","test","","","","7","",""
"null","266215","pSARL_v2","pSARL_v2fvv5wtwq","5dd74005794e106ec44df770","fixation","img/fixation.png","null","","test","","","","","",""
"591","266822","pSARL_v2","pSARL_v2fvv5wtwq","5dd74005794e106ec44df770","freq","img/orange_2bandit_b2.png","70","70","test","1","153","153","7","",""
"null","267056","pSARL_v2","pSARL_v2fvv5wtwq","5dd74005794e106ec44df770","freq_resp","img/orange_2bandit_b.png","70","70","test","","","","7","",""
"null","267229","pSARL_v2","pSARL_v2fvv5wtwq","5dd74005794e106ec44df770","fixation","img/fixation.png","null","","test","","","","","",""
"665","267910","pSARL_v2","pSARL_v2fvv5wtwq","5dd74005794e106ec44df770","freq","img/orange_2bandit_b2.png","70","70","test","1","154","154","7","",""
"null","268064","pSARL_v2","pSARL_v2fvv5wtwq","5dd74005794e106ec44df770","freq_resp","img/orange_2bandit_b.png","70","70","test","","","","7","",""
"null","268236","pSARL_v2","pSARL_v2fvv5wtwq","5dd74005794e106ec44df770","fixation","img/fixation.png","null","","test","","","","","",""
"633","268880","pSARL_v2","pSARL_v2fvv5wtwq","5dd74005794e106ec44df770","freq","img/orange_2bandit_b2.png","70","70","test","1","155","155","7","",""
"null","269065","pSARL_v2","pSARL_v2fvv5wtwq","5dd74005794e106ec44df770","freq_resp","img/orange_2bandit_b.png","70","70","test","","","","7","",""
"null","269238","pSARL_v2","pSARL_v2fvv5wtwq","5dd74005794e106ec44df770","fixation","img/fixation.png","null","","test","","","","","",""
"455","269709","pSARL_v2","pSARL_v2fvv5wtwq","5dd74005794e106ec44df770","freq","img/orange_2bandit_b2.png","70","70","test","1","156","156","7","",""
"null","270089","pSARL_v2","pSARL_v2fvv5wtwq","5dd74005794e106ec44df770","freq_resp","img/orange_2bandit_b.png","70","70","test","","","","7","",""
"null","270256","pSARL_v2","pSARL_v2fvv5wtwq","5dd74005794e106ec44df770","fixation","img/fixation.png","null","","test","","","","","",""
"373","270642","pSARL_v2","pSARL_v2fvv5wtwq","5dd74005794e106ec44df770","freq","img/orange_2bandit_b2.png","70","70","test","1","157","157","7","",""
"null","271100","pSARL_v2","pSARL_v2fvv5wtwq","5dd74005794e106ec44df770","freq_resp","img/orange_2bandit_b.png","70","70","test","","","","7","",""
"null","271270","pSARL_v2","pSARL_v2fvv5wtwq","5dd74005794e106ec44df770","fixation","img/fixation.png","null","","test","","","","","",""
"471","271758","pSARL_v2","pSARL_v2fvv5wtwq","5dd74005794e106ec44df770","reward","img/slot.png","74","","test","","","","","",""
"null","272531","pSARL_v2","pSARL_v2fvv5wtwq","5dd74005794e106ec44df770","points","<div class=""verylowPoints""> -6 </div>","null","na","test","","","","7","-6","6"
"650","273193","pSARL_v2","pSARL_v2fvv5wtwq","5dd74005794e106ec44df770","freq","img/orange_2bandit_b2.png","70","70","test","1","158","158","8","",""
"null","273367","pSARL_v2","pSARL_v2fvv5wtwq","5dd74005794e106ec44df770","freq_resp","img/orange_2bandit_b.png","70","70","test","","","","8","",""
"null","273542","pSARL_v2","pSARL_v2fvv5wtwq","5dd74005794e106ec44df770","fixation","img/fixation.png","null","","test","","","","","",""
"463","274018","pSARL_v2","pSARL_v2fvv5wtwq","5dd74005794e106ec44df770","freq","img/orange_2bandit_b2.png","70","70","test","1","159","159","8","",""
"null","274373","pSARL_v2","pSARL_v2fvv5wtwq","5dd74005794e106ec44df770","freq_resp","img/orange_2bandit_b.png","70","70","test","","","","8","",""
"null","274547","pSARL_v2","pSARL_v2fvv5wtwq","5dd74005794e106ec44df770","fixation","img/fixation.png","null","","test","","","","","",""
"348","274909","pSARL_v2","pSARL_v2fvv5wtwq","5dd74005794e106ec44df770","freq","img/orange_2bandit_b2.png","70","70","test","1","160","160","8","",""
"null","275387","pSARL_v2","pSARL_v2fvv5wtwq","5dd74005794e106ec44df770","freq_resp","img/orange_2bandit_b.png","70","70","test","","","","8","",""
"null","275560","pSARL_v2","pSARL_v2fvv5wtwq","5dd74005794e106ec44df770","fixation","img/fixation.png","null","","test","","","","","",""
"364","275938","pSARL_v2","pSARL_v2fvv5wtwq","5dd74005794e106ec44df770","freq","img/orange_2bandit_b2.png","70","70","test","1","161","161","8","",""
"null","276397","pSARL_v2","pSARL_v2fvv5wtwq","5dd74005794e106ec44df770","freq_resp","img/orange_2bandit_b.png","70","70","test","","","","8","",""
"null","276564","pSARL_v2","pSARL_v2fvv5wtwq","5dd74005794e106ec44df770","fixation","img/fixation.png","null","","test","","","","","",""
"273","276850","pSARL_v2","pSARL_v2fvv5wtwq","5dd74005794e106ec44df770","infreq","img/green_2bandit_b2.png","70","68","test","0","162","162","8","",""
"null","277408","pSARL_v2","pSARL_v2fvv5wtwq","5dd74005794e106ec44df770","infreq_resp","img/green_2bandit_b.png","70","68","test","","","","8","",""
"null","277580","pSARL_v2","pSARL_v2fvv5wtwq","5dd74005794e106ec44df770","fixation","img/fixation.png","null","","test","","","","","",""
"424","278014","pSARL_v2","pSARL_v2fvv5wtwq","5dd74005794e106ec44df770","freq","img/orange_2bandit_b2.png","70","70","test","1","163","163","8","",""
"null","278422","pSARL_v2","pSARL_v2fvv5wtwq","5dd74005794e106ec44df770","freq_resp","img/orange_2bandit_b.png","70","70","test","","","","8","",""
"null","278589","pSARL_v2","pSARL_v2fvv5wtwq","5dd74005794e106ec44df770","fixation","img/fixation.png","null","","test","","","","","",""
"352","278956","pSARL_v2","pSARL_v2fvv5wtwq","5dd74005794e106ec44df770","freq","img/orange_2bandit_b2.png","70","70","test","1","164","164","8","",""
"null","279431","pSARL_v2","pSARL_v2fvv5wtwq","5dd74005794e106ec44df770","freq_resp","img/orange_2bandit_b.png","70","70","test","","","","8","",""
"null","279603","pSARL_v2","pSARL_v2fvv5wtwq","5dd74005794e106ec44df770","fixation","img/fixation.png","null","","test","","","","","",""
"365","279979","pSARL_v2","pSARL_v2fvv5wtwq","5dd74005794e106ec44df770","freq","img/orange_2bandit_b2.png","70","70","test","1","165","165","8","",""
"null","280429","pSARL_v2","pSARL_v2fvv5wtwq","5dd74005794e106ec44df770","freq_resp","img/orange_2bandit_b.png","70","70","test","","","","8","",""
"null","280607","pSARL_v2","pSARL_v2fvv5wtwq","5dd74005794e106ec44df770","fixation","img/fixation.png","null","","test","","","","","",""
"345","280967","pSARL_v2","pSARL_v2fvv5wtwq","5dd74005794e106ec44df770","freq","img/orange_2bandit_b2.png","70","70","test","1","166","166","8","",""
"null","281443","pSARL_v2","pSARL_v2fvv5wtwq","5dd74005794e106ec44df770","freq_resp","img/orange_2bandit_b.png","70","70","test","","","","8","",""
"null","281627","pSARL_v2","pSARL_v2fvv5wtwq","5dd74005794e106ec44df770","fixation","img/fixation.png","null","","test","","","","","",""
"341","281977","pSARL_v2","pSARL_v2fvv5wtwq","5dd74005794e106ec44df770","freq","img/orange_2bandit_b2.png","70","70","test","1","167","167","8","",""
"null","282451","pSARL_v2","pSARL_v2fvv5wtwq","5dd74005794e106ec44df770","freq_resp","img/orange_2bandit_b.png","70","70","test","","","","8","",""
"null","282633","pSARL_v2","pSARL_v2fvv5wtwq","5dd74005794e106ec44df770","fixation","img/fixation.png","null","","test","","","","","",""
"404","283049","pSARL_v2","pSARL_v2fvv5wtwq","5dd74005794e106ec44df770","freq","img/orange_2bandit_b2.png","70","70","test","1","168","168","8","",""
"null","283470","pSARL_v2","pSARL_v2fvv5wtwq","5dd74005794e106ec44df770","freq_resp","img/orange_2bandit_b.png","70","70","test","","","","8","",""
"null","283649","pSARL_v2","pSARL_v2fvv5wtwq","5dd74005794e106ec44df770","fixation","img/fixation.png","null","","test","","","","","",""
"413","284076","pSARL_v2","pSARL_v2fvv5wtwq","5dd74005794e106ec44df770","freq","img/orange_2bandit_b2.png","70","70","test","1","169","169","8","",""
"null","284491","pSARL_v2","pSARL_v2fvv5wtwq","5dd74005794e106ec44df770","freq_resp","img/orange_2bandit_b.png","70","70","test","","","","8","",""
"null","284661","pSARL_v2","pSARL_v2fvv5wtwq","5dd74005794e106ec44df770","fixation","img/fixation.png","null","","test","","","","","",""
"353","285031","pSARL_v2","pSARL_v2fvv5wtwq","5dd74005794e106ec44df770","freq","img/orange_2bandit_b2.png","70","70","test","1","170","170","8","",""
"null","285502","pSARL_v2","pSARL_v2fvv5wtwq","5dd74005794e106ec44df770","freq_resp","img/orange_2bandit_b.png","70","70","test","","","","8","",""
"null","285676","pSARL_v2","pSARL_v2fvv5wtwq","5dd74005794e106ec44df770","fixation","img/fixation.png","null","","test","","","","","",""
"393","286085","pSARL_v2","pSARL_v2fvv5wtwq","5dd74005794e106ec44df770","infreq","img/green_2bandit_b2.png","68","68","test","1","171","171","8","",""
"null","286509","pSARL_v2","pSARL_v2fvv5wtwq","5dd74005794e106ec44df770","infreq_resp","img/green_2bandit_b.png","68","68","test","","","","8","",""
"null","286679","pSARL_v2","pSARL_v2fvv5wtwq","5dd74005794e106ec44df770","fixation","img/fixation.png","null","","test","","","","","",""
"319","287013","pSARL_v2","pSARL_v2fvv5wtwq","5dd74005794e106ec44df770","freq","img/orange_2bandit_b2.png","70","70","test","1","172","172","8","",""
"null","287520","pSARL_v2","pSARL_v2fvv5wtwq","5dd74005794e106ec44df770","freq_resp","img/orange_2bandit_b.png","70","70","test","","","","8","",""
"null","287694","pSARL_v2","pSARL_v2fvv5wtwq","5dd74005794e106ec44df770","fixation","img/fixation.png","null","","test","","","","","",""
"463","288176","pSARL_v2","pSARL_v2fvv5wtwq","5dd74005794e106ec44df770","freq","img/orange_2bandit_b2.png","70","70","test","1","173","173","8","",""
"null","288530","pSARL_v2","pSARL_v2fvv5wtwq","5dd74005794e106ec44df770","freq_resp","img/orange_2bandit_b.png","70","70","test","","","","8","",""
"null","288712","pSARL_v2","pSARL_v2fvv5wtwq","5dd74005794e106ec44df770","fixation","img/fixation.png","null","","test","","","","","",""
"357","289087","pSARL_v2","pSARL_v2fvv5wtwq","5dd74005794e106ec44df770","freq","img/orange_2bandit_b2.png","70","70","test","1","174","174","8","",""
"null","289542","pSARL_v2","pSARL_v2fvv5wtwq","5dd74005794e106ec44df770","freq_resp","img/orange_2bandit_b.png","70","70","test","","","","8","",""
"null","289722","pSARL_v2","pSARL_v2fvv5wtwq","5dd74005794e106ec44df770","fixation","img/fixation.png","null","","test","","","","","",""
"363","290103","pSARL_v2","pSARL_v2fvv5wtwq","5dd74005794e106ec44df770","freq","img/orange_2bandit_b2.png","70","70","test","1","175","175","8","",""
"null","290569","pSARL_v2","pSARL_v2fvv5wtwq","5dd74005794e106ec44df770","freq_resp","img/orange_2bandit_b.png","70","70","test","","","","8","",""
"null","290739","pSARL_v2","pSARL_v2fvv5wtwq","5dd74005794e106ec44df770","fixation","img/fixation.png","null","","test","","","","","",""
"371","291121","pSARL_v2","pSARL_v2fvv5wtwq","5dd74005794e106ec44df770","freq","img/orange_2bandit_b2.png","70","70","test","1","176","176","8","",""
"null","291581","pSARL_v2","pSARL_v2fvv5wtwq","5dd74005794e106ec44df770","freq_resp","img/orange_2bandit_b.png","70","70","test","","","","8","",""
"null","291759","pSARL_v2","pSARL_v2fvv5wtwq","5dd74005794e106ec44df770","fixation","img/fixation.png","null","","test","","","","","",""
"376","292149","pSARL_v2","pSARL_v2fvv5wtwq","5dd74005794e106ec44df770","freq","img/orange_2bandit_b2.png","70","70","test","1","177","177","8","",""
"null","292593","pSARL_v2","pSARL_v2fvv5wtwq","5dd74005794e106ec44df770","freq_resp","img/orange_2bandit_b.png","70","70","test","","","","8","",""
"null","292771","pSARL_v2","pSARL_v2fvv5wtwq","5dd74005794e106ec44df770","fixation","img/fixation.png","null","","test","","","","","",""
"395","293181","pSARL_v2","pSARL_v2fvv5wtwq","5dd74005794e106ec44df770","freq","img/orange_2bandit_b2.png","70","70","test","1","178","178","8","",""
"null","293598","pSARL_v2","pSARL_v2fvv5wtwq","5dd74005794e106ec44df770","freq_resp","img/orange_2bandit_b.png","70","70","test","","","","8","",""
"null","293780","pSARL_v2","pSARL_v2fvv5wtwq","5dd74005794e106ec44df770","fixation","img/fixation.png","null","","test","","","","","",""
"362","294157","pSARL_v2","pSARL_v2fvv5wtwq","5dd74005794e106ec44df770","freq","img/orange_2bandit_b2.png","70","70","test","1","179","179","8","",""
"null","294610","pSARL_v2","pSARL_v2fvv5wtwq","5dd74005794e106ec44df770","freq_resp","img/orange_2bandit_b.png","70","70","test","","","","8","",""
"null","294789","pSARL_v2","pSARL_v2fvv5wtwq","5dd74005794e106ec44df770","fixation","img/fixation.png","null","","test","","","","","",""
"378","295181","pSARL_v2","pSARL_v2fvv5wtwq","5dd74005794e106ec44df770","freq","img/orange_2bandit_b2.png","70","70","test","1","180","180","8","",""
"null","295617","pSARL_v2","pSARL_v2fvv5wtwq","5dd74005794e106ec44df770","freq_resp","img/orange_2bandit_b.png","70","70","test","","","","8","",""
"null","295799","pSARL_v2","pSARL_v2fvv5wtwq","5dd74005794e106ec44df770","fixation","img/fixation.png","null","","test","","","","","",""
"367","296183","pSARL_v2","pSARL_v2fvv5wtwq","5dd74005794e106ec44df770","freq","img/orange_2bandit_b2.png","70","70","test","1","181","181","8","",""
"null","296640","pSARL_v2","pSARL_v2fvv5wtwq","5dd74005794e106ec44df770","freq_resp","img/orange_2bandit_b.png","70","70","test","","","","8","",""
"null","296818","pSARL_v2","pSARL_v2fvv5wtwq","5dd74005794e106ec44df770","fixation","img/fixation.png","null","","test","","","","","",""
"322","297153","pSARL_v2","pSARL_v2fvv5wtwq","5dd74005794e106ec44df770","freq","img/orange_2bandit_b2.png","70","70","test","1","182","182","8","",""
"null","297654","pSARL_v2","pSARL_v2fvv5wtwq","5dd74005794e106ec44df770","freq_resp","img/orange_2bandit_b.png","70","70","test","","","","8","",""
"null","297823","pSARL_v2","pSARL_v2fvv5wtwq","5dd74005794e106ec44df770","fixation","img/fixation.png","null","","test","","","","","",""
"366","298199","pSARL_v2","pSARL_v2fvv5wtwq","5dd74005794e106ec44df770","freq","img/orange_2bandit_b2.png","70","70","test","1","183","183","8","",""
"null","298657","pSARL_v2","pSARL_v2fvv5wtwq","5dd74005794e106ec44df770","freq_resp","img/orange_2bandit_b.png","70","70","test","","","","8","",""
"null","298826","pSARL_v2","pSARL_v2fvv5wtwq","5dd74005794e106ec44df770","fixation","img/fixation.png","null","","test","","","","","",""
"492","299328","pSARL_v2","pSARL_v2fvv5wtwq","5dd74005794e106ec44df770","reward","img/slot.png","74","","test","","","","","",""
"null","300104","pSARL_v2","pSARL_v2fvv5wtwq","5dd74005794e106ec44df770","points","<div class=""verylowPoints""> -4 </div>","null","na","test","","","","8","-4","7"
"469","300586","pSARL_v2","pSARL_v2fvv5wtwq","5dd74005794e106ec44df770","freq","img/orange_2bandit_b2.png","70","70","test","1","184","184","9","",""
"null","300939","pSARL_v2","pSARL_v2fvv5wtwq","5dd74005794e106ec44df770","freq_resp","img/orange_2bandit_b.png","70","70","test","","","","9","",""
"null","301109","pSARL_v2","pSARL_v2fvv5wtwq","5dd74005794e106ec44df770","fixation","img/fixation.png","null","","test","","","","","",""
"601","301726","pSARL_v2","pSARL_v2fvv5wtwq","5dd74005794e106ec44df770","freq","img/orange_2bandit_b2.png","70","70","test","1","185","185","9","",""
"null","301941","pSARL_v2","pSARL_v2fvv5wtwq","5dd74005794e106ec44df770","freq_resp","img/orange_2bandit_b.png","70","70","test","","","","9","",""
"null","302108","pSARL_v2","pSARL_v2fvv5wtwq","5dd74005794e106ec44df770","fixation","img/fixation.png","null","","test","","","","","",""
"442","302561","pSARL_v2","pSARL_v2fvv5wtwq","5dd74005794e106ec44df770","freq","img/orange_2bandit_b2.png","70","70","test","1","186","186","9","",""
"null","302931","pSARL_v2","pSARL_v2fvv5wtwq","5dd74005794e106ec44df770","freq_resp","img/orange_2bandit_b.png","70","70","test","","","","9","",""
"null","303108","pSARL_v2","pSARL_v2fvv5wtwq","5dd74005794e106ec44df770","fixation","img/fixation.png","null","","test","","","","","",""
"345","303463","pSARL_v2","pSARL_v2fvv5wtwq","5dd74005794e106ec44df770","freq","img/orange_2bandit_b2.png","70","70","test","1","187","187","9","",""
"null","303930","pSARL_v2","pSARL_v2fvv5wtwq","5dd74005794e106ec44df770","freq_resp","img/orange_2bandit_b.png","70","70","test","","","","9","",""
"null","304107","pSARL_v2","pSARL_v2fvv5wtwq","5dd74005794e106ec44df770","fixation","img/fixation.png","null","","test","","","","","",""
"514","304629","pSARL_v2","pSARL_v2fvv5wtwq","5dd74005794e106ec44df770","infreq","img/green_2bandit_b2.png","68","68","test","1","188","188","9","",""
"null","304931","pSARL_v2","pSARL_v2fvv5wtwq","5dd74005794e106ec44df770","infreq_resp","img/green_2bandit_b.png","68","68","test","","","","9","",""
"null","305099","pSARL_v2","pSARL_v2fvv5wtwq","5dd74005794e106ec44df770","fixation","img/fixation.png","null","","test","","","","","",""
"481","305592","pSARL_v2","pSARL_v2fvv5wtwq","5dd74005794e106ec44df770","freq","img/orange_2bandit_b2.png","70","70","test","1","189","189","9","",""
"null","305931","pSARL_v2","pSARL_v2fvv5wtwq","5dd74005794e106ec44df770","freq_resp","img/orange_2bandit_b.png","70","70","test","","","","9","",""
"null","306115","pSARL_v2","pSARL_v2fvv5wtwq","5dd74005794e106ec44df770","fixation","img/fixation.png","null","","test","","","","","",""
"null","306940","pSARL_v2","pSARL_v2fvv5wtwq","5dd74005794e106ec44df770","infreq","img/green_2bandit_b2.png","null","68","test","0","190","190","9","",""
"null","307121","pSARL_v2","pSARL_v2fvv5wtwq","5dd74005794e106ec44df770","fixation","img/fixation.png","null","","test","","","","","",""
"475","307608","pSARL_v2","pSARL_v2fvv5wtwq","5dd74005794e106ec44df770","freq","img/orange_2bandit_b2.png","70","70","test","1","191","191","9","",""
"null","307947","pSARL_v2","pSARL_v2fvv5wtwq","5dd74005794e106ec44df770","freq_resp","img/orange_2bandit_b.png","70","70","test","","","","9","",""
"null","308109","pSARL_v2","pSARL_v2fvv5wtwq","5dd74005794e106ec44df770","fixation","img/fixation.png","null","","test","","","","","",""
"552","308673","pSARL_v2","pSARL_v2fvv5wtwq","5dd74005794e106ec44df770","freq","img/orange_2bandit_b2.png","70","70","test","1","192","192","9","",""
"null","308947","pSARL_v2","pSARL_v2fvv5wtwq","5dd74005794e106ec44df770","freq_resp","img/orange_2bandit_b.png","70","70","test","","","","9","",""
"null","309120","pSARL_v2","pSARL_v2fvv5wtwq","5dd74005794e106ec44df770","fixation","img/fixation.png","null","","test","","","","","",""
"485","309621","pSARL_v2","pSARL_v2fvv5wtwq","5dd74005794e106ec44df770","freq","img/orange_2bandit_b2.png","70","70","test","1","193","193","9","",""
"null","309963","pSARL_v2","pSARL_v2fvv5wtwq","5dd74005794e106ec44df770","freq_resp","img/orange_2bandit_b.png","70","70","test","","","","9","",""
"null","310142","pSARL_v2","pSARL_v2fvv5wtwq","5dd74005794e106ec44df770","fixation","img/fixation.png","null","","test","","","","","",""
"472","310627","pSARL_v2","pSARL_v2fvv5wtwq","5dd74005794e106ec44df770","freq","img/orange_2bandit_b2.png","70","70","test","1","194","194","9","",""
"null","310972","pSARL_v2","pSARL_v2fvv5wtwq","5dd74005794e106ec44df770","freq_resp","img/orange_2bandit_b.png","70","70","test","","","","9","",""
"null","311152","pSARL_v2","pSARL_v2fvv5wtwq","5dd74005794e106ec44df770","fixation","img/fixation.png","null","","test","","","","","",""
"438","311602","pSARL_v2","pSARL_v2fvv5wtwq","5dd74005794e106ec44df770","freq","img/orange_2bandit_b2.png","70","70","test","1","195","195","9","",""
"null","311981","pSARL_v2","pSARL_v2fvv5wtwq","5dd74005794e106ec44df770","freq_resp","img/orange_2bandit_b.png","70","70","test","","","","9","",""
"null","312156","pSARL_v2","pSARL_v2fvv5wtwq","5dd74005794e106ec44df770","fixation","img/fixation.png","null","","test","","","","","",""
"369","312538","pSARL_v2","pSARL_v2fvv5wtwq","5dd74005794e106ec44df770","freq","img/orange_2bandit_b2.png","70","70","test","1","196","196","9","",""
"null","312990","pSARL_v2","pSARL_v2fvv5wtwq","5dd74005794e106ec44df770","freq_resp","img/orange_2bandit_b.png","70","70","test","","","","9","",""
"null","313162","pSARL_v2","pSARL_v2fvv5wtwq","5dd74005794e106ec44df770","fixation","img/fixation.png","null","","test","","","","","",""
"339","313518","pSARL_v2","pSARL_v2fvv5wtwq","5dd74005794e106ec44df770","freq","img/orange_2bandit_b2.png","70","70","test","1","197","197","9","",""
"null","314006","pSARL_v2","pSARL_v2fvv5wtwq","5dd74005794e106ec44df770","freq_resp","img/orange_2bandit_b.png","70","70","test","","","","9","",""
"null","314187","pSARL_v2","pSARL_v2fvv5wtwq","5dd74005794e106ec44df770","fixation","img/fixation.png","null","","test","","","","","",""
"338","314542","pSARL_v2","pSARL_v2fvv5wtwq","5dd74005794e106ec44df770","freq","img/orange_2bandit_b2.png","70","70","test","1","198","198","9","",""
"null","315034","pSARL_v2","pSARL_v2fvv5wtwq","5dd74005794e106ec44df770","freq_resp","img/orange_2bandit_b.png","70","70","test","","","","9","",""
"null","315205","pSARL_v2","pSARL_v2fvv5wtwq","5dd74005794e106ec44df770","fixation","img/fixation.png","null","","test","","","","","",""
"377","315600","pSARL_v2","pSARL_v2fvv5wtwq","5dd74005794e106ec44df770","freq","img/orange_2bandit_b2.png","70","70","test","1","199","199","9","",""
"null","316048","pSARL_v2","pSARL_v2fvv5wtwq","5dd74005794e106ec44df770","freq_resp","img/orange_2bandit_b.png","70","70","test","","","","9","",""
"null","316218","pSARL_v2","pSARL_v2fvv5wtwq","5dd74005794e106ec44df770","fixation","img/fixation.png","null","","test","","","","","",""
"379","316614","pSARL_v2","pSARL_v2fvv5wtwq","5dd74005794e106ec44df770","freq","img/orange_2bandit_b2.png","70","70","test","1","200","200","9","",""
"null","317053","pSARL_v2","pSARL_v2fvv5wtwq","5dd74005794e106ec44df770","freq_resp","img/orange_2bandit_b.png","70","70","test","","","","9","",""
"null","317230","pSARL_v2","pSARL_v2fvv5wtwq","5dd74005794e106ec44df770","fixation","img/fixation.png","null","","test","","","","","",""
"352","317593","pSARL_v2","pSARL_v2fvv5wtwq","5dd74005794e106ec44df770","freq","img/orange_2bandit_b2.png","70","70","test","1","201","201","9","",""
"null","318060","pSARL_v2","pSARL_v2fvv5wtwq","5dd74005794e106ec44df770","freq_resp","img/orange_2bandit_b.png","70","70","test","","","","9","",""
"null","318238","pSARL_v2","pSARL_v2fvv5wtwq","5dd74005794e106ec44df770","fixation","img/fixation.png","null","","test","","","","","",""
"320","318573","pSARL_v2","pSARL_v2fvv5wtwq","5dd74005794e106ec44df770","freq","img/orange_2bandit_b2.png","70","70","test","1","202","202","9","",""
"null","319072","pSARL_v2","pSARL_v2fvv5wtwq","5dd74005794e106ec44df770","freq_resp","img/orange_2bandit_b.png","70","70","test","","","","9","",""
"null","319253","pSARL_v2","pSARL_v2fvv5wtwq","5dd74005794e106ec44df770","fixation","img/fixation.png","null","","test","","","","","",""
"336","319607","pSARL_v2","pSARL_v2fvv5wtwq","5dd74005794e106ec44df770","freq","img/orange_2bandit_b2.png","70","70","test","1","203","203","9","",""
"null","320102","pSARL_v2","pSARL_v2fvv5wtwq","5dd74005794e106ec44df770","freq_resp","img/orange_2bandit_b.png","70","70","test","","","","9","",""
"null","320275","pSARL_v2","pSARL_v2fvv5wtwq","5dd74005794e106ec44df770","fixation","img/fixation.png","null","","test","","","","","",""
"538","320835","pSARL_v2","pSARL_v2fvv5wtwq","5dd74005794e106ec44df770","infreq","img/green_2bandit_b2.png","68","68","test","1","204","204","9","",""
"null","321124","pSARL_v2","pSARL_v2fvv5wtwq","5dd74005794e106ec44df770","infreq_resp","img/green_2bandit_b.png","68","68","test","","","","9","",""
"null","321287","pSARL_v2","pSARL_v2fvv5wtwq","5dd74005794e106ec44df770","fixation","img/fixation.png","null","","test","","","","","",""
"454","321757","pSARL_v2","pSARL_v2fvv5wtwq","5dd74005794e106ec44df770","freq","img/orange_2bandit_b2.png","70","70","test","1","205","205","9","",""
"null","322122","pSARL_v2","pSARL_v2fvv5wtwq","5dd74005794e106ec44df770","freq_resp","img/orange_2bandit_b.png","70","70","test","","","","9","",""
"null","322295","pSARL_v2","pSARL_v2fvv5wtwq","5dd74005794e106ec44df770","fixation","img/fixation.png","null","","test","","","","","",""
"421","322735","pSARL_v2","pSARL_v2fvv5wtwq","5dd74005794e106ec44df770","freq","img/orange_2bandit_b2.png","70","70","test","1","206","206","9","",""
"null","323135","pSARL_v2","pSARL_v2fvv5wtwq","5dd74005794e106ec44df770","freq_resp","img/orange_2bandit_b.png","70","70","test","","","","9","",""
"null","323307","pSARL_v2","pSARL_v2fvv5wtwq","5dd74005794e106ec44df770","fixation","img/fixation.png","null","","test","","","","","",""
"490","323808","pSARL_v2","pSARL_v2fvv5wtwq","5dd74005794e106ec44df770","reward","img/slot.png","74","","test","","","","","",""
"null","324581","pSARL_v2","pSARL_v2fvv5wtwq","5dd74005794e106ec44df770","points","<div class=""verylowPoints""> -3 </div>","null","na","test","","","","9","-3","8"
"703","325300","pSARL_v2","pSARL_v2fvv5wtwq","5dd74005794e106ec44df770","freq","img/orange_2bandit_b2.png","70","70","test","1","207","207","10","",""
"null","325421","pSARL_v2","pSARL_v2fvv5wtwq","5dd74005794e106ec44df770","freq_resp","img/orange_2bandit_b.png","70","70","test","","","","10","",""
"null","325582","pSARL_v2","pSARL_v2fvv5wtwq","5dd74005794e106ec44df770","fixation","img/fixation.png","null","","test","","","","","",""
"783","326378","pSARL_v2","pSARL_v2fvv5wtwq","5dd74005794e106ec44df770","freq","img/orange_2bandit_b2.png","70","70","test","1","208","208","10","",""
"null","326423","pSARL_v2","pSARL_v2fvv5wtwq","5dd74005794e106ec44df770","freq_resp","img/orange_2bandit_b.png","70","70","test","","","","10","",""
"null","326588","pSARL_v2","pSARL_v2fvv5wtwq","5dd74005794e106ec44df770","fixation","img/fixation.png","null","","test","","","","","",""
"null","327420","pSARL_v2","pSARL_v2fvv5wtwq","5dd74005794e106ec44df770","freq","img/orange_2bandit_b2.png","null","70","test","0","209","209","10","",""
"null","327584","pSARL_v2","pSARL_v2fvv5wtwq","5dd74005794e106ec44df770","fixation","img/fixation.png","null","","test","","","","","",""
"null","328421","pSARL_v2","pSARL_v2fvv5wtwq","5dd74005794e106ec44df770","freq","img/orange_2bandit_b2.png","null","70","test","0","210","210","10","",""
"null","328596","pSARL_v2","pSARL_v2fvv5wtwq","5dd74005794e106ec44df770","fixation","img/fixation.png","null","","test","","","","","",""
"641","329250","pSARL_v2","pSARL_v2fvv5wtwq","5dd74005794e106ec44df770","freq","img/orange_2bandit_b2.png","70","70","test","1","211","211","10","",""
"null","329430","pSARL_v2","pSARL_v2fvv5wtwq","5dd74005794e106ec44df770","freq_resp","img/orange_2bandit_b.png","70","70","test","","","","10","",""
"null","329604","pSARL_v2","pSARL_v2fvv5wtwq","5dd74005794e106ec44df770","fixation","img/fixation.png","null","","test","","","","","",""
"632","330251","pSARL_v2","pSARL_v2fvv5wtwq","5dd74005794e106ec44df770","freq","img/orange_2bandit_b2.png","70","70","test","1","212","212","10","",""
"null","330439","pSARL_v2","pSARL_v2fvv5wtwq","5dd74005794e106ec44df770","freq_resp","img/orange_2bandit_b.png","70","70","test","","","","10","",""
"null","330614","pSARL_v2","pSARL_v2fvv5wtwq","5dd74005794e106ec44df770","fixation","img/fixation.png","null","","test","","","","","",""
"381","331008","pSARL_v2","pSARL_v2fvv5wtwq","5dd74005794e106ec44df770","freq","img/orange_2bandit_b2.png","70","70","test","1","213","213","10","",""
"null","331453","pSARL_v2","pSARL_v2fvv5wtwq","5dd74005794e106ec44df770","freq_resp","img/orange_2bandit_b.png","70","70","test","","","","10","",""
"null","331631","pSARL_v2","pSARL_v2fvv5wtwq","5dd74005794e106ec44df770","fixation","img/fixation.png","null","","test","","","","","",""
"415","332062","pSARL_v2","pSARL_v2fvv5wtwq","5dd74005794e106ec44df770","infreq","img/green_2bandit_b2.png","68","68","test","1","214","214","10","",""
