"rt","time_elapsed","expId","subject","prolificID","trialType","stimulus","key_press","corrresp","phase","corr","trialNum","attentionRunNum","blockNum","points","rlNum"
"4496.899999999907","4523","pSARL_v2","pSARL_v28sx9hn5v","6365b5599c1775edb6d46be4","","","","","","","","","","",""
"","7130","pSARL_v2","pSARL_v28sx9hn5v","6365b5599c1775edb6d46be4","fullscreen","","","","","","","","","",""
"62422.19999999972","69580","pSARL_v2","pSARL_v28sx9hn5v","6365b5599c1775edb6d46be4","","","","","","","","","","",""
"539.8000000002794","70144","pSARL_v2","pSARL_v28sx9hn5v","6365b5599c1775edb6d46be4","freqPrac","img/green_2bandit_b2.png","70","70","prac","1","","","","",""
"539.8000000002794","70426","pSARL_v2","pSARL_v28sx9hn5v","6365b5599c1775edb6d46be4","freqPrac_resp","img/green_2bandit_b.png","70","70","prac","","","","","",""
"null","70595","pSARL_v2","pSARL_v28sx9hn5v","6365b5599c1775edb6d46be4","fixation","img/fixation.png","null","","prac","","","","","",""
"498.20000000018626","71111","pSARL_v2","pSARL_v28sx9hn5v","6365b5599c1775edb6d46be4","infreqPrac","img/orange_2bandit_b2.png","68","68","prac","1","","","","",""
"498.20000000018626","71437","pSARL_v2","pSARL_v28sx9hn5v","6365b5599c1775edb6d46be4","infreqPrac_resp","img/orange_2bandit_b.png","68","68","prac","","","","","",""
"null","71613","pSARL_v2","pSARL_v28sx9hn5v","6365b5599c1775edb6d46be4","fixation","img/fixation.png","null","","prac","","","","","",""
"372.79999999981374","72005","pSARL_v2","pSARL_v28sx9hn5v","6365b5599c1775edb6d46be4","freqPrac","img/green_2bandit_b2.png","70","70","prac","1","","","","",""
"372.79999999981374","72452","pSARL_v2","pSARL_v28sx9hn5v","6365b5599c1775edb6d46be4","freqPrac_resp","img/green_2bandit_b.png","70","70","prac","","","","","",""
"null","72628","pSARL_v2","pSARL_v28sx9hn5v","6365b5599c1775edb6d46be4","fixation","img/fixation.png","null","","prac","","","","","",""
"444.5","73088","pSARL_v2","pSARL_v28sx9hn5v","6365b5599c1775edb6d46be4","infreqPrac","img/orange_2bandit_b2.png","68","68","prac","1","","","","",""
"444.5","73464","pSARL_v2","pSARL_v28sx9hn5v","6365b5599c1775edb6d46be4","infreqPrac_resp","img/orange_2bandit_b.png","68","68","prac","","","","","",""
"null","73636","pSARL_v2","pSARL_v28sx9hn5v","6365b5599c1775edb6d46be4","fixation","img/fixation.png","null","","prac","","","","","",""
"333.70000000018626","73987","pSARL_v2","pSARL_v28sx9hn5v","6365b5599c1775edb6d46be4","infreqPrac","img/orange_2bandit_b2.png","68","68","prac","1","","","","",""
"333.70000000018626","74476","pSARL_v2","pSARL_v28sx9hn5v","6365b5599c1775edb6d46be4","infreqPrac_resp","img/orange_2bandit_b.png","68","68","prac","","","","","",""
"null","74652","pSARL_v2","pSARL_v28sx9hn5v","6365b5599c1775edb6d46be4","fixation","img/fixation.png","null","","prac","","","","","",""
"348.70000000018626","75019","pSARL_v2","pSARL_v28sx9hn5v","6365b5599c1775edb6d46be4","infreqPrac","img/orange_2bandit_b2.png","68","68","prac","1","","","","",""
"348.70000000018626","75492","pSARL_v2","pSARL_v28sx9hn5v","6365b5599c1775edb6d46be4","infreqPrac_resp","img/orange_2bandit_b.png","68","68","prac","","","","","",""
"null","75668","pSARL_v2","pSARL_v28sx9hn5v","6365b5599c1775edb6d46be4","fixation","img/fixation.png","null","","prac","","","","","",""
"457.70000000018626","76142","pSARL_v2","pSARL_v28sx9hn5v","6365b5599c1775edb6d46be4","freqPrac","img/green_2bandit_b2.png","70","70","prac","1","","","","",""
"457.70000000018626","76508","pSARL_v2","pSARL_v28sx9hn5v","6365b5599c1775edb6d46be4","freqPrac_resp","img/green_2bandit_b.png","70","70","prac","","","","","",""
"null","76683","pSARL_v2","pSARL_v28sx9hn5v","6365b5599c1775edb6d46be4","fixation","img/fixation.png","null","","prac","","","","","",""
"441.79999999981374","77143","pSARL_v2","pSARL_v28sx9hn5v","6365b5599c1775edb6d46be4","infreqPrac","img/orange_2bandit_b2.png","68","68","prac","1","","","","",""
"441.79999999981374","77524","pSARL_v2","pSARL_v28sx9hn5v","6365b5599c1775edb6d46be4","infreqPrac_resp","img/orange_2bandit_b.png","68","68","prac","","","","","",""
"null","77701","pSARL_v2","pSARL_v28sx9hn5v","6365b5599c1775edb6d46be4","fixation","img/fixation.png","null","","prac","","","","","",""
"496","78213","pSARL_v2","pSARL_v28sx9hn5v","6365b5599c1775edb6d46be4","freqPrac","img/green_2bandit_b2.png","70","70","prac","1","","","","",""
"496","78540","pSARL_v2","pSARL_v28sx9hn5v","6365b5599c1775edb6d46be4","freqPrac_resp","img/green_2bandit_b.png","70","70","prac","","","","","",""
"null","78715","pSARL_v2","pSARL_v28sx9hn5v","6365b5599c1775edb6d46be4","fixation","img/fixation.png","null","","prac","","","","","",""
"323.70000000018626","79060","pSARL_v2","pSARL_v28sx9hn5v","6365b5599c1775edb6d46be4","freqPrac","img/green_2bandit_b2.png","70","70","prac","1","","","","",""
"323.70000000018626","79557","pSARL_v2","pSARL_v28sx9hn5v","6365b5599c1775edb6d46be4","freqPrac_resp","img/green_2bandit_b.png","70","70","prac","","","","","",""
"null","79733","pSARL_v2","pSARL_v28sx9hn5v","6365b5599c1775edb6d46be4","fixation","img/fixation.png","null","","prac","","","","","",""
"9529.30000000028","89275","pSARL_v2","pSARL_v28sx9hn5v","6365b5599c1775edb6d46be4","","","","","prac","","","","","",""
"18392.700000000186","107687","pSARL_v2","pSARL_v28sx9hn5v","6365b5599c1775edb6d46be4","rewardPractice","img/slot.png","74","","prac","","","","","",""
"null","108461","pSARL_v2","pSARL_v28sx9hn5v","6365b5599c1775edb6d46be4","feedback","<div class=""veryhighPoints""> +15 </div>","null","na","prac","","","","","",""
"null","108635","pSARL_v2","pSARL_v28sx9hn5v","6365b5599c1775edb6d46be4","fixation","img/fixation.png","null","","prac","","","","","",""
"11911","120562","pSARL_v2","pSARL_v28sx9hn5v","6365b5599c1775edb6d46be4","","","","","prac","","","","","",""
"669.3999999999069","121251","pSARL_v2","pSARL_v28sx9hn5v","6365b5599c1775edb6d46be4","freq","img/green_2bandit_b2.png","70","70","test","1","1","1","1","",""
"null","121403","pSARL_v2","pSARL_v28sx9hn5v","6365b5599c1775edb6d46be4","freq_resp","img/green_2bandit_b.png","70","70","test","","","","1","",""
"null","121568","pSARL_v2","pSARL_v28sx9hn5v","6365b5599c1775edb6d46be4","fixation","img/fixation.png","null","","test","","","","","",""
"409.20000000018626","121995","pSARL_v2","pSARL_v28sx9hn5v","6365b5599c1775edb6d46be4","freq","img/green_2bandit_b2.png","70","70","test","1","2","2","1","",""
"null","122412","pSARL_v2","pSARL_v28sx9hn5v","6365b5599c1775edb6d46be4","freq_resp","img/green_2bandit_b.png","70","70","test","","","","1","",""
"null","122587","pSARL_v2","pSARL_v28sx9hn5v","6365b5599c1775edb6d46be4","fixation","img/fixation.png","null","","test","","","","","",""
"330.39999999990687","122938","pSARL_v2","pSARL_v28sx9hn5v","6365b5599c1775edb6d46be4","freq","img/green_2bandit_b2.png","70","70","test","1","3","3","1","",""
"null","123429","pSARL_v2","pSARL_v28sx9hn5v","6365b5599c1775edb6d46be4","freq_resp","img/green_2bandit_b.png","70","70","test","","","","1","",""
"null","123603","pSARL_v2","pSARL_v28sx9hn5v","6365b5599c1775edb6d46be4","fixation","img/fixation.png","null","","test","","","","","",""
"308.1999999997206","123930","pSARL_v2","pSARL_v28sx9hn5v","6365b5599c1775edb6d46be4","freq","img/green_2bandit_b2.png","70","70","test","1","4","4","1","",""
"null","124445","pSARL_v2","pSARL_v28sx9hn5v","6365b5599c1775edb6d46be4","freq_resp","img/green_2bandit_b.png","70","70","test","","","","1","",""
"null","124620","pSARL_v2","pSARL_v28sx9hn5v","6365b5599c1775edb6d46be4","fixation","img/fixation.png","null","","test","","","","","",""
"282.60000000009313","124922","pSARL_v2","pSARL_v28sx9hn5v","6365b5599c1775edb6d46be4","freq","img/green_2bandit_b2.png","70","70","test","1","5","5","1","",""
"null","125460","pSARL_v2","pSARL_v28sx9hn5v","6365b5599c1775edb6d46be4","freq_resp","img/green_2bandit_b.png","70","70","test","","","","1","",""
"null","125636","pSARL_v2","pSARL_v28sx9hn5v","6365b5599c1775edb6d46be4","fixation","img/fixation.png","null","","test","","","","","",""
"370.5","126026","pSARL_v2","pSARL_v28sx9hn5v","6365b5599c1775edb6d46be4","infreq","img/orange_2bandit_b2.png","68","68","test","1","6","6","1","",""
"null","126476","pSARL_v2","pSARL_v28sx9hn5v","6365b5599c1775edb6d46be4","infreq_resp","img/orange_2bandit_b.png","68","68","test","","","","1","",""
"null","126648","pSARL_v2","pSARL_v28sx9hn5v","6365b5599c1775edb6d46be4","fixation","img/fixation.png","null","","test","","","","","",""
"607.8000000002794","127275","pSARL_v2","pSARL_v28sx9hn5v","6365b5599c1775edb6d46be4","infreq","img/orange_2bandit_b2.png","68","68","test","1","7","7","1","",""
"null","127491","pSARL_v2","pSARL_v28sx9hn5v","6365b5599c1775edb6d46be4","infreq_resp","img/orange_2bandit_b.png","68","68","test","","","","1","",""
"null","127666","pSARL_v2","pSARL_v28sx9hn5v","6365b5599c1775edb6d46be4","fixation","img/fixation.png","null","","test","","","","","",""
"422","128106","pSARL_v2","pSARL_v28sx9hn5v","6365b5599c1775edb6d46be4","freq","img/green_2bandit_b2.png","70","70","test","1","8","8","1","",""
"null","128509","pSARL_v2","pSARL_v28sx9hn5v","6365b5599c1775edb6d46be4","freq_resp","img/green_2bandit_b.png","70","70","test","","","","1","",""
"null","128685","pSARL_v2","pSARL_v28sx9hn5v","6365b5599c1775edb6d46be4","fixation","img/fixation.png","null","","test","","","","","",""
"20.800000000279397","128723","pSARL_v2","pSARL_v28sx9hn5v","6365b5599c1775edb6d46be4","freq","img/green_2bandit_b2.png","70","70","test","1","9","9","1","",""
"null","129525","pSARL_v2","pSARL_v28sx9hn5v","6365b5599c1775edb6d46be4","freq_resp","img/green_2bandit_b.png","70","70","test","","","","1","",""
"null","129700","pSARL_v2","pSARL_v28sx9hn5v","6365b5599c1775edb6d46be4","fixation","img/fixation.png","null","","test","","","","","",""
"443.39999999990687","130164","pSARL_v2","pSARL_v28sx9hn5v","6365b5599c1775edb6d46be4","freq","img/green_2bandit_b2.png","70","70","test","1","10","10","1","",""
"null","130540","pSARL_v2","pSARL_v28sx9hn5v","6365b5599c1775edb6d46be4","freq_resp","img/green_2bandit_b.png","70","70","test","","","","1","",""
"null","130715","pSARL_v2","pSARL_v28sx9hn5v","6365b5599c1775edb6d46be4","fixation","img/fixation.png","null","","test","","","","","",""
"315.60000000009313","131051","pSARL_v2","pSARL_v28sx9hn5v","6365b5599c1775edb6d46be4","freq","img/green_2bandit_b2.png","70","70","test","1","11","11","1","",""
"null","131557","pSARL_v2","pSARL_v28sx9hn5v","6365b5599c1775edb6d46be4","freq_resp","img/green_2bandit_b.png","70","70","test","","","","1","",""
"null","131733","pSARL_v2","pSARL_v28sx9hn5v","6365b5599c1775edb6d46be4","fixation","img/fixation.png","null","","test","","","","","",""
"335.20000000018626","132088","pSARL_v2","pSARL_v28sx9hn5v","6365b5599c1775edb6d46be4","freq","img/green_2bandit_b2.png","70","70","test","1","12","12","1","",""
"null","132572","pSARL_v2","pSARL_v28sx9hn5v","6365b5599c1775edb6d46be4","freq_resp","img/green_2bandit_b.png","70","70","test","","","","1","",""
"null","132745","pSARL_v2","pSARL_v28sx9hn5v","6365b5599c1775edb6d46be4","fixation","img/fixation.png","null","","test","","","","","",""
"528.3999999999069","133290","pSARL_v2","pSARL_v28sx9hn5v","6365b5599c1775edb6d46be4","freq","img/green_2bandit_b2.png","70","70","test","1","13","13","1","",""
"null","133581","pSARL_v2","pSARL_v28sx9hn5v","6365b5599c1775edb6d46be4","freq_resp","img/green_2bandit_b.png","70","70","test","","","","1","",""
"null","133756","pSARL_v2","pSARL_v28sx9hn5v","6365b5599c1775edb6d46be4","fixation","img/fixation.png","null","","test","","","","","",""
"337.1999999997206","134112","pSARL_v2","pSARL_v28sx9hn5v","6365b5599c1775edb6d46be4","freq","img/green_2bandit_b2.png","70","70","test","1","14","14","1","",""
"null","134596","pSARL_v2","pSARL_v28sx9hn5v","6365b5599c1775edb6d46be4","freq_resp","img/green_2bandit_b.png","70","70","test","","","","1","",""
"null","134771","pSARL_v2","pSARL_v28sx9hn5v","6365b5599c1775edb6d46be4","fixation","img/fixation.png","null","","test","","","","","",""
"290.79999999981374","135081","pSARL_v2","pSARL_v28sx9hn5v","6365b5599c1775edb6d46be4","freq","img/green_2bandit_b2.png","70","70","test","1","15","15","1","",""
"null","135613","pSARL_v2","pSARL_v28sx9hn5v","6365b5599c1775edb6d46be4","freq_resp","img/green_2bandit_b.png","70","70","test","","","","1","",""
"null","135787","pSARL_v2","pSARL_v28sx9hn5v","6365b5599c1775edb6d46be4","fixation","img/fixation.png","null","","test","","","","","",""
"311.10000000009313","136116","pSARL_v2","pSARL_v28sx9hn5v","6365b5599c1775edb6d46be4","freq","img/green_2bandit_b2.png","70","70","test","1","16","16","1","",""
"null","136629","pSARL_v2","pSARL_v28sx9hn5v","6365b5599c1775edb6d46be4","freq_resp","img/green_2bandit_b.png","70","70","test","","","","1","",""
"null","136803","pSARL_v2","pSARL_v28sx9hn5v","6365b5599c1775edb6d46be4","fixation","img/fixation.png","null","","test","","","","","",""
"307","137129","pSARL_v2","pSARL_v28sx9hn5v","6365b5599c1775edb6d46be4","freq","img/green_2bandit_b2.png","70","70","test","1","17","17","1","",""
"null","137644","pSARL_v2","pSARL_v28sx9hn5v","6365b5599c1775edb6d46be4","freq_resp","img/green_2bandit_b.png","70","70","test","","","","1","",""
"null","137819","pSARL_v2","pSARL_v28sx9hn5v","6365b5599c1775edb6d46be4","fixation","img/fixation.png","null","","test","","","","","",""
"348.20000000018626","138187","pSARL_v2","pSARL_v28sx9hn5v","6365b5599c1775edb6d46be4","freq","img/green_2bandit_b2.png","70","70","test","1","18","18","1","",""
"null","138660","pSARL_v2","pSARL_v28sx9hn5v","6365b5599c1775edb6d46be4","freq_resp","img/green_2bandit_b.png","70","70","test","","","","1","",""
"null","138836","pSARL_v2","pSARL_v28sx9hn5v","6365b5599c1775edb6d46be4","fixation","img/fixation.png","null","","test","","","","","",""
"365.3000000002794","139223","pSARL_v2","pSARL_v28sx9hn5v","6365b5599c1775edb6d46be4","freq","img/green_2bandit_b2.png","70","70","test","1","19","19","1","",""
"null","139679","pSARL_v2","pSARL_v28sx9hn5v","6365b5599c1775edb6d46be4","freq_resp","img/green_2bandit_b.png","70","70","test","","","","1","",""
"null","139848","pSARL_v2","pSARL_v28sx9hn5v","6365b5599c1775edb6d46be4","fixation","img/fixation.png","null","","test","","","","","",""
"311","140177","pSARL_v2","pSARL_v28sx9hn5v","6365b5599c1775edb6d46be4","freq","img/green_2bandit_b2.png","70","70","test","1","20","20","1","",""
"null","140692","pSARL_v2","pSARL_v28sx9hn5v","6365b5599c1775edb6d46be4","freq_resp","img/green_2bandit_b.png","70","70","test","","","","1","",""
"null","140867","pSARL_v2","pSARL_v28sx9hn5v","6365b5599c1775edb6d46be4","fixation","img/fixation.png","null","","test","","","","","",""
"324.29999999981374","141211","pSARL_v2","pSARL_v28sx9hn5v","6365b5599c1775edb6d46be4","freq","img/green_2bandit_b2.png","70","70","test","1","21","21","1","",""
"null","141709","pSARL_v2","pSARL_v28sx9hn5v","6365b5599c1775edb6d46be4","freq_resp","img/green_2bandit_b.png","70","70","test","","","","1","",""
"null","141885","pSARL_v2","pSARL_v28sx9hn5v","6365b5599c1775edb6d46be4","fixation","img/fixation.png","null","","test","","","","","",""
"1565.3000000002794","143467","pSARL_v2","pSARL_v28sx9hn5v","6365b5599c1775edb6d46be4","reward","img/slot.png","74","","test","","","","","",""
"null","144244","pSARL_v2","pSARL_v28sx9hn5v","6365b5599c1775edb6d46be4","points","<div class=""verylowPoints""> -6 </div>","null","na","test","","","","1","-6","0"
"608.7999999998137","144871","pSARL_v2","pSARL_v28sx9hn5v","6365b5599c1775edb6d46be4","freq","img/green_2bandit_b2.png","70","70","test","1","22","22","2","",""
"null","145081","pSARL_v2","pSARL_v28sx9hn5v","6365b5599c1775edb6d46be4","freq_resp","img/green_2bandit_b.png","70","70","test","","","","2","",""
"null","145249","pSARL_v2","pSARL_v28sx9hn5v","6365b5599c1775edb6d46be4","fixation","img/fixation.png","null","","test","","","","","",""
"755.2999999998137","146022","pSARL_v2","pSARL_v28sx9hn5v","6365b5599c1775edb6d46be4","infreq","img/orange_2bandit_b2.png","68","68","test","1","23","23","2","",""
"null","146089","pSARL_v2","pSARL_v28sx9hn5v","6365b5599c1775edb6d46be4","infreq_resp","img/orange_2bandit_b.png","68","68","test","","","","2","",""
"null","146262","pSARL_v2","pSARL_v28sx9hn5v","6365b5599c1775edb6d46be4","fixation","img/fixation.png","null","","test","","","","","",""
"447.1999999997206","146727","pSARL_v2","pSARL_v28sx9hn5v","6365b5599c1775edb6d46be4","freq","img/green_2bandit_b2.png","70","70","test","1","24","24","2","",""
"null","147098","pSARL_v2","pSARL_v28sx9hn5v","6365b5599c1775edb6d46be4","freq_resp","img/green_2bandit_b.png","70","70","test","","","","2","",""
"null","147268","pSARL_v2","pSARL_v28sx9hn5v","6365b5599c1775edb6d46be4","fixation","img/fixation.png","null","","test","","","","","",""
"435.60000000009313","147721","pSARL_v2","pSARL_v28sx9hn5v","6365b5599c1775edb6d46be4","freq","img/green_2bandit_b2.png","70","70","test","1","25","25","2","",""
"null","148107","pSARL_v2","pSARL_v28sx9hn5v","6365b5599c1775edb6d46be4","freq_resp","img/green_2bandit_b.png","70","70","test","","","","2","",""
"null","148274","pSARL_v2","pSARL_v28sx9hn5v","6365b5599c1775edb6d46be4","fixation","img/fixation.png","null","","test","","","","","",""
"377.5","148668","pSARL_v2","pSARL_v28sx9hn5v","6365b5599c1775edb6d46be4","freq","img/green_2bandit_b2.png","70","70","test","1","26","26","2","",""
"null","149116","pSARL_v2","pSARL_v28sx9hn5v","6365b5599c1775edb6d46be4","freq_resp","img/green_2bandit_b.png","70","70","test","","","","2","",""
"null","149290","pSARL_v2","pSARL_v28sx9hn5v","6365b5599c1775edb6d46be4","fixation","img/fixation.png","null","","test","","","","","",""
"372.20000000018626","149679","pSARL_v2","pSARL_v28sx9hn5v","6365b5599c1775edb6d46be4","freq","img/green_2bandit_b2.png","70","70","test","1","27","27","2","",""
"null","150124","pSARL_v2","pSARL_v28sx9hn5v","6365b5599c1775edb6d46be4","freq_resp","img/green_2bandit_b.png","70","70","test","","","","2","",""
"null","150296","pSARL_v2","pSARL_v28sx9hn5v","6365b5599c1775edb6d46be4","fixation","img/fixation.png","null","","test","","","","","",""
"312.89999999990687","150627","pSARL_v2","pSARL_v28sx9hn5v","6365b5599c1775edb6d46be4","freq","img/green_2bandit_b2.png","70","70","test","1","28","28","2","",""
"null","151139","pSARL_v2","pSARL_v28sx9hn5v","6365b5599c1775edb6d46be4","freq_resp","img/green_2bandit_b.png","70","70","test","","","","2","",""
"null","151304","pSARL_v2","pSARL_v28sx9hn5v","6365b5599c1775edb6d46be4","fixation","img/fixation.png","null","","test","","","","","",""
"311.3000000002794","151633","pSARL_v2","pSARL_v28sx9hn5v","6365b5599c1775edb6d46be4","freq","img/green_2bandit_b2.png","70","70","test","1","29","29","2","",""
"null","152148","pSARL_v2","pSARL_v28sx9hn5v","6365b5599c1775edb6d46be4","freq_resp","img/green_2bandit_b.png","70","70","test","","","","2","",""
"null","152324","pSARL_v2","pSARL_v28sx9hn5v","6365b5599c1775edb6d46be4","fixation","img/fixation.png","null","","test","","","","","",""
"357","152700","pSARL_v2","pSARL_v28sx9hn5v","6365b5599c1775edb6d46be4","freq","img/green_2bandit_b2.png","70","70","test","1","30","30","2","",""
"null","153163","pSARL_v2","pSARL_v28sx9hn5v","6365b5599c1775edb6d46be4","freq_resp","img/green_2bandit_b.png","70","70","test","","","","2","",""
"null","153334","pSARL_v2","pSARL_v28sx9hn5v","6365b5599c1775edb6d46be4","fixation","img/fixation.png","null","","test","","","","","",""
"333.89999999990687","153687","pSARL_v2","pSARL_v28sx9hn5v","6365b5599c1775edb6d46be4","freq","img/green_2bandit_b2.png","70","70","test","1","31","31","2","",""
"null","154182","pSARL_v2","pSARL_v28sx9hn5v","6365b5599c1775edb6d46be4","freq_resp","img/green_2bandit_b.png","70","70","test","","","","2","",""
"null","154358","pSARL_v2","pSARL_v28sx9hn5v","6365b5599c1775edb6d46be4","fixation","img/fixation.png","null","","test","","","","","",""
"332.6999999997206","154706","pSARL_v2","pSARL_v28sx9hn5v","6365b5599c1775edb6d46be4","freq","img/green_2bandit_b2.png","70","70","test","1","32","32","2","",""
"null","155197","pSARL_v2","pSARL_v28sx9hn5v","6365b5599c1775edb6d46be4","freq_resp","img/green_2bandit_b.png","70","70","test","","","","2","",""
"null","155367","pSARL_v2","pSARL_v28sx9hn5v","6365b5599c1775edb6d46be4","fixation","img/fixation.png","null","","test","","","","","",""
"364.8000000002794","155745","pSARL_v2","pSARL_v28sx9hn5v","6365b5599c1775edb6d46be4","freq","img/green_2bandit_b2.png","70","70","test","1","33","33","2","",""
"null","156201","pSARL_v2","pSARL_v28sx9hn5v","6365b5599c1775edb6d46be4","freq_resp","img/green_2bandit_b.png","70","70","test","","","","2","",""
"null","156367","pSARL_v2","pSARL_v28sx9hn5v","6365b5599c1775edb6d46be4","fixation","img/fixation.png","null","","test","","","","","",""
"304.10000000009313","156688","pSARL_v2","pSARL_v28sx9hn5v","6365b5599c1775edb6d46be4","freq","img/green_2bandit_b2.png","70","70","test","1","34","34","2","",""
"null","157203","pSARL_v2","pSARL_v28sx9hn5v","6365b5599c1775edb6d46be4","freq_resp","img/green_2bandit_b.png","70","70","test","","","","2","",""
"null","157381","pSARL_v2","pSARL_v28sx9hn5v","6365b5599c1775edb6d46be4","fixation","img/fixation.png","null","","test","","","","","",""
"294.79999999981374","157694","pSARL_v2","pSARL_v28sx9hn5v","6365b5599c1775edb6d46be4","freq","img/green_2bandit_b2.png","70","70","test","1","35","35","2","",""
"null","158220","pSARL_v2","pSARL_v28sx9hn5v","6365b5599c1775edb6d46be4","freq_resp","img/green_2bandit_b.png","70","70","test","","","","2","",""
"null","158395","pSARL_v2","pSARL_v28sx9hn5v","6365b5599c1775edb6d46be4","fixation","img/fixation.png","null","","test","","","","","",""
"277.59999999962747","158692","pSARL_v2","pSARL_v28sx9hn5v","6365b5599c1775edb6d46be4","infreq","img/orange_2bandit_b2.png","70","68","test","0","36","36","2","",""
"null","159236","pSARL_v2","pSARL_v28sx9hn5v","6365b5599c1775edb6d46be4","infreq_resp","img/orange_2bandit_b.png","70","68","test","","","","2","",""
"null","159413","pSARL_v2","pSARL_v28sx9hn5v","6365b5599c1775edb6d46be4","fixation","img/fixation.png","null","","test","","","","","",""
"452.3000000002794","159885","pSARL_v2","pSARL_v28sx9hn5v","6365b5599c1775edb6d46be4","freq","img/green_2bandit_b2.png","70","70","test","1","37","37","2","",""
"null","160261","pSARL_v2","pSARL_v28sx9hn5v","6365b5599c1775edb6d46be4","freq_resp","img/green_2bandit_b.png","70","70","test","","","","2","",""
"null","160436","pSARL_v2","pSARL_v28sx9hn5v","6365b5599c1775edb6d46be4","fixation","img/fixation.png","null","","test","","","","","",""
"305.60000000009313","160761","pSARL_v2","pSARL_v28sx9hn5v","6365b5599c1775edb6d46be4","freq","img/green_2bandit_b2.png","70","70","test","1","38","38","2","",""
"null","161276","pSARL_v2","pSARL_v28sx9hn5v","6365b5599c1775edb6d46be4","freq_resp","img/green_2bandit_b.png","70","70","test","","","","2","",""
"null","161452","pSARL_v2","pSARL_v28sx9hn5v","6365b5599c1775edb6d46be4","fixation","img/fixation.png","null","","test","","","","","",""
"308.3000000002794","161781","pSARL_v2","pSARL_v28sx9hn5v","6365b5599c1775edb6d46be4","freq","img/green_2bandit_b2.png","70","70","test","1","39","39","2","",""
"null","162293","pSARL_v2","pSARL_v28sx9hn5v","6365b5599c1775edb6d46be4","freq_resp","img/green_2bandit_b.png","70","70","test","","","","2","",""
"null","162468","pSARL_v2","pSARL_v28sx9hn5v","6365b5599c1775edb6d46be4","fixation","img/fixation.png","null","","test","","","","","",""
"312.5","162800","pSARL_v2","pSARL_v28sx9hn5v","6365b5599c1775edb6d46be4","freq","img/green_2bandit_b2.png","70","70","test","1","40","40","2","",""
"null","163306","pSARL_v2","pSARL_v28sx9hn5v","6365b5599c1775edb6d46be4","freq_resp","img/green_2bandit_b.png","70","70","test","","","","2","",""
"null","163477","pSARL_v2","pSARL_v28sx9hn5v","6365b5599c1775edb6d46be4","fixation","img/fixation.png","null","","test","","","","","",""
"309.60000000009313","163805","pSARL_v2","pSARL_v28sx9hn5v","6365b5599c1775edb6d46be4","freq","img/green_2bandit_b2.png","70","70","test","1","41","41","2","",""
"null","164316","pSARL_v2","pSARL_v28sx9hn5v","6365b5599c1775edb6d46be4","freq_resp","img/green_2bandit_b.png","70","70","test","","","","2","",""
"null","164491","pSARL_v2","pSARL_v28sx9hn5v","6365b5599c1775edb6d46be4","fixation","img/fixation.png","null","","test","","","","","",""
"337.10000000009313","164848","pSARL_v2","pSARL_v28sx9hn5v","6365b5599c1775edb6d46be4","freq","img/green_2bandit_b2.png","70","70","test","1","42","42","2","",""
"null","165331","pSARL_v2","pSARL_v28sx9hn5v","6365b5599c1775edb6d46be4","freq_resp","img/green_2bandit_b.png","70","70","test","","","","2","",""
"null","165508","pSARL_v2","pSARL_v28sx9hn5v","6365b5599c1775edb6d46be4","fixation","img/fixation.png","null","","test","","","","","",""
"369.70000000018626","165897","pSARL_v2","pSARL_v28sx9hn5v","6365b5599c1775edb6d46be4","freq","img/green_2bandit_b2.png","70","70","test","1","43","43","2","",""
"null","166347","pSARL_v2","pSARL_v28sx9hn5v","6365b5599c1775edb6d46be4","freq_resp","img/green_2bandit_b.png","70","70","test","","","","2","",""
"null","166524","pSARL_v2","pSARL_v28sx9hn5v","6365b5599c1775edb6d46be4","fixation","img/fixation.png","null","","test","","","","","",""
"1221.4000000003725","167763","pSARL_v2","pSARL_v28sx9hn5v","6365b5599c1775edb6d46be4","reward","img/slot.png","74","","test","","","","","",""
"null","168532","pSARL_v2","pSARL_v28sx9hn5v","6365b5599c1775edb6d46be4","points","<div class=""verylowPoints""> -11 </div>","null","na","test","","","","2","-11","1"
"415.59999999962747","168967","pSARL_v2","pSARL_v28sx9hn5v","6365b5599c1775edb6d46be4","freq","img/green_2bandit_b2.png","70","70","test","1","44","44","3","",""
"null","169373","pSARL_v2","pSARL_v28sx9hn5v","6365b5599c1775edb6d46be4","freq_resp","img/green_2bandit_b.png","70","70","test","","","","3","",""
"null","169549","pSARL_v2","pSARL_v28sx9hn5v","6365b5599c1775edb6d46be4","fixation","img/fixation.png","null","","test","","","","","",""
"323.70000000018626","169891","pSARL_v2","pSARL_v28sx9hn5v","6365b5599c1775edb6d46be4","freq","img/green_2bandit_b2.png","70","70","test","1","45","45","3","",""
"null","170389","pSARL_v2","pSARL_v28sx9hn5v","6365b5599c1775edb6d46be4","freq_resp","img/green_2bandit_b.png","70","70","test","","","","3","",""
"null","170573","pSARL_v2","pSARL_v28sx9hn5v","6365b5599c1775edb6d46be4","fixation","img/fixation.png","null","","test","","","","","",""
"467.10000000009313","171060","pSARL_v2","pSARL_v28sx9hn5v","6365b5599c1775edb6d46be4","freq","img/green_2bandit_b2.png","70","70","test","1","46","46","3","",""
"null","171412","pSARL_v2","pSARL_v28sx9hn5v","6365b5599c1775edb6d46be4","freq_resp","img/green_2bandit_b.png","70","70","test","","","","3","",""
"null","171588","pSARL_v2","pSARL_v28sx9hn5v","6365b5599c1775edb6d46be4","fixation","img/fixation.png","null","","test","","","","","",""
"335.8000000002794","171943","pSARL_v2","pSARL_v28sx9hn5v","6365b5599c1775edb6d46be4","freq","img/green_2bandit_b2.png","70","70","test","1","47","47","3","",""
"null","172429","pSARL_v2","pSARL_v28sx9hn5v","6365b5599c1775edb6d46be4","freq_resp","img/green_2bandit_b.png","70","70","test","","","","3","",""
"null","172604","pSARL_v2","pSARL_v28sx9hn5v","6365b5599c1775edb6d46be4","fixation","img/fixation.png","null","","test","","","","","",""
"307.3000000002794","172932","pSARL_v2","pSARL_v28sx9hn5v","6365b5599c1775edb6d46be4","freq","img/green_2bandit_b2.png","70","70","test","1","48","48","3","",""
"null","173441","pSARL_v2","pSARL_v28sx9hn5v","6365b5599c1775edb6d46be4","freq_resp","img/green_2bandit_b.png","70","70","test","","","","3","",""
"null","173612","pSARL_v2","pSARL_v28sx9hn5v","6365b5599c1775edb6d46be4","fixation","img/fixation.png","null","","test","","","","","",""
"315.70000000018626","173947","pSARL_v2","pSARL_v28sx9hn5v","6365b5599c1775edb6d46be4","freq","img/green_2bandit_b2.png","70","70","test","1","49","49","3","",""
"null","174452","pSARL_v2","pSARL_v28sx9hn5v","6365b5599c1775edb6d46be4","freq_resp","img/green_2bandit_b.png","70","70","test","","","","3","",""
"null","174629","pSARL_v2","pSARL_v28sx9hn5v","6365b5599c1775edb6d46be4","fixation","img/fixation.png","null","","test","","","","","",""
"429.39999999990687","175079","pSARL_v2","pSARL_v28sx9hn5v","6365b5599c1775edb6d46be4","freq","img/green_2bandit_b2.png","70","70","test","1","50","50","3","",""
"null","175472","pSARL_v2","pSARL_v28sx9hn5v","6365b5599c1775edb6d46be4","freq_resp","img/green_2bandit_b.png","70","70","test","","","","3","",""
"null","175641","pSARL_v2","pSARL_v28sx9hn5v","6365b5599c1775edb6d46be4","fixation","img/fixation.png","null","","test","","","","","",""
"308.79999999981374","175968","pSARL_v2","pSARL_v28sx9hn5v","6365b5599c1775edb6d46be4","freq","img/green_2bandit_b2.png","70","70","test","1","51","51","3","",""
"null","176482","pSARL_v2","pSARL_v28sx9hn5v","6365b5599c1775edb6d46be4","freq_resp","img/green_2bandit_b.png","70","70","test","","","","3","",""
"null","176652","pSARL_v2","pSARL_v28sx9hn5v","6365b5599c1775edb6d46be4","fixation","img/fixation.png","null","","test","","","","","",""
"316.79999999981374","176989","pSARL_v2","pSARL_v28sx9hn5v","6365b5599c1775edb6d46be4","freq","img/green_2bandit_b2.png","70","70","test","1","52","52","3","",""
"null","177489","pSARL_v2","pSARL_v28sx9hn5v","6365b5599c1775edb6d46be4","freq_resp","img/green_2bandit_b.png","70","70","test","","","","3","",""
"null","177656","pSARL_v2","pSARL_v28sx9hn5v","6365b5599c1775edb6d46be4","fixation","img/fixation.png","null","","test","","","","","",""
"325.10000000009313","178001","pSARL_v2","pSARL_v28sx9hn5v","6365b5599c1775edb6d46be4","freq","img/green_2bandit_b2.png","70","70","test","1","53","53","3","",""
"null","178501","pSARL_v2","pSARL_v28sx9hn5v","6365b5599c1775edb6d46be4","freq_resp","img/green_2bandit_b.png","70","70","test","","","","3","",""
"null","178676","pSARL_v2","pSARL_v28sx9hn5v","6365b5599c1775edb6d46be4","fixation","img/fixation.png","null","","test","","","","","",""
"305.5","179001","pSARL_v2","pSARL_v28sx9hn5v","6365b5599c1775edb6d46be4","freq","img/green_2bandit_b2.png","70","70","test","1","54","54","3","",""
"null","179526","pSARL_v2","pSARL_v28sx9hn5v","6365b5599c1775edb6d46be4","freq_resp","img/green_2bandit_b.png","70","70","test","","","","3","",""
"null","179700","pSARL_v2","pSARL_v28sx9hn5v","6365b5599c1775edb6d46be4","fixation","img/fixation.png","null","","test","","","","","",""
"282.89999999990687","180001","pSARL_v2","pSARL_v28sx9hn5v","6365b5599c1775edb6d46be4","freq","img/green_2bandit_b2.png","70","70","test","1","55","55","3","",""
"null","180537","pSARL_v2","pSARL_v28sx9hn5v","6365b5599c1775edb6d46be4","freq_resp","img/green_2bandit_b.png","70","70","test","","","","3","",""
"null","180707","pSARL_v2","pSARL_v28sx9hn5v","6365b5599c1775edb6d46be4","fixation","img/fixation.png","null","","test","","","","","",""
"307.60000000009313","181034","pSARL_v2","pSARL_v28sx9hn5v","6365b5599c1775edb6d46be4","freq","img/green_2bandit_b2.png","70","70","test","1","56","56","3","",""
"null","181549","pSARL_v2","pSARL_v28sx9hn5v","6365b5599c1775edb6d46be4","freq_resp","img/green_2bandit_b.png","70","70","test","","","","3","",""
"null","181725","pSARL_v2","pSARL_v28sx9hn5v","6365b5599c1775edb6d46be4","fixation","img/fixation.png","null","","test","","","","","",""
"333.39999999990687","182077","pSARL_v2","pSARL_v28sx9hn5v","6365b5599c1775edb6d46be4","freq","img/green_2bandit_b2.png","70","70","test","1","57","57","3","",""
"null","182564","pSARL_v2","pSARL_v28sx9hn5v","6365b5599c1775edb6d46be4","freq_resp","img/green_2bandit_b.png","70","70","test","","","","3","",""
"null","182741","pSARL_v2","pSARL_v28sx9hn5v","6365b5599c1775edb6d46be4","fixation","img/fixation.png","null","","test","","","","","",""
"603.6000000000931","183364","pSARL_v2","pSARL_v28sx9hn5v","6365b5599c1775edb6d46be4","infreq","img/orange_2bandit_b2.png","68","68","test","1","58","58","3","",""
"null","183580","pSARL_v2","pSARL_v28sx9hn5v","6365b5599c1775edb6d46be4","infreq_resp","img/orange_2bandit_b.png","68","68","test","","","","3","",""
"null","183757","pSARL_v2","pSARL_v28sx9hn5v","6365b5599c1775edb6d46be4","fixation","img/fixation.png","null","","test","","","","","",""
"515.6999999997206","184290","pSARL_v2","pSARL_v28sx9hn5v","6365b5599c1775edb6d46be4","freq","img/green_2bandit_b2.png","70","70","test","1","59","59","3","",""
"null","184596","pSARL_v2","pSARL_v28sx9hn5v","6365b5599c1775edb6d46be4","freq_resp","img/green_2bandit_b.png","70","70","test","","","","3","",""
"null","184764","pSARL_v2","pSARL_v28sx9hn5v","6365b5599c1775edb6d46be4","fixation","img/fixation.png","null","","test","","","","","",""
"514.5","185298","pSARL_v2","pSARL_v28sx9hn5v","6365b5599c1775edb6d46be4","freq","img/green_2bandit_b2.png","70","70","test","1","60","60","3","",""
"null","185602","pSARL_v2","pSARL_v28sx9hn5v","6365b5599c1775edb6d46be4","freq_resp","img/green_2bandit_b.png","70","70","test","","","","3","",""
"null","185772","pSARL_v2","pSARL_v28sx9hn5v","6365b5599c1775edb6d46be4","fixation","img/fixation.png","null","","test","","","","","",""
"351.59999999962747","186140","pSARL_v2","pSARL_v28sx9hn5v","6365b5599c1775edb6d46be4","freq","img/green_2bandit_b2.png","70","70","test","1","61","61","3","",""
"null","186612","pSARL_v2","pSARL_v28sx9hn5v","6365b5599c1775edb6d46be4","freq_resp","img/green_2bandit_b.png","70","70","test","","","","3","",""
"null","186788","pSARL_v2","pSARL_v28sx9hn5v","6365b5599c1775edb6d46be4","fixation","img/fixation.png","null","","test","","","","","",""
"346.1999999997206","187148","pSARL_v2","pSARL_v28sx9hn5v","6365b5599c1775edb6d46be4","freq","img/green_2bandit_b2.png","70","70","test","1","62","62","3","",""
"null","187620","pSARL_v2","pSARL_v28sx9hn5v","6365b5599c1775edb6d46be4","freq_resp","img/green_2bandit_b.png","70","70","test","","","","3","",""
"null","187796","pSARL_v2","pSARL_v28sx9hn5v","6365b5599c1775edb6d46be4","fixation","img/fixation.png","null","","test","","","","","",""
"475.70000000018626","188291","pSARL_v2","pSARL_v28sx9hn5v","6365b5599c1775edb6d46be4","freq","img/green_2bandit_b2.png","70","70","test","1","63","63","3","",""
"null","188636","pSARL_v2","pSARL_v28sx9hn5v","6365b5599c1775edb6d46be4","freq_resp","img/green_2bandit_b.png","70","70","test","","","","3","",""
"null","188807","pSARL_v2","pSARL_v28sx9hn5v","6365b5599c1775edb6d46be4","fixation","img/fixation.png","null","","test","","","","","",""
"417.6999999997206","189242","pSARL_v2","pSARL_v28sx9hn5v","6365b5599c1775edb6d46be4","freq","img/green_2bandit_b2.png","70","70","test","1","64","64","3","",""
"null","189645","pSARL_v2","pSARL_v28sx9hn5v","6365b5599c1775edb6d46be4","freq_resp","img/green_2bandit_b.png","70","70","test","","","","3","",""
"null","189821","pSARL_v2","pSARL_v28sx9hn5v","6365b5599c1775edb6d46be4","fixation","img/fixation.png","null","","test","","","","","",""
"538.1999999997206","190376","pSARL_v2","pSARL_v28sx9hn5v","6365b5599c1775edb6d46be4","infreq","img/orange_2bandit_b2.png","70","68","test","0","65","65","3","",""
"null","190661","pSARL_v2","pSARL_v28sx9hn5v","6365b5599c1775edb6d46be4","infreq_resp","img/orange_2bandit_b.png","70","68","test","","","","3","",""
"null","190832","pSARL_v2","pSARL_v28sx9hn5v","6365b5599c1775edb6d46be4","fixation","img/fixation.png","null","","test","","","","","",""
"669.8000000002794","191521","pSARL_v2","pSARL_v28sx9hn5v","6365b5599c1775edb6d46be4","freq","img/green_2bandit_b2.png","70","70","test","1","66","66","3","",""
"null","191676","pSARL_v2","pSARL_v28sx9hn5v","6365b5599c1775edb6d46be4","freq_resp","img/green_2bandit_b.png","70","70","test","","","","3","",""
"null","191852","pSARL_v2","pSARL_v28sx9hn5v","6365b5599c1775edb6d46be4","fixation","img/fixation.png","null","","test","","","","","",""
"1387.6999999997206","193259","pSARL_v2","pSARL_v28sx9hn5v","6365b5599c1775edb6d46be4","reward","img/slot.png","74","","test","","","","","",""
"null","194025","pSARL_v2","pSARL_v28sx9hn5v","6365b5599c1775edb6d46be4","points","<div class=""verylowPoints""> -7 </div>","null","na","test","","","","3","-7","2"
"758.1000000000931","194800","pSARL_v2","pSARL_v28sx9hn5v","6365b5599c1775edb6d46be4","freq","img/green_2bandit_b2.png","70","70","test","1","67","67","4","",""
"null","194865","pSARL_v2","pSARL_v28sx9hn5v","6365b5599c1775edb6d46be4","freq_resp","img/green_2bandit_b.png","70","70","test","","","","4","",""
"null","195037","pSARL_v2","pSARL_v28sx9hn5v","6365b5599c1775edb6d46be4","fixation","img/fixation.png","null","","test","","","","","",""
"680.6000000000931","195731","pSARL_v2","pSARL_v28sx9hn5v","6365b5599c1775edb6d46be4","freq","img/green_2bandit_b2.png","70","70","test","1","68","68","4","",""
"null","195872","pSARL_v2","pSARL_v28sx9hn5v","6365b5599c1775edb6d46be4","freq_resp","img/green_2bandit_b.png","70","70","test","","","","4","",""
"null","196045","pSARL_v2","pSARL_v28sx9hn5v","6365b5599c1775edb6d46be4","fixation","img/fixation.png","null","","test","","","","","",""
"539.2999999998137","196603","pSARL_v2","pSARL_v28sx9hn5v","6365b5599c1775edb6d46be4","freq","img/green_2bandit_b2.png","70","70","test","1","69","69","4","",""
"null","196879","pSARL_v2","pSARL_v28sx9hn5v","6365b5599c1775edb6d46be4","freq_resp","img/green_2bandit_b.png","70","70","test","","","","4","",""
"null","197054","pSARL_v2","pSARL_v28sx9hn5v","6365b5599c1775edb6d46be4","fixation","img/fixation.png","null","","test","","","","","",""
"377.90000000037253","197451","pSARL_v2","pSARL_v28sx9hn5v","6365b5599c1775edb6d46be4","freq","img/green_2bandit_b2.png","70","70","test","1","70","70","4","",""
"null","197903","pSARL_v2","pSARL_v28sx9hn5v","6365b5599c1775edb6d46be4","freq_resp","img/green_2bandit_b.png","70","70","test","","","","4","",""
"null","198080","pSARL_v2","pSARL_v28sx9hn5v","6365b5599c1775edb6d46be4","fixation","img/fixation.png","null","","test","","","","","",""
"412.3000000002794","198505","pSARL_v2","pSARL_v28sx9hn5v","6365b5599c1775edb6d46be4","freq","img/green_2bandit_b2.png","70","70","test","1","71","71","4","",""
"null","198911","pSARL_v2","pSARL_v28sx9hn5v","6365b5599c1775edb6d46be4","freq_resp","img/green_2bandit_b.png","70","70","test","","","","4","",""
"null","199079","pSARL_v2","pSARL_v28sx9hn5v","6365b5599c1775edb6d46be4","fixation","img/fixation.png","null","","test","","","","","",""
"327.8000000002794","199422","pSARL_v2","pSARL_v28sx9hn5v","6365b5599c1775edb6d46be4","freq","img/green_2bandit_b2.png","70","70","test","1","72","72","4","",""
"null","199913","pSARL_v2","pSARL_v28sx9hn5v","6365b5599c1775edb6d46be4","freq_resp","img/green_2bandit_b.png","70","70","test","","","","4","",""
"null","200079","pSARL_v2","pSARL_v28sx9hn5v","6365b5599c1775edb6d46be4","fixation","img/fixation.png","null","","test","","","","","",""
"317","200410","pSARL_v2","pSARL_v28sx9hn5v","6365b5599c1775edb6d46be4","freq","img/green_2bandit_b2.png","70","70","test","1","73","73","4","",""
"null","200917","pSARL_v2","pSARL_v28sx9hn5v","6365b5599c1775edb6d46be4","freq_resp","img/green_2bandit_b.png","70","70","test","","","","4","",""
"null","201092","pSARL_v2","pSARL_v28sx9hn5v","6365b5599c1775edb6d46be4","fixation","img/fixation.png","null","","test","","","","","",""
"474.89999999990687","201587","pSARL_v2","pSARL_v28sx9hn5v","6365b5599c1775edb6d46be4","infreq","img/orange_2bandit_b2.png","68","68","test","1","74","74","4","",""
"null","201933","pSARL_v2","pSARL_v28sx9hn5v","6365b5599c1775edb6d46be4","infreq_resp","img/orange_2bandit_b.png","68","68","test","","","","4","",""
"null","202104","pSARL_v2","pSARL_v28sx9hn5v","6365b5599c1775edb6d46be4","fixation","img/fixation.png","null","","test","","","","","",""
"500.89999999990687","202625","pSARL_v2","pSARL_v28sx9hn5v","6365b5599c1775edb6d46be4","freq","img/green_2bandit_b2.png","70","70","test","1","75","75","4","",""
"null","202948","pSARL_v2","pSARL_v28sx9hn5v","6365b5599c1775edb6d46be4","freq_resp","img/green_2bandit_b.png","70","70","test","","","","4","",""
"null","203124","pSARL_v2","pSARL_v28sx9hn5v","6365b5599c1775edb6d46be4","fixation","img/fixation.png","null","","test","","","","","",""
"333.09999999962747","203475","pSARL_v2","pSARL_v28sx9hn5v","6365b5599c1775edb6d46be4","freq","img/green_2bandit_b2.png","70","70","test","1","76","76","4","",""
"null","203969","pSARL_v2","pSARL_v28sx9hn5v","6365b5599c1775edb6d46be4","freq_resp","img/green_2bandit_b.png","70","70","test","","","","4","",""
"null","204139","pSARL_v2","pSARL_v28sx9hn5v","6365b5599c1775edb6d46be4","fixation","img/fixation.png","null","","test","","","","","",""
"322.70000000018626","204478","pSARL_v2","pSARL_v28sx9hn5v","6365b5599c1775edb6d46be4","freq","img/green_2bandit_b2.png","70","70","test","1","77","77","4","",""
"null","204978","pSARL_v2","pSARL_v28sx9hn5v","6365b5599c1775edb6d46be4","freq_resp","img/green_2bandit_b.png","70","70","test","","","","4","",""
"null","205144","pSARL_v2","pSARL_v28sx9hn5v","6365b5599c1775edb6d46be4","fixation","img/fixation.png","null","","test","","","","","",""
"503.79999999981374","205665","pSARL_v2","pSARL_v28sx9hn5v","6365b5599c1775edb6d46be4","freq","img/green_2bandit_b2.png","70","70","test","1","78","78","4","",""
"null","205988","pSARL_v2","pSARL_v28sx9hn5v","6365b5599c1775edb6d46be4","freq_resp","img/green_2bandit_b.png","70","70","test","","","","4","",""
"null","206164","pSARL_v2","pSARL_v28sx9hn5v","6365b5599c1775edb6d46be4","fixation","img/fixation.png","null","","test","","","","","",""
"281.60000000009313","206464","pSARL_v2","pSARL_v28sx9hn5v","6365b5599c1775edb6d46be4","freq","img/green_2bandit_b2.png","70","70","test","1","79","79","4","",""
"null","207004","pSARL_v2","pSARL_v28sx9hn5v","6365b5599c1775edb6d46be4","freq_resp","img/green_2bandit_b.png","70","70","test","","","","4","",""
"null","207177","pSARL_v2","pSARL_v28sx9hn5v","6365b5599c1775edb6d46be4","fixation","img/fixation.png","null","","test","","","","","",""
"285.29999999981374","207480","pSARL_v2","pSARL_v28sx9hn5v","6365b5599c1775edb6d46be4","freq","img/green_2bandit_b2.png","70","70","test","1","80","80","4","",""
"null","208020","pSARL_v2","pSARL_v28sx9hn5v","6365b5599c1775edb6d46be4","freq_resp","img/green_2bandit_b.png","70","70","test","","","","4","",""
"null","208197","pSARL_v2","pSARL_v28sx9hn5v","6365b5599c1775edb6d46be4","fixation","img/fixation.png","null","","test","","","","","",""
"303.3000000002794","208520","pSARL_v2","pSARL_v28sx9hn5v","6365b5599c1775edb6d46be4","freq","img/green_2bandit_b2.png","70","70","test","1","81","81","4","",""
"null","209036","pSARL_v2","pSARL_v28sx9hn5v","6365b5599c1775edb6d46be4","freq_resp","img/green_2bandit_b.png","70","70","test","","","","4","",""
"null","209212","pSARL_v2","pSARL_v28sx9hn5v","6365b5599c1775edb6d46be4","fixation","img/fixation.png","null","","test","","","","","",""
"304.3000000002794","209536","pSARL_v2","pSARL_v28sx9hn5v","6365b5599c1775edb6d46be4","freq","img/green_2bandit_b2.png","70","70","test","1","82","82","4","",""
"null","210052","pSARL_v2","pSARL_v28sx9hn5v","6365b5599c1775edb6d46be4","freq_resp","img/green_2bandit_b.png","70","70","test","","","","4","",""
"null","210243","pSARL_v2","pSARL_v28sx9hn5v","6365b5599c1775edb6d46be4","fixation","img/fixation.png","null","","test","","","","","",""
"266.60000000009313","210528","pSARL_v2","pSARL_v28sx9hn5v","6365b5599c1775edb6d46be4","freq","img/green_2bandit_b2.png","70","70","test","1","83","83","4","",""
"null","211084","pSARL_v2","pSARL_v28sx9hn5v","6365b5599c1775edb6d46be4","freq_resp","img/green_2bandit_b.png","70","70","test","","","","4","",""
"null","211259","pSARL_v2","pSARL_v28sx9hn5v","6365b5599c1775edb6d46be4","fixation","img/fixation.png","null","","test","","","","","",""
"591.5","211870","pSARL_v2","pSARL_v28sx9hn5v","6365b5599c1775edb6d46be4","infreq","img/orange_2bandit_b2.png","68","68","test","1","84","84","4","",""
"null","212100","pSARL_v2","pSARL_v28sx9hn5v","6365b5599c1775edb6d46be4","infreq_resp","img/orange_2bandit_b.png","68","68","test","","","","4","",""
"null","212277","pSARL_v2","pSARL_v28sx9hn5v","6365b5599c1775edb6d46be4","fixation","img/fixation.png","null","","test","","","","","",""
"519.2999999998137","212815","pSARL_v2","pSARL_v28sx9hn5v","6365b5599c1775edb6d46be4","freq","img/green_2bandit_b2.png","70","70","test","1","85","85","4","",""
"null","213116","pSARL_v2","pSARL_v28sx9hn5v","6365b5599c1775edb6d46be4","freq_resp","img/green_2bandit_b.png","70","70","test","","","","4","",""
"null","213293","pSARL_v2","pSARL_v28sx9hn5v","6365b5599c1775edb6d46be4","fixation","img/fixation.png","null","","test","","","","","",""
"404.10000000009313","213716","pSARL_v2","pSARL_v28sx9hn5v","6365b5599c1775edb6d46be4","freq","img/green_2bandit_b2.png","70","70","test","1","86","86","4","",""
"null","214133","pSARL_v2","pSARL_v28sx9hn5v","6365b5599c1775edb6d46be4","freq_resp","img/green_2bandit_b.png","70","70","test","","","","4","",""
"null","214304","pSARL_v2","pSARL_v28sx9hn5v","6365b5599c1775edb6d46be4","fixation","img/fixation.png","null","","test","","","","","",""
"340.5","214662","pSARL_v2","pSARL_v28sx9hn5v","6365b5599c1775edb6d46be4","freq","img/green_2bandit_b2.png","70","70","test","1","87","87","4","",""
"null","215144","pSARL_v2","pSARL_v28sx9hn5v","6365b5599c1775edb6d46be4","freq_resp","img/green_2bandit_b.png","70","70","test","","","","4","",""
"null","215314","pSARL_v2","pSARL_v28sx9hn5v","6365b5599c1775edb6d46be4","fixation","img/fixation.png","null","","test","","","","","",""
"262.20000000018626","215596","pSARL_v2","pSARL_v28sx9hn5v","6365b5599c1775edb6d46be4","freq","img/green_2bandit_b2.png","70","70","test","1","88","88","4","",""
"null","216156","pSARL_v2","pSARL_v28sx9hn5v","6365b5599c1775edb6d46be4","freq_resp","img/green_2bandit_b.png","70","70","test","","","","4","",""
"null","216334","pSARL_v2","pSARL_v28sx9hn5v","6365b5599c1775edb6d46be4","fixation","img/fixation.png","null","","test","","","","","",""
"192.79999999981374","216546","pSARL_v2","pSARL_v28sx9hn5v","6365b5599c1775edb6d46be4","freq","img/green_2bandit_b2.png","70","70","test","1","89","89","4","",""
"null","217179","pSARL_v2","pSARL_v28sx9hn5v","6365b5599c1775edb6d46be4","freq_resp","img/green_2bandit_b.png","70","70","test","","","","4","",""
"null","217351","pSARL_v2","pSARL_v28sx9hn5v","6365b5599c1775edb6d46be4","fixation","img/fixation.png","null","","test","","","","","",""
"344.60000000009313","217714","pSARL_v2","pSARL_v28sx9hn5v","6365b5599c1775edb6d46be4","freq","img/green_2bandit_b2.png","70","70","test","1","90","90","4","",""
"null","218196","pSARL_v2","pSARL_v28sx9hn5v","6365b5599c1775edb6d46be4","freq_resp","img/green_2bandit_b.png","70","70","test","","","","4","",""
"null","218373","pSARL_v2","pSARL_v28sx9hn5v","6365b5599c1775edb6d46be4","fixation","img/fixation.png","null","","test","","","","","",""
"325.8000000002794","218720","pSARL_v2","pSARL_v28sx9hn5v","6365b5599c1775edb6d46be4","freq","img/green_2bandit_b2.png","70","70","test","1","91","91","4","",""
"null","219217","pSARL_v2","pSARL_v28sx9hn5v","6365b5599c1775edb6d46be4","freq_resp","img/green_2bandit_b.png","70","70","test","","","","4","",""
"null","219385","pSARL_v2","pSARL_v28sx9hn5v","6365b5599c1775edb6d46be4","fixation","img/fixation.png","null","","test","","","","","",""
"2612.5","222016","pSARL_v2","pSARL_v28sx9hn5v","6365b5599c1775edb6d46be4","reward","img/slot.png","74","","test","","","","","",""
"null","222790","pSARL_v2","pSARL_v28sx9hn5v","6365b5599c1775edb6d46be4","points","<div class=""verylowPoints""> -3 </div>","null","na","test","","","","4","-3","3"
"494.90000000037253","223305","pSARL_v2","pSARL_v28sx9hn5v","6365b5599c1775edb6d46be4","freq","img/green_2bandit_b2.png","70","70","test","1","92","92","5","",""
"null","223636","pSARL_v2","pSARL_v28sx9hn5v","6365b5599c1775edb6d46be4","freq_resp","img/green_2bandit_b.png","70","70","test","","","","5","",""
"null","223811","pSARL_v2","pSARL_v28sx9hn5v","6365b5599c1775edb6d46be4","fixation","img/fixation.png","null","","test","","","","","",""
"462.20000000018626","224294","pSARL_v2","pSARL_v28sx9hn5v","6365b5599c1775edb6d46be4","freq","img/green_2bandit_b2.png","70","70","test","1","93","93","5","",""
"null","224652","pSARL_v2","pSARL_v28sx9hn5v","6365b5599c1775edb6d46be4","freq_resp","img/green_2bandit_b.png","70","70","test","","","","5","",""
"null","224829","pSARL_v2","pSARL_v28sx9hn5v","6365b5599c1775edb6d46be4","fixation","img/fixation.png","null","","test","","","","","",""
"310.29999999981374","225154","pSARL_v2","pSARL_v28sx9hn5v","6365b5599c1775edb6d46be4","freq","img/green_2bandit_b2.png","70","70","test","1","94","94","5","",""
"null","225666","pSARL_v2","pSARL_v28sx9hn5v","6365b5599c1775edb6d46be4","freq_resp","img/green_2bandit_b.png","70","70","test","","","","5","",""
"null","225837","pSARL_v2","pSARL_v28sx9hn5v","6365b5599c1775edb6d46be4","fixation","img/fixation.png","null","","test","","","","","",""
"414.39999999990687","226271","pSARL_v2","pSARL_v28sx9hn5v","6365b5599c1775edb6d46be4","infreq","img/orange_2bandit_b2.png","68","68","test","1","95","95","5","",""
"null","226676","pSARL_v2","pSARL_v28sx9hn5v","6365b5599c1775edb6d46be4","infreq_resp","img/orange_2bandit_b.png","68","68","test","","","","5","",""
"null","226852","pSARL_v2","pSARL_v28sx9hn5v","6365b5599c1775edb6d46be4","fixation","img/fixation.png","null","","test","","","","","",""
"476.10000000009313","227348","pSARL_v2","pSARL_v28sx9hn5v","6365b5599c1775edb6d46be4","freq","img/green_2bandit_b2.png","70","70","test","1","96","96","5","",""
"null","227693","pSARL_v2","pSARL_v28sx9hn5v","6365b5599c1775edb6d46be4","freq_resp","img/green_2bandit_b.png","70","70","test","","","","5","",""
"null","227869","pSARL_v2","pSARL_v28sx9hn5v","6365b5599c1775edb6d46be4","fixation","img/fixation.png","null","","test","","","","","",""
"454.10000000009313","228344","pSARL_v2","pSARL_v28sx9hn5v","6365b5599c1775edb6d46be4","infreq","img/orange_2bandit_b2.png","68","68","test","1","97","97","5","",""
"null","228714","pSARL_v2","pSARL_v28sx9hn5v","6365b5599c1775edb6d46be4","infreq_resp","img/orange_2bandit_b.png","68","68","test","","","","5","",""
"null","228883","pSARL_v2","pSARL_v28sx9hn5v","6365b5599c1775edb6d46be4","fixation","img/fixation.png","null","","test","","","","","",""
"436.39999999990687","229333","pSARL_v2","pSARL_v28sx9hn5v","6365b5599c1775edb6d46be4","freq","img/green_2bandit_b2.png","70","70","test","1","98","98","5","",""
"null","229712","pSARL_v2","pSARL_v28sx9hn5v","6365b5599c1775edb6d46be4","freq_resp","img/green_2bandit_b.png","70","70","test","","","","5","",""
"null","229881","pSARL_v2","pSARL_v28sx9hn5v","6365b5599c1775edb6d46be4","fixation","img/fixation.png","null","","test","","","","","",""
"470.6999999997206","230371","pSARL_v2","pSARL_v28sx9hn5v","6365b5599c1775edb6d46be4","freq","img/green_2bandit_b2.png","70","70","test","1","99","99","5","",""
"null","230723","pSARL_v2","pSARL_v28sx9hn5v","6365b5599c1775edb6d46be4","freq_resp","img/green_2bandit_b.png","70","70","test","","","","5","",""
"null","230889","pSARL_v2","pSARL_v28sx9hn5v","6365b5599c1775edb6d46be4","fixation","img/fixation.png","null","","test","","","","","",""
"451.39999999990687","231355","pSARL_v2","pSARL_v28sx9hn5v","6365b5599c1775edb6d46be4","freq","img/green_2bandit_b2.png","70","70","test","1","100","100","5","",""
"null","231723","pSARL_v2","pSARL_v28sx9hn5v","6365b5599c1775edb6d46be4","freq_resp","img/green_2bandit_b.png","70","70","test","","","","5","",""
"null","231900","pSARL_v2","pSARL_v28sx9hn5v","6365b5599c1775edb6d46be4","fixation","img/fixation.png","null","","test","","","","","",""
"457.3000000002794","232375","pSARL_v2","pSARL_v28sx9hn5v","6365b5599c1775edb6d46be4","freq","img/green_2bandit_b2.png","70","70","test","1","101","101","5","",""
"null","232741","pSARL_v2","pSARL_v28sx9hn5v","6365b5599c1775edb6d46be4","freq_resp","img/green_2bandit_b.png","70","70","test","","","","5","",""
"null","232915","pSARL_v2","pSARL_v28sx9hn5v","6365b5599c1775edb6d46be4","fixation","img/fixation.png","null","","test","","","","","",""
"584.0999999996275","233518","pSARL_v2","pSARL_v28sx9hn5v","6365b5599c1775edb6d46be4","freq","img/green_2bandit_b2.png","70","70","test","1","102","102","5","",""
"null","233759","pSARL_v2","pSARL_v28sx9hn5v","6365b5599c1775edb6d46be4","freq_resp","img/green_2bandit_b.png","70","70","test","","","","5","",""
"null","233932","pSARL_v2","pSARL_v28sx9hn5v","6365b5599c1775edb6d46be4","fixation","img/fixation.png","null","","test","","","","","",""
"459.39999999990687","234413","pSARL_v2","pSARL_v28sx9hn5v","6365b5599c1775edb6d46be4","freq","img/green_2bandit_b2.png","70","70","test","1","103","103","5","",""
"null","234781","pSARL_v2","pSARL_v28sx9hn5v","6365b5599c1775edb6d46be4","freq_resp","img/green_2bandit_b.png","70","70","test","","","","5","",""
"null","234956","pSARL_v2","pSARL_v28sx9hn5v","6365b5599c1775edb6d46be4","fixation","img/fixation.png","null","","test","","","","","",""
"353.5","235329","pSARL_v2","pSARL_v28sx9hn5v","6365b5599c1775edb6d46be4","freq","img/green_2bandit_b2.png","70","70","test","1","104","104","5","",""
"null","235796","pSARL_v2","pSARL_v28sx9hn5v","6365b5599c1775edb6d46be4","freq_resp","img/green_2bandit_b.png","70","70","test","","","","5","",""
"null","235968","pSARL_v2","pSARL_v28sx9hn5v","6365b5599c1775edb6d46be4","fixation","img/fixation.png","null","","test","","","","","",""
"306.60000000009313","236292","pSARL_v2","pSARL_v28sx9hn5v","6365b5599c1775edb6d46be4","freq","img/green_2bandit_b2.png","70","70","test","1","105","105","5","",""
"null","236803","pSARL_v2","pSARL_v28sx9hn5v","6365b5599c1775edb6d46be4","freq_resp","img/green_2bandit_b.png","70","70","test","","","","5","",""
"null","236980","pSARL_v2","pSARL_v28sx9hn5v","6365b5599c1775edb6d46be4","fixation","img/fixation.png","null","","test","","","","","",""
"253","237251","pSARL_v2","pSARL_v28sx9hn5v","6365b5599c1775edb6d46be4","freq","img/green_2bandit_b2.png","70","70","test","1","106","106","5","",""
"null","237820","pSARL_v2","pSARL_v28sx9hn5v","6365b5599c1775edb6d46be4","freq_resp","img/green_2bandit_b.png","70","70","test","","","","5","",""
"null","237996","pSARL_v2","pSARL_v28sx9hn5v","6365b5599c1775edb6d46be4","fixation","img/fixation.png","null","","test","","","","","",""
"259.39999999990687","238275","pSARL_v2","pSARL_v28sx9hn5v","6365b5599c1775edb6d46be4","freq","img/green_2bandit_b2.png","70","70","test","1","107","107","5","",""
"null","238834","pSARL_v2","pSARL_v28sx9hn5v","6365b5599c1775edb6d46be4","freq_resp","img/green_2bandit_b.png","70","70","test","","","","5","",""
"null","239000","pSARL_v2","pSARL_v28sx9hn5v","6365b5599c1775edb6d46be4","fixation","img/fixation.png","null","","test","","","","","",""
"208.10000000009313","239223","pSARL_v2","pSARL_v28sx9hn5v","6365b5599c1775edb6d46be4","freq","img/green_2bandit_b2.png","70","70","test","1","108","108","5","",""
"null","239837","pSARL_v2","pSARL_v28sx9hn5v","6365b5599c1775edb6d46be4","freq_resp","img/green_2bandit_b.png","70","70","test","","","","5","",""
"null","240012","pSARL_v2","pSARL_v28sx9hn5v","6365b5599c1775edb6d46be4","fixation","img/fixation.png","null","","test","","","","","",""
"167","240195","pSARL_v2","pSARL_v28sx9hn5v","6365b5599c1775edb6d46be4","freq","img/green_2bandit_b2.png","70","70","test","1","109","109","5","",""
"null","240853","pSARL_v2","pSARL_v28sx9hn5v","6365b5599c1775edb6d46be4","freq_resp","img/green_2bandit_b.png","70","70","test","","","","5","",""
"null","241026","pSARL_v2","pSARL_v28sx9hn5v","6365b5599c1775edb6d46be4","fixation","img/fixation.png","null","","test","","","","","",""
"158.5","241201","pSARL_v2","pSARL_v28sx9hn5v","6365b5599c1775edb6d46be4","freq","img/green_2bandit_b2.png","70","70","test","1","110","110","5","",""
"null","241867","pSARL_v2","pSARL_v28sx9hn5v","6365b5599c1775edb6d46be4","freq_resp","img/green_2bandit_b.png","70","70","test","","","","5","",""
"null","242035","pSARL_v2","pSARL_v28sx9hn5v","6365b5599c1775edb6d46be4","fixation","img/fixation.png","null","","test","","","","","",""
"254.20000000018626","242309","pSARL_v2","pSARL_v28sx9hn5v","6365b5599c1775edb6d46be4","freq","img/green_2bandit_b2.png","70","70","test","1","111","111","5","",""
"null","242875","pSARL_v2","pSARL_v28sx9hn5v","6365b5599c1775edb6d46be4","freq_resp","img/green_2bandit_b.png","70","70","test","","","","5","",""
"null","243039","pSARL_v2","pSARL_v28sx9hn5v","6365b5599c1775edb6d46be4","fixation","img/fixation.png","null","","test","","","","","",""
"436.10000000009313","243491","pSARL_v2","pSARL_v28sx9hn5v","6365b5599c1775edb6d46be4","infreq","img/orange_2bandit_b2.png","68","68","test","1","112","112","5","",""
"null","243877","pSARL_v2","pSARL_v28sx9hn5v","6365b5599c1775edb6d46be4","infreq_resp","img/orange_2bandit_b.png","68","68","test","","","","5","",""
"null","244053","pSARL_v2","pSARL_v28sx9hn5v","6365b5599c1775edb6d46be4","fixation","img/fixation.png","null","","test","","","","","",""
"494.3000000002794","244566","pSARL_v2","pSARL_v28sx9hn5v","6365b5599c1775edb6d46be4","freq","img/green_2bandit_b2.png","70","70","test","1","113","113","5","",""
"null","244890","pSARL_v2","pSARL_v28sx9hn5v","6365b5599c1775edb6d46be4","freq_resp","img/green_2bandit_b.png","70","70","test","","","","5","",""
"null","245061","pSARL_v2","pSARL_v28sx9hn5v","6365b5599c1775edb6d46be4","fixation","img/fixation.png","null","","test","","","","","",""
"363.5","245445","pSARL_v2","pSARL_v28sx9hn5v","6365b5599c1775edb6d46be4","freq","img/green_2bandit_b2.png","70","70","test","1","114","114","5","",""
"null","245908","pSARL_v2","pSARL_v28sx9hn5v","6365b5599c1775edb6d46be4","freq_resp","img/green_2bandit_b.png","70","70","test","","","","5","",""
"null","246084","pSARL_v2","pSARL_v28sx9hn5v","6365b5599c1775edb6d46be4","fixation","img/fixation.png","null","","test","","","","","",""
"1401.1000000000931","247507","pSARL_v2","pSARL_v28sx9hn5v","6365b5599c1775edb6d46be4","reward","img/slot.png","74","","test","","","","","",""
"null","248277","pSARL_v2","pSARL_v28sx9hn5v","6365b5599c1775edb6d46be4","points","<div class=""veryhighPoints""> +1 </div>","null","na","test","","","","5","1","4"
"471.89999999990687","248764","pSARL_v2","pSARL_v28sx9hn5v","6365b5599c1775edb6d46be4","freq","img/green_2bandit_b2.png","70","70","test","1","115","115","6","",""
"null","249115","pSARL_v2","pSARL_v28sx9hn5v","6365b5599c1775edb6d46be4","freq_resp","img/green_2bandit_b.png","70","70","test","","","","6","",""
"null","249281","pSARL_v2","pSARL_v28sx9hn5v","6365b5599c1775edb6d46be4","fixation","img/fixation.png","null","","test","","","","","",""
"498","249797","pSARL_v2","pSARL_v28sx9hn5v","6365b5599c1775edb6d46be4","freq","img/green_2bandit_b2.png","70","70","test","1","116","116","6","",""
"null","250125","pSARL_v2","pSARL_v28sx9hn5v","6365b5599c1775edb6d46be4","freq_resp","img/green_2bandit_b.png","70","70","test","","","","6","",""
"null","250295","pSARL_v2","pSARL_v28sx9hn5v","6365b5599c1775edb6d46be4","fixation","img/fixation.png","null","","test","","","","","",""
"407.39999999990687","250720","pSARL_v2","pSARL_v28sx9hn5v","6365b5599c1775edb6d46be4","freq","img/green_2bandit_b2.png","70","70","test","1","117","117","6","",""
"null","251127","pSARL_v2","pSARL_v28sx9hn5v","6365b5599c1775edb6d46be4","freq_resp","img/green_2bandit_b.png","70","70","test","","","","6","",""
"null","251295","pSARL_v2","pSARL_v28sx9hn5v","6365b5599c1775edb6d46be4","fixation","img/fixation.png","null","","test","","","","","",""
"378","251686","pSARL_v2","pSARL_v28sx9hn5v","6365b5599c1775edb6d46be4","freq","img/green_2bandit_b2.png","70","70","test","1","118","118","6","",""
"null","252132","pSARL_v2","pSARL_v28sx9hn5v","6365b5599c1775edb6d46be4","freq_resp","img/green_2bandit_b.png","70","70","test","","","","6","",""
"null","252303","pSARL_v2","pSARL_v28sx9hn5v","6365b5599c1775edb6d46be4","fixation","img/fixation.png","null","","test","","","","","",""
"488.39999999990687","252807","pSARL_v2","pSARL_v28sx9hn5v","6365b5599c1775edb6d46be4","infreq","img/orange_2bandit_b2.png","68","68","test","1","119","119","6","",""
"null","253140","pSARL_v2","pSARL_v28sx9hn5v","6365b5599c1775edb6d46be4","infreq_resp","img/orange_2bandit_b.png","68","68","test","","","","6","",""
"null","253308","pSARL_v2","pSARL_v28sx9hn5v","6365b5599c1775edb6d46be4","fixation","img/fixation.png","null","","test","","","","","",""
"335","253662","pSARL_v2","pSARL_v28sx9hn5v","6365b5599c1775edb6d46be4","freq","img/green_2bandit_b2.png","70","70","test","1","120","120","6","",""
"null","254145","pSARL_v2","pSARL_v28sx9hn5v","6365b5599c1775edb6d46be4","freq_resp","img/green_2bandit_b.png","70","70","test","","","","6","",""
"null","254311","pSARL_v2","pSARL_v28sx9hn5v","6365b5599c1775edb6d46be4","fixation","img/fixation.png","null","","test","","","","","",""
"321.5","254645","pSARL_v2","pSARL_v28sx9hn5v","6365b5599c1775edb6d46be4","freq","img/green_2bandit_b2.png","70","70","test","1","121","121","6","",""
"null","255148","pSARL_v2","pSARL_v28sx9hn5v","6365b5599c1775edb6d46be4","freq_resp","img/green_2bandit_b.png","70","70","test","","","","6","",""
"null","255324","pSARL_v2","pSARL_v28sx9hn5v","6365b5599c1775edb6d46be4","fixation","img/fixation.png","null","","test","","","","","",""
"386.8000000002794","255729","pSARL_v2","pSARL_v28sx9hn5v","6365b5599c1775edb6d46be4","freq","img/green_2bandit_b2.png","70","70","test","1","122","122","6","",""
"null","256164","pSARL_v2","pSARL_v28sx9hn5v","6365b5599c1775edb6d46be4","freq_resp","img/green_2bandit_b.png","70","70","test","","","","6","",""
"null","256336","pSARL_v2","pSARL_v28sx9hn5v","6365b5599c1775edb6d46be4","fixation","img/fixation.png","null","","test","","","","","",""
"333.89999999990687","256689","pSARL_v2","pSARL_v28sx9hn5v","6365b5599c1775edb6d46be4","freq","img/green_2bandit_b2.png","70","70","test","1","123","123","6","",""
"null","257180","pSARL_v2","pSARL_v28sx9hn5v","6365b5599c1775edb6d46be4","freq_resp","img/green_2bandit_b.png","70","70","test","","","","6","",""
"null","257357","pSARL_v2","pSARL_v28sx9hn5v","6365b5599c1775edb6d46be4","fixation","img/fixation.png","null","","test","","","","","",""
"354.60000000009313","257731","pSARL_v2","pSARL_v28sx9hn5v","6365b5599c1775edb6d46be4","freq","img/green_2bandit_b2.png","70","70","test","1","124","124","6","",""
"null","258204","pSARL_v2","pSARL_v28sx9hn5v","6365b5599c1775edb6d46be4","freq_resp","img/green_2bandit_b.png","70","70","test","","","","6","",""
"null","258381","pSARL_v2","pSARL_v28sx9hn5v","6365b5599c1775edb6d46be4","fixation","img/fixation.png","null","","test","","","","","",""
"324","258724","pSARL_v2","pSARL_v28sx9hn5v","6365b5599c1775edb6d46be4","freq","img/green_2bandit_b2.png","70","70","test","1","125","125","6","",""
"null","259220","pSARL_v2","pSARL_v28sx9hn5v","6365b5599c1775edb6d46be4","freq_resp","img/green_2bandit_b.png","70","70","test","","","","6","",""
"null","259391","pSARL_v2","pSARL_v28sx9hn5v","6365b5599c1775edb6d46be4","fixation","img/fixation.png","null","","test","","","","","",""
"329","259736","pSARL_v2","pSARL_v28sx9hn5v","6365b5599c1775edb6d46be4","freq","img/green_2bandit_b2.png","70","70","test","1","126","126","6","",""
"null","260227","pSARL_v2","pSARL_v28sx9hn5v","6365b5599c1775edb6d46be4","freq_resp","img/green_2bandit_b.png","70","70","test","","","","6","",""
"null","260406","pSARL_v2","pSARL_v28sx9hn5v","6365b5599c1775edb6d46be4","fixation","img/fixation.png","null","","test","","","","","",""
"314.70000000018626","260740","pSARL_v2","pSARL_v28sx9hn5v","6365b5599c1775edb6d46be4","freq","img/green_2bandit_b2.png","70","70","test","1","127","127","6","",""
"null","261253","pSARL_v2","pSARL_v28sx9hn5v","6365b5599c1775edb6d46be4","freq_resp","img/green_2bandit_b.png","70","70","test","","","","6","",""
"null","261429","pSARL_v2","pSARL_v28sx9hn5v","6365b5599c1775edb6d46be4","fixation","img/fixation.png","null","","test","","","","","",""
"322.59999999962747","261770","pSARL_v2","pSARL_v28sx9hn5v","6365b5599c1775edb6d46be4","freq","img/green_2bandit_b2.png","70","70","test","1","128","128","6","",""
"null","262267","pSARL_v2","pSARL_v28sx9hn5v","6365b5599c1775edb6d46be4","freq_resp","img/green_2bandit_b.png","70","70","test","","","","6","",""
"null","262436","pSARL_v2","pSARL_v28sx9hn5v","6365b5599c1775edb6d46be4","fixation","img/fixation.png","null","","test","","","","","",""
"313.5","262770","pSARL_v2","pSARL_v28sx9hn5v","6365b5599c1775edb6d46be4","freq","img/green_2bandit_b2.png","70","70","test","1","129","129","6","",""
"null","263277","pSARL_v2","pSARL_v28sx9hn5v","6365b5599c1775edb6d46be4","freq_resp","img/green_2bandit_b.png","70","70","test","","","","6","",""
"null","263449","pSARL_v2","pSARL_v28sx9hn5v","6365b5599c1775edb6d46be4","fixation","img/fixation.png","null","","test","","","","","",""
"308.70000000018626","263778","pSARL_v2","pSARL_v28sx9hn5v","6365b5599c1775edb6d46be4","freq","img/green_2bandit_b2.png","70","70","test","1","130","130","6","",""
"null","264293","pSARL_v2","pSARL_v28sx9hn5v","6365b5599c1775edb6d46be4","freq_resp","img/green_2bandit_b.png","70","70","test","","","","6","",""
"null","264469","pSARL_v2","pSARL_v28sx9hn5v","6365b5599c1775edb6d46be4","fixation","img/fixation.png","null","","test","","","","","",""
"431.1999999997206","264921","pSARL_v2","pSARL_v28sx9hn5v","6365b5599c1775edb6d46be4","infreq","img/orange_2bandit_b2.png","68","68","test","1","131","131","6","",""
"null","265316","pSARL_v2","pSARL_v28sx9hn5v","6365b5599c1775edb6d46be4","infreq_resp","img/orange_2bandit_b.png","68","68","test","","","","6","",""
"null","265492","pSARL_v2","pSARL_v28sx9hn5v","6365b5599c1775edb6d46be4","fixation","img/fixation.png","null","","test","","","","","",""
"293.10000000009313","265807","pSARL_v2","pSARL_v28sx9hn5v","6365b5599c1775edb6d46be4","freq","img/green_2bandit_b2.png","70","70","test","1","132","132","6","",""
"null","266340","pSARL_v2","pSARL_v28sx9hn5v","6365b5599c1775edb6d46be4","freq_resp","img/green_2bandit_b.png","70","70","test","","","","6","",""
"null","266516","pSARL_v2","pSARL_v28sx9hn5v","6365b5599c1775edb6d46be4","fixation","img/fixation.png","null","","test","","","","","",""
"315.20000000018626","266852","pSARL_v2","pSARL_v28sx9hn5v","6365b5599c1775edb6d46be4","freq","img/green_2bandit_b2.png","70","70","test","1","133","133","6","",""
"null","267357","pSARL_v2","pSARL_v28sx9hn5v","6365b5599c1775edb6d46be4","freq_resp","img/green_2bandit_b.png","70","70","test","","","","6","",""
"null","267527","pSARL_v2","pSARL_v28sx9hn5v","6365b5599c1775edb6d46be4","fixation","img/fixation.png","null","","test","","","","","",""
"387.20000000018626","267931","pSARL_v2","pSARL_v28sx9hn5v","6365b5599c1775edb6d46be4","freq","img/green_2bandit_b2.png","70","70","test","1","134","134","6","",""
"null","268363","pSARL_v2","pSARL_v28sx9hn5v","6365b5599c1775edb6d46be4","freq_resp","img/green_2bandit_b.png","70","70","test","","","","6","",""
"null","268534","pSARL_v2","pSARL_v28sx9hn5v","6365b5599c1775edb6d46be4","fixation","img/fixation.png","null","","test","","","","","",""
"298.60000000009313","268852","pSARL_v2","pSARL_v28sx9hn5v","6365b5599c1775edb6d46be4","freq","img/green_2bandit_b2.png","70","70","test","1","135","135","6","",""
"null","269380","pSARL_v2","pSARL_v28sx9hn5v","6365b5599c1775edb6d46be4","freq_resp","img/green_2bandit_b.png","70","70","test","","","","6","",""
"null","269557","pSARL_v2","pSARL_v28sx9hn5v","6365b5599c1775edb6d46be4","fixation","img/fixation.png","null","","test","","","","","",""
"328.8000000002794","269905","pSARL_v2","pSARL_v28sx9hn5v","6365b5599c1775edb6d46be4","freq","img/green_2bandit_b2.png","70","70","test","1","136","136","6","",""
"null","270397","pSARL_v2","pSARL_v28sx9hn5v","6365b5599c1775edb6d46be4","freq_resp","img/green_2bandit_b.png","70","70","test","","","","6","",""
"null","270572","pSARL_v2","pSARL_v28sx9hn5v","6365b5599c1775edb6d46be4","fixation","img/fixation.png","null","","test","","","","","",""
"1081.6000000000931","271672","pSARL_v2","pSARL_v28sx9hn5v","6365b5599c1775edb6d46be4","reward","img/slot.png","74","","test","","","","","",""
"null","272444","pSARL_v2","pSARL_v28sx9hn5v","6365b5599c1775edb6d46be4","points","<div class=""verylowPoints""> -7 </div>","null","na","test","","","","6","-7","5"
"495.70000000018626","272959","pSARL_v2","pSARL_v28sx9hn5v","6365b5599c1775edb6d46be4","freq","img/green_2bandit_b2.png","70","70","test","1","137","137","7","",""
"null","273282","pSARL_v2","pSARL_v28sx9hn5v","6365b5599c1775edb6d46be4","freq_resp","img/green_2bandit_b.png","70","70","test","","","","7","",""
"null","273453","pSARL_v2","pSARL_v28sx9hn5v","6365b5599c1775edb6d46be4","fixation","img/fixation.png","null","","test","","","","","",""
"418.20000000018626","273888","pSARL_v2","pSARL_v28sx9hn5v","6365b5599c1775edb6d46be4","freq","img/green_2bandit_b2.png","70","70","test","1","138","138","7","",""
"null","274292","pSARL_v2","pSARL_v28sx9hn5v","6365b5599c1775edb6d46be4","freq_resp","img/green_2bandit_b.png","70","70","test","","","","7","",""
"null","274468","pSARL_v2","pSARL_v28sx9hn5v","6365b5599c1775edb6d46be4","fixation","img/fixation.png","null","","test","","","","","",""
"337.39999999990687","274825","pSARL_v2","pSARL_v28sx9hn5v","6365b5599c1775edb6d46be4","freq","img/green_2bandit_b2.png","70","70","test","1","139","139","7","",""
"null","275309","pSARL_v2","pSARL_v28sx9hn5v","6365b5599c1775edb6d46be4","freq_resp","img/green_2bandit_b.png","70","70","test","","","","7","",""
"null","275481","pSARL_v2","pSARL_v28sx9hn5v","6365b5599c1775edb6d46be4","fixation","img/fixation.png","null","","test","","","","","",""
"263.79999999981374","275764","pSARL_v2","pSARL_v28sx9hn5v","6365b5599c1775edb6d46be4","freq","img/green_2bandit_b2.png","70","70","test","1","140","140","7","",""
"null","276323","pSARL_v2","pSARL_v28sx9hn5v","6365b5599c1775edb6d46be4","freq_resp","img/green_2bandit_b.png","70","70","test","","","","7","",""
"null","276501","pSARL_v2","pSARL_v28sx9hn5v","6365b5599c1775edb6d46be4","fixation","img/fixation.png","null","","test","","","","","",""
"242.39999999990687","276765","pSARL_v2","pSARL_v28sx9hn5v","6365b5599c1775edb6d46be4","freq","img/green_2bandit_b2.png","70","70","test","1","141","141","7","",""
"null","277350","pSARL_v2","pSARL_v28sx9hn5v","6365b5599c1775edb6d46be4","freq_resp","img/green_2bandit_b.png","70","70","test","","","","7","",""
"null","277525","pSARL_v2","pSARL_v28sx9hn5v","6365b5599c1775edb6d46be4","fixation","img/fixation.png","null","","test","","","","","",""
"370.3000000002794","277915","pSARL_v2","pSARL_v28sx9hn5v","6365b5599c1775edb6d46be4","freq","img/green_2bandit_b2.png","70","70","test","1","142","142","7","",""
"null","278364","pSARL_v2","pSARL_v28sx9hn5v","6365b5599c1775edb6d46be4","freq_resp","img/green_2bandit_b.png","70","70","test","","","","7","",""
"null","278541","pSARL_v2","pSARL_v28sx9hn5v","6365b5599c1775edb6d46be4","fixation","img/fixation.png","null","","test","","","","","",""
"312.5","278875","pSARL_v2","pSARL_v28sx9hn5v","6365b5599c1775edb6d46be4","freq","img/green_2bandit_b2.png","70","70","test","1","143","143","7","",""
"null","279386","pSARL_v2","pSARL_v28sx9hn5v","6365b5599c1775edb6d46be4","freq_resp","img/green_2bandit_b.png","70","70","test","","","","7","",""
"null","279559","pSARL_v2","pSARL_v28sx9hn5v","6365b5599c1775edb6d46be4","fixation","img/fixation.png","null","","test","","","","","",""
"578.1999999997206","280154","pSARL_v2","pSARL_v28sx9hn5v","6365b5599c1775edb6d46be4","infreq","img/orange_2bandit_b2.png","68","68","test","1","144","144","7","",""
"null","280396","pSARL_v2","pSARL_v28sx9hn5v","6365b5599c1775edb6d46be4","infreq_resp","img/orange_2bandit_b.png","68","68","test","","","","7","",""
"null","280561","pSARL_v2","pSARL_v28sx9hn5v","6365b5599c1775edb6d46be4","fixation","img/fixation.png","null","","test","","","","","",""
"494.09999999962747","281069","pSARL_v2","pSARL_v28sx9hn5v","6365b5599c1775edb6d46be4","infreq","img/orange_2bandit_b2.png","68","68","test","1","145","145","7","",""
"null","281397","pSARL_v2","pSARL_v28sx9hn5v","6365b5599c1775edb6d46be4","infreq_resp","img/orange_2bandit_b.png","68","68","test","","","","7","",""
"null","281572","pSARL_v2","pSARL_v28sx9hn5v","6365b5599c1775edb6d46be4","fixation","img/fixation.png","null","","test","","","","","",""
"309.20000000018626","281901","pSARL_v2","pSARL_v28sx9hn5v","6365b5599c1775edb6d46be4","freq","img/green_2bandit_b2.png","70","70","test","1","146","146","7","",""
"null","282409","pSARL_v2","pSARL_v28sx9hn5v","6365b5599c1775edb6d46be4","freq_resp","img/green_2bandit_b.png","70","70","test","","","","7","",""
"null","282580","pSARL_v2","pSARL_v28sx9hn5v","6365b5599c1775edb6d46be4","fixation","img/fixation.png","null","","test","","","","","",""
"189","282789","pSARL_v2","pSARL_v28sx9hn5v","6365b5599c1775edb6d46be4","freq","img/green_2bandit_b2.png","70","70","test","1","147","147","7","",""
"null","283421","pSARL_v2","pSARL_v28sx9hn5v","6365b5599c1775edb6d46be4","freq_resp","img/green_2bandit_b.png","70","70","test","","","","7","",""
"null","283596","pSARL_v2","pSARL_v28sx9hn5v","6365b5599c1775edb6d46be4","fixation","img/fixation.png","null","","test","","","","","",""
"284.10000000009313","283901","pSARL_v2","pSARL_v28sx9hn5v","6365b5599c1775edb6d46be4","freq","img/green_2bandit_b2.png","70","70","test","1","148","148","7","",""
"null","284436","pSARL_v2","pSARL_v28sx9hn5v","6365b5599c1775edb6d46be4","freq_resp","img/green_2bandit_b.png","70","70","test","","","","7","",""
"null","284613","pSARL_v2","pSARL_v28sx9hn5v","6365b5599c1775edb6d46be4","fixation","img/fixation.png","null","","test","","","","","",""
"309.8000000002794","284938","pSARL_v2","pSARL_v28sx9hn5v","6365b5599c1775edb6d46be4","freq","img/green_2bandit_b2.png","68","70","test","0","149","149","7","",""
"null","285452","pSARL_v2","pSARL_v28sx9hn5v","6365b5599c1775edb6d46be4","freq_resp","img/green_2bandit_b.png","68","70","test","","","","7","",""
"null","285627","pSARL_v2","pSARL_v28sx9hn5v","6365b5599c1775edb6d46be4","fixation","img/fixation.png","null","","test","","","","","",""
"273.8000000002794","285919","pSARL_v2","pSARL_v28sx9hn5v","6365b5599c1775edb6d46be4","freq","img/green_2bandit_b2.png","70","70","test","1","150","150","7","",""
"null","286469","pSARL_v2","pSARL_v28sx9hn5v","6365b5599c1775edb6d46be4","freq_resp","img/green_2bandit_b.png","70","70","test","","","","7","",""
"null","286645","pSARL_v2","pSARL_v28sx9hn5v","6365b5599c1775edb6d46be4","fixation","img/fixation.png","null","","test","","","","","",""
"337.1999999997206","287000","pSARL_v2","pSARL_v28sx9hn5v","6365b5599c1775edb6d46be4","freq","img/green_2bandit_b2.png","70","70","test","1","151","151","7","",""
"null","287479","pSARL_v2","pSARL_v28sx9hn5v","6365b5599c1775edb6d46be4","freq_resp","img/green_2bandit_b.png","70","70","test","","","","7","",""
"null","287651","pSARL_v2","pSARL_v28sx9hn5v","6365b5599c1775edb6d46be4","fixation","img/fixation.png","null","","test","","","","","",""
"418.1999999997206","288089","pSARL_v2","pSARL_v28sx9hn5v","6365b5599c1775edb6d46be4","freq","img/green_2bandit_b2.png","70","70","test","1","152","152","7","",""
"null","288492","pSARL_v2","pSARL_v28sx9hn5v","6365b5599c1775edb6d46be4","freq_resp","img/green_2bandit_b.png","70","70","test","","","","7","",""
"null","288668","pSARL_v2","pSARL_v28sx9hn5v","6365b5599c1775edb6d46be4","fixation","img/fixation.png","null","","test","","","","","",""
"345.6999999997206","289033","pSARL_v2","pSARL_v28sx9hn5v","6365b5599c1775edb6d46be4","freq","img/green_2bandit_b2.png","70","70","test","1","153","153","7","",""
"null","289508","pSARL_v2","pSARL_v28sx9hn5v","6365b5599c1775edb6d46be4","freq_resp","img/green_2bandit_b.png","70","70","test","","","","7","",""
"null","289684","pSARL_v2","pSARL_v28sx9hn5v","6365b5599c1775edb6d46be4","fixation","img/fixation.png","null","","test","","","","","",""
"290.29999999981374","289994","pSARL_v2","pSARL_v28sx9hn5v","6365b5599c1775edb6d46be4","freq","img/green_2bandit_b2.png","70","70","test","1","154","154","7","",""
"null","290534","pSARL_v2","pSARL_v28sx9hn5v","6365b5599c1775edb6d46be4","freq_resp","img/green_2bandit_b.png","70","70","test","","","","7","",""
"null","290716","pSARL_v2","pSARL_v28sx9hn5v","6365b5599c1775edb6d46be4","fixation","img/fixation.png","null","","test","","","","","",""
"301.60000000009313","291036","pSARL_v2","pSARL_v28sx9hn5v","6365b5599c1775edb6d46be4","freq","img/green_2bandit_b2.png","70","70","test","1","155","155","7","",""
"null","291557","pSARL_v2","pSARL_v28sx9hn5v","6365b5599c1775edb6d46be4","freq_resp","img/green_2bandit_b.png","70","70","test","","","","7","",""
"null","291733","pSARL_v2","pSARL_v28sx9hn5v","6365b5599c1775edb6d46be4","fixation","img/fixation.png","null","","test","","","","","",""
"315","292068","pSARL_v2","pSARL_v28sx9hn5v","6365b5599c1775edb6d46be4","freq","img/green_2bandit_b2.png","70","70","test","1","156","156","7","",""
"null","292573","pSARL_v2","pSARL_v28sx9hn5v","6365b5599c1775edb6d46be4","freq_resp","img/green_2bandit_b.png","70","70","test","","","","7","",""
"null","292749","pSARL_v2","pSARL_v28sx9hn5v","6365b5599c1775edb6d46be4","fixation","img/fixation.png","null","","test","","","","","",""
"264.29999999981374","293035","pSARL_v2","pSARL_v28sx9hn5v","6365b5599c1775edb6d46be4","freq","img/green_2bandit_b2.png","70","70","test","1","157","157","7","",""
"null","293596","pSARL_v2","pSARL_v28sx9hn5v","6365b5599c1775edb6d46be4","freq_resp","img/green_2bandit_b.png","70","70","test","","","","7","",""
"null","293771","pSARL_v2","pSARL_v28sx9hn5v","6365b5599c1775edb6d46be4","fixation","img/fixation.png","null","","test","","","","","",""
"407.8000000002794","294198","pSARL_v2","pSARL_v28sx9hn5v","6365b5599c1775edb6d46be4","freq","img/green_2bandit_b2.png","70","70","test","1","158","158","7","",""
"null","294612","pSARL_v2","pSARL_v28sx9hn5v","6365b5599c1775edb6d46be4","freq_resp","img/green_2bandit_b.png","70","70","test","","","","7","",""
"null","294788","pSARL_v2","pSARL_v28sx9hn5v","6365b5599c1775edb6d46be4","fixation","img/fixation.png","null","","test","","","","","",""
"588.6999999997206","295395","pSARL_v2","pSARL_v28sx9hn5v","6365b5599c1775edb6d46be4","freq","img/green_2bandit_b2.png","70","70","test","1","159","159","7","",""
"null","295628","pSARL_v2","pSARL_v28sx9hn5v","6365b5599c1775edb6d46be4","freq_resp","img/green_2bandit_b.png","70","70","test","","","","7","",""
"null","295804","pSARL_v2","pSARL_v28sx9hn5v","6365b5599c1775edb6d46be4","fixation","img/fixation.png","null","","test","","","","","",""
"597.7000000001863","296421","pSARL_v2","pSARL_v28sx9hn5v","6365b5599c1775edb6d46be4","freq","img/green_2bandit_b2.png","70","70","test","1","160","160","7","",""
"null","296641","pSARL_v2","pSARL_v28sx9hn5v","6365b5599c1775edb6d46be4","freq_resp","img/green_2bandit_b.png","70","70","test","","","","7","",""
"null","296808","pSARL_v2","pSARL_v28sx9hn5v","6365b5599c1775edb6d46be4","fixation","img/fixation.png","null","","test","","","","","",""
"1530.4000000003725","298354","pSARL_v2","pSARL_v28sx9hn5v","6365b5599c1775edb6d46be4","reward","img/slot.png","74","","test","","","","","",""
"null","299125","pSARL_v2","pSARL_v28sx9hn5v","6365b5599c1775edb6d46be4","points","<div class=""verylowPoints""> -6 </div>","null","na","test","","","","7","-6","6"
"509.3000000002794","299652","pSARL_v2","pSARL_v28sx9hn5v","6365b5599c1775edb6d46be4","freq","img/green_2bandit_b2.png","70","70","test","1","161","161","8","",""
"null","299961","pSARL_v2","pSARL_v28sx9hn5v","6365b5599c1775edb6d46be4","freq_resp","img/green_2bandit_b.png","70","70","test","","","","8","",""
"null","300128","pSARL_v2","pSARL_v28sx9hn5v","6365b5599c1775edb6d46be4","fixation","img/fixation.png","null","","test","","","","","",""
"474","300616","pSARL_v2","pSARL_v28sx9hn5v","6365b5599c1775edb6d46be4","freq","img/green_2bandit_b2.png","70","70","test","1","162","162","8","",""
"null","300960","pSARL_v2","pSARL_v28sx9hn5v","6365b5599c1775edb6d46be4","freq_resp","img/green_2bandit_b.png","70","70","test","","","","8","",""
"null","301129","pSARL_v2","pSARL_v28sx9hn5v","6365b5599c1775edb6d46be4","fixation","img/fixation.png","null","","test","","","","","",""
"542.1000000000931","301685","pSARL_v2","pSARL_v28sx9hn5v","6365b5599c1775edb6d46be4","freq","img/green_2bandit_b2.png","70","70","test","1","163","163","8","",""
"null","301959","pSARL_v2","pSARL_v28sx9hn5v","6365b5599c1775edb6d46be4","freq_resp","img/green_2bandit_b.png","70","70","test","","","","8","",""
"null","302128","pSARL_v2","pSARL_v28sx9hn5v","6365b5599c1775edb6d46be4","fixation","img/fixation.png","null","","test","","","","","",""
"535","302677","pSARL_v2","pSARL_v28sx9hn5v","6365b5599c1775edb6d46be4","freq","img/green_2bandit_b2.png","70","70","test","1","164","164","8","",""
"null","302960","pSARL_v2","pSARL_v28sx9hn5v","6365b5599c1775edb6d46be4","freq_resp","img/green_2bandit_b.png","70","70","test","","","","8","",""
"null","303130","pSARL_v2","pSARL_v28sx9hn5v","6365b5599c1775edb6d46be4","fixation","img/fixation.png","null","","test","","","","","",""
"504.39999999990687","303652","pSARL_v2","pSARL_v28sx9hn5v","6365b5599c1775edb6d46be4","freq","img/green_2bandit_b2.png","70","70","test","1","165","165","8","",""
"null","303971","pSARL_v2","pSARL_v28sx9hn5v","6365b5599c1775edb6d46be4","freq_resp","img/green_2bandit_b.png","70","70","test","","","","8","",""
"null","304137","pSARL_v2","pSARL_v28sx9hn5v","6365b5599c1775edb6d46be4","fixation","img/fixation.png","null","","test","","","","","",""
"475.8000000002794","304627","pSARL_v2","pSARL_v28sx9hn5v","6365b5599c1775edb6d46be4","infreq","img/orange_2bandit_b2.png","68","68","test","1","166","166","8","",""
"null","304972","pSARL_v2","pSARL_v28sx9hn5v","6365b5599c1775edb6d46be4","infreq_resp","img/orange_2bandit_b.png","68","68","test","","","","8","",""
"null","305145","pSARL_v2","pSARL_v28sx9hn5v","6365b5599c1775edb6d46be4","fixation","img/fixation.png","null","","test","","","","","",""
"420.5","305584","pSARL_v2","pSARL_v28sx9hn5v","6365b5599c1775edb6d46be4","freq","img/green_2bandit_b2.png","70","70","test","1","167","167","8","",""
"null","305984","pSARL_v2","pSARL_v28sx9hn5v","6365b5599c1775edb6d46be4","freq_resp","img/green_2bandit_b.png","70","70","test","","","","8","",""
"null","306152","pSARL_v2","pSARL_v28sx9hn5v","6365b5599c1775edb6d46be4","fixation","img/fixation.png","null","","test","","","","","",""
"409.60000000009313","306580","pSARL_v2","pSARL_v28sx9hn5v","6365b5599c1775edb6d46be4","freq","img/green_2bandit_b2.png","70","70","test","1","168","168","8","",""
"null","306992","pSARL_v2","pSARL_v28sx9hn5v","6365b5599c1775edb6d46be4","freq_resp","img/green_2bandit_b.png","70","70","test","","","","8","",""
"null","307160","pSARL_v2","pSARL_v28sx9hn5v","6365b5599c1775edb6d46be4","fixation","img/fixation.png","null","","test","","","","","",""
"null","307976","pSARL_v2","pSARL_v28sx9hn5v","6365b5599c1775edb6d46be4","freq","img/green_2bandit_b2.png","null","70","test","0","169","169","8","",""
"null","308145","pSARL_v2","pSARL_v28sx9hn5v","6365b5599c1775edb6d46be4","fixation","img/fixation.png","null","","test","","","","","",""
"null","308964","pSARL_v2","pSARL_v28sx9hn5v","6365b5599c1775edb6d46be4","freq","img/green_2bandit_b2.png","null","70","test","0","170","170","8","",""
"null","309139","pSARL_v2","pSARL_v28sx9hn5v","6365b5599c1775edb6d46be4","fixation","img/fixation.png","null","","test","","","","","",""
"null","309963","pSARL_v2","pSARL_v28sx9hn5v","6365b5599c1775edb6d46be4","freq","img/green_2bandit_b2.png","null","70","test","0","171","171","8","",""
"null","310139","pSARL_v2","pSARL_v28sx9hn5v","6365b5599c1775edb6d46be4","fixation","img/fixation.png","null","","test","","","","","",""
"null","310965","pSARL_v2","pSARL_v28sx9hn5v","6365b5599c1775edb6d46be4","infreq","img/orange_2bandit_b2.png","null","68","test","0","172","172","8","",""
"null","311136","pSARL_v2","pSARL_v28sx9hn5v","6365b5599c1775edb6d46be4","fixation","img/fixation.png","null","","test","","","","","",""
"466.89999999990687","311622","pSARL_v2","pSARL_v28sx9hn5v","6365b5599c1775edb6d46be4","freq","img/green_2bandit_b2.png","70","70","test","1","173","173","8","",""
"null","311980","pSARL_v2","pSARL_v28sx9hn5v","6365b5599c1775edb6d46be4","freq_resp","img/green_2bandit_b.png","70","70","test","","","","8","",""
"null","312156","pSARL_v2","pSARL_v28sx9hn5v","6365b5599c1775edb6d46be4","fixation","img/fixation.png","null","","test","","","","","",""
"709.2000000001863","312885","pSARL_v2","pSARL_v28sx9hn5v","6365b5599c1775edb6d46be4","freq","img/green_2bandit_b2.png","70","70","test","1","174","174","8","",""
"null","312999","pSARL_v2","pSARL_v28sx9hn5v","6365b5599c1775edb6d46be4","freq_resp","img/green_2bandit_b.png","70","70","test","","","","8","",""
"null","313173","pSARL_v2","pSARL_v28sx9hn5v","6365b5599c1775edb6d46be4","fixation","img/fixation.png","null","","test","","","","","",""
"534.8999999999069","313727","pSARL_v2","pSARL_v28sx9hn5v","6365b5599c1775edb6d46be4","freq","img/green_2bandit_b2.png","70","70","test","1","175","175","8","",""
"null","314020","pSARL_v2","pSARL_v28sx9hn5v","6365b5599c1775edb6d46be4","freq_resp","img/green_2bandit_b.png","70","70","test","","","","8","",""
"null","314198","pSARL_v2","pSARL_v28sx9hn5v","6365b5599c1775edb6d46be4","fixation","img/fixation.png","null","","test","","","","","",""
"327.09999999962747","314545","pSARL_v2","pSARL_v28sx9hn5v","6365b5599c1775edb6d46be4","freq","img/green_2bandit_b2.png","70","70","test","1","176","176","8","",""
"null","315044","pSARL_v2","pSARL_v28sx9hn5v","6365b5599c1775edb6d46be4","freq_resp","img/green_2bandit_b.png","70","70","test","","","","8","",""
"null","315221","pSARL_v2","pSARL_v28sx9hn5v","6365b5599c1775edb6d46be4","fixation","img/fixation.png","null","","test","","","","","",""
"399.70000000018626","315642","pSARL_v2","pSARL_v28sx9hn5v","6365b5599c1775edb6d46be4","freq","img/green_2bandit_b2.png","70","70","test","1","177","177","8","",""
"null","316068","pSARL_v2","pSARL_v28sx9hn5v","6365b5599c1775edb6d46be4","freq_resp","img/green_2bandit_b.png","70","70","test","","","","8","",""
"null","316245","pSARL_v2","pSARL_v28sx9hn5v","6365b5599c1775edb6d46be4","fixation","img/fixation.png","null","","test","","","","","",""
"346.5","316607","pSARL_v2","pSARL_v28sx9hn5v","6365b5599c1775edb6d46be4","freq","img/green_2bandit_b2.png","70","70","test","1","178","178","8","",""
"null","317085","pSARL_v2","pSARL_v28sx9hn5v","6365b5599c1775edb6d46be4","freq_resp","img/green_2bandit_b.png","70","70","test","","","","8","",""
"null","317262","pSARL_v2","pSARL_v28sx9hn5v","6365b5599c1775edb6d46be4","fixation","img/fixation.png","null","","test","","","","","",""
"367.20000000018626","317650","pSARL_v2","pSARL_v28sx9hn5v","6365b5599c1775edb6d46be4","freq","img/green_2bandit_b2.png","70","70","test","1","179","179","8","",""
"null","318104","pSARL_v2","pSARL_v28sx9hn5v","6365b5599c1775edb6d46be4","freq_resp","img/green_2bandit_b.png","70","70","test","","","","8","",""
"null","318276","pSARL_v2","pSARL_v28sx9hn5v","6365b5599c1775edb6d46be4","fixation","img/fixation.png","null","","test","","","","","",""
"348","318644","pSARL_v2","pSARL_v28sx9hn5v","6365b5599c1775edb6d46be4","freq","img/green_2bandit_b2.png","70","70","test","1","180","180","8","",""
"null","319123","pSARL_v2","pSARL_v28sx9hn5v","6365b5599c1775edb6d46be4","freq_resp","img/green_2bandit_b.png","70","70","test","","","","8","",""
"null","319298","pSARL_v2","pSARL_v28sx9hn5v","6365b5599c1775edb6d46be4","fixation","img/fixation.png","null","","test","","","","","",""
"368.60000000009313","319681","pSARL_v2","pSARL_v28sx9hn5v","6365b5599c1775edb6d46be4","freq","img/green_2bandit_b2.png","70","70","test","1","181","181","8","",""
"null","320133","pSARL_v2","pSARL_v28sx9hn5v","6365b5599c1775edb6d46be4","freq_resp","img/green_2bandit_b.png","70","70","test","","","","8","",""
"null","320308","pSARL_v2","pSARL_v28sx9hn5v","6365b5599c1775edb6d46be4","fixation","img/fixation.png","null","","test","","","","","",""
"298.89999999990687","320622","pSARL_v2","pSARL_v28sx9hn5v","6365b5599c1775edb6d46be4","freq","img/green_2bandit_b2.png","70","70","test","1","182","182","8","",""
"null","321148","pSARL_v2","pSARL_v28sx9hn5v","6365b5599c1775edb6d46be4","freq_resp","img/green_2bandit_b.png","70","70","test","","","","8","",""
"null","321328","pSARL_v2","pSARL_v28sx9hn5v","6365b5599c1775edb6d46be4","fixation","img/fixation.png","null","","test","","","","","",""
"315.79999999981374","321666","pSARL_v2","pSARL_v28sx9hn5v","6365b5599c1775edb6d46be4","freq","img/green_2bandit_b2.png","70","70","test","1","183","183","8","",""
"null","322170","pSARL_v2","pSARL_v28sx9hn5v","6365b5599c1775edb6d46be4","freq_resp","img/green_2bandit_b.png","70","70","test","","","","8","",""
"null","322341","pSARL_v2","pSARL_v28sx9hn5v","6365b5599c1775edb6d46be4","fixation","img/fixation.png","null","","test","","","","","",""
"1453.1999999997206","323814","pSARL_v2","pSARL_v28sx9hn5v","6365b5599c1775edb6d46be4","reward","img/slot.png","74","","test","","","","","",""
"null","324588","pSARL_v2","pSARL_v28sx9hn5v","6365b5599c1775edb6d46be4","points","<div class=""verylowPoints""> -4 </div>","null","na","test","","","","8","-4","7"
"581.5999999996275","325192","pSARL_v2","pSARL_v28sx9hn5v","6365b5599c1775edb6d46be4","freq","img/green_2bandit_b2.png","70","70","test","1","184","184","9","",""
"null","325424","pSARL_v2","pSARL_v28sx9hn5v","6365b5599c1775edb6d46be4","freq_resp","img/green_2bandit_b.png","70","70","test","","","","9","",""
"null","325596","pSARL_v2","pSARL_v28sx9hn5v","6365b5599c1775edb6d46be4","fixation","img/fixation.png","null","","test","","","","","",""
"470.40000000037253","326081","pSARL_v2","pSARL_v28sx9hn5v","6365b5599c1775edb6d46be4","freq","img/green_2bandit_b2.png","70","70","test","1","185","185","9","",""
"null","326433","pSARL_v2","pSARL_v28sx9hn5v","6365b5599c1775edb6d46be4","freq_resp","img/green_2bandit_b.png","70","70","test","","","","9","",""
"null","326602","pSARL_v2","pSARL_v28sx9hn5v","6365b5599c1775edb6d46be4","fixation","img/fixation.png","null","","test","","","","","",""
"392","327009","pSARL_v2","pSARL_v28sx9hn5v","6365b5599c1775edb6d46be4","freq","img/green_2bandit_b2.png","70","70","test","1","186","186","9","",""
"null","327433","pSARL_v2","pSARL_v28sx9hn5v","6365b5599c1775edb6d46be4","freq_resp","img/green_2bandit_b.png","70","70","test","","","","9","",""
"null","327603","pSARL_v2","pSARL_v28sx9hn5v","6365b5599c1775edb6d46be4","fixation","img/fixation.png","null","","test","","","","","",""
"320.39999999990687","327939","pSARL_v2","pSARL_v28sx9hn5v","6365b5599c1775edb6d46be4","freq","img/green_2bandit_b2.png","70","70","test","1","187","187","9","",""
"null","328441","pSARL_v2","pSARL_v28sx9hn5v","6365b5599c1775edb6d46be4","freq_resp","img/green_2bandit_b.png","70","70","test","","","","9","",""
"null","328609","pSARL_v2","pSARL_v28sx9hn5v","6365b5599c1775edb6d46be4","fixation","img/fixation.png","null","","test","","","","","",""
"315.79999999981374","328940","pSARL_v2","pSARL_v28sx9hn5v","6365b5599c1775edb6d46be4","freq","img/green_2bandit_b2.png","70","70","test","1","188","188","9","",""
"null","329441","pSARL_v2","pSARL_v28sx9hn5v","6365b5599c1775edb6d46be4","freq_resp","img/green_2bandit_b.png","70","70","test","","","","9","",""
"null","329608","pSARL_v2","pSARL_v28sx9hn5v","6365b5599c1775edb6d46be4","fixation","img/fixation.png","null","","test","","","","","",""
"356.10000000009313","329979","pSARL_v2","pSARL_v28sx9hn5v","6365b5599c1775edb6d46be4","freq","img/green_2bandit_b2.png","70","70","test","1","189","189","9","",""
"null","330442","pSARL_v2","pSARL_v28sx9hn5v","6365b5599c1775edb6d46be4","freq_resp","img/green_2bandit_b.png","70","70","test","","","","9","",""
"null","330609","pSARL_v2","pSARL_v28sx9hn5v","6365b5599c1775edb6d46be4","fixation","img/fixation.png","null","","test","","","","","",""
"377.20000000018626","331003","pSARL_v2","pSARL_v28sx9hn5v","6365b5599c1775edb6d46be4","freq","img/green_2bandit_b2.png","70","70","test","1","190","190","9","",""
"null","331449","pSARL_v2","pSARL_v28sx9hn5v","6365b5599c1775edb6d46be4","freq_resp","img/green_2bandit_b.png","70","70","test","","","","9","",""
"null","331617","pSARL_v2","pSARL_v28sx9hn5v","6365b5599c1775edb6d46be4","fixation","img/fixation.png","null","","test","","","","","",""
"481.10000000009313","332113","pSARL_v2","pSARL_v28sx9hn5v","6365b5599c1775edb6d46be4","infreq","img/orange_2bandit_b2.png","68","68","test","1","191","191","9","",""
"null","332452","pSARL_v2","pSARL_v28sx9hn5v","6365b5599c1775edb6d46be4","infreq_resp","img/orange_2bandit_b.png","68","68","test","","","","9","",""
"null","332626","pSARL_v2","pSARL_v28sx9hn5v","6365b5599c1775edb6d46be4","fixation","img/fixation.png","null","","test","","","","","",""
"475.79999999981374","333117","pSARL_v2","pSARL_v28sx9hn5v","6365b5599c1775edb6d46be4","freq","img/green_2bandit_b2.png","70","70","test","1","192","192","9","",""
"null","333461","pSARL_v2","pSARL_v28sx9hn5v","6365b5599c1775edb6d46be4","freq_resp","img/green_2bandit_b.png","70","70","test","","","","9","",""
"null","333640","pSARL_v2","pSARL_v28sx9hn5v","6365b5599c1775edb6d46be4","fixation","img/fixation.png","null","","test","","","","","",""
"339.1999999997206","333999","pSARL_v2","pSARL_v28sx9hn5v","6365b5599c1775edb6d46be4","freq","img/green_2bandit_b2.png","70","70","test","1","193","193","9","",""
"null","334484","pSARL_v2","pSARL_v28sx9hn5v","6365b5599c1775edb6d46be4","freq_resp","img/green_2bandit_b.png","70","70","test","","","","9","",""
"null","334660","pSARL_v2","pSARL_v28sx9hn5v","6365b5599c1775edb6d46be4","fixation","img/fixation.png","null","","test","","","","","",""
"706.8999999999069","335385","pSARL_v2","pSARL_v28sx9hn5v","6365b5599c1775edb6d46be4","infreq","img/orange_2bandit_b2.png","68","68","test","1","194","194","9","",""
"null","335497","pSARL_v2","pSARL_v28sx9hn5v","6365b5599c1775edb6d46be4","infreq_resp","img/orange_2bandit_b.png","68","68","test","","","","9","",""
"null","335669","pSARL_v2","pSARL_v28sx9hn5v","6365b5599c1775edb6d46be4","fixation","img/fixation.png","null","","test","","","","","",""
"473.79999999981374","336161","pSARL_v2","pSARL_v28sx9hn5v","6365b5599c1775edb6d46be4","infreq","img/orange_2bandit_b2.png","68","68","test","1","195","195","9","",""
"null","336511","pSARL_v2","pSARL_v28sx9hn5v","6365b5599c1775edb6d46be4","infreq_resp","img/orange_2bandit_b.png","68","68","test","","","","9","",""
"null","336684","pSARL_v2","pSARL_v28sx9hn5v","6365b5599c1775edb6d46be4","fixation","img/fixation.png","null","","test","","","","","",""
"444","337148","pSARL_v2","pSARL_v28sx9hn5v","6365b5599c1775edb6d46be4","freq","img/green_2bandit_b2.png","70","70","test","1","196","196","9","",""
"null","337525","pSARL_v2","pSARL_v28sx9hn5v","6365b5599c1775edb6d46be4","freq_resp","img/green_2bandit_b.png","70","70","test","","","","9","",""
"null","337700","pSARL_v2","pSARL_v28sx9hn5v","6365b5599c1775edb6d46be4","fixation","img/fixation.png","null","","test","","","","","",""
"431.89999999990687","338146","pSARL_v2","pSARL_v28sx9hn5v","6365b5599c1775edb6d46be4","freq","img/green_2bandit_b2.png","70","70","test","1","197","197","9","",""
"null","338541","pSARL_v2","pSARL_v28sx9hn5v","6365b5599c1775edb6d46be4","freq_resp","img/green_2bandit_b.png","70","70","test","","","","9","",""
"null","338716","pSARL_v2","pSARL_v28sx9hn5v","6365b5599c1775edb6d46be4","fixation","img/fixation.png","null","","test","","","","","",""
"363.89999999990687","339101","pSARL_v2","pSARL_v28sx9hn5v","6365b5599c1775edb6d46be4","freq","img/green_2bandit_b2.png","70","70","test","1","198","198","9","",""
"null","339565","pSARL_v2","pSARL_v28sx9hn5v","6365b5599c1775edb6d46be4","freq_resp","img/green_2bandit_b.png","70","70","test","","","","9","",""
"null","339740","pSARL_v2","pSARL_v28sx9hn5v","6365b5599c1775edb6d46be4","fixation","img/fixation.png","null","","test","","","","","",""
"328","340087","pSARL_v2","pSARL_v28sx9hn5v","6365b5599c1775edb6d46be4","freq","img/green_2bandit_b2.png","70","70","test","1","199","199","9","",""
"null","340577","pSARL_v2","pSARL_v28sx9hn5v","6365b5599c1775edb6d46be4","freq_resp","img/green_2bandit_b.png","70","70","test","","","","9","",""
"null","340748","pSARL_v2","pSARL_v28sx9hn5v","6365b5599c1775edb6d46be4","fixation","img/fixation.png","null","","test","","","","","",""
"350.29999999981374","341119","pSARL_v2","pSARL_v28sx9hn5v","6365b5599c1775edb6d46be4","freq","img/green_2bandit_b2.png","70","70","test","1","200","200","9","",""
"null","341587","pSARL_v2","pSARL_v28sx9hn5v","6365b5599c1775edb6d46be4","freq_resp","img/green_2bandit_b.png","70","70","test","","","","9","",""
"null","341764","pSARL_v2","pSARL_v28sx9hn5v","6365b5599c1775edb6d46be4","fixation","img/fixation.png","null","","test","","","","","",""
"293.8000000002794","342080","pSARL_v2","pSARL_v28sx9hn5v","6365b5599c1775edb6d46be4","freq","img/green_2bandit_b2.png","70","70","test","1","201","201","9","",""
"null","342608","pSARL_v2","pSARL_v28sx9hn5v","6365b5599c1775edb6d46be4","freq_resp","img/green_2bandit_b.png","70","70","test","","","","9","",""
"null","342776","pSARL_v2","pSARL_v28sx9hn5v","6365b5599c1775edb6d46be4","fixation","img/fixation.png","null","","test","","","","","",""
"315.40000000037253","343108","pSARL_v2","pSARL_v28sx9hn5v","6365b5599c1775edb6d46be4","freq","img/green_2bandit_b2.png","70","70","test","1","202","202","9","",""
"null","343612","pSARL_v2","pSARL_v28sx9hn5v","6365b5599c1775edb6d46be4","freq_resp","img/green_2bandit_b.png","70","70","test","","","","9","",""
"null","343789","pSARL_v2","pSARL_v28sx9hn5v","6365b5599c1775edb6d46be4","fixation","img/fixation.png","null","","test","","","","","",""
"308.1999999997206","344117","pSARL_v2","pSARL_v28sx9hn5v","6365b5599c1775edb6d46be4","freq","img/green_2bandit_b2.png","70","70","test","1","203","203","9","",""
"null","344628","pSARL_v2","pSARL_v28sx9hn5v","6365b5599c1775edb6d46be4","freq_resp","img/green_2bandit_b.png","70","70","test","","","","9","",""
"null","344805","pSARL_v2","pSARL_v28sx9hn5v","6365b5599c1775edb6d46be4","fixation","img/fixation.png","null","","test","","","","","",""
"306.39999999990687","345132","pSARL_v2","pSARL_v28sx9hn5v","6365b5599c1775edb6d46be4","freq","img/green_2bandit_b2.png","70","70","test","1","204","204","9","",""
"null","345654","pSARL_v2","pSARL_v28sx9hn5v","6365b5599c1775edb6d46be4","freq_resp","img/green_2bandit_b.png","70","70","test","","","","9","",""
"null","345828","pSARL_v2","pSARL_v28sx9hn5v","6365b5599c1775edb6d46be4","fixation","img/fixation.png","null","","test","","","","","",""
"314.89999999990687","346163","pSARL_v2","pSARL_v28sx9hn5v","6365b5599c1775edb6d46be4","freq","img/green_2bandit_b2.png","70","70","test","1","205","205","9","",""
"null","346668","pSARL_v2","pSARL_v28sx9hn5v","6365b5599c1775edb6d46be4","freq_resp","img/green_2bandit_b.png","70","70","test","","","","9","",""
"null","346840","pSARL_v2","pSARL_v28sx9hn5v","6365b5599c1775edb6d46be4","fixation","img/fixation.png","null","","test","","","","","",""
"495.5","347353","pSARL_v2","pSARL_v28sx9hn5v","6365b5599c1775edb6d46be4","freq","img/green_2bandit_b2.png","70","70","test","1","206","206","9","",""
"null","347680","pSARL_v2","pSARL_v28sx9hn5v","6365b5599c1775edb6d46be4","freq_resp","img/green_2bandit_b.png","70","70","test","","","","9","",""
"null","347853","pSARL_v2","pSARL_v28sx9hn5v","6365b5599c1775edb6d46be4","fixation","img/fixation.png","null","","test","","","","","",""
"522.5","348394","pSARL_v2","pSARL_v28sx9hn5v","6365b5599c1775edb6d46be4","freq","img/green_2bandit_b2.png","70","70","test","1","207","207","9","",""
"null","348693","pSARL_v2","pSARL_v28sx9hn5v","6365b5599c1775edb6d46be4","freq_resp","img/green_2bandit_b.png","70","70","test","","","","9","",""
"null","348869","pSARL_v2","pSARL_v28sx9hn5v","6365b5599c1775edb6d46be4","fixation","img/fixation.png","null","","test","","","","","",""
