"rt","time_elapsed","expId","subject","prolificID","trialType","stimulus","key_press","corrresp","phase","corr","trialNum","attentionRunNum","blockNum","points","rlNum"
"334456.59999990463","334466","pSARL_v2","pSARL_v2cbz5jsyu","61117cb162ca624c2b2a443c","","","","","","","","","","",""
"","336850","pSARL_v2","pSARL_v2cbz5jsyu","61117cb162ca624c2b2a443c","fullscreen","","","","","","","","","",""
"65912.2000002861","402772","pSARL_v2","pSARL_v2cbz5jsyu","61117cb162ca624c2b2a443c","","","","","","","","","","",""
"null","403584","pSARL_v2","pSARL_v2cbz5jsyu","61117cb162ca624c2b2a443c","freqPrac","img/green_2bandit_a2.png","null","70","prac","0","","","","",""
"null","404596","pSARL_v2","pSARL_v2cbz5jsyu","61117cb162ca624c2b2a443c","feedback","img/tooSlow.png","null","na","prac","","","","","",""
"null","404758","pSARL_v2","pSARL_v2cbz5jsyu","61117cb162ca624c2b2a443c","fixation","img/fixation.png","null","","prac","","","","","",""
"null","405571","pSARL_v2","pSARL_v2cbz5jsyu","61117cb162ca624c2b2a443c","infreqPrac","img/orange_2bandit_a2.png","null","68","prac","0","","","","",""
"null","406579","pSARL_v2","pSARL_v2cbz5jsyu","61117cb162ca624c2b2a443c","feedback","img/tooSlow.png","null","na","prac","","","","","",""
"null","406737","pSARL_v2","pSARL_v2cbz5jsyu","61117cb162ca624c2b2a443c","fixation","img/fixation.png","null","","prac","","","","","",""
"452.40000009536743","407197","pSARL_v2","pSARL_v2cbz5jsyu","61117cb162ca624c2b2a443c","freqPrac","img/green_2bandit_a2.png","70","70","prac","1","","","","",""
"452.40000009536743","407552","pSARL_v2","pSARL_v2cbz5jsyu","61117cb162ca624c2b2a443c","freqPrac_resp","img/green_2bandit_a.png","70","70","prac","","","","","",""
"null","407710","pSARL_v2","pSARL_v2cbz5jsyu","61117cb162ca624c2b2a443c","fixation","img/fixation.png","null","","prac","","","","","",""
"667.3999996185303","408384","pSARL_v2","pSARL_v2cbz5jsyu","61117cb162ca624c2b2a443c","infreqPrac","img/orange_2bandit_a2.png","70","68","prac","0","","","","",""
"667.3999996185303","408590","pSARL_v2","pSARL_v2cbz5jsyu","61117cb162ca624c2b2a443c","infreqPrac_resp","img/orange_2bandit_a.png","70","68","prac","","","","","",""
"null","409599","pSARL_v2","pSARL_v2cbz5jsyu","61117cb162ca624c2b2a443c","feedback","img/wrongKey.png","null","na","prac","","","","","",""
"null","409757","pSARL_v2","pSARL_v2cbz5jsyu","61117cb162ca624c2b2a443c","fixation","img/fixation.png","null","","prac","","","","","",""
"392.40000009536743","410158","pSARL_v2","pSARL_v2cbz5jsyu","61117cb162ca624c2b2a443c","infreqPrac","img/orange_2bandit_a2.png","68","68","prac","1","","","","",""
"392.40000009536743","410581","pSARL_v2","pSARL_v2cbz5jsyu","61117cb162ca624c2b2a443c","infreqPrac_resp","img/orange_2bandit_a.png","68","68","prac","","","","","",""
"null","410744","pSARL_v2","pSARL_v2cbz5jsyu","61117cb162ca624c2b2a443c","fixation","img/fixation.png","null","","prac","","","","","",""
"417","411169","pSARL_v2","pSARL_v2cbz5jsyu","61117cb162ca624c2b2a443c","infreqPrac","img/orange_2bandit_a2.png","70","68","prac","0","","","","",""
"417","411561","pSARL_v2","pSARL_v2cbz5jsyu","61117cb162ca624c2b2a443c","infreqPrac_resp","img/orange_2bandit_a.png","70","68","prac","","","","","",""
"null","412570","pSARL_v2","pSARL_v2cbz5jsyu","61117cb162ca624c2b2a443c","feedback","img/wrongKey.png","null","na","prac","","","","","",""
"null","412728","pSARL_v2","pSARL_v2cbz5jsyu","61117cb162ca624c2b2a443c","fixation","img/fixation.png","null","","prac","","","","","",""
"545.1000003814697","413281","pSARL_v2","pSARL_v2cbz5jsyu","61117cb162ca624c2b2a443c","freqPrac","img/green_2bandit_a2.png","70","70","prac","1","","","","",""
"545.1000003814697","413544","pSARL_v2","pSARL_v2cbz5jsyu","61117cb162ca624c2b2a443c","freqPrac_resp","img/green_2bandit_a.png","70","70","prac","","","","","",""
"null","413711","pSARL_v2","pSARL_v2cbz5jsyu","61117cb162ca624c2b2a443c","fixation","img/fixation.png","null","","prac","","","","","",""
"449.80000019073486","414168","pSARL_v2","pSARL_v2cbz5jsyu","61117cb162ca624c2b2a443c","infreqPrac","img/orange_2bandit_a2.png","68","68","prac","1","","","","",""
"449.80000019073486","414526","pSARL_v2","pSARL_v2cbz5jsyu","61117cb162ca624c2b2a443c","infreqPrac_resp","img/orange_2bandit_a.png","68","68","prac","","","","","",""
"null","414683","pSARL_v2","pSARL_v2cbz5jsyu","61117cb162ca624c2b2a443c","fixation","img/fixation.png","null","","prac","","","","","",""
"371.09999990463257","415061","pSARL_v2","pSARL_v2cbz5jsyu","61117cb162ca624c2b2a443c","freqPrac","img/green_2bandit_a2.png","70","70","prac","1","","","","",""
"371.09999990463257","415497","pSARL_v2","pSARL_v2cbz5jsyu","61117cb162ca624c2b2a443c","freqPrac_resp","img/green_2bandit_a.png","70","70","prac","","","","","",""
"null","415657","pSARL_v2","pSARL_v2cbz5jsyu","61117cb162ca624c2b2a443c","fixation","img/fixation.png","null","","prac","","","","","",""
"276.5","415941","pSARL_v2","pSARL_v2cbz5jsyu","61117cb162ca624c2b2a443c","freqPrac","img/green_2bandit_a2.png","68","70","prac","0","","","","",""
"276.5","416473","pSARL_v2","pSARL_v2cbz5jsyu","61117cb162ca624c2b2a443c","freqPrac_resp","img/green_2bandit_a.png","68","70","prac","","","","","",""
"null","417482","pSARL_v2","pSARL_v2cbz5jsyu","61117cb162ca624c2b2a443c","feedback","img/wrongKey.png","null","na","prac","","","","","",""
"null","417642","pSARL_v2","pSARL_v2cbz5jsyu","61117cb162ca624c2b2a443c","fixation","img/fixation.png","null","","prac","","","","","",""
"6398.300000190735","424048","pSARL_v2","pSARL_v2cbz5jsyu","61117cb162ca624c2b2a443c","","","","","prac","","","","","",""
"42666","466723","pSARL_v2","pSARL_v2cbz5jsyu","61117cb162ca624c2b2a443c","rewardPractice","img/slot.png","74","","prac","","","","","",""
"null","467481","pSARL_v2","pSARL_v2cbz5jsyu","61117cb162ca624c2b2a443c","feedback","<div class=""veryhighPoints""> +15 </div>","null","na","prac","","","","","",""
"null","467638","pSARL_v2","pSARL_v2cbz5jsyu","61117cb162ca624c2b2a443c","fixation","img/fixation.png","null","","prac","","","","","",""
"19155.799999713898","486801","pSARL_v2","pSARL_v2cbz5jsyu","61117cb162ca624c2b2a443c","","","","","prac","","","","","",""
"null","487611","pSARL_v2","pSARL_v2cbz5jsyu","61117cb162ca624c2b2a443c","freq","img/green_2bandit_a2.png","null","70","test","0","1","1","1","",""
"null","487769","pSARL_v2","pSARL_v2cbz5jsyu","61117cb162ca624c2b2a443c","fixation","img/fixation.png","null","","test","","","","","",""
"13.099999904632568","487794","pSARL_v2","pSARL_v2cbz5jsyu","61117cb162ca624c2b2a443c","freq","img/green_2bandit_a2.png","70","70","test","1","2","2","1","",""
"null","488588","pSARL_v2","pSARL_v2cbz5jsyu","61117cb162ca624c2b2a443c","freq_resp","img/green_2bandit_a.png","70","70","test","","","","1","",""
"null","488752","pSARL_v2","pSARL_v2cbz5jsyu","61117cb162ca624c2b2a443c","fixation","img/fixation.png","null","","test","","","","","",""
"567.9000000953674","489328","pSARL_v2","pSARL_v2cbz5jsyu","61117cb162ca624c2b2a443c","freq","img/green_2bandit_a2.png","70","70","test","1","3","3","1","",""
"null","489567","pSARL_v2","pSARL_v2cbz5jsyu","61117cb162ca624c2b2a443c","freq_resp","img/green_2bandit_a.png","70","70","test","","","","1","",""
"null","489726","pSARL_v2","pSARL_v2cbz5jsyu","61117cb162ca624c2b2a443c","fixation","img/fixation.png","null","","test","","","","","",""
"410.40000009536743","490144","pSARL_v2","pSARL_v2cbz5jsyu","61117cb162ca624c2b2a443c","freq","img/green_2bandit_a2.png","70","70","test","1","4","4","1","",""
"null","490545","pSARL_v2","pSARL_v2cbz5jsyu","61117cb162ca624c2b2a443c","freq_resp","img/green_2bandit_a.png","70","70","test","","","","1","",""
"null","490703","pSARL_v2","pSARL_v2cbz5jsyu","61117cb162ca624c2b2a443c","fixation","img/fixation.png","null","","test","","","","","",""
"409.7999997138977","491120","pSARL_v2","pSARL_v2cbz5jsyu","61117cb162ca624c2b2a443c","freq","img/green_2bandit_a2.png","70","70","test","1","5","5","1","",""
"null","491518","pSARL_v2","pSARL_v2cbz5jsyu","61117cb162ca624c2b2a443c","freq_resp","img/green_2bandit_a.png","70","70","test","","","","1","",""
"null","491682","pSARL_v2","pSARL_v2cbz5jsyu","61117cb162ca624c2b2a443c","fixation","img/fixation.png","null","","test","","","","","",""
"451.09999990463257","492141","pSARL_v2","pSARL_v2cbz5jsyu","61117cb162ca624c2b2a443c","freq","img/green_2bandit_a2.png","70","70","test","1","6","6","1","",""
"null","492500","pSARL_v2","pSARL_v2cbz5jsyu","61117cb162ca624c2b2a443c","freq_resp","img/green_2bandit_a.png","70","70","test","","","","1","",""
"null","492661","pSARL_v2","pSARL_v2cbz5jsyu","61117cb162ca624c2b2a443c","fixation","img/fixation.png","null","","test","","","","","",""
"644","493313","pSARL_v2","pSARL_v2cbz5jsyu","61117cb162ca624c2b2a443c","freq","img/green_2bandit_a2.png","70","70","test","1","7","7","1","",""
"null","493478","pSARL_v2","pSARL_v2cbz5jsyu","61117cb162ca624c2b2a443c","freq_resp","img/green_2bandit_a.png","70","70","test","","","","1","",""
"null","493637","pSARL_v2","pSARL_v2cbz5jsyu","61117cb162ca624c2b2a443c","fixation","img/fixation.png","null","","test","","","","","",""
"531.9000000953674","494177","pSARL_v2","pSARL_v2cbz5jsyu","61117cb162ca624c2b2a443c","freq","img/green_2bandit_a2.png","70","70","test","1","8","8","1","",""
"null","494454","pSARL_v2","pSARL_v2cbz5jsyu","61117cb162ca624c2b2a443c","freq_resp","img/green_2bandit_a.png","70","70","test","","","","1","",""
"null","494613","pSARL_v2","pSARL_v2cbz5jsyu","61117cb162ca624c2b2a443c","fixation","img/fixation.png","null","","test","","","","","",""
"654.7000002861023","495275","pSARL_v2","pSARL_v2cbz5jsyu","61117cb162ca624c2b2a443c","infreq","img/orange_2bandit_a2.png","68","68","test","1","9","9","1","",""
"null","495428","pSARL_v2","pSARL_v2cbz5jsyu","61117cb162ca624c2b2a443c","infreq_resp","img/orange_2bandit_a.png","68","68","test","","","","1","",""
"null","495589","pSARL_v2","pSARL_v2cbz5jsyu","61117cb162ca624c2b2a443c","fixation","img/fixation.png","null","","test","","","","","",""
"572.2999997138977","496169","pSARL_v2","pSARL_v2cbz5jsyu","61117cb162ca624c2b2a443c","freq","img/green_2bandit_a2.png","70","70","test","1","10","10","1","",""
"null","496405","pSARL_v2","pSARL_v2cbz5jsyu","61117cb162ca624c2b2a443c","freq_resp","img/green_2bandit_a.png","70","70","test","","","","1","",""
"null","496564","pSARL_v2","pSARL_v2cbz5jsyu","61117cb162ca624c2b2a443c","fixation","img/fixation.png","null","","test","","","","","",""
"706.2999997138977","497280","pSARL_v2","pSARL_v2cbz5jsyu","61117cb162ca624c2b2a443c","freq","img/green_2bandit_a2.png","70","70","test","1","11","11","1","",""
"null","497384","pSARL_v2","pSARL_v2cbz5jsyu","61117cb162ca624c2b2a443c","freq_resp","img/green_2bandit_a.png","70","70","test","","","","1","",""
"null","497548","pSARL_v2","pSARL_v2cbz5jsyu","61117cb162ca624c2b2a443c","fixation","img/fixation.png","null","","test","","","","","",""
"698.6999998092651","498254","pSARL_v2","pSARL_v2cbz5jsyu","61117cb162ca624c2b2a443c","freq","img/green_2bandit_a2.png","70","70","test","1","12","12","1","",""
"null","498363","pSARL_v2","pSARL_v2cbz5jsyu","61117cb162ca624c2b2a443c","freq_resp","img/green_2bandit_a.png","70","70","test","","","","1","",""
"null","498520","pSARL_v2","pSARL_v2cbz5jsyu","61117cb162ca624c2b2a443c","fixation","img/fixation.png","null","","test","","","","","",""
"618.9000000953674","499148","pSARL_v2","pSARL_v2cbz5jsyu","61117cb162ca624c2b2a443c","freq","img/green_2bandit_a2.png","70","70","test","1","13","13","1","",""
"null","499341","pSARL_v2","pSARL_v2cbz5jsyu","61117cb162ca624c2b2a443c","freq_resp","img/green_2bandit_a.png","70","70","test","","","","1","",""
"null","499500","pSARL_v2","pSARL_v2cbz5jsyu","61117cb162ca624c2b2a443c","fixation","img/fixation.png","null","","test","","","","","",""
"491.5","500000","pSARL_v2","pSARL_v2cbz5jsyu","61117cb162ca624c2b2a443c","freq","img/green_2bandit_a2.png","70","70","test","1","14","14","1","",""
"null","500317","pSARL_v2","pSARL_v2cbz5jsyu","61117cb162ca624c2b2a443c","freq_resp","img/green_2bandit_a.png","70","70","test","","","","1","",""
"null","500479","pSARL_v2","pSARL_v2cbz5jsyu","61117cb162ca624c2b2a443c","fixation","img/fixation.png","null","","test","","","","","",""
"463.8999996185303","500951","pSARL_v2","pSARL_v2cbz5jsyu","61117cb162ca624c2b2a443c","freq","img/green_2bandit_a2.png","70","70","test","1","15","15","1","",""
"null","501295","pSARL_v2","pSARL_v2cbz5jsyu","61117cb162ca624c2b2a443c","freq_resp","img/green_2bandit_a.png","70","70","test","","","","1","",""
"null","501454","pSARL_v2","pSARL_v2cbz5jsyu","61117cb162ca624c2b2a443c","fixation","img/fixation.png","null","","test","","","","","",""
"432.7000002861023","501895","pSARL_v2","pSARL_v2cbz5jsyu","61117cb162ca624c2b2a443c","freq","img/green_2bandit_a2.png","70","70","test","1","16","16","1","",""
"null","502271","pSARL_v2","pSARL_v2cbz5jsyu","61117cb162ca624c2b2a443c","freq_resp","img/green_2bandit_a.png","70","70","test","","","","1","",""
"null","502432","pSARL_v2","pSARL_v2cbz5jsyu","61117cb162ca624c2b2a443c","fixation","img/fixation.png","null","","test","","","","","",""
"598.4000000953674","503040","pSARL_v2","pSARL_v2cbz5jsyu","61117cb162ca624c2b2a443c","infreq","img/orange_2bandit_a2.png","68","68","test","1","17","17","1","",""
"null","503249","pSARL_v2","pSARL_v2cbz5jsyu","61117cb162ca624c2b2a443c","infreq_resp","img/orange_2bandit_a.png","68","68","test","","","","1","",""
"null","503408","pSARL_v2","pSARL_v2cbz5jsyu","61117cb162ca624c2b2a443c","fixation","img/fixation.png","null","","test","","","","","",""
"416.5","503834","pSARL_v2","pSARL_v2cbz5jsyu","61117cb162ca624c2b2a443c","freq","img/green_2bandit_a2.png","70","70","test","1","18","18","1","",""
"null","504225","pSARL_v2","pSARL_v2cbz5jsyu","61117cb162ca624c2b2a443c","freq_resp","img/green_2bandit_a.png","70","70","test","","","","1","",""
"null","504383","pSARL_v2","pSARL_v2cbz5jsyu","61117cb162ca624c2b2a443c","fixation","img/fixation.png","null","","test","","","","","",""
"479.7000002861023","504870","pSARL_v2","pSARL_v2cbz5jsyu","61117cb162ca624c2b2a443c","freq","img/green_2bandit_a2.png","70","70","test","1","19","19","1","",""
"null","505198","pSARL_v2","pSARL_v2cbz5jsyu","61117cb162ca624c2b2a443c","freq_resp","img/green_2bandit_a.png","70","70","test","","","","1","",""
"null","505356","pSARL_v2","pSARL_v2cbz5jsyu","61117cb162ca624c2b2a443c","fixation","img/fixation.png","null","","test","","","","","",""
"1574.3999996185303","506939","pSARL_v2","pSARL_v2cbz5jsyu","61117cb162ca624c2b2a443c","reward","img/slot.png","74","","test","","","","","",""
"null","507697","pSARL_v2","pSARL_v2cbz5jsyu","61117cb162ca624c2b2a443c","points","<div class=""verylowPoints""> -6 </div>","null","na","test","","","","1","-6","0"
"744.6999998092651","508449","pSARL_v2","pSARL_v2cbz5jsyu","61117cb162ca624c2b2a443c","freq","img/green_2bandit_a2.png","70","70","test","1","20","20","2","",""
"null","508512","pSARL_v2","pSARL_v2cbz5jsyu","61117cb162ca624c2b2a443c","freq_resp","img/green_2bandit_a.png","70","70","test","","","","2","",""
"null","508673","pSARL_v2","pSARL_v2cbz5jsyu","61117cb162ca624c2b2a443c","fixation","img/fixation.png","null","","test","","","","","",""
"null","509481","pSARL_v2","pSARL_v2cbz5jsyu","61117cb162ca624c2b2a443c","freq","img/green_2bandit_a2.png","null","70","test","0","21","21","2","",""
"null","509639","pSARL_v2","pSARL_v2cbz5jsyu","61117cb162ca624c2b2a443c","fixation","img/fixation.png","null","","test","","","","","",""
"36.700000286102295","509684","pSARL_v2","pSARL_v2cbz5jsyu","61117cb162ca624c2b2a443c","freq","img/green_2bandit_a2.png","70","70","test","1","22","22","2","",""
"null","510456","pSARL_v2","pSARL_v2cbz5jsyu","61117cb162ca624c2b2a443c","freq_resp","img/green_2bandit_a.png","70","70","test","","","","2","",""
"null","510613","pSARL_v2","pSARL_v2cbz5jsyu","61117cb162ca624c2b2a443c","fixation","img/fixation.png","null","","test","","","","","",""
"38.200000286102295","510660","pSARL_v2","pSARL_v2cbz5jsyu","61117cb162ca624c2b2a443c","freq","img/green_2bandit_a2.png","70","70","test","1","23","23","2","",""
"null","511429","pSARL_v2","pSARL_v2cbz5jsyu","61117cb162ca624c2b2a443c","freq_resp","img/green_2bandit_a.png","70","70","test","","","","2","",""
"null","511588","pSARL_v2","pSARL_v2cbz5jsyu","61117cb162ca624c2b2a443c","fixation","img/fixation.png","null","","test","","","","","",""
"677.3000001907349","512274","pSARL_v2","pSARL_v2cbz5jsyu","61117cb162ca624c2b2a443c","freq","img/green_2bandit_a2.png","70","70","test","1","24","24","2","",""
"null","512406","pSARL_v2","pSARL_v2cbz5jsyu","61117cb162ca624c2b2a443c","freq_resp","img/green_2bandit_a.png","70","70","test","","","","2","",""
"null","512564","pSARL_v2","pSARL_v2cbz5jsyu","61117cb162ca624c2b2a443c","fixation","img/fixation.png","null","","test","","","","","",""
"698.2999997138977","513271","pSARL_v2","pSARL_v2cbz5jsyu","61117cb162ca624c2b2a443c","infreq","img/orange_2bandit_a2.png","68","68","test","1","25","25","2","",""
"null","513381","pSARL_v2","pSARL_v2cbz5jsyu","61117cb162ca624c2b2a443c","infreq_resp","img/orange_2bandit_a.png","68","68","test","","","","2","",""
"null","513539","pSARL_v2","pSARL_v2cbz5jsyu","61117cb162ca624c2b2a443c","fixation","img/fixation.png","null","","test","","","","","",""
"606.0999999046326","514153","pSARL_v2","pSARL_v2cbz5jsyu","61117cb162ca624c2b2a443c","freq","img/green_2bandit_a2.png","70","70","test","1","26","26","2","",""
"null","514357","pSARL_v2","pSARL_v2cbz5jsyu","61117cb162ca624c2b2a443c","freq_resp","img/green_2bandit_a.png","70","70","test","","","","2","",""
"null","514517","pSARL_v2","pSARL_v2cbz5jsyu","61117cb162ca624c2b2a443c","fixation","img/fixation.png","null","","test","","","","","",""
"760.5","515285","pSARL_v2","pSARL_v2cbz5jsyu","61117cb162ca624c2b2a443c","freq","img/green_2bandit_a2.png","70","70","test","1","27","27","2","",""
"null","515331","pSARL_v2","pSARL_v2cbz5jsyu","61117cb162ca624c2b2a443c","freq_resp","img/green_2bandit_a.png","70","70","test","","","","2","",""
"null","515489","pSARL_v2","pSARL_v2cbz5jsyu","61117cb162ca624c2b2a443c","fixation","img/fixation.png","null","","test","","","","","",""
"686.5999999046326","516183","pSARL_v2","pSARL_v2cbz5jsyu","61117cb162ca624c2b2a443c","freq","img/green_2bandit_a2.png","70","70","test","1","28","28","2","",""
"null","516306","pSARL_v2","pSARL_v2cbz5jsyu","61117cb162ca624c2b2a443c","freq_resp","img/green_2bandit_a.png","70","70","test","","","","2","",""
"null","516465","pSARL_v2","pSARL_v2cbz5jsyu","61117cb162ca624c2b2a443c","fixation","img/fixation.png","null","","test","","","","","",""
"585.2000002861023","517058","pSARL_v2","pSARL_v2cbz5jsyu","61117cb162ca624c2b2a443c","freq","img/green_2bandit_a2.png","70","70","test","1","29","29","2","",""
"null","517280","pSARL_v2","pSARL_v2cbz5jsyu","61117cb162ca624c2b2a443c","freq_resp","img/green_2bandit_a.png","70","70","test","","","","2","",""
"null","517438","pSARL_v2","pSARL_v2cbz5jsyu","61117cb162ca624c2b2a443c","fixation","img/fixation.png","null","","test","","","","","",""
"448.69999980926514","517894","pSARL_v2","pSARL_v2cbz5jsyu","61117cb162ca624c2b2a443c","freq","img/green_2bandit_a2.png","70","70","test","1","30","30","2","",""
"null","518254","pSARL_v2","pSARL_v2cbz5jsyu","61117cb162ca624c2b2a443c","freq_resp","img/green_2bandit_a.png","70","70","test","","","","2","",""
"null","518413","pSARL_v2","pSARL_v2cbz5jsyu","61117cb162ca624c2b2a443c","fixation","img/fixation.png","null","","test","","","","","",""
"474.09999990463257","518895","pSARL_v2","pSARL_v2cbz5jsyu","61117cb162ca624c2b2a443c","freq","img/green_2bandit_a2.png","70","70","test","1","31","31","2","",""
"null","519228","pSARL_v2","pSARL_v2cbz5jsyu","61117cb162ca624c2b2a443c","freq_resp","img/green_2bandit_a.png","70","70","test","","","","2","",""
"null","519386","pSARL_v2","pSARL_v2cbz5jsyu","61117cb162ca624c2b2a443c","fixation","img/fixation.png","null","","test","","","","","",""
"459.59999990463257","519853","pSARL_v2","pSARL_v2cbz5jsyu","61117cb162ca624c2b2a443c","freq","img/green_2bandit_a2.png","70","70","test","1","32","32","2","",""
"null","520209","pSARL_v2","pSARL_v2cbz5jsyu","61117cb162ca624c2b2a443c","freq_resp","img/green_2bandit_a.png","70","70","test","","","","2","",""
"null","520369","pSARL_v2","pSARL_v2cbz5jsyu","61117cb162ca624c2b2a443c","fixation","img/fixation.png","null","","test","","","","","",""
"489.5","520874","pSARL_v2","pSARL_v2cbz5jsyu","61117cb162ca624c2b2a443c","freq","img/green_2bandit_a2.png","70","70","test","1","33","33","2","",""
"null","521192","pSARL_v2","pSARL_v2cbz5jsyu","61117cb162ca624c2b2a443c","freq_resp","img/green_2bandit_a.png","70","70","test","","","","2","",""
"null","521352","pSARL_v2","pSARL_v2cbz5jsyu","61117cb162ca624c2b2a443c","fixation","img/fixation.png","null","","test","","","","","",""
"448.5","521813","pSARL_v2","pSARL_v2cbz5jsyu","61117cb162ca624c2b2a443c","freq","img/green_2bandit_a2.png","70","70","test","1","34","34","2","",""
"null","522173","pSARL_v2","pSARL_v2cbz5jsyu","61117cb162ca624c2b2a443c","freq_resp","img/green_2bandit_a.png","70","70","test","","","","2","",""
"null","522336","pSARL_v2","pSARL_v2cbz5jsyu","61117cb162ca624c2b2a443c","fixation","img/fixation.png","null","","test","","","","","",""
"489.09999990463257","522837","pSARL_v2","pSARL_v2cbz5jsyu","61117cb162ca624c2b2a443c","freq","img/green_2bandit_a2.png","70","70","test","1","35","35","2","",""
"null","523155","pSARL_v2","pSARL_v2cbz5jsyu","61117cb162ca624c2b2a443c","freq_resp","img/green_2bandit_a.png","70","70","test","","","","2","",""
"null","523313","pSARL_v2","pSARL_v2cbz5jsyu","61117cb162ca624c2b2a443c","fixation","img/fixation.png","null","","test","","","","","",""
"421.7000002861023","523742","pSARL_v2","pSARL_v2cbz5jsyu","61117cb162ca624c2b2a443c","freq","img/green_2bandit_a2.png","70","70","test","1","36","36","2","",""
"null","524128","pSARL_v2","pSARL_v2cbz5jsyu","61117cb162ca624c2b2a443c","freq_resp","img/green_2bandit_a.png","70","70","test","","","","2","",""
"null","524288","pSARL_v2","pSARL_v2cbz5jsyu","61117cb162ca624c2b2a443c","fixation","img/fixation.png","null","","test","","","","","",""
"450.59999990463257","524746","pSARL_v2","pSARL_v2cbz5jsyu","61117cb162ca624c2b2a443c","freq","img/green_2bandit_a2.png","70","70","test","1","37","37","2","",""
"null","525174","pSARL_v2","pSARL_v2cbz5jsyu","61117cb162ca624c2b2a443c","freq_resp","img/green_2bandit_a.png","70","70","test","","","","2","",""
"null","525334","pSARL_v2","pSARL_v2cbz5jsyu","61117cb162ca624c2b2a443c","fixation","img/fixation.png","null","","test","","","","","",""
"null","526142","pSARL_v2","pSARL_v2cbz5jsyu","61117cb162ca624c2b2a443c","infreq","img/orange_2bandit_a2.png","null","68","test","0","38","38","2","",""
"null","526304","pSARL_v2","pSARL_v2cbz5jsyu","61117cb162ca624c2b2a443c","fixation","img/fixation.png","null","","test","","","","","",""
"142.59999990463257","526454","pSARL_v2","pSARL_v2cbz5jsyu","61117cb162ca624c2b2a443c","freq","img/green_2bandit_a2.png","68","70","test","0","39","39","2","",""
"null","527132","pSARL_v2","pSARL_v2cbz5jsyu","61117cb162ca624c2b2a443c","freq_resp","img/green_2bandit_a.png","68","70","test","","","","2","",""
"null","527290","pSARL_v2","pSARL_v2cbz5jsyu","61117cb162ca624c2b2a443c","fixation","img/fixation.png","null","","test","","","","","",""
"753.9000000953674","528053","pSARL_v2","pSARL_v2cbz5jsyu","61117cb162ca624c2b2a443c","freq","img/green_2bandit_a2.png","70","70","test","1","40","40","2","",""
"null","528108","pSARL_v2","pSARL_v2cbz5jsyu","61117cb162ca624c2b2a443c","freq_resp","img/green_2bandit_a.png","70","70","test","","","","2","",""
"null","528272","pSARL_v2","pSARL_v2cbz5jsyu","61117cb162ca624c2b2a443c","fixation","img/fixation.png","null","","test","","","","","",""
"689.0999999046326","528969","pSARL_v2","pSARL_v2cbz5jsyu","61117cb162ca624c2b2a443c","reward","img/slot.png","74","","test","","","","","",""
"null","529728","pSARL_v2","pSARL_v2cbz5jsyu","61117cb162ca624c2b2a443c","points","<div class=""verylowPoints""> -11 </div>","null","na","test","","","","2","-11","1"
"null","530537","pSARL_v2","pSARL_v2cbz5jsyu","61117cb162ca624c2b2a443c","freq","img/green_2bandit_a2.png","null","70","test","0","41","41","3","",""
"null","530695","pSARL_v2","pSARL_v2cbz5jsyu","61117cb162ca624c2b2a443c","fixation","img/fixation.png","null","","test","","","","","",""
"659.0999999046326","531361","pSARL_v2","pSARL_v2cbz5jsyu","61117cb162ca624c2b2a443c","freq","img/green_2bandit_a2.png","70","70","test","1","42","42","3","",""
"null","531510","pSARL_v2","pSARL_v2cbz5jsyu","61117cb162ca624c2b2a443c","freq_resp","img/green_2bandit_a.png","70","70","test","","","","3","",""
"null","531667","pSARL_v2","pSARL_v2cbz5jsyu","61117cb162ca624c2b2a443c","fixation","img/fixation.png","null","","test","","","","","",""
"499","532174","pSARL_v2","pSARL_v2cbz5jsyu","61117cb162ca624c2b2a443c","freq","img/green_2bandit_a2.png","70","70","test","1","43","43","3","",""
"null","532484","pSARL_v2","pSARL_v2cbz5jsyu","61117cb162ca624c2b2a443c","freq_resp","img/green_2bandit_a.png","70","70","test","","","","3","",""
"null","532643","pSARL_v2","pSARL_v2cbz5jsyu","61117cb162ca624c2b2a443c","fixation","img/fixation.png","null","","test","","","","","",""
"440","533090","pSARL_v2","pSARL_v2cbz5jsyu","61117cb162ca624c2b2a443c","freq","img/green_2bandit_a2.png","70","70","test","1","44","44","3","",""
"null","533457","pSARL_v2","pSARL_v2cbz5jsyu","61117cb162ca624c2b2a443c","freq_resp","img/green_2bandit_a.png","70","70","test","","","","3","",""
"null","533617","pSARL_v2","pSARL_v2cbz5jsyu","61117cb162ca624c2b2a443c","fixation","img/fixation.png","null","","test","","","","","",""
"null","534425","pSARL_v2","pSARL_v2cbz5jsyu","61117cb162ca624c2b2a443c","infreq","img/orange_2bandit_a2.png","null","68","test","0","45","45","3","",""
"null","534583","pSARL_v2","pSARL_v2cbz5jsyu","61117cb162ca624c2b2a443c","fixation","img/fixation.png","null","","test","","","","","",""
"null","535394","pSARL_v2","pSARL_v2cbz5jsyu","61117cb162ca624c2b2a443c","freq","img/green_2bandit_a2.png","null","70","test","0","46","46","3","",""
"null","535568","pSARL_v2","pSARL_v2cbz5jsyu","61117cb162ca624c2b2a443c","fixation","img/fixation.png","null","","test","","","","","",""
"32.799999713897705","535608","pSARL_v2","pSARL_v2cbz5jsyu","61117cb162ca624c2b2a443c","freq","img/green_2bandit_a2.png","70","70","test","1","47","47","3","",""
"null","536385","pSARL_v2","pSARL_v2cbz5jsyu","61117cb162ca624c2b2a443c","freq_resp","img/green_2bandit_a.png","70","70","test","","","","3","",""
"null","536543","pSARL_v2","pSARL_v2cbz5jsyu","61117cb162ca624c2b2a443c","fixation","img/fixation.png","null","","test","","","","","",""
"636.9000000953674","537187","pSARL_v2","pSARL_v2cbz5jsyu","61117cb162ca624c2b2a443c","freq","img/green_2bandit_a2.png","70","70","test","1","48","48","3","",""
"null","537359","pSARL_v2","pSARL_v2cbz5jsyu","61117cb162ca624c2b2a443c","freq_resp","img/green_2bandit_a.png","70","70","test","","","","3","",""
"null","537517","pSARL_v2","pSARL_v2cbz5jsyu","61117cb162ca624c2b2a443c","fixation","img/fixation.png","null","","test","","","","","",""
"556.4000000953674","538080","pSARL_v2","pSARL_v2cbz5jsyu","61117cb162ca624c2b2a443c","freq","img/green_2bandit_a2.png","70","70","test","1","49","49","3","",""
"null","538332","pSARL_v2","pSARL_v2cbz5jsyu","61117cb162ca624c2b2a443c","freq_resp","img/green_2bandit_a.png","70","70","test","","","","3","",""
"null","538490","pSARL_v2","pSARL_v2cbz5jsyu","61117cb162ca624c2b2a443c","fixation","img/fixation.png","null","","test","","","","","",""
"551","539049","pSARL_v2","pSARL_v2cbz5jsyu","61117cb162ca624c2b2a443c","infreq","img/orange_2bandit_a2.png","68","68","test","1","50","50","3","",""
"null","539306","pSARL_v2","pSARL_v2cbz5jsyu","61117cb162ca624c2b2a443c","infreq_resp","img/orange_2bandit_a.png","68","68","test","","","","3","",""
"null","539464","pSARL_v2","pSARL_v2cbz5jsyu","61117cb162ca624c2b2a443c","fixation","img/fixation.png","null","","test","","","","","",""
"478.59999990463257","539949","pSARL_v2","pSARL_v2cbz5jsyu","61117cb162ca624c2b2a443c","freq","img/green_2bandit_a2.png","70","70","test","1","51","51","3","",""
"null","540278","pSARL_v2","pSARL_v2cbz5jsyu","61117cb162ca624c2b2a443c","freq_resp","img/green_2bandit_a.png","70","70","test","","","","3","",""
"null","540436","pSARL_v2","pSARL_v2cbz5jsyu","61117cb162ca624c2b2a443c","fixation","img/fixation.png","null","","test","","","","","",""
"581.5","541025","pSARL_v2","pSARL_v2cbz5jsyu","61117cb162ca624c2b2a443c","freq","img/green_2bandit_a2.png","70","70","test","1","52","52","3","",""
"null","541251","pSARL_v2","pSARL_v2cbz5jsyu","61117cb162ca624c2b2a443c","freq_resp","img/green_2bandit_a.png","70","70","test","","","","3","",""
"null","541410","pSARL_v2","pSARL_v2cbz5jsyu","61117cb162ca624c2b2a443c","fixation","img/fixation.png","null","","test","","","","","",""
"451.6000003814697","541869","pSARL_v2","pSARL_v2cbz5jsyu","61117cb162ca624c2b2a443c","freq","img/green_2bandit_a2.png","70","70","test","1","53","53","3","",""
"null","542225","pSARL_v2","pSARL_v2cbz5jsyu","61117cb162ca624c2b2a443c","freq_resp","img/green_2bandit_a.png","70","70","test","","","","3","",""
"null","542384","pSARL_v2","pSARL_v2cbz5jsyu","61117cb162ca624c2b2a443c","fixation","img/fixation.png","null","","test","","","","","",""
"476.40000009536743","542867","pSARL_v2","pSARL_v2cbz5jsyu","61117cb162ca624c2b2a443c","freq","img/green_2bandit_a2.png","70","70","test","1","54","54","3","",""
"null","543200","pSARL_v2","pSARL_v2cbz5jsyu","61117cb162ca624c2b2a443c","freq_resp","img/green_2bandit_a.png","70","70","test","","","","3","",""
"null","543359","pSARL_v2","pSARL_v2cbz5jsyu","61117cb162ca624c2b2a443c","fixation","img/fixation.png","null","","test","","","","","",""
"449.5","543816","pSARL_v2","pSARL_v2cbz5jsyu","61117cb162ca624c2b2a443c","freq","img/green_2bandit_a2.png","70","70","test","1","55","55","3","",""
"null","544175","pSARL_v2","pSARL_v2cbz5jsyu","61117cb162ca624c2b2a443c","freq_resp","img/green_2bandit_a.png","70","70","test","","","","3","",""
"null","544334","pSARL_v2","pSARL_v2cbz5jsyu","61117cb162ca624c2b2a443c","fixation","img/fixation.png","null","","test","","","","","",""
"480.2999997138977","544821","pSARL_v2","pSARL_v2cbz5jsyu","61117cb162ca624c2b2a443c","freq","img/green_2bandit_a2.png","70","70","test","1","56","56","3","",""
"null","545149","pSARL_v2","pSARL_v2cbz5jsyu","61117cb162ca624c2b2a443c","freq_resp","img/green_2bandit_a.png","70","70","test","","","","3","",""
"null","545306","pSARL_v2","pSARL_v2cbz5jsyu","61117cb162ca624c2b2a443c","fixation","img/fixation.png","null","","test","","","","","",""
"460","545773","pSARL_v2","pSARL_v2cbz5jsyu","61117cb162ca624c2b2a443c","freq","img/green_2bandit_a2.png","70","70","test","1","57","57","3","",""
"null","546127","pSARL_v2","pSARL_v2cbz5jsyu","61117cb162ca624c2b2a443c","freq_resp","img/green_2bandit_a.png","70","70","test","","","","3","",""
"null","546288","pSARL_v2","pSARL_v2cbz5jsyu","61117cb162ca624c2b2a443c","fixation","img/fixation.png","null","","test","","","","","",""
"643","546939","pSARL_v2","pSARL_v2cbz5jsyu","61117cb162ca624c2b2a443c","infreq","img/orange_2bandit_a2.png","68","68","test","1","58","58","3","",""
"null","547103","pSARL_v2","pSARL_v2cbz5jsyu","61117cb162ca624c2b2a443c","infreq_resp","img/orange_2bandit_a.png","68","68","test","","","","3","",""
"null","547261","pSARL_v2","pSARL_v2cbz5jsyu","61117cb162ca624c2b2a443c","fixation","img/fixation.png","null","","test","","","","","",""
"460.30000019073486","547729","pSARL_v2","pSARL_v2cbz5jsyu","61117cb162ca624c2b2a443c","freq","img/green_2bandit_a2.png","70","70","test","1","59","59","3","",""
"null","548077","pSARL_v2","pSARL_v2cbz5jsyu","61117cb162ca624c2b2a443c","freq_resp","img/green_2bandit_a.png","70","70","test","","","","3","",""
"null","548234","pSARL_v2","pSARL_v2cbz5jsyu","61117cb162ca624c2b2a443c","fixation","img/fixation.png","null","","test","","","","","",""
"444","548686","pSARL_v2","pSARL_v2cbz5jsyu","61117cb162ca624c2b2a443c","freq","img/green_2bandit_a2.png","70","70","test","1","60","60","3","",""
"null","549050","pSARL_v2","pSARL_v2cbz5jsyu","61117cb162ca624c2b2a443c","freq_resp","img/green_2bandit_a.png","70","70","test","","","","3","",""
"null","549208","pSARL_v2","pSARL_v2cbz5jsyu","61117cb162ca624c2b2a443c","fixation","img/fixation.png","null","","test","","","","","",""
"518.8000001907349","549734","pSARL_v2","pSARL_v2cbz5jsyu","61117cb162ca624c2b2a443c","freq","img/green_2bandit_a2.png","70","70","test","1","61","61","3","",""
"null","550024","pSARL_v2","pSARL_v2cbz5jsyu","61117cb162ca624c2b2a443c","freq_resp","img/green_2bandit_a.png","70","70","test","","","","3","",""
"null","550182","pSARL_v2","pSARL_v2cbz5jsyu","61117cb162ca624c2b2a443c","fixation","img/fixation.png","null","","test","","","","","",""
"504.6000003814697","550694","pSARL_v2","pSARL_v2cbz5jsyu","61117cb162ca624c2b2a443c","freq","img/green_2bandit_a2.png","70","70","test","1","62","62","3","",""
"null","551011","pSARL_v2","pSARL_v2cbz5jsyu","61117cb162ca624c2b2a443c","freq_resp","img/green_2bandit_a.png","70","70","test","","","","3","",""
"null","551170","pSARL_v2","pSARL_v2cbz5jsyu","61117cb162ca624c2b2a443c","fixation","img/fixation.png","null","","test","","","","","",""
"403.90000009536743","551582","pSARL_v2","pSARL_v2cbz5jsyu","61117cb162ca624c2b2a443c","freq","img/green_2bandit_a2.png","70","70","test","1","63","63","3","",""
"null","551989","pSARL_v2","pSARL_v2cbz5jsyu","61117cb162ca624c2b2a443c","freq_resp","img/green_2bandit_a.png","70","70","test","","","","3","",""
"null","552190","pSARL_v2","pSARL_v2cbz5jsyu","61117cb162ca624c2b2a443c","fixation","img/fixation.png","null","","test","","","","","",""
"444.30000019073486","552642","pSARL_v2","pSARL_v2cbz5jsyu","61117cb162ca624c2b2a443c","freq","img/green_2bandit_a2.png","70","70","test","1","64","64","3","",""
"null","553005","pSARL_v2","pSARL_v2cbz5jsyu","61117cb162ca624c2b2a443c","freq_resp","img/green_2bandit_a.png","70","70","test","","","","3","",""
"null","553163","pSARL_v2","pSARL_v2cbz5jsyu","61117cb162ca624c2b2a443c","fixation","img/fixation.png","null","","test","","","","","",""
"426.7999997138977","553598","pSARL_v2","pSARL_v2cbz5jsyu","61117cb162ca624c2b2a443c","freq","img/green_2bandit_a2.png","70","70","test","1","65","65","3","",""
"null","553978","pSARL_v2","pSARL_v2cbz5jsyu","61117cb162ca624c2b2a443c","freq_resp","img/green_2bandit_a.png","70","70","test","","","","3","",""
"null","554153","pSARL_v2","pSARL_v2cbz5jsyu","61117cb162ca624c2b2a443c","fixation","img/fixation.png","null","","test","","","","","",""
"399.90000009536743","554561","pSARL_v2","pSARL_v2cbz5jsyu","61117cb162ca624c2b2a443c","freq","img/green_2bandit_a2.png","70","70","test","1","66","66","3","",""
"null","554969","pSARL_v2","pSARL_v2cbz5jsyu","61117cb162ca624c2b2a443c","freq_resp","img/green_2bandit_a.png","70","70","test","","","","3","",""
"null","555130","pSARL_v2","pSARL_v2cbz5jsyu","61117cb162ca624c2b2a443c","fixation","img/fixation.png","null","","test","","","","","",""
"602.5999999046326","555740","pSARL_v2","pSARL_v2cbz5jsyu","61117cb162ca624c2b2a443c","reward","img/slot.png","74","","test","","","","","",""
"null","556499","pSARL_v2","pSARL_v2cbz5jsyu","61117cb162ca624c2b2a443c","points","<div class=""verylowPoints""> -7 </div>","null","na","test","","","","3","-7","2"
"null","557308","pSARL_v2","pSARL_v2cbz5jsyu","61117cb162ca624c2b2a443c","freq","img/green_2bandit_a2.png","null","70","test","0","67","67","4","",""
"null","557469","pSARL_v2","pSARL_v2cbz5jsyu","61117cb162ca624c2b2a443c","fixation","img/fixation.png","null","","test","","","","","",""
"562.2000002861023","558039","pSARL_v2","pSARL_v2cbz5jsyu","61117cb162ca624c2b2a443c","freq","img/green_2bandit_a2.png","70","70","test","1","68","68","4","",""
"null","558284","pSARL_v2","pSARL_v2cbz5jsyu","61117cb162ca624c2b2a443c","freq_resp","img/green_2bandit_a.png","70","70","test","","","","4","",""
"null","558442","pSARL_v2","pSARL_v2cbz5jsyu","61117cb162ca624c2b2a443c","fixation","img/fixation.png","null","","test","","","","","",""
"606.4000000953674","559056","pSARL_v2","pSARL_v2cbz5jsyu","61117cb162ca624c2b2a443c","freq","img/green_2bandit_a2.png","70","70","test","1","69","69","4","",""
"null","559258","pSARL_v2","pSARL_v2cbz5jsyu","61117cb162ca624c2b2a443c","freq_resp","img/green_2bandit_a.png","70","70","test","","","","4","",""
"null","559418","pSARL_v2","pSARL_v2cbz5jsyu","61117cb162ca624c2b2a443c","fixation","img/fixation.png","null","","test","","","","","",""
"543.0999999046326","559973","pSARL_v2","pSARL_v2cbz5jsyu","61117cb162ca624c2b2a443c","freq","img/green_2bandit_a2.png","70","70","test","1","70","70","4","",""
"null","560238","pSARL_v2","pSARL_v2cbz5jsyu","61117cb162ca624c2b2a443c","freq_resp","img/green_2bandit_a.png","70","70","test","","","","4","",""
"null","560396","pSARL_v2","pSARL_v2cbz5jsyu","61117cb162ca624c2b2a443c","fixation","img/fixation.png","null","","test","","","","","",""
"412.7999997138977","560816","pSARL_v2","pSARL_v2cbz5jsyu","61117cb162ca624c2b2a443c","freq","img/green_2bandit_a2.png","70","70","test","1","71","71","4","",""
"null","561211","pSARL_v2","pSARL_v2cbz5jsyu","61117cb162ca624c2b2a443c","freq_resp","img/green_2bandit_a.png","70","70","test","","","","4","",""
"null","561369","pSARL_v2","pSARL_v2cbz5jsyu","61117cb162ca624c2b2a443c","fixation","img/fixation.png","null","","test","","","","","",""
"423","561799","pSARL_v2","pSARL_v2cbz5jsyu","61117cb162ca624c2b2a443c","freq","img/green_2bandit_a2.png","70","70","test","1","72","72","4","",""
"null","562184","pSARL_v2","pSARL_v2cbz5jsyu","61117cb162ca624c2b2a443c","freq_resp","img/green_2bandit_a.png","70","70","test","","","","4","",""
"null","562343","pSARL_v2","pSARL_v2cbz5jsyu","61117cb162ca624c2b2a443c","fixation","img/fixation.png","null","","test","","","","","",""
"427.2999997138977","562778","pSARL_v2","pSARL_v2cbz5jsyu","61117cb162ca624c2b2a443c","freq","img/green_2bandit_a2.png","70","70","test","1","73","73","4","",""
"null","563160","pSARL_v2","pSARL_v2cbz5jsyu","61117cb162ca624c2b2a443c","freq_resp","img/green_2bandit_a.png","70","70","test","","","","4","",""
"null","563317","pSARL_v2","pSARL_v2cbz5jsyu","61117cb162ca624c2b2a443c","fixation","img/fixation.png","null","","test","","","","","",""
"390","563714","pSARL_v2","pSARL_v2cbz5jsyu","61117cb162ca624c2b2a443c","freq","img/green_2bandit_a2.png","70","70","test","1","74","74","4","",""
"null","564134","pSARL_v2","pSARL_v2cbz5jsyu","61117cb162ca624c2b2a443c","freq_resp","img/green_2bandit_a.png","70","70","test","","","","4","",""
"null","564293","pSARL_v2","pSARL_v2cbz5jsyu","61117cb162ca624c2b2a443c","fixation","img/fixation.png","null","","test","","","","","",""
"328.2999997138977","564628","pSARL_v2","pSARL_v2cbz5jsyu","61117cb162ca624c2b2a443c","freq","img/green_2bandit_a2.png","70","70","test","1","75","75","4","",""
"null","565109","pSARL_v2","pSARL_v2cbz5jsyu","61117cb162ca624c2b2a443c","freq_resp","img/green_2bandit_a.png","70","70","test","","","","4","",""
"null","565266","pSARL_v2","pSARL_v2cbz5jsyu","61117cb162ca624c2b2a443c","fixation","img/fixation.png","null","","test","","","","","",""
"300.5","565574","pSARL_v2","pSARL_v2cbz5jsyu","61117cb162ca624c2b2a443c","infreq","img/orange_2bandit_a2.png","70","68","test","0","76","76","4","",""
"null","566083","pSARL_v2","pSARL_v2cbz5jsyu","61117cb162ca624c2b2a443c","infreq_resp","img/orange_2bandit_a.png","70","68","test","","","","4","",""
"null","566250","pSARL_v2","pSARL_v2cbz5jsyu","61117cb162ca624c2b2a443c","fixation","img/fixation.png","null","","test","","","","","",""
"574.5","566832","pSARL_v2","pSARL_v2cbz5jsyu","61117cb162ca624c2b2a443c","freq","img/green_2bandit_a2.png","70","70","test","1","77","77","4","",""
"null","567067","pSARL_v2","pSARL_v2cbz5jsyu","61117cb162ca624c2b2a443c","freq_resp","img/green_2bandit_a.png","70","70","test","","","","4","",""
"null","567228","pSARL_v2","pSARL_v2cbz5jsyu","61117cb162ca624c2b2a443c","fixation","img/fixation.png","null","","test","","","","","",""
"434.09999990463257","567670","pSARL_v2","pSARL_v2cbz5jsyu","61117cb162ca624c2b2a443c","freq","img/green_2bandit_a2.png","70","70","test","1","78","78","4","",""
"null","568044","pSARL_v2","pSARL_v2cbz5jsyu","61117cb162ca624c2b2a443c","freq_resp","img/green_2bandit_a.png","70","70","test","","","","4","",""
"null","568201","pSARL_v2","pSARL_v2cbz5jsyu","61117cb162ca624c2b2a443c","fixation","img/fixation.png","null","","test","","","","","",""
"432.80000019073486","568642","pSARL_v2","pSARL_v2cbz5jsyu","61117cb162ca624c2b2a443c","freq","img/green_2bandit_a2.png","70","70","test","1","79","79","4","",""
"null","569018","pSARL_v2","pSARL_v2cbz5jsyu","61117cb162ca624c2b2a443c","freq_resp","img/green_2bandit_a.png","70","70","test","","","","4","",""
"null","569176","pSARL_v2","pSARL_v2cbz5jsyu","61117cb162ca624c2b2a443c","fixation","img/fixation.png","null","","test","","","","","",""
"423.30000019073486","569606","pSARL_v2","pSARL_v2cbz5jsyu","61117cb162ca624c2b2a443c","freq","img/green_2bandit_a2.png","70","70","test","1","80","80","4","",""
"null","569990","pSARL_v2","pSARL_v2cbz5jsyu","61117cb162ca624c2b2a443c","freq_resp","img/green_2bandit_a.png","70","70","test","","","","4","",""
"null","570149","pSARL_v2","pSARL_v2cbz5jsyu","61117cb162ca624c2b2a443c","fixation","img/fixation.png","null","","test","","","","","",""
"442.09999990463257","570599","pSARL_v2","pSARL_v2cbz5jsyu","61117cb162ca624c2b2a443c","freq","img/green_2bandit_a2.png","70","70","test","1","81","81","4","",""
"null","570963","pSARL_v2","pSARL_v2cbz5jsyu","61117cb162ca624c2b2a443c","freq_resp","img/green_2bandit_a.png","70","70","test","","","","4","",""
"null","571121","pSARL_v2","pSARL_v2cbz5jsyu","61117cb162ca624c2b2a443c","fixation","img/fixation.png","null","","test","","","","","",""
"302.30000019073486","571430","pSARL_v2","pSARL_v2cbz5jsyu","61117cb162ca624c2b2a443c","freq","img/green_2bandit_a2.png","70","70","test","1","82","82","4","",""
"null","571936","pSARL_v2","pSARL_v2cbz5jsyu","61117cb162ca624c2b2a443c","freq_resp","img/green_2bandit_a.png","70","70","test","","","","4","",""
"null","572095","pSARL_v2","pSARL_v2cbz5jsyu","61117cb162ca624c2b2a443c","fixation","img/fixation.png","null","","test","","","","","",""
"410.40000009536743","572513","pSARL_v2","pSARL_v2cbz5jsyu","61117cb162ca624c2b2a443c","freq","img/green_2bandit_a2.png","70","70","test","1","83","83","4","",""
"null","572909","pSARL_v2","pSARL_v2cbz5jsyu","61117cb162ca624c2b2a443c","freq_resp","img/green_2bandit_a.png","70","70","test","","","","4","",""
"null","573068","pSARL_v2","pSARL_v2cbz5jsyu","61117cb162ca624c2b2a443c","fixation","img/fixation.png","null","","test","","","","","",""
"462.2000002861023","573538","pSARL_v2","pSARL_v2cbz5jsyu","61117cb162ca624c2b2a443c","freq","img/green_2bandit_a2.png","70","70","test","1","84","84","4","",""
"null","573884","pSARL_v2","pSARL_v2cbz5jsyu","61117cb162ca624c2b2a443c","freq_resp","img/green_2bandit_a.png","70","70","test","","","","4","",""
"null","574072","pSARL_v2","pSARL_v2cbz5jsyu","61117cb162ca624c2b2a443c","fixation","img/fixation.png","null","","test","","","","","",""
"492.40000009536743","574587","pSARL_v2","pSARL_v2cbz5jsyu","61117cb162ca624c2b2a443c","freq","img/green_2bandit_a2.png","70","70","test","1","85","85","4","",""
"null","574902","pSARL_v2","pSARL_v2cbz5jsyu","61117cb162ca624c2b2a443c","freq_resp","img/green_2bandit_a.png","70","70","test","","","","4","",""
"null","575061","pSARL_v2","pSARL_v2cbz5jsyu","61117cb162ca624c2b2a443c","fixation","img/fixation.png","null","","test","","","","","",""
"581.6999998092651","575650","pSARL_v2","pSARL_v2cbz5jsyu","61117cb162ca624c2b2a443c","infreq","img/orange_2bandit_a2.png","68","68","test","1","86","86","4","",""
"null","575877","pSARL_v2","pSARL_v2cbz5jsyu","61117cb162ca624c2b2a443c","infreq_resp","img/orange_2bandit_a.png","68","68","test","","","","4","",""
"null","576035","pSARL_v2","pSARL_v2cbz5jsyu","61117cb162ca624c2b2a443c","fixation","img/fixation.png","null","","test","","","","","",""
"429.5","576475","pSARL_v2","pSARL_v2cbz5jsyu","61117cb162ca624c2b2a443c","freq","img/green_2bandit_a2.png","70","70","test","1","87","87","4","",""
"null","576885","pSARL_v2","pSARL_v2cbz5jsyu","61117cb162ca624c2b2a443c","freq_resp","img/green_2bandit_a.png","70","70","test","","","","4","",""
"null","577048","pSARL_v2","pSARL_v2cbz5jsyu","61117cb162ca624c2b2a443c","fixation","img/fixation.png","null","","test","","","","","",""
"363","577418","pSARL_v2","pSARL_v2cbz5jsyu","61117cb162ca624c2b2a443c","freq","img/green_2bandit_a2.png","70","70","test","1","88","88","4","",""
"null","577862","pSARL_v2","pSARL_v2cbz5jsyu","61117cb162ca624c2b2a443c","freq_resp","img/green_2bandit_a.png","70","70","test","","","","4","",""
"null","578021","pSARL_v2","pSARL_v2cbz5jsyu","61117cb162ca624c2b2a443c","fixation","img/fixation.png","null","","test","","","","","",""
"695.6999998092651","578724","pSARL_v2","pSARL_v2cbz5jsyu","61117cb162ca624c2b2a443c","reward","img/slot.png","74","","test","","","","","",""
"null","579481","pSARL_v2","pSARL_v2cbz5jsyu","61117cb162ca624c2b2a443c","points","<div class=""verylowPoints""> -3 </div>","null","na","test","","","","4","-3","3"
"612.4000000953674","580101","pSARL_v2","pSARL_v2cbz5jsyu","61117cb162ca624c2b2a443c","freq","img/green_2bandit_a2.png","70","70","test","1","89","89","5","",""
"null","580297","pSARL_v2","pSARL_v2cbz5jsyu","61117cb162ca624c2b2a443c","freq_resp","img/green_2bandit_a.png","70","70","test","","","","5","",""
"null","580456","pSARL_v2","pSARL_v2cbz5jsyu","61117cb162ca624c2b2a443c","fixation","img/fixation.png","null","","test","","","","","",""
"589.5999999046326","581053","pSARL_v2","pSARL_v2cbz5jsyu","61117cb162ca624c2b2a443c","freq","img/green_2bandit_a2.png","70","70","test","1","90","90","5","",""
"null","581271","pSARL_v2","pSARL_v2cbz5jsyu","61117cb162ca624c2b2a443c","freq_resp","img/green_2bandit_a.png","70","70","test","","","","5","",""
"null","581430","pSARL_v2","pSARL_v2cbz5jsyu","61117cb162ca624c2b2a443c","fixation","img/fixation.png","null","","test","","","","","",""
"583.1000003814697","582021","pSARL_v2","pSARL_v2cbz5jsyu","61117cb162ca624c2b2a443c","freq","img/green_2bandit_a2.png","70","70","test","1","91","91","5","",""
"null","582247","pSARL_v2","pSARL_v2cbz5jsyu","61117cb162ca624c2b2a443c","freq_resp","img/green_2bandit_a.png","70","70","test","","","","5","",""
"null","582404","pSARL_v2","pSARL_v2cbz5jsyu","61117cb162ca624c2b2a443c","fixation","img/fixation.png","null","","test","","","","","",""
"578.9000000953674","582995","pSARL_v2","pSARL_v2cbz5jsyu","61117cb162ca624c2b2a443c","freq","img/green_2bandit_a2.png","70","70","test","1","92","92","5","",""
"null","583225","pSARL_v2","pSARL_v2cbz5jsyu","61117cb162ca624c2b2a443c","freq_resp","img/green_2bandit_a.png","70","70","test","","","","5","",""
"null","583383","pSARL_v2","pSARL_v2cbz5jsyu","61117cb162ca624c2b2a443c","fixation","img/fixation.png","null","","test","","","","","",""
"430.2000002861023","583821","pSARL_v2","pSARL_v2cbz5jsyu","61117cb162ca624c2b2a443c","freq","img/green_2bandit_a2.png","70","70","test","1","93","93","5","",""
"null","584199","pSARL_v2","pSARL_v2cbz5jsyu","61117cb162ca624c2b2a443c","freq_resp","img/green_2bandit_a.png","70","70","test","","","","5","",""
"null","584357","pSARL_v2","pSARL_v2cbz5jsyu","61117cb162ca624c2b2a443c","fixation","img/fixation.png","null","","test","","","","","",""
"499.59999990463257","584865","pSARL_v2","pSARL_v2cbz5jsyu","61117cb162ca624c2b2a443c","freq","img/green_2bandit_a2.png","70","70","test","1","94","94","5","",""
"null","585176","pSARL_v2","pSARL_v2cbz5jsyu","61117cb162ca624c2b2a443c","freq_resp","img/green_2bandit_a.png","70","70","test","","","","5","",""
"null","585338","pSARL_v2","pSARL_v2cbz5jsyu","61117cb162ca624c2b2a443c","fixation","img/fixation.png","null","","test","","","","","",""
"585","585930","pSARL_v2","pSARL_v2cbz5jsyu","61117cb162ca624c2b2a443c","freq","img/green_2bandit_a2.png","70","70","test","1","95","95","5","",""
"null","586154","pSARL_v2","pSARL_v2cbz5jsyu","61117cb162ca624c2b2a443c","freq_resp","img/green_2bandit_a.png","70","70","test","","","","5","",""
"null","586312","pSARL_v2","pSARL_v2cbz5jsyu","61117cb162ca624c2b2a443c","fixation","img/fixation.png","null","","test","","","","","",""
"695.5","587015","pSARL_v2","pSARL_v2cbz5jsyu","61117cb162ca624c2b2a443c","freq","img/green_2bandit_a2.png","70","70","test","1","96","96","5","",""
"null","587127","pSARL_v2","pSARL_v2cbz5jsyu","61117cb162ca624c2b2a443c","freq_resp","img/green_2bandit_a.png","70","70","test","","","","5","",""
"null","587285","pSARL_v2","pSARL_v2cbz5jsyu","61117cb162ca624c2b2a443c","fixation","img/fixation.png","null","","test","","","","","",""
"671.1000003814697","587963","pSARL_v2","pSARL_v2cbz5jsyu","61117cb162ca624c2b2a443c","freq","img/green_2bandit_a2.png","70","70","test","1","97","97","5","",""
"null","588100","pSARL_v2","pSARL_v2cbz5jsyu","61117cb162ca624c2b2a443c","freq_resp","img/green_2bandit_a.png","70","70","test","","","","5","",""
"null","588259","pSARL_v2","pSARL_v2cbz5jsyu","61117cb162ca624c2b2a443c","fixation","img/fixation.png","null","","test","","","","","",""
"531.7000002861023","588799","pSARL_v2","pSARL_v2cbz5jsyu","61117cb162ca624c2b2a443c","freq","img/green_2bandit_a2.png","70","70","test","1","98","98","5","",""
"null","589080","pSARL_v2","pSARL_v2cbz5jsyu","61117cb162ca624c2b2a443c","freq_resp","img/green_2bandit_a.png","70","70","test","","","","5","",""
"null","589254","pSARL_v2","pSARL_v2cbz5jsyu","61117cb162ca624c2b2a443c","fixation","img/fixation.png","null","","test","","","","","",""
"503.59999990463257","589767","pSARL_v2","pSARL_v2cbz5jsyu","61117cb162ca624c2b2a443c","freq","img/green_2bandit_a2.png","70","70","test","1","99","99","5","",""
"null","590072","pSARL_v2","pSARL_v2cbz5jsyu","61117cb162ca624c2b2a443c","freq_resp","img/green_2bandit_a.png","70","70","test","","","","5","",""
"null","590230","pSARL_v2","pSARL_v2cbz5jsyu","61117cb162ca624c2b2a443c","fixation","img/fixation.png","null","","test","","","","","",""
"537.7999997138977","590778","pSARL_v2","pSARL_v2cbz5jsyu","61117cb162ca624c2b2a443c","freq","img/green_2bandit_a2.png","70","70","test","1","100","100","5","",""
"null","591050","pSARL_v2","pSARL_v2cbz5jsyu","61117cb162ca624c2b2a443c","freq_resp","img/green_2bandit_a.png","70","70","test","","","","5","",""
"null","591207","pSARL_v2","pSARL_v2cbz5jsyu","61117cb162ca624c2b2a443c","fixation","img/fixation.png","null","","test","","","","","",""
"601.7000002861023","591816","pSARL_v2","pSARL_v2cbz5jsyu","61117cb162ca624c2b2a443c","freq","img/green_2bandit_a2.png","70","70","test","1","101","101","5","",""
"null","592023","pSARL_v2","pSARL_v2cbz5jsyu","61117cb162ca624c2b2a443c","freq_resp","img/green_2bandit_a.png","70","70","test","","","","5","",""
"null","592182","pSARL_v2","pSARL_v2cbz5jsyu","61117cb162ca624c2b2a443c","fixation","img/fixation.png","null","","test","","","","","",""
"575.6999998092651","592765","pSARL_v2","pSARL_v2cbz5jsyu","61117cb162ca624c2b2a443c","freq","img/green_2bandit_a2.png","70","70","test","1","102","102","5","",""
"null","592997","pSARL_v2","pSARL_v2cbz5jsyu","61117cb162ca624c2b2a443c","freq_resp","img/green_2bandit_a.png","70","70","test","","","","5","",""
"null","593155","pSARL_v2","pSARL_v2cbz5jsyu","61117cb162ca624c2b2a443c","fixation","img/fixation.png","null","","test","","","","","",""
"532","593694","pSARL_v2","pSARL_v2cbz5jsyu","61117cb162ca624c2b2a443c","freq","img/green_2bandit_a2.png","70","70","test","1","103","103","5","",""
"null","593970","pSARL_v2","pSARL_v2cbz5jsyu","61117cb162ca624c2b2a443c","freq_resp","img/green_2bandit_a.png","70","70","test","","","","5","",""
"null","594129","pSARL_v2","pSARL_v2cbz5jsyu","61117cb162ca624c2b2a443c","fixation","img/fixation.png","null","","test","","","","","",""
"734","594870","pSARL_v2","pSARL_v2cbz5jsyu","61117cb162ca624c2b2a443c","infreq","img/orange_2bandit_a2.png","68","68","test","1","104","104","5","",""
"null","594945","pSARL_v2","pSARL_v2cbz5jsyu","61117cb162ca624c2b2a443c","infreq_resp","img/orange_2bandit_a.png","68","68","test","","","","5","",""
"null","595102","pSARL_v2","pSARL_v2cbz5jsyu","61117cb162ca624c2b2a443c","fixation","img/fixation.png","null","","test","","","","","",""
"null","595911","pSARL_v2","pSARL_v2cbz5jsyu","61117cb162ca624c2b2a443c","infreq","img/orange_2bandit_a2.png","null","68","test","0","105","105","5","",""
"null","596070","pSARL_v2","pSARL_v2cbz5jsyu","61117cb162ca624c2b2a443c","fixation","img/fixation.png","null","","test","","","","","",""
"688","596766","pSARL_v2","pSARL_v2cbz5jsyu","61117cb162ca624c2b2a443c","freq","img/green_2bandit_a2.png","70","70","test","1","106","106","5","",""
"null","596887","pSARL_v2","pSARL_v2cbz5jsyu","61117cb162ca624c2b2a443c","freq_resp","img/green_2bandit_a.png","70","70","test","","","","5","",""
"null","597045","pSARL_v2","pSARL_v2cbz5jsyu","61117cb162ca624c2b2a443c","fixation","img/fixation.png","null","","test","","","","","",""
"504","597557","pSARL_v2","pSARL_v2cbz5jsyu","61117cb162ca624c2b2a443c","freq","img/green_2bandit_a2.png","70","70","test","1","107","107","5","",""
"null","597861","pSARL_v2","pSARL_v2cbz5jsyu","61117cb162ca624c2b2a443c","freq_resp","img/green_2bandit_a.png","70","70","test","","","","5","",""
"null","598018","pSARL_v2","pSARL_v2cbz5jsyu","61117cb162ca624c2b2a443c","fixation","img/fixation.png","null","","test","","","","","",""
"667.5999999046326","598694","pSARL_v2","pSARL_v2cbz5jsyu","61117cb162ca624c2b2a443c","reward","img/slot.png","74","","test","","","","","",""
"null","599452","pSARL_v2","pSARL_v2cbz5jsyu","61117cb162ca624c2b2a443c","points","<div class=""veryhighPoints""> +1 </div>","null","na","test","","","","5","1","4"
"null","600260","pSARL_v2","pSARL_v2cbz5jsyu","61117cb162ca624c2b2a443c","freq","img/green_2bandit_a2.png","null","70","test","0","108","108","6","",""
"null","600419","pSARL_v2","pSARL_v2cbz5jsyu","61117cb162ca624c2b2a443c","fixation","img/fixation.png","null","","test","","","","","",""
"682.9000000953674","601109","pSARL_v2","pSARL_v2cbz5jsyu","61117cb162ca624c2b2a443c","infreq","img/orange_2bandit_a2.png","68","68","test","1","109","109","6","",""
"null","601234","pSARL_v2","pSARL_v2cbz5jsyu","61117cb162ca624c2b2a443c","infreq_resp","img/orange_2bandit_a.png","68","68","test","","","","6","",""
"null","601392","pSARL_v2","pSARL_v2cbz5jsyu","61117cb162ca624c2b2a443c","fixation","img/fixation.png","null","","test","","","","","",""
"463.80000019073486","601863","pSARL_v2","pSARL_v2cbz5jsyu","61117cb162ca624c2b2a443c","freq","img/green_2bandit_a2.png","70","70","test","1","110","110","6","",""
"null","602207","pSARL_v2","pSARL_v2cbz5jsyu","61117cb162ca624c2b2a443c","freq_resp","img/green_2bandit_a.png","70","70","test","","","","6","",""
"null","602365","pSARL_v2","pSARL_v2cbz5jsyu","61117cb162ca624c2b2a443c","fixation","img/fixation.png","null","","test","","","","","",""
"453.09999990463257","602828","pSARL_v2","pSARL_v2cbz5jsyu","61117cb162ca624c2b2a443c","freq","img/green_2bandit_a2.png","70","70","test","1","111","111","6","",""
"null","603182","pSARL_v2","pSARL_v2cbz5jsyu","61117cb162ca624c2b2a443c","freq_resp","img/green_2bandit_a.png","70","70","test","","","","6","",""
"null","603340","pSARL_v2","pSARL_v2cbz5jsyu","61117cb162ca624c2b2a443c","fixation","img/fixation.png","null","","test","","","","","",""
"488.7999997138977","603836","pSARL_v2","pSARL_v2cbz5jsyu","61117cb162ca624c2b2a443c","freq","img/green_2bandit_a2.png","70","70","test","1","112","112","6","",""
"null","604156","pSARL_v2","pSARL_v2cbz5jsyu","61117cb162ca624c2b2a443c","freq_resp","img/green_2bandit_a.png","70","70","test","","","","6","",""
"null","604315","pSARL_v2","pSARL_v2cbz5jsyu","61117cb162ca624c2b2a443c","fixation","img/fixation.png","null","","test","","","","","",""
"413.5","604736","pSARL_v2","pSARL_v2cbz5jsyu","61117cb162ca624c2b2a443c","freq","img/green_2bandit_a2.png","70","70","test","1","113","113","6","",""
"null","605148","pSARL_v2","pSARL_v2cbz5jsyu","61117cb162ca624c2b2a443c","freq_resp","img/green_2bandit_a.png","70","70","test","","","","6","",""
"null","605321","pSARL_v2","pSARL_v2cbz5jsyu","61117cb162ca624c2b2a443c","fixation","img/fixation.png","null","","test","","","","","",""
"301.7999997138977","605631","pSARL_v2","pSARL_v2cbz5jsyu","61117cb162ca624c2b2a443c","freq","img/green_2bandit_a2.png","70","70","test","1","114","114","6","",""
"null","606147","pSARL_v2","pSARL_v2cbz5jsyu","61117cb162ca624c2b2a443c","freq_resp","img/green_2bandit_a.png","70","70","test","","","","6","",""
"null","606305","pSARL_v2","pSARL_v2cbz5jsyu","61117cb162ca624c2b2a443c","fixation","img/fixation.png","null","","test","","","","","",""
"296.80000019073486","606612","pSARL_v2","pSARL_v2cbz5jsyu","61117cb162ca624c2b2a443c","freq","img/green_2bandit_a2.png","70","70","test","1","115","115","6","",""
"null","607122","pSARL_v2","pSARL_v2cbz5jsyu","61117cb162ca624c2b2a443c","freq_resp","img/green_2bandit_a.png","70","70","test","","","","6","",""
"null","607287","pSARL_v2","pSARL_v2cbz5jsyu","61117cb162ca624c2b2a443c","fixation","img/fixation.png","null","","test","","","","","",""
"469.40000009536743","607764","pSARL_v2","pSARL_v2cbz5jsyu","61117cb162ca624c2b2a443c","freq","img/green_2bandit_a2.png","70","70","test","1","116","116","6","",""
"null","608102","pSARL_v2","pSARL_v2cbz5jsyu","61117cb162ca624c2b2a443c","freq_resp","img/green_2bandit_a.png","70","70","test","","","","6","",""
"null","608260","pSARL_v2","pSARL_v2cbz5jsyu","61117cb162ca624c2b2a443c","fixation","img/fixation.png","null","","test","","","","","",""
"506.90000009536743","608775","pSARL_v2","pSARL_v2cbz5jsyu","61117cb162ca624c2b2a443c","freq","img/green_2bandit_a2.png","70","70","test","1","117","117","6","",""
"null","609076","pSARL_v2","pSARL_v2cbz5jsyu","61117cb162ca624c2b2a443c","freq_resp","img/green_2bandit_a.png","70","70","test","","","","6","",""
"null","609238","pSARL_v2","pSARL_v2cbz5jsyu","61117cb162ca624c2b2a443c","fixation","img/fixation.png","null","","test","","","","","",""
"511.09999990463257","609757","pSARL_v2","pSARL_v2cbz5jsyu","61117cb162ca624c2b2a443c","freq","img/green_2bandit_a2.png","70","70","test","1","118","118","6","",""
"null","610054","pSARL_v2","pSARL_v2cbz5jsyu","61117cb162ca624c2b2a443c","freq_resp","img/green_2bandit_a.png","70","70","test","","","","6","",""
"null","610211","pSARL_v2","pSARL_v2cbz5jsyu","61117cb162ca624c2b2a443c","fixation","img/fixation.png","null","","test","","","","","",""
"478.5","610697","pSARL_v2","pSARL_v2cbz5jsyu","61117cb162ca624c2b2a443c","freq","img/green_2bandit_a2.png","70","70","test","1","119","119","6","",""
"null","611028","pSARL_v2","pSARL_v2cbz5jsyu","61117cb162ca624c2b2a443c","freq_resp","img/green_2bandit_a.png","70","70","test","","","","6","",""
"null","611187","pSARL_v2","pSARL_v2cbz5jsyu","61117cb162ca624c2b2a443c","fixation","img/fixation.png","null","","test","","","","","",""
"530.5999999046326","611725","pSARL_v2","pSARL_v2cbz5jsyu","61117cb162ca624c2b2a443c","freq","img/green_2bandit_a2.png","70","70","test","1","120","120","6","",""
"null","612002","pSARL_v2","pSARL_v2cbz5jsyu","61117cb162ca624c2b2a443c","freq_resp","img/green_2bandit_a.png","70","70","test","","","","6","",""
"null","612161","pSARL_v2","pSARL_v2cbz5jsyu","61117cb162ca624c2b2a443c","fixation","img/fixation.png","null","","test","","","","","",""
"666.4000000953674","612836","pSARL_v2","pSARL_v2cbz5jsyu","61117cb162ca624c2b2a443c","infreq","img/orange_2bandit_a2.png","68","68","test","1","121","121","6","",""
"null","612990","pSARL_v2","pSARL_v2cbz5jsyu","61117cb162ca624c2b2a443c","infreq_resp","img/orange_2bandit_a.png","68","68","test","","","","6","",""
"null","613155","pSARL_v2","pSARL_v2cbz5jsyu","61117cb162ca624c2b2a443c","fixation","img/fixation.png","null","","test","","","","","",""
"637.1000003814697","613800","pSARL_v2","pSARL_v2cbz5jsyu","61117cb162ca624c2b2a443c","infreq","img/orange_2bandit_a2.png","68","68","test","1","122","122","6","",""
"null","613971","pSARL_v2","pSARL_v2cbz5jsyu","61117cb162ca624c2b2a443c","infreq_resp","img/orange_2bandit_a.png","68","68","test","","","","6","",""
"null","614136","pSARL_v2","pSARL_v2cbz5jsyu","61117cb162ca624c2b2a443c","fixation","img/fixation.png","null","","test","","","","","",""
"569.9000000953674","614713","pSARL_v2","pSARL_v2cbz5jsyu","61117cb162ca624c2b2a443c","freq","img/green_2bandit_a2.png","70","70","test","1","123","123","6","",""
"null","614952","pSARL_v2","pSARL_v2cbz5jsyu","61117cb162ca624c2b2a443c","freq_resp","img/green_2bandit_a.png","70","70","test","","","","6","",""
"null","615110","pSARL_v2","pSARL_v2cbz5jsyu","61117cb162ca624c2b2a443c","fixation","img/fixation.png","null","","test","","","","","",""
"530.9000000953674","615649","pSARL_v2","pSARL_v2cbz5jsyu","61117cb162ca624c2b2a443c","freq","img/green_2bandit_a2.png","70","70","test","1","124","124","6","",""
"null","615927","pSARL_v2","pSARL_v2cbz5jsyu","61117cb162ca624c2b2a443c","freq_resp","img/green_2bandit_a.png","70","70","test","","","","6","",""
"null","616089","pSARL_v2","pSARL_v2cbz5jsyu","61117cb162ca624c2b2a443c","fixation","img/fixation.png","null","","test","","","","","",""
"520.0999999046326","616621","pSARL_v2","pSARL_v2cbz5jsyu","61117cb162ca624c2b2a443c","freq","img/green_2bandit_a2.png","70","70","test","1","125","125","6","",""
"null","616909","pSARL_v2","pSARL_v2cbz5jsyu","61117cb162ca624c2b2a443c","freq_resp","img/green_2bandit_a.png","70","70","test","","","","6","",""
"null","617067","pSARL_v2","pSARL_v2cbz5jsyu","61117cb162ca624c2b2a443c","fixation","img/fixation.png","null","","test","","","","","",""
"548.7999997138977","617625","pSARL_v2","pSARL_v2cbz5jsyu","61117cb162ca624c2b2a443c","freq","img/green_2bandit_a2.png","70","70","test","1","126","126","6","",""
"null","617886","pSARL_v2","pSARL_v2cbz5jsyu","61117cb162ca624c2b2a443c","freq_resp","img/green_2bandit_a.png","70","70","test","","","","6","",""
"null","618044","pSARL_v2","pSARL_v2cbz5jsyu","61117cb162ca624c2b2a443c","fixation","img/fixation.png","null","","test","","","","","",""
"616.5999999046326","618669","pSARL_v2","pSARL_v2cbz5jsyu","61117cb162ca624c2b2a443c","freq","img/green_2bandit_a2.png","70","70","test","1","127","127","6","",""
"null","618860","pSARL_v2","pSARL_v2cbz5jsyu","61117cb162ca624c2b2a443c","freq_resp","img/green_2bandit_a.png","70","70","test","","","","6","",""
"null","619017","pSARL_v2","pSARL_v2cbz5jsyu","61117cb162ca624c2b2a443c","fixation","img/fixation.png","null","","test","","","","","",""
"510.90000009536743","619536","pSARL_v2","pSARL_v2cbz5jsyu","61117cb162ca624c2b2a443c","reward","img/slot.png","74","","test","","","","","",""
"null","620301","pSARL_v2","pSARL_v2cbz5jsyu","61117cb162ca624c2b2a443c","points","<div class=""verylowPoints""> -7 </div>","null","na","test","","","","6","-7","5"
"684.1999998092651","620996","pSARL_v2","pSARL_v2cbz5jsyu","61117cb162ca624c2b2a443c","freq","img/green_2bandit_a2.png","70","70","test","1","128","128","7","",""
"null","621119","pSARL_v2","pSARL_v2cbz5jsyu","61117cb162ca624c2b2a443c","freq_resp","img/green_2bandit_a.png","70","70","test","","","","7","",""
"null","621279","pSARL_v2","pSARL_v2cbz5jsyu","61117cb162ca624c2b2a443c","fixation","img/fixation.png","null","","test","","","","","",""
"730.1999998092651","622016","pSARL_v2","pSARL_v2cbz5jsyu","61117cb162ca624c2b2a443c","freq","img/green_2bandit_a2.png","70","70","test","1","129","129","7","",""
"null","622094","pSARL_v2","pSARL_v2cbz5jsyu","61117cb162ca624c2b2a443c","freq_resp","img/green_2bandit_a.png","70","70","test","","","","7","",""
"null","622252","pSARL_v2","pSARL_v2cbz5jsyu","61117cb162ca624c2b2a443c","fixation","img/fixation.png","null","","test","","","","","",""
"770.1999998092651","623030","pSARL_v2","pSARL_v2cbz5jsyu","61117cb162ca624c2b2a443c","freq","img/green_2bandit_a2.png","70","70","test","1","130","130","7","",""
"null","623067","pSARL_v2","pSARL_v2cbz5jsyu","61117cb162ca624c2b2a443c","freq_resp","img/green_2bandit_a.png","70","70","test","","","","7","",""
"null","623225","pSARL_v2","pSARL_v2cbz5jsyu","61117cb162ca624c2b2a443c","fixation","img/fixation.png","null","","test","","","","","",""
"741.5","623974","pSARL_v2","pSARL_v2cbz5jsyu","61117cb162ca624c2b2a443c","freq","img/green_2bandit_a2.png","70","70","test","1","131","131","7","",""
"null","624041","pSARL_v2","pSARL_v2cbz5jsyu","61117cb162ca624c2b2a443c","freq_resp","img/green_2bandit_a.png","70","70","test","","","","7","",""
"null","624198","pSARL_v2","pSARL_v2cbz5jsyu","61117cb162ca624c2b2a443c","fixation","img/fixation.png","null","","test","","","","","",""
"767","624973","pSARL_v2","pSARL_v2cbz5jsyu","61117cb162ca624c2b2a443c","infreq","img/orange_2bandit_a2.png","68","68","test","1","132","132","7","",""
"null","625022","pSARL_v2","pSARL_v2cbz5jsyu","61117cb162ca624c2b2a443c","infreq_resp","img/orange_2bandit_a.png","68","68","test","","","","7","",""
"null","625181","pSARL_v2","pSARL_v2cbz5jsyu","61117cb162ca624c2b2a443c","fixation","img/fixation.png","null","","test","","","","","",""
"781.5","625971","pSARL_v2","pSARL_v2cbz5jsyu","61117cb162ca624c2b2a443c","freq","img/green_2bandit_a2.png","70","70","test","1","133","133","7","",""
"null","625997","pSARL_v2","pSARL_v2cbz5jsyu","61117cb162ca624c2b2a443c","freq_resp","img/green_2bandit_a.png","70","70","test","","","","7","",""
"null","626158","pSARL_v2","pSARL_v2cbz5jsyu","61117cb162ca624c2b2a443c","fixation","img/fixation.png","null","","test","","","","","",""
"785.4000000953674","626951","pSARL_v2","pSARL_v2cbz5jsyu","61117cb162ca624c2b2a443c","freq","img/green_2bandit_a2.png","70","70","test","1","134","134","7","",""
"null","626973","pSARL_v2","pSARL_v2cbz5jsyu","61117cb162ca624c2b2a443c","freq_resp","img/green_2bandit_a.png","70","70","test","","","","7","",""
"null","627131","pSARL_v2","pSARL_v2cbz5jsyu","61117cb162ca624c2b2a443c","fixation","img/fixation.png","null","","test","","","","","",""
"765.4000000953674","627907","pSARL_v2","pSARL_v2cbz5jsyu","61117cb162ca624c2b2a443c","freq","img/green_2bandit_a2.png","70","70","test","1","135","135","7","",""
"null","627949","pSARL_v2","pSARL_v2cbz5jsyu","61117cb162ca624c2b2a443c","freq_resp","img/green_2bandit_a.png","70","70","test","","","","7","",""
"null","628108","pSARL_v2","pSARL_v2cbz5jsyu","61117cb162ca624c2b2a443c","fixation","img/fixation.png","null","","test","","","","","",""
"713.3000001907349","628830","pSARL_v2","pSARL_v2cbz5jsyu","61117cb162ca624c2b2a443c","infreq","img/orange_2bandit_a2.png","68","68","test","1","136","136","7","",""
"null","628925","pSARL_v2","pSARL_v2cbz5jsyu","61117cb162ca624c2b2a443c","infreq_resp","img/orange_2bandit_a.png","68","68","test","","","","7","",""
"null","629083","pSARL_v2","pSARL_v2cbz5jsyu","61117cb162ca624c2b2a443c","fixation","img/fixation.png","null","","test","","","","","",""
"669.5999999046326","629761","pSARL_v2","pSARL_v2cbz5jsyu","61117cb162ca624c2b2a443c","freq","img/green_2bandit_a2.png","70","70","test","1","137","137","7","",""
"null","629900","pSARL_v2","pSARL_v2cbz5jsyu","61117cb162ca624c2b2a443c","freq_resp","img/green_2bandit_a.png","70","70","test","","","","7","",""
"null","630058","pSARL_v2","pSARL_v2cbz5jsyu","61117cb162ca624c2b2a443c","fixation","img/fixation.png","null","","test","","","","","",""
"616.5","630682","pSARL_v2","pSARL_v2cbz5jsyu","61117cb162ca624c2b2a443c","freq","img/green_2bandit_a2.png","70","70","test","1","138","138","7","",""
"null","630873","pSARL_v2","pSARL_v2cbz5jsyu","61117cb162ca624c2b2a443c","freq_resp","img/green_2bandit_a.png","70","70","test","","","","7","",""
"null","631031","pSARL_v2","pSARL_v2cbz5jsyu","61117cb162ca624c2b2a443c","fixation","img/fixation.png","null","","test","","","","","",""
"690.5999999046326","631731","pSARL_v2","pSARL_v2cbz5jsyu","61117cb162ca624c2b2a443c","freq","img/green_2bandit_a2.png","70","70","test","1","139","139","7","",""
"null","631849","pSARL_v2","pSARL_v2cbz5jsyu","61117cb162ca624c2b2a443c","freq_resp","img/green_2bandit_a.png","70","70","test","","","","7","",""
"null","632007","pSARL_v2","pSARL_v2cbz5jsyu","61117cb162ca624c2b2a443c","fixation","img/fixation.png","null","","test","","","","","",""
"729.5","632744","pSARL_v2","pSARL_v2cbz5jsyu","61117cb162ca624c2b2a443c","freq","img/green_2bandit_a2.png","70","70","test","1","140","140","7","",""
"null","632822","pSARL_v2","pSARL_v2cbz5jsyu","61117cb162ca624c2b2a443c","freq_resp","img/green_2bandit_a.png","70","70","test","","","","7","",""
"null","632981","pSARL_v2","pSARL_v2cbz5jsyu","61117cb162ca624c2b2a443c","fixation","img/fixation.png","null","","test","","","","","",""
"null","633789","pSARL_v2","pSARL_v2cbz5jsyu","61117cb162ca624c2b2a443c","freq","img/green_2bandit_a2.png","null","70","test","0","141","141","7","",""
"null","633949","pSARL_v2","pSARL_v2cbz5jsyu","61117cb162ca624c2b2a443c","fixation","img/fixation.png","null","","test","","","","","",""
"777.0999999046326","634734","pSARL_v2","pSARL_v2cbz5jsyu","61117cb162ca624c2b2a443c","freq","img/green_2bandit_a2.png","70","70","test","1","142","142","7","",""
"null","634764","pSARL_v2","pSARL_v2cbz5jsyu","61117cb162ca624c2b2a443c","freq_resp","img/green_2bandit_a.png","70","70","test","","","","7","",""
"null","634924","pSARL_v2","pSARL_v2cbz5jsyu","61117cb162ca624c2b2a443c","fixation","img/fixation.png","null","","test","","","","","",""
"787.5999999046326","635719","pSARL_v2","pSARL_v2cbz5jsyu","61117cb162ca624c2b2a443c","freq","img/green_2bandit_a2.png","70","70","test","1","143","143","7","",""
"null","635739","pSARL_v2","pSARL_v2cbz5jsyu","61117cb162ca624c2b2a443c","freq_resp","img/green_2bandit_a.png","70","70","test","","","","7","",""
"null","635897","pSARL_v2","pSARL_v2cbz5jsyu","61117cb162ca624c2b2a443c","fixation","img/fixation.png","null","","test","","","","","",""
"null","636707","pSARL_v2","pSARL_v2cbz5jsyu","61117cb162ca624c2b2a443c","freq","img/green_2bandit_a2.png","null","70","test","0","144","144","7","",""
"null","636865","pSARL_v2","pSARL_v2cbz5jsyu","61117cb162ca624c2b2a443c","fixation","img/fixation.png","null","","test","","","","","",""
"null","637674","pSARL_v2","pSARL_v2cbz5jsyu","61117cb162ca624c2b2a443c","freq","img/green_2bandit_a2.png","null","70","test","0","145","145","7","",""
"null","637833","pSARL_v2","pSARL_v2cbz5jsyu","61117cb162ca624c2b2a443c","fixation","img/fixation.png","null","","test","","","","","",""
"null","638642","pSARL_v2","pSARL_v2cbz5jsyu","61117cb162ca624c2b2a443c","freq","img/green_2bandit_a2.png","null","70","test","0","146","146","7","",""
"null","638800","pSARL_v2","pSARL_v2cbz5jsyu","61117cb162ca624c2b2a443c","fixation","img/fixation.png","null","","test","","","","","",""
"null","639608","pSARL_v2","pSARL_v2cbz5jsyu","61117cb162ca624c2b2a443c","freq","img/green_2bandit_a2.png","null","70","test","0","147","147","7","",""
"null","639766","pSARL_v2","pSARL_v2cbz5jsyu","61117cb162ca624c2b2a443c","fixation","img/fixation.png","null","","test","","","","","",""
"null","640577","pSARL_v2","pSARL_v2cbz5jsyu","61117cb162ca624c2b2a443c","freq","img/green_2bandit_a2.png","null","70","test","0","148","148","7","",""
"null","640735","pSARL_v2","pSARL_v2cbz5jsyu","61117cb162ca624c2b2a443c","fixation","img/fixation.png","null","","test","","","","","",""
"710.0999999046326","641455","pSARL_v2","pSARL_v2cbz5jsyu","61117cb162ca624c2b2a443c","reward","img/slot.png","74","","test","","","","","",""
"null","642219","pSARL_v2","pSARL_v2cbz5jsyu","61117cb162ca624c2b2a443c","points","<div class=""verylowPoints""> -6 </div>","null","na","test","","","","7","-6","6"
"686.9000000953674","642916","pSARL_v2","pSARL_v2cbz5jsyu","61117cb162ca624c2b2a443c","freq","img/green_2bandit_a2.png","70","70","test","1","149","149","8","",""
"null","643037","pSARL_v2","pSARL_v2cbz5jsyu","61117cb162ca624c2b2a443c","freq_resp","img/green_2bandit_a.png","70","70","test","","","","8","",""
"null","643196","pSARL_v2","pSARL_v2cbz5jsyu","61117cb162ca624c2b2a443c","fixation","img/fixation.png","null","","test","","","","","",""
"682.4000000953674","643887","pSARL_v2","pSARL_v2cbz5jsyu","61117cb162ca624c2b2a443c","freq","img/green_2bandit_a2.png","70","70","test","1","150","150","8","",""
"null","644032","pSARL_v2","pSARL_v2cbz5jsyu","61117cb162ca624c2b2a443c","freq_resp","img/green_2bandit_a.png","70","70","test","","","","8","",""
"null","644191","pSARL_v2","pSARL_v2cbz5jsyu","61117cb162ca624c2b2a443c","fixation","img/fixation.png","null","","test","","","","","",""
"704.1000003814697","644903","pSARL_v2","pSARL_v2cbz5jsyu","61117cb162ca624c2b2a443c","freq","img/green_2bandit_a2.png","70","70","test","1","151","151","8","",""
"null","645011","pSARL_v2","pSARL_v2cbz5jsyu","61117cb162ca624c2b2a443c","freq_resp","img/green_2bandit_a.png","70","70","test","","","","8","",""
"null","645183","pSARL_v2","pSARL_v2cbz5jsyu","61117cb162ca624c2b2a443c","fixation","img/fixation.png","null","","test","","","","","",""
"549.5999999046326","645741","pSARL_v2","pSARL_v2cbz5jsyu","61117cb162ca624c2b2a443c","freq","img/green_2bandit_a2.png","70","70","test","1","152","152","8","",""
"null","645999","pSARL_v2","pSARL_v2cbz5jsyu","61117cb162ca624c2b2a443c","freq_resp","img/green_2bandit_a.png","70","70","test","","","","8","",""
"null","646160","pSARL_v2","pSARL_v2cbz5jsyu","61117cb162ca624c2b2a443c","fixation","img/fixation.png","null","","test","","","","","",""
"550.6999998092651","646719","pSARL_v2","pSARL_v2cbz5jsyu","61117cb162ca624c2b2a443c","freq","img/green_2bandit_a2.png","70","70","test","1","153","153","8","",""
"null","646977","pSARL_v2","pSARL_v2cbz5jsyu","61117cb162ca624c2b2a443c","freq_resp","img/green_2bandit_a.png","70","70","test","","","","8","",""
"null","647138","pSARL_v2","pSARL_v2cbz5jsyu","61117cb162ca624c2b2a443c","fixation","img/fixation.png","null","","test","","","","","",""
"null","648306","pSARL_v2","pSARL_v2cbz5jsyu","61117cb162ca624c2b2a443c","freq","img/green_2bandit_a2.png","null","70","test","0","154","154","8","",""
"null","649306","pSARL_v2","pSARL_v2cbz5jsyu","61117cb162ca624c2b2a443c","fixation","img/fixation.png","null","","test","","","","","",""
"null","650316","pSARL_v2","pSARL_v2cbz5jsyu","61117cb162ca624c2b2a443c","freq","img/green_2bandit_a2.png","null","70","test","0","155","155","8","",""
"null","651304","pSARL_v2","pSARL_v2cbz5jsyu","61117cb162ca624c2b2a443c","fixation","img/fixation.png","null","","test","","","","","",""
"null","652315","pSARL_v2","pSARL_v2cbz5jsyu","61117cb162ca624c2b2a443c","freq","img/green_2bandit_a2.png","null","70","test","0","156","156","8","",""
"null","653315","pSARL_v2","pSARL_v2cbz5jsyu","61117cb162ca624c2b2a443c","fixation","img/fixation.png","null","","test","","","","","",""
"null","654304","pSARL_v2","pSARL_v2cbz5jsyu","61117cb162ca624c2b2a443c","freq","img/green_2bandit_a2.png","null","70","test","0","157","157","8","",""
"null","655095","pSARL_v2","pSARL_v2cbz5jsyu","61117cb162ca624c2b2a443c","fixation","img/fixation.png","null","","test","","","","","",""
"null","655903","pSARL_v2","pSARL_v2cbz5jsyu","61117cb162ca624c2b2a443c","infreq","img/orange_2bandit_a2.png","null","68","test","0","158","158","8","",""
"null","656062","pSARL_v2","pSARL_v2cbz5jsyu","61117cb162ca624c2b2a443c","fixation","img/fixation.png","null","","test","","","","","",""
"569.5","656639","pSARL_v2","pSARL_v2cbz5jsyu","61117cb162ca624c2b2a443c","freq","img/green_2bandit_a2.png","70","70","test","1","159","159","8","",""
"null","656877","pSARL_v2","pSARL_v2cbz5jsyu","61117cb162ca624c2b2a443c","freq_resp","img/green_2bandit_a.png","70","70","test","","","","8","",""
"null","657035","pSARL_v2","pSARL_v2cbz5jsyu","61117cb162ca624c2b2a443c","fixation","img/fixation.png","null","","test","","","","","",""
"404.2999997138977","657449","pSARL_v2","pSARL_v2cbz5jsyu","61117cb162ca624c2b2a443c","freq","img/green_2bandit_a2.png","70","70","test","1","160","160","8","",""
"null","657852","pSARL_v2","pSARL_v2cbz5jsyu","61117cb162ca624c2b2a443c","freq_resp","img/green_2bandit_a.png","70","70","test","","","","8","",""
"null","658010","pSARL_v2","pSARL_v2cbz5jsyu","61117cb162ca624c2b2a443c","fixation","img/fixation.png","null","","test","","","","","",""
"348.30000019073486","658366","pSARL_v2","pSARL_v2cbz5jsyu","61117cb162ca624c2b2a443c","freq","img/green_2bandit_a2.png","70","70","test","1","161","161","8","",""
"null","658826","pSARL_v2","pSARL_v2cbz5jsyu","61117cb162ca624c2b2a443c","freq_resp","img/green_2bandit_a.png","70","70","test","","","","8","",""
"null","658984","pSARL_v2","pSARL_v2cbz5jsyu","61117cb162ca624c2b2a443c","fixation","img/fixation.png","null","","test","","","","","",""
"447.5","659440","pSARL_v2","pSARL_v2cbz5jsyu","61117cb162ca624c2b2a443c","freq","img/green_2bandit_a2.png","70","70","test","1","162","162","8","",""
"null","659800","pSARL_v2","pSARL_v2cbz5jsyu","61117cb162ca624c2b2a443c","freq_resp","img/green_2bandit_a.png","70","70","test","","","","8","",""
"null","659957","pSARL_v2","pSARL_v2cbz5jsyu","61117cb162ca624c2b2a443c","fixation","img/fixation.png","null","","test","","","","","",""
"732.5","660699","pSARL_v2","pSARL_v2cbz5jsyu","61117cb162ca624c2b2a443c","freq","img/green_2bandit_a2.png","70","70","test","1","163","163","8","",""
"null","660776","pSARL_v2","pSARL_v2cbz5jsyu","61117cb162ca624c2b2a443c","freq_resp","img/green_2bandit_a.png","70","70","test","","","","8","",""
"null","660934","pSARL_v2","pSARL_v2cbz5jsyu","61117cb162ca624c2b2a443c","fixation","img/fixation.png","null","","test","","","","","",""
"791.5","661733","pSARL_v2","pSARL_v2cbz5jsyu","61117cb162ca624c2b2a443c","freq","img/green_2bandit_a2.png","70","70","test","1","164","164","8","",""
"null","661753","pSARL_v2","pSARL_v2cbz5jsyu","61117cb162ca624c2b2a443c","freq_resp","img/green_2bandit_a.png","70","70","test","","","","8","",""
"null","661911","pSARL_v2","pSARL_v2cbz5jsyu","61117cb162ca624c2b2a443c","fixation","img/fixation.png","null","","test","","","","","",""
"636.6999998092651","662556","pSARL_v2","pSARL_v2cbz5jsyu","61117cb162ca624c2b2a443c","freq","img/green_2bandit_a2.png","70","70","test","1","165","165","8","",""
"null","662727","pSARL_v2","pSARL_v2cbz5jsyu","61117cb162ca624c2b2a443c","freq_resp","img/green_2bandit_a.png","70","70","test","","","","8","",""
"null","662886","pSARL_v2","pSARL_v2cbz5jsyu","61117cb162ca624c2b2a443c","fixation","img/fixation.png","null","","test","","","","","",""
"490.30000019073486","663385","pSARL_v2","pSARL_v2cbz5jsyu","61117cb162ca624c2b2a443c","freq","img/green_2bandit_a2.png","70","70","test","1","166","166","8","",""
"null","663701","pSARL_v2","pSARL_v2cbz5jsyu","61117cb162ca624c2b2a443c","freq_resp","img/green_2bandit_a.png","70","70","test","","","","8","",""
"null","663859","pSARL_v2","pSARL_v2cbz5jsyu","61117cb162ca624c2b2a443c","fixation","img/fixation.png","null","","test","","","","","",""
"356","664223","pSARL_v2","pSARL_v2cbz5jsyu","61117cb162ca624c2b2a443c","freq","img/green_2bandit_a2.png","70","70","test","1","167","167","8","",""
"null","664675","pSARL_v2","pSARL_v2cbz5jsyu","61117cb162ca624c2b2a443c","freq_resp","img/green_2bandit_a.png","70","70","test","","","","8","",""
"null","664833","pSARL_v2","pSARL_v2cbz5jsyu","61117cb162ca624c2b2a443c","fixation","img/fixation.png","null","","test","","","","","",""
"749.5","665590","pSARL_v2","pSARL_v2cbz5jsyu","61117cb162ca624c2b2a443c","freq","img/green_2bandit_a2.png","70","70","test","1","168","168","8","",""
"null","665648","pSARL_v2","pSARL_v2cbz5jsyu","61117cb162ca624c2b2a443c","freq_resp","img/green_2bandit_a.png","70","70","test","","","","8","",""
"null","665806","pSARL_v2","pSARL_v2cbz5jsyu","61117cb162ca624c2b2a443c","fixation","img/fixation.png","null","","test","","","","","",""
"406.5","666221","pSARL_v2","pSARL_v2cbz5jsyu","61117cb162ca624c2b2a443c","freq","img/green_2bandit_a2.png","70","70","test","1","169","169","8","",""
"null","666623","pSARL_v2","pSARL_v2cbz5jsyu","61117cb162ca624c2b2a443c","freq_resp","img/green_2bandit_a.png","70","70","test","","","","8","",""
"null","666782","pSARL_v2","pSARL_v2cbz5jsyu","61117cb162ca624c2b2a443c","fixation","img/fixation.png","null","","test","","","","","",""
"726.9000000953674","667521","pSARL_v2","pSARL_v2cbz5jsyu","61117cb162ca624c2b2a443c","infreq","img/orange_2bandit_a2.png","68","68","test","1","170","170","8","",""
"null","667605","pSARL_v2","pSARL_v2cbz5jsyu","61117cb162ca624c2b2a443c","infreq_resp","img/orange_2bandit_a.png","68","68","test","","","","8","",""
"null","667764","pSARL_v2","pSARL_v2cbz5jsyu","61117cb162ca624c2b2a443c","fixation","img/fixation.png","null","","test","","","","","",""
"null","668581","pSARL_v2","pSARL_v2cbz5jsyu","61117cb162ca624c2b2a443c","freq","img/green_2bandit_a2.png","null","70","test","0","171","171","8","",""
"null","668741","pSARL_v2","pSARL_v2cbz5jsyu","61117cb162ca624c2b2a443c","fixation","img/fixation.png","null","","test","","","","","",""
"null","670310","pSARL_v2","pSARL_v2cbz5jsyu","61117cb162ca624c2b2a443c","freq","img/green_2bandit_a2.png","null","70","test","0","172","172","8","",""
"null","671308","pSARL_v2","pSARL_v2cbz5jsyu","61117cb162ca624c2b2a443c","fixation","img/fixation.png","null","","test","","","","","",""
"null","672308","pSARL_v2","pSARL_v2cbz5jsyu","61117cb162ca624c2b2a443c","freq","img/green_2bandit_a2.png","null","70","test","0","173","173","8","",""
"null","673305","pSARL_v2","pSARL_v2cbz5jsyu","61117cb162ca624c2b2a443c","fixation","img/fixation.png","null","","test","","","","","",""
"15413.699999809265","688726","pSARL_v2","pSARL_v2cbz5jsyu","61117cb162ca624c2b2a443c","reward","img/slot.png","74","","test","","","","","",""
"null","689489","pSARL_v2","pSARL_v2cbz5jsyu","61117cb162ca624c2b2a443c","points","<div class=""verylowPoints""> -4 </div>","null","na","test","","","","8","-4","7"
"null","690298","pSARL_v2","pSARL_v2cbz5jsyu","61117cb162ca624c2b2a443c","freq","img/green_2bandit_a2.png","null","70","test","0","174","174","9","",""
"null","690457","pSARL_v2","pSARL_v2cbz5jsyu","61117cb162ca624c2b2a443c","fixation","img/fixation.png","null","","test","","","","","",""
"579.5","691044","pSARL_v2","pSARL_v2cbz5jsyu","61117cb162ca624c2b2a443c","freq","img/green_2bandit_a2.png","70","70","test","1","175","175","9","",""
"null","691276","pSARL_v2","pSARL_v2cbz5jsyu","61117cb162ca624c2b2a443c","freq_resp","img/green_2bandit_a.png","70","70","test","","","","9","",""
"null","691441","pSARL_v2","pSARL_v2cbz5jsyu","61117cb162ca624c2b2a443c","fixation","img/fixation.png","null","","test","","","","","",""
"773.7999997138977","692222","pSARL_v2","pSARL_v2cbz5jsyu","61117cb162ca624c2b2a443c","infreq","img/orange_2bandit_a2.png","68","68","test","1","176","176","9","",""
"null","692256","pSARL_v2","pSARL_v2cbz5jsyu","61117cb162ca624c2b2a443c","infreq_resp","img/orange_2bandit_a.png","68","68","test","","","","9","",""
"null","692416","pSARL_v2","pSARL_v2cbz5jsyu","61117cb162ca624c2b2a443c","fixation","img/fixation.png","null","","test","","","","","",""
"null","693229","pSARL_v2","pSARL_v2cbz5jsyu","61117cb162ca624c2b2a443c","freq","img/green_2bandit_a2.png","null","70","test","0","177","177","9","",""
"null","693389","pSARL_v2","pSARL_v2cbz5jsyu","61117cb162ca624c2b2a443c","fixation","img/fixation.png","null","","test","","","","","",""
"778.4000000953674","694176","pSARL_v2","pSARL_v2cbz5jsyu","61117cb162ca624c2b2a443c","freq","img/green_2bandit_a2.png","70","70","test","1","178","178","9","",""
"null","694207","pSARL_v2","pSARL_v2cbz5jsyu","61117cb162ca624c2b2a443c","freq_resp","img/green_2bandit_a.png","70","70","test","","","","9","",""
"null","694365","pSARL_v2","pSARL_v2cbz5jsyu","61117cb162ca624c2b2a443c","fixation","img/fixation.png","null","","test","","","","","",""
"547.5999999046326","694921","pSARL_v2","pSARL_v2cbz5jsyu","61117cb162ca624c2b2a443c","freq","img/green_2bandit_a2.png","70","70","test","1","179","179","9","",""
"null","695182","pSARL_v2","pSARL_v2cbz5jsyu","61117cb162ca624c2b2a443c","freq_resp","img/green_2bandit_a.png","70","70","test","","","","9","",""
"null","695340","pSARL_v2","pSARL_v2cbz5jsyu","61117cb162ca624c2b2a443c","fixation","img/fixation.png","null","","test","","","","","",""
"675.6999998092651","696024","pSARL_v2","pSARL_v2cbz5jsyu","61117cb162ca624c2b2a443c","infreq","img/orange_2bandit_a2.png","68","68","test","1","180","180","9","",""
"null","696160","pSARL_v2","pSARL_v2cbz5jsyu","61117cb162ca624c2b2a443c","infreq_resp","img/orange_2bandit_a.png","68","68","test","","","","9","",""
"null","696318","pSARL_v2","pSARL_v2cbz5jsyu","61117cb162ca624c2b2a443c","fixation","img/fixation.png","null","","test","","","","","",""
"490.5","696815","pSARL_v2","pSARL_v2cbz5jsyu","61117cb162ca624c2b2a443c","freq","img/green_2bandit_a2.png","70","70","test","1","181","181","9","",""
"null","697135","pSARL_v2","pSARL_v2cbz5jsyu","61117cb162ca624c2b2a443c","freq_resp","img/green_2bandit_a.png","70","70","test","","","","9","",""
"null","697294","pSARL_v2","pSARL_v2cbz5jsyu","61117cb162ca624c2b2a443c","fixation","img/fixation.png","null","","test","","","","","",""
"583.5","697885","pSARL_v2","pSARL_v2cbz5jsyu","61117cb162ca624c2b2a443c","freq","img/green_2bandit_a2.png","70","70","test","1","182","182","9","",""
"null","698110","pSARL_v2","pSARL_v2cbz5jsyu","61117cb162ca624c2b2a443c","freq_resp","img/green_2bandit_a.png","70","70","test","","","","9","",""
"null","698268","pSARL_v2","pSARL_v2cbz5jsyu","61117cb162ca624c2b2a443c","fixation","img/fixation.png","null","","test","","","","","",""
"659.0999999046326","698936","pSARL_v2","pSARL_v2cbz5jsyu","61117cb162ca624c2b2a443c","infreq","img/orange_2bandit_a2.png","68","68","test","1","183","183","9","",""
"null","699084","pSARL_v2","pSARL_v2cbz5jsyu","61117cb162ca624c2b2a443c","infreq_resp","img/orange_2bandit_a.png","68","68","test","","","","9","",""
"null","699242","pSARL_v2","pSARL_v2cbz5jsyu","61117cb162ca624c2b2a443c","fixation","img/fixation.png","null","","test","","","","","",""
"null","700053","pSARL_v2","pSARL_v2cbz5jsyu","61117cb162ca624c2b2a443c","freq","img/green_2bandit_a2.png","null","70","test","0","184","184","9","",""
"null","700212","pSARL_v2","pSARL_v2cbz5jsyu","61117cb162ca624c2b2a443c","fixation","img/fixation.png","null","","test","","","","","",""
"580.8000001907349","700803","pSARL_v2","pSARL_v2cbz5jsyu","61117cb162ca624c2b2a443c","freq","img/green_2bandit_a2.png","70","70","test","1","185","185","9","",""
"null","701032","pSARL_v2","pSARL_v2cbz5jsyu","61117cb162ca624c2b2a443c","freq_resp","img/green_2bandit_a.png","70","70","test","","","","9","",""
"null","701192","pSARL_v2","pSARL_v2cbz5jsyu","61117cb162ca624c2b2a443c","fixation","img/fixation.png","null","","test","","","","","",""
"481.09999990463257","701693","pSARL_v2","pSARL_v2cbz5jsyu","61117cb162ca624c2b2a443c","freq","img/green_2bandit_a2.png","70","70","test","1","186","186","9","",""
"null","702021","pSARL_v2","pSARL_v2cbz5jsyu","61117cb162ca624c2b2a443c","freq_resp","img/green_2bandit_a.png","70","70","test","","","","9","",""
"null","702192","pSARL_v2","pSARL_v2cbz5jsyu","61117cb162ca624c2b2a443c","fixation","img/fixation.png","null","","test","","","","","",""
"402.09999990463257","702601","pSARL_v2","pSARL_v2cbz5jsyu","61117cb162ca624c2b2a443c","freq","img/green_2bandit_a2.png","70","70","test","1","187","187","9","",""
"null","703011","pSARL_v2","pSARL_v2cbz5jsyu","61117cb162ca624c2b2a443c","freq_resp","img/green_2bandit_a.png","70","70","test","","","","9","",""
"null","703170","pSARL_v2","pSARL_v2cbz5jsyu","61117cb162ca624c2b2a443c","fixation","img/fixation.png","null","","test","","","","","",""
"445.8999996185303","703624","pSARL_v2","pSARL_v2cbz5jsyu","61117cb162ca624c2b2a443c","freq","img/green_2bandit_a2.png","70","70","test","1","188","188","9","",""
"null","703987","pSARL_v2","pSARL_v2cbz5jsyu","61117cb162ca624c2b2a443c","freq_resp","img/green_2bandit_a.png","70","70","test","","","","9","",""
"null","704146","pSARL_v2","pSARL_v2cbz5jsyu","61117cb162ca624c2b2a443c","fixation","img/fixation.png","null","","test","","","","","",""
"434.1000003814697","704589","pSARL_v2","pSARL_v2cbz5jsyu","61117cb162ca624c2b2a443c","freq","img/green_2bandit_a2.png","70","70","test","1","189","189","9","",""
"null","704964","pSARL_v2","pSARL_v2cbz5jsyu","61117cb162ca624c2b2a443c","freq_resp","img/green_2bandit_a.png","70","70","test","","","","9","",""
"null","705122","pSARL_v2","pSARL_v2cbz5jsyu","61117cb162ca624c2b2a443c","fixation","img/fixation.png","null","","test","","","","","",""
"381.7999997138977","705514","pSARL_v2","pSARL_v2cbz5jsyu","61117cb162ca624c2b2a443c","freq","img/green_2bandit_a2.png","70","70","test","1","190","190","9","",""
"null","705940","pSARL_v2","pSARL_v2cbz5jsyu","61117cb162ca624c2b2a443c","freq_resp","img/green_2bandit_a.png","70","70","test","","","","9","",""
"null","706102","pSARL_v2","pSARL_v2cbz5jsyu","61117cb162ca624c2b2a443c","fixation","img/fixation.png","null","","test","","","","","",""
"305.59999990463257","706418","pSARL_v2","pSARL_v2cbz5jsyu","61117cb162ca624c2b2a443c","freq","img/green_2bandit_a2.png","70","70","test","1","191","191","9","",""
"null","706920","pSARL_v2","pSARL_v2cbz5jsyu","61117cb162ca624c2b2a443c","freq_resp","img/green_2bandit_a.png","70","70","test","","","","9","",""
"null","707078","pSARL_v2","pSARL_v2cbz5jsyu","61117cb162ca624c2b2a443c","fixation","img/fixation.png","null","","test","","","","","",""
"405.69999980926514","707498","pSARL_v2","pSARL_v2cbz5jsyu","61117cb162ca624c2b2a443c","freq","img/green_2bandit_a2.png","70","70","test","1","192","192","9","",""
"null","707901","pSARL_v2","pSARL_v2cbz5jsyu","61117cb162ca624c2b2a443c","freq_resp","img/green_2bandit_a.png","70","70","test","","","","9","",""
"null","708059","pSARL_v2","pSARL_v2cbz5jsyu","61117cb162ca624c2b2a443c","fixation","img/fixation.png","null","","test","","","","","",""
"425.3999996185303","708493","pSARL_v2","pSARL_v2cbz5jsyu","61117cb162ca624c2b2a443c","freq","img/green_2bandit_a2.png","70","70","test","1","193","193","9","",""
"null","708879","pSARL_v2","pSARL_v2cbz5jsyu","61117cb162ca624c2b2a443c","freq_resp","img/green_2bandit_a.png","70","70","test","","","","9","",""
"null","709038","pSARL_v2","pSARL_v2cbz5jsyu","61117cb162ca624c2b2a443c","fixation","img/fixation.png","null","","test","","","","","",""
"518.5","709564","pSARL_v2","pSARL_v2cbz5jsyu","61117cb162ca624c2b2a443c","freq","img/green_2bandit_a2.png","70","70","test","1","194","194","9","",""
"null","709855","pSARL_v2","pSARL_v2cbz5jsyu","61117cb162ca624c2b2a443c","freq_resp","img/green_2bandit_a.png","70","70","test","","","","9","",""
"null","710013","pSARL_v2","pSARL_v2cbz5jsyu","61117cb162ca624c2b2a443c","fixation","img/fixation.png","null","","test","","","","","",""
"438.09999990463257","710459","pSARL_v2","pSARL_v2cbz5jsyu","61117cb162ca624c2b2a443c","freq","img/green_2bandit_a2.png","70","70","test","1","195","195","9","",""
"null","710828","pSARL_v2","pSARL_v2cbz5jsyu","61117cb162ca624c2b2a443c","freq_resp","img/green_2bandit_a.png","70","70","test","","","","9","",""
"null","710987","pSARL_v2","pSARL_v2cbz5jsyu","61117cb162ca624c2b2a443c","fixation","img/fixation.png","null","","test","","","","","",""
"472.90000009536743","711468","pSARL_v2","pSARL_v2cbz5jsyu","61117cb162ca624c2b2a443c","freq","img/green_2bandit_a2.png","70","70","test","1","196","196","9","",""
"null","711803","pSARL_v2","pSARL_v2cbz5jsyu","61117cb162ca624c2b2a443c","freq_resp","img/green_2bandit_a.png","70","70","test","","","","9","",""
"null","711962","pSARL_v2","pSARL_v2cbz5jsyu","61117cb162ca624c2b2a443c","fixation","img/fixation.png","null","","test","","","","","",""
"1231.4000000953674","713201","pSARL_v2","pSARL_v2cbz5jsyu","61117cb162ca624c2b2a443c","reward","img/slot.png","74","","test","","","","","",""
"null","713963","pSARL_v2","pSARL_v2cbz5jsyu","61117cb162ca624c2b2a443c","points","<div class=""verylowPoints""> -3 </div>","null","na","test","","","","9","-3","8"
"null","714773","pSARL_v2","pSARL_v2cbz5jsyu","61117cb162ca624c2b2a443c","freq","img/green_2bandit_a2.png","null","70","test","0","197","197","10","",""
"null","714932","pSARL_v2","pSARL_v2cbz5jsyu","61117cb162ca624c2b2a443c","fixation","img/fixation.png","null","","test","","","","","",""
"136.10000038146973","715076","pSARL_v2","pSARL_v2cbz5jsyu","61117cb162ca624c2b2a443c","freq","img/green_2bandit_a2.png","70","70","test","1","198","198","10","",""
"null","715747","pSARL_v2","pSARL_v2cbz5jsyu","61117cb162ca624c2b2a443c","freq_resp","img/green_2bandit_a.png","70","70","test","","","","10","",""
"null","715905","pSARL_v2","pSARL_v2cbz5jsyu","61117cb162ca624c2b2a443c","fixation","img/fixation.png","null","","test","","","","","",""
"null","716714","pSARL_v2","pSARL_v2cbz5jsyu","61117cb162ca624c2b2a443c","freq","img/green_2bandit_a2.png","null","70","test","0","199","199","10","",""
"null","716872","pSARL_v2","pSARL_v2cbz5jsyu","61117cb162ca624c2b2a443c","fixation","img/fixation.png","null","","test","","","","","",""
"714.5","717595","pSARL_v2","pSARL_v2cbz5jsyu","61117cb162ca624c2b2a443c","freq","img/green_2bandit_a2.png","70","70","test","1","200","200","10","",""
"null","717689","pSARL_v2","pSARL_v2cbz5jsyu","61117cb162ca624c2b2a443c","freq_resp","img/green_2bandit_a.png","70","70","test","","","","10","",""
"null","717848","pSARL_v2","pSARL_v2cbz5jsyu","61117cb162ca624c2b2a443c","fixation","img/fixation.png","null","","test","","","","","",""
"629.4000000953674","718485","pSARL_v2","pSARL_v2cbz5jsyu","61117cb162ca624c2b2a443c","freq","img/green_2bandit_a2.png","70","70","test","1","201","201","10","",""
"null","718664","pSARL_v2","pSARL_v2cbz5jsyu","61117cb162ca624c2b2a443c","freq_resp","img/green_2bandit_a.png","70","70","test","","","","10","",""
"null","718823","pSARL_v2","pSARL_v2cbz5jsyu","61117cb162ca624c2b2a443c","fixation","img/fixation.png","null","","test","","","","","",""
"509.5","719340","pSARL_v2","pSARL_v2cbz5jsyu","61117cb162ca624c2b2a443c","freq","img/green_2bandit_a2.png","70","70","test","1","202","202","10","",""
"null","719639","pSARL_v2","pSARL_v2cbz5jsyu","61117cb162ca624c2b2a443c","freq_resp","img/green_2bandit_a.png","70","70","test","","","","10","",""
"null","719798","pSARL_v2","pSARL_v2cbz5jsyu","61117cb162ca624c2b2a443c","fixation","img/fixation.png","null","","test","","","","","",""
"414.80000019073486","720222","pSARL_v2","pSARL_v2cbz5jsyu","61117cb162ca624c2b2a443c","freq","img/green_2bandit_a2.png","70","70","test","1","203","203","10","",""
"null","720616","pSARL_v2","pSARL_v2cbz5jsyu","61117cb162ca624c2b2a443c","freq_resp","img/green_2bandit_a.png","70","70","test","","","","10","",""
"null","720775","pSARL_v2","pSARL_v2cbz5jsyu","61117cb162ca624c2b2a443c","fixation","img/fixation.png","null","","test","","","","","",""
"489.5","721273","pSARL_v2","pSARL_v2cbz5jsyu","61117cb162ca624c2b2a443c","freq","img/green_2bandit_a2.png","70","70","test","1","204","204","10","",""
"null","721593","pSARL_v2","pSARL_v2cbz5jsyu","61117cb162ca624c2b2a443c","freq_resp","img/green_2bandit_a.png","70","70","test","","","","10","",""
"null","721754","pSARL_v2","pSARL_v2cbz5jsyu","61117cb162ca624c2b2a443c","fixation","img/fixation.png","null","","test","","","","","",""
"439.19999980926514","722201","pSARL_v2","pSARL_v2cbz5jsyu","61117cb162ca624c2b2a443c","freq","img/green_2bandit_a2.png","70","70","test","1","205","205","10","",""
"null","722573","pSARL_v2","pSARL_v2cbz5jsyu","61117cb162ca624c2b2a443c","freq_resp","img/green_2bandit_a.png","70","70","test","","","","10","",""
"null","722730","pSARL_v2","pSARL_v2cbz5jsyu","61117cb162ca624c2b2a443c","fixation","img/fixation.png","null","","test","","","","","",""
"502.6000003814697","723240","pSARL_v2","pSARL_v2cbz5jsyu","61117cb162ca624c2b2a443c","freq","img/green_2bandit_a2.png","70","70","test","1","206","206","10","",""
"null","723546","pSARL_v2","pSARL_v2cbz5jsyu","61117cb162ca624c2b2a443c","freq_resp","img/green_2bandit_a.png","70","70","test","","","","10","",""
"null","723704","pSARL_v2","pSARL_v2cbz5jsyu","61117cb162ca624c2b2a443c","fixation","img/fixation.png","null","","test","","","","","",""
"479.90000009536743","724192","pSARL_v2","pSARL_v2cbz5jsyu","61117cb162ca624c2b2a443c","freq","img/green_2bandit_a2.png","70","70","test","1","207","207","10","",""
"null","724523","pSARL_v2","pSARL_v2cbz5jsyu","61117cb162ca624c2b2a443c","freq_resp","img/green_2bandit_a.png","70","70","test","","","","10","",""
"null","724683","pSARL_v2","pSARL_v2cbz5jsyu","61117cb162ca624c2b2a443c","fixation","img/fixation.png","null","","test","","","","","",""
"799","725489","pSARL_v2","pSARL_v2cbz5jsyu","61117cb162ca624c2b2a443c","freq","img/green_2bandit_a2.png","70","70","test","1","208","208","10","",""
"null","725496","pSARL_v2","pSARL_v2cbz5jsyu","61117cb162ca624c2b2a443c","freq_resp","img/green_2bandit_a.png","70","70","test","","","","10","",""
"null","725653","pSARL_v2","pSARL_v2cbz5jsyu","61117cb162ca624c2b2a443c","fixation","img/fixation.png","null","","test","","","","","",""
"null","726463","pSARL_v2","pSARL_v2cbz5jsyu","61117cb162ca624c2b2a443c","freq","img/green_2bandit_a2.png","null","70","test","0","209","209","10","",""
"null","726621","pSARL_v2","pSARL_v2cbz5jsyu","61117cb162ca624c2b2a443c","fixation","img/fixation.png","null","","test","","","","","",""
"null","727430","pSARL_v2","pSARL_v2cbz5jsyu","61117cb162ca624c2b2a443c","freq","img/green_2bandit_a2.png","null","70","test","0","210","210","10","",""
"null","727588","pSARL_v2","pSARL_v2cbz5jsyu","61117cb162ca624c2b2a443c","fixation","img/fixation.png","null","","test","","","","","",""
"null","728397","pSARL_v2","pSARL_v2cbz5jsyu","61117cb162ca624c2b2a443c","freq","img/green_2bandit_a2.png","null","70","test","0","211","211","10","",""
"null","728556","pSARL_v2","pSARL_v2cbz5jsyu","61117cb162ca624c2b2a443c","fixation","img/fixation.png","null","","test","","","","","",""
"522.0999999046326","729086","pSARL_v2","pSARL_v2cbz5jsyu","61117cb162ca624c2b2a443c","freq","img/green_2bandit_a2.png","70","70","test","1","212","212","10","",""
"null","729372","pSARL_v2","pSARL_v2cbz5jsyu","61117cb162ca624c2b2a443c","freq_resp","img/green_2bandit_a.png","70","70","test","","","","10","",""
"null","729536","pSARL_v2","pSARL_v2cbz5jsyu","61117cb162ca624c2b2a443c","fixation","img/fixation.png","null","","test","","","","","",""
"382.5","729927","pSARL_v2","pSARL_v2cbz5jsyu","61117cb162ca624c2b2a443c","freq","img/green_2bandit_a2.png","70","70","test","1","213","213","10","",""
"null","730352","pSARL_v2","pSARL_v2cbz5jsyu","61117cb162ca624c2b2a443c","freq_resp","img/green_2bandit_a.png","70","70","test","","","","10","",""
"null","730518","pSARL_v2","pSARL_v2cbz5jsyu","61117cb162ca624c2b2a443c","fixation","img/fixation.png","null","","test","","","","","",""
"518","731044","pSARL_v2","pSARL_v2cbz5jsyu","61117cb162ca624c2b2a443c","freq","img/green_2bandit_a2.png","70","70","test","1","214","214","10","",""
"null","731335","pSARL_v2","pSARL_v2cbz5jsyu","61117cb162ca624c2b2a443c","freq_resp","img/green_2bandit_a.png","70","70","test","","","","10","",""
"null","731495","pSARL_v2","pSARL_v2cbz5jsyu","61117cb162ca624c2b2a443c","fixation","img/fixation.png","null","","test","","","","","",""
"430","731933","pSARL_v2","pSARL_v2cbz5jsyu","61117cb162ca624c2b2a443c","freq","img/green_2bandit_a2.png","70","70","test","1","215","215","10","",""
"null","732312","pSARL_v2","pSARL_v2cbz5jsyu","61117cb162ca624c2b2a443c","freq_resp","img/green_2bandit_a.png","70","70","test","","","","10","",""
"null","732472","pSARL_v2","pSARL_v2cbz5jsyu","61117cb162ca624c2b2a443c","fixation","img/fixation.png","null","","test","","","","","",""
"301.2999997138977","732782","pSARL_v2","pSARL_v2cbz5jsyu","61117cb162ca624c2b2a443c","freq","img/green_2bandit_a2.png","70","70","test","1","216","216","10","",""
"null","733288","pSARL_v2","pSARL_v2cbz5jsyu","61117cb162ca624c2b2a443c","freq_resp","img/green_2bandit_a.png","70","70","test","","","","10","",""
