"rt","time_elapsed","expId","subject","prolificID","trialType","stimulus","key_press","corrresp","phase","corr","trialNum","attentionRunNum","blockNum","points","rlNum"
"139931.69999992847","139934","pSARL_v2","pSARL_v28436cwl4","55ea70c37480920010aa9982","","","","","","","","","","",""
"","142597","pSARL_v2","pSARL_v28436cwl4","55ea70c37480920010aa9982","fullscreen","","","","","","","","","",""
"127666.30000007153","270265","pSARL_v2","pSARL_v28436cwl4","55ea70c37480920010aa9982","","","","","","","","","","",""
"null","271075","pSARL_v2","pSARL_v28436cwl4","55ea70c37480920010aa9982","freqPrac","img/orange_2bandit_b2.png","null","70","prac","0","","","","",""
"null","272086","pSARL_v2","pSARL_v28436cwl4","55ea70c37480920010aa9982","feedback","img/tooSlow.png","null","na","prac","","","","","",""
"null","272241","pSARL_v2","pSARL_v28436cwl4","55ea70c37480920010aa9982","fixation","img/fixation.png","null","","prac","","","","","",""
"378.2999999523163","272621","pSARL_v2","pSARL_v28436cwl4","55ea70c37480920010aa9982","infreqPrac","img/green_2bandit_b2.png","68","68","prac","1","","","","",""
"378.2999999523163","273057","pSARL_v2","pSARL_v28436cwl4","55ea70c37480920010aa9982","infreqPrac_resp","img/green_2bandit_b.png","68","68","prac","","","","","",""
"null","273213","pSARL_v2","pSARL_v28436cwl4","55ea70c37480920010aa9982","fixation","img/fixation.png","null","","prac","","","","","",""
"424.10000002384186","273638","pSARL_v2","pSARL_v28436cwl4","55ea70c37480920010aa9982","freqPrac","img/orange_2bandit_b2.png","70","70","prac","1","","","","",""
"424.10000002384186","274030","pSARL_v2","pSARL_v28436cwl4","55ea70c37480920010aa9982","freqPrac_resp","img/orange_2bandit_b.png","70","70","prac","","","","","",""
"null","274185","pSARL_v2","pSARL_v28436cwl4","55ea70c37480920010aa9982","fixation","img/fixation.png","null","","prac","","","","","",""
"465.1999999284744","274652","pSARL_v2","pSARL_v28436cwl4","55ea70c37480920010aa9982","infreqPrac","img/green_2bandit_b2.png","68","68","prac","1","","","","",""
"465.1999999284744","274989","pSARL_v2","pSARL_v28436cwl4","55ea70c37480920010aa9982","infreqPrac_resp","img/green_2bandit_b.png","68","68","prac","","","","","",""
"null","275144","pSARL_v2","pSARL_v28436cwl4","55ea70c37480920010aa9982","fixation","img/fixation.png","null","","prac","","","","","",""
"359.89999997615814","275505","pSARL_v2","pSARL_v28436cwl4","55ea70c37480920010aa9982","infreqPrac","img/green_2bandit_b2.png","68","68","prac","1","","","","",""
"359.89999997615814","275955","pSARL_v2","pSARL_v28436cwl4","55ea70c37480920010aa9982","infreqPrac_resp","img/green_2bandit_b.png","68","68","prac","","","","","",""
"null","276111","pSARL_v2","pSARL_v28436cwl4","55ea70c37480920010aa9982","fixation","img/fixation.png","null","","prac","","","","","",""
"299.60000002384186","276412","pSARL_v2","pSARL_v28436cwl4","55ea70c37480920010aa9982","infreqPrac","img/green_2bandit_b2.png","68","68","prac","1","","","","",""
"299.60000002384186","276925","pSARL_v2","pSARL_v28436cwl4","55ea70c37480920010aa9982","infreqPrac_resp","img/green_2bandit_b.png","68","68","prac","","","","","",""
"null","277082","pSARL_v2","pSARL_v28436cwl4","55ea70c37480920010aa9982","fixation","img/fixation.png","null","","prac","","","","","",""
"250.89999997615814","277334","pSARL_v2","pSARL_v28436cwl4","55ea70c37480920010aa9982","freqPrac","img/orange_2bandit_b2.png","70","70","prac","1","","","","",""
"250.89999997615814","277893","pSARL_v2","pSARL_v28436cwl4","55ea70c37480920010aa9982","freqPrac_resp","img/orange_2bandit_b.png","70","70","prac","","","","","",""
"null","278049","pSARL_v2","pSARL_v28436cwl4","55ea70c37480920010aa9982","fixation","img/fixation.png","null","","prac","","","","","",""
"406.60000002384186","278457","pSARL_v2","pSARL_v28436cwl4","55ea70c37480920010aa9982","infreqPrac","img/green_2bandit_b2.png","68","68","prac","1","","","","",""
"406.60000002384186","278858","pSARL_v2","pSARL_v28436cwl4","55ea70c37480920010aa9982","infreqPrac_resp","img/green_2bandit_b.png","68","68","prac","","","","","",""
"null","279014","pSARL_v2","pSARL_v28436cwl4","55ea70c37480920010aa9982","fixation","img/fixation.png","null","","prac","","","","","",""
"361","279376","pSARL_v2","pSARL_v28436cwl4","55ea70c37480920010aa9982","freqPrac","img/orange_2bandit_b2.png","70","70","prac","1","","","","",""
"361","279825","pSARL_v2","pSARL_v28436cwl4","55ea70c37480920010aa9982","freqPrac_resp","img/orange_2bandit_b.png","70","70","prac","","","","","",""
"null","279980","pSARL_v2","pSARL_v28436cwl4","55ea70c37480920010aa9982","fixation","img/fixation.png","null","","prac","","","","","",""
"295.8000000715256","280277","pSARL_v2","pSARL_v28436cwl4","55ea70c37480920010aa9982","freqPrac","img/orange_2bandit_b2.png","70","70","prac","1","","","","",""
"295.8000000715256","280788","pSARL_v2","pSARL_v28436cwl4","55ea70c37480920010aa9982","freqPrac_resp","img/orange_2bandit_b.png","70","70","prac","","","","","",""
"null","280947","pSARL_v2","pSARL_v28436cwl4","55ea70c37480920010aa9982","fixation","img/fixation.png","null","","prac","","","","","",""
"31377.200000047684","312325","pSARL_v2","pSARL_v28436cwl4","55ea70c37480920010aa9982","","","","","prac","","","","","",""
"673","313000","pSARL_v2","pSARL_v28436cwl4","55ea70c37480920010aa9982","rewardPractice","img/slot.png","74","","prac","","","","","",""
"null","313765","pSARL_v2","pSARL_v28436cwl4","55ea70c37480920010aa9982","feedback","<div class=""veryhighPoints""> +15 </div>","null","na","prac","","","","","",""
"null","313920","pSARL_v2","pSARL_v28436cwl4","55ea70c37480920010aa9982","fixation","img/fixation.png","null","","prac","","","","","",""
"28908","342829","pSARL_v2","pSARL_v28436cwl4","55ea70c37480920010aa9982","","","","","prac","","","","","",""
"635.7999999523163","343466","pSARL_v2","pSARL_v28436cwl4","55ea70c37480920010aa9982","freq","img/orange_2bandit_b2.png","68","70","test","0","1","1","1","",""
"null","343637","pSARL_v2","pSARL_v28436cwl4","55ea70c37480920010aa9982","freq_resp","img/orange_2bandit_b.png","68","70","test","","","","1","",""
"null","343792","pSARL_v2","pSARL_v28436cwl4","55ea70c37480920010aa9982","fixation","img/fixation.png","null","","test","","","","","",""
"502.5","344296","pSARL_v2","pSARL_v28436cwl4","55ea70c37480920010aa9982","freq","img/orange_2bandit_b2.png","70","70","test","1","2","2","1","",""
"null","344610","pSARL_v2","pSARL_v28436cwl4","55ea70c37480920010aa9982","freq_resp","img/orange_2bandit_b.png","70","70","test","","","","1","",""
"null","344766","pSARL_v2","pSARL_v28436cwl4","55ea70c37480920010aa9982","fixation","img/fixation.png","null","","test","","","","","",""
"391.10000002384186","345158","pSARL_v2","pSARL_v28436cwl4","55ea70c37480920010aa9982","infreq","img/green_2bandit_b2.png","68","68","test","1","3","3","1","",""
"null","345578","pSARL_v2","pSARL_v28436cwl4","55ea70c37480920010aa9982","infreq_resp","img/green_2bandit_b.png","68","68","test","","","","1","",""
"null","345734","pSARL_v2","pSARL_v28436cwl4","55ea70c37480920010aa9982","fixation","img/fixation.png","null","","test","","","","","",""
"362.8000000715256","346098","pSARL_v2","pSARL_v28436cwl4","55ea70c37480920010aa9982","freq","img/orange_2bandit_b2.png","70","70","test","1","4","4","1","",""
"null","346547","pSARL_v2","pSARL_v28436cwl4","55ea70c37480920010aa9982","freq_resp","img/orange_2bandit_b.png","70","70","test","","","","1","",""
"null","346703","pSARL_v2","pSARL_v28436cwl4","55ea70c37480920010aa9982","fixation","img/fixation.png","null","","test","","","","","",""
"296.89999997615814","347002","pSARL_v2","pSARL_v28436cwl4","55ea70c37480920010aa9982","freq","img/orange_2bandit_b2.png","70","70","test","1","5","5","1","",""
"null","347513","pSARL_v2","pSARL_v28436cwl4","55ea70c37480920010aa9982","freq_resp","img/orange_2bandit_b.png","70","70","test","","","","1","",""
"null","347669","pSARL_v2","pSARL_v28436cwl4","55ea70c37480920010aa9982","fixation","img/fixation.png","null","","test","","","","","",""
"312.10000002384186","347982","pSARL_v2","pSARL_v28436cwl4","55ea70c37480920010aa9982","freq","img/orange_2bandit_b2.png","70","70","test","1","6","6","1","",""
"null","348477","pSARL_v2","pSARL_v28436cwl4","55ea70c37480920010aa9982","freq_resp","img/orange_2bandit_b.png","70","70","test","","","","1","",""
"null","348631","pSARL_v2","pSARL_v28436cwl4","55ea70c37480920010aa9982","fixation","img/fixation.png","null","","test","","","","","",""
"344.7000000476837","348977","pSARL_v2","pSARL_v28436cwl4","55ea70c37480920010aa9982","infreq","img/green_2bandit_b2.png","68","68","test","1","7","7","1","",""
"null","349440","pSARL_v2","pSARL_v28436cwl4","55ea70c37480920010aa9982","infreq_resp","img/green_2bandit_b.png","68","68","test","","","","1","",""
"null","349596","pSARL_v2","pSARL_v28436cwl4","55ea70c37480920010aa9982","fixation","img/fixation.png","null","","test","","","","","",""
"299.10000002384186","349896","pSARL_v2","pSARL_v28436cwl4","55ea70c37480920010aa9982","freq","img/orange_2bandit_b2.png","70","70","test","1","8","8","1","",""
"null","350407","pSARL_v2","pSARL_v28436cwl4","55ea70c37480920010aa9982","freq_resp","img/orange_2bandit_b.png","70","70","test","","","","1","",""
"null","350561","pSARL_v2","pSARL_v28436cwl4","55ea70c37480920010aa9982","fixation","img/fixation.png","null","","test","","","","","",""
"282","350844","pSARL_v2","pSARL_v28436cwl4","55ea70c37480920010aa9982","freq","img/orange_2bandit_b2.png","70","70","test","1","9","9","1","",""
"null","351375","pSARL_v2","pSARL_v28436cwl4","55ea70c37480920010aa9982","freq_resp","img/orange_2bandit_b.png","70","70","test","","","","1","",""
"null","351529","pSARL_v2","pSARL_v28436cwl4","55ea70c37480920010aa9982","fixation","img/fixation.png","null","","test","","","","","",""
"281","351811","pSARL_v2","pSARL_v28436cwl4","55ea70c37480920010aa9982","freq","img/orange_2bandit_b2.png","70","70","test","1","10","10","1","",""
"null","352340","pSARL_v2","pSARL_v28436cwl4","55ea70c37480920010aa9982","freq_resp","img/orange_2bandit_b.png","70","70","test","","","","1","",""
"null","352495","pSARL_v2","pSARL_v28436cwl4","55ea70c37480920010aa9982","fixation","img/fixation.png","null","","test","","","","","",""
"283.8000000715256","352780","pSARL_v2","pSARL_v28436cwl4","55ea70c37480920010aa9982","freq","img/orange_2bandit_b2.png","70","70","test","1","11","11","1","",""
"null","353311","pSARL_v2","pSARL_v28436cwl4","55ea70c37480920010aa9982","freq_resp","img/orange_2bandit_b.png","70","70","test","","","","1","",""
"null","353466","pSARL_v2","pSARL_v28436cwl4","55ea70c37480920010aa9982","fixation","img/fixation.png","null","","test","","","","","",""
"268.5","353736","pSARL_v2","pSARL_v28436cwl4","55ea70c37480920010aa9982","freq","img/orange_2bandit_b2.png","70","70","test","1","12","12","1","",""
"null","354281","pSARL_v2","pSARL_v28436cwl4","55ea70c37480920010aa9982","freq_resp","img/orange_2bandit_b.png","70","70","test","","","","1","",""
"null","354436","pSARL_v2","pSARL_v28436cwl4","55ea70c37480920010aa9982","fixation","img/fixation.png","null","","test","","","","","",""
"266.5","354704","pSARL_v2","pSARL_v28436cwl4","55ea70c37480920010aa9982","freq","img/orange_2bandit_b2.png","70","70","test","1","13","13","1","",""
"null","355248","pSARL_v2","pSARL_v28436cwl4","55ea70c37480920010aa9982","freq_resp","img/orange_2bandit_b.png","70","70","test","","","","1","",""
"null","355402","pSARL_v2","pSARL_v28436cwl4","55ea70c37480920010aa9982","fixation","img/fixation.png","null","","test","","","","","",""
"249","355652","pSARL_v2","pSARL_v28436cwl4","55ea70c37480920010aa9982","freq","img/orange_2bandit_b2.png","70","70","test","1","14","14","1","",""
"null","356210","pSARL_v2","pSARL_v28436cwl4","55ea70c37480920010aa9982","freq_resp","img/orange_2bandit_b.png","70","70","test","","","","1","",""
"null","356368","pSARL_v2","pSARL_v28436cwl4","55ea70c37480920010aa9982","fixation","img/fixation.png","null","","test","","","","","",""
"217.79999995231628","356587","pSARL_v2","pSARL_v28436cwl4","55ea70c37480920010aa9982","freq","img/orange_2bandit_b2.png","70","70","test","1","15","15","1","",""
"null","357179","pSARL_v2","pSARL_v28436cwl4","55ea70c37480920010aa9982","freq_resp","img/orange_2bandit_b.png","70","70","test","","","","1","",""
"null","357333","pSARL_v2","pSARL_v28436cwl4","55ea70c37480920010aa9982","fixation","img/fixation.png","null","","test","","","","","",""
"235.60000002384186","357570","pSARL_v2","pSARL_v28436cwl4","55ea70c37480920010aa9982","freq","img/orange_2bandit_b2.png","70","70","test","1","16","16","1","",""
"null","358143","pSARL_v2","pSARL_v28436cwl4","55ea70c37480920010aa9982","freq_resp","img/orange_2bandit_b.png","70","70","test","","","","1","",""
"null","358299","pSARL_v2","pSARL_v28436cwl4","55ea70c37480920010aa9982","fixation","img/fixation.png","null","","test","","","","","",""
"204.10000002384186","358504","pSARL_v2","pSARL_v28436cwl4","55ea70c37480920010aa9982","infreq","img/green_2bandit_b2.png","70","68","test","0","17","17","1","",""
"null","359111","pSARL_v2","pSARL_v28436cwl4","55ea70c37480920010aa9982","infreq_resp","img/green_2bandit_b.png","70","68","test","","","","1","",""
"null","359268","pSARL_v2","pSARL_v28436cwl4","55ea70c37480920010aa9982","fixation","img/fixation.png","null","","test","","","","","",""
"452.39999997615814","359721","pSARL_v2","pSARL_v28436cwl4","55ea70c37480920010aa9982","freq","img/orange_2bandit_b2.png","70","70","test","1","18","18","1","",""
"null","360084","pSARL_v2","pSARL_v28436cwl4","55ea70c37480920010aa9982","freq_resp","img/orange_2bandit_b.png","70","70","test","","","","1","",""
"null","360238","pSARL_v2","pSARL_v28436cwl4","55ea70c37480920010aa9982","fixation","img/fixation.png","null","","test","","","","","",""
"328.7000000476837","360568","pSARL_v2","pSARL_v28436cwl4","55ea70c37480920010aa9982","freq","img/orange_2bandit_b2.png","70","70","test","1","19","19","1","",""
"null","361050","pSARL_v2","pSARL_v28436cwl4","55ea70c37480920010aa9982","freq_resp","img/orange_2bandit_b.png","70","70","test","","","","1","",""
"null","361206","pSARL_v2","pSARL_v28436cwl4","55ea70c37480920010aa9982","fixation","img/fixation.png","null","","test","","","","","",""
"284.2999999523163","361491","pSARL_v2","pSARL_v28436cwl4","55ea70c37480920010aa9982","freq","img/orange_2bandit_b2.png","70","70","test","1","20","20","1","",""
"null","362016","pSARL_v2","pSARL_v28436cwl4","55ea70c37480920010aa9982","freq_resp","img/orange_2bandit_b.png","70","70","test","","","","1","",""
"null","362169","pSARL_v2","pSARL_v28436cwl4","55ea70c37480920010aa9982","fixation","img/fixation.png","null","","test","","","","","",""
"532.6000000238419","362703","pSARL_v2","pSARL_v28436cwl4","55ea70c37480920010aa9982","reward","img/slot.png","74","","test","","","","","",""
"null","363464","pSARL_v2","pSARL_v28436cwl4","55ea70c37480920010aa9982","points","<div class=""verylowPoints""> -6 </div>","null","na","test","","","","1","-6","0"
"561.1000000238419","364027","pSARL_v2","pSARL_v28436cwl4","55ea70c37480920010aa9982","freq","img/orange_2bandit_b2.png","70","70","test","1","21","21","2","",""
"null","364274","pSARL_v2","pSARL_v28436cwl4","55ea70c37480920010aa9982","freq_resp","img/orange_2bandit_b.png","70","70","test","","","","2","",""
"null","364429","pSARL_v2","pSARL_v28436cwl4","55ea70c37480920010aa9982","fixation","img/fixation.png","null","","test","","","","","",""
"362","364792","pSARL_v2","pSARL_v28436cwl4","55ea70c37480920010aa9982","freq","img/orange_2bandit_b2.png","70","70","test","1","22","22","2","",""
"null","365238","pSARL_v2","pSARL_v28436cwl4","55ea70c37480920010aa9982","freq_resp","img/orange_2bandit_b.png","70","70","test","","","","2","",""
"null","365394","pSARL_v2","pSARL_v28436cwl4","55ea70c37480920010aa9982","fixation","img/fixation.png","null","","test","","","","","",""
"279.89999997615814","365675","pSARL_v2","pSARL_v28436cwl4","55ea70c37480920010aa9982","freq","img/orange_2bandit_b2.png","70","70","test","1","23","23","2","",""
"null","366202","pSARL_v2","pSARL_v28436cwl4","55ea70c37480920010aa9982","freq_resp","img/orange_2bandit_b.png","70","70","test","","","","2","",""
"null","366358","pSARL_v2","pSARL_v28436cwl4","55ea70c37480920010aa9982","fixation","img/fixation.png","null","","test","","","","","",""
"327.39999997615814","366687","pSARL_v2","pSARL_v28436cwl4","55ea70c37480920010aa9982","freq","img/orange_2bandit_b2.png","70","70","test","1","24","24","2","",""
"null","367166","pSARL_v2","pSARL_v28436cwl4","55ea70c37480920010aa9982","freq_resp","img/orange_2bandit_b.png","70","70","test","","","","2","",""
"null","367323","pSARL_v2","pSARL_v28436cwl4","55ea70c37480920010aa9982","fixation","img/fixation.png","null","","test","","","","","",""
"253.20000004768372","367577","pSARL_v2","pSARL_v28436cwl4","55ea70c37480920010aa9982","freq","img/orange_2bandit_b2.png","70","70","test","1","25","25","2","",""
"null","368133","pSARL_v2","pSARL_v28436cwl4","55ea70c37480920010aa9982","freq_resp","img/orange_2bandit_b.png","70","70","test","","","","2","",""
"null","368289","pSARL_v2","pSARL_v28436cwl4","55ea70c37480920010aa9982","fixation","img/fixation.png","null","","test","","","","","",""
"252.60000002384186","368543","pSARL_v2","pSARL_v28436cwl4","55ea70c37480920010aa9982","freq","img/orange_2bandit_b2.png","70","70","test","1","26","26","2","",""
"null","369102","pSARL_v2","pSARL_v28436cwl4","55ea70c37480920010aa9982","freq_resp","img/orange_2bandit_b.png","70","70","test","","","","2","",""
"null","369258","pSARL_v2","pSARL_v28436cwl4","55ea70c37480920010aa9982","fixation","img/fixation.png","null","","test","","","","","",""
"236.29999995231628","369495","pSARL_v2","pSARL_v28436cwl4","55ea70c37480920010aa9982","freq","img/orange_2bandit_b2.png","70","70","test","1","27","27","2","",""
"null","370070","pSARL_v2","pSARL_v28436cwl4","55ea70c37480920010aa9982","freq_resp","img/orange_2bandit_b.png","70","70","test","","","","2","",""
"null","370226","pSARL_v2","pSARL_v28436cwl4","55ea70c37480920010aa9982","fixation","img/fixation.png","null","","test","","","","","",""
"236.70000004768372","370465","pSARL_v2","pSARL_v28436cwl4","55ea70c37480920010aa9982","infreq","img/green_2bandit_b2.png","70","68","test","0","28","28","2","",""
"null","371038","pSARL_v2","pSARL_v28436cwl4","55ea70c37480920010aa9982","infreq_resp","img/green_2bandit_b.png","70","68","test","","","","2","",""
"null","371195","pSARL_v2","pSARL_v28436cwl4","55ea70c37480920010aa9982","fixation","img/fixation.png","null","","test","","","","","",""
"406.10000002384186","371602","pSARL_v2","pSARL_v28436cwl4","55ea70c37480920010aa9982","infreq","img/green_2bandit_b2.png","68","68","test","1","29","29","2","",""
"null","372007","pSARL_v2","pSARL_v28436cwl4","55ea70c37480920010aa9982","infreq_resp","img/green_2bandit_b.png","68","68","test","","","","2","",""
"null","372162","pSARL_v2","pSARL_v28436cwl4","55ea70c37480920010aa9982","fixation","img/fixation.png","null","","test","","","","","",""
"328.89999997615814","372492","pSARL_v2","pSARL_v28436cwl4","55ea70c37480920010aa9982","freq","img/orange_2bandit_b2.png","70","70","test","1","30","30","2","",""
"null","372971","pSARL_v2","pSARL_v28436cwl4","55ea70c37480920010aa9982","freq_resp","img/orange_2bandit_b.png","70","70","test","","","","2","",""
"null","373128","pSARL_v2","pSARL_v28436cwl4","55ea70c37480920010aa9982","fixation","img/fixation.png","null","","test","","","","","",""
"361.10000002384186","373490","pSARL_v2","pSARL_v28436cwl4","55ea70c37480920010aa9982","infreq","img/green_2bandit_b2.png","68","68","test","1","31","31","2","",""
"null","373939","pSARL_v2","pSARL_v28436cwl4","55ea70c37480920010aa9982","infreq_resp","img/green_2bandit_b.png","68","68","test","","","","2","",""
"null","374095","pSARL_v2","pSARL_v28436cwl4","55ea70c37480920010aa9982","fixation","img/fixation.png","null","","test","","","","","",""
"357.2000000476837","374453","pSARL_v2","pSARL_v28436cwl4","55ea70c37480920010aa9982","freq","img/orange_2bandit_b2.png","70","70","test","1","32","32","2","",""
"null","374906","pSARL_v2","pSARL_v28436cwl4","55ea70c37480920010aa9982","freq_resp","img/orange_2bandit_b.png","70","70","test","","","","2","",""
"null","375059","pSARL_v2","pSARL_v28436cwl4","55ea70c37480920010aa9982","fixation","img/fixation.png","null","","test","","","","","",""
"361.60000002384186","375422","pSARL_v2","pSARL_v28436cwl4","55ea70c37480920010aa9982","freq","img/orange_2bandit_b2.png","70","70","test","1","33","33","2","",""
"null","375875","pSARL_v2","pSARL_v28436cwl4","55ea70c37480920010aa9982","freq_resp","img/orange_2bandit_b.png","70","70","test","","","","2","",""
"null","376031","pSARL_v2","pSARL_v28436cwl4","55ea70c37480920010aa9982","fixation","img/fixation.png","null","","test","","","","","",""
"297.89999997615814","376330","pSARL_v2","pSARL_v28436cwl4","55ea70c37480920010aa9982","freq","img/orange_2bandit_b2.png","70","70","test","1","34","34","2","",""
"null","376844","pSARL_v2","pSARL_v28436cwl4","55ea70c37480920010aa9982","freq_resp","img/orange_2bandit_b.png","70","70","test","","","","2","",""
"null","376998","pSARL_v2","pSARL_v28436cwl4","55ea70c37480920010aa9982","fixation","img/fixation.png","null","","test","","","","","",""
"268.7999999523163","377268","pSARL_v2","pSARL_v28436cwl4","55ea70c37480920010aa9982","freq","img/orange_2bandit_b2.png","70","70","test","1","35","35","2","",""
"null","377811","pSARL_v2","pSARL_v28436cwl4","55ea70c37480920010aa9982","freq_resp","img/orange_2bandit_b.png","70","70","test","","","","2","",""
"null","377966","pSARL_v2","pSARL_v28436cwl4","55ea70c37480920010aa9982","fixation","img/fixation.png","null","","test","","","","","",""
"250.70000004768372","378218","pSARL_v2","pSARL_v28436cwl4","55ea70c37480920010aa9982","freq","img/orange_2bandit_b2.png","70","70","test","1","36","36","2","",""
"null","378774","pSARL_v2","pSARL_v28436cwl4","55ea70c37480920010aa9982","freq_resp","img/orange_2bandit_b.png","70","70","test","","","","2","",""
"null","378931","pSARL_v2","pSARL_v28436cwl4","55ea70c37480920010aa9982","fixation","img/fixation.png","null","","test","","","","","",""
"279.89999997615814","379212","pSARL_v2","pSARL_v28436cwl4","55ea70c37480920010aa9982","freq","img/orange_2bandit_b2.png","70","70","test","1","37","37","2","",""
"null","379740","pSARL_v2","pSARL_v28436cwl4","55ea70c37480920010aa9982","freq_resp","img/orange_2bandit_b.png","70","70","test","","","","2","",""
"null","379895","pSARL_v2","pSARL_v28436cwl4","55ea70c37480920010aa9982","fixation","img/fixation.png","null","","test","","","","","",""
"297.8000000715256","380194","pSARL_v2","pSARL_v28436cwl4","55ea70c37480920010aa9982","freq","img/orange_2bandit_b2.png","70","70","test","1","38","38","2","",""
"null","380710","pSARL_v2","pSARL_v28436cwl4","55ea70c37480920010aa9982","freq_resp","img/orange_2bandit_b.png","70","70","test","","","","2","",""
"null","380865","pSARL_v2","pSARL_v28436cwl4","55ea70c37480920010aa9982","fixation","img/fixation.png","null","","test","","","","","",""
"283.60000002384186","381150","pSARL_v2","pSARL_v28436cwl4","55ea70c37480920010aa9982","freq","img/orange_2bandit_b2.png","70","70","test","1","39","39","2","",""
"null","381676","pSARL_v2","pSARL_v28436cwl4","55ea70c37480920010aa9982","freq_resp","img/orange_2bandit_b.png","70","70","test","","","","2","",""
"null","381832","pSARL_v2","pSARL_v28436cwl4","55ea70c37480920010aa9982","fixation","img/fixation.png","null","","test","","","","","",""
"266","382099","pSARL_v2","pSARL_v28436cwl4","55ea70c37480920010aa9982","freq","img/orange_2bandit_b2.png","70","70","test","1","40","40","2","",""
"null","382642","pSARL_v2","pSARL_v28436cwl4","55ea70c37480920010aa9982","freq_resp","img/orange_2bandit_b.png","70","70","test","","","","2","",""
"null","382796","pSARL_v2","pSARL_v28436cwl4","55ea70c37480920010aa9982","fixation","img/fixation.png","null","","test","","","","","",""
"282.7999999523163","383080","pSARL_v2","pSARL_v28436cwl4","55ea70c37480920010aa9982","freq","img/orange_2bandit_b2.png","70","70","test","1","41","41","2","",""
"null","383608","pSARL_v2","pSARL_v28436cwl4","55ea70c37480920010aa9982","freq_resp","img/orange_2bandit_b.png","70","70","test","","","","2","",""
"null","383764","pSARL_v2","pSARL_v28436cwl4","55ea70c37480920010aa9982","fixation","img/fixation.png","null","","test","","","","","",""
"268.89999997615814","384034","pSARL_v2","pSARL_v28436cwl4","55ea70c37480920010aa9982","freq","img/orange_2bandit_b2.png","70","70","test","1","42","42","2","",""
"null","384580","pSARL_v2","pSARL_v28436cwl4","55ea70c37480920010aa9982","freq_resp","img/orange_2bandit_b.png","70","70","test","","","","2","",""
"null","384736","pSARL_v2","pSARL_v28436cwl4","55ea70c37480920010aa9982","fixation","img/fixation.png","null","","test","","","","","",""
"443.2999999523163","385180","pSARL_v2","pSARL_v28436cwl4","55ea70c37480920010aa9982","reward","img/slot.png","74","","test","","","","","",""
"null","385946","pSARL_v2","pSARL_v28436cwl4","55ea70c37480920010aa9982","points","<div class=""verylowPoints""> -11 </div>","null","na","test","","","","2","-11","1"
"344","386291","pSARL_v2","pSARL_v28436cwl4","55ea70c37480920010aa9982","freq","img/orange_2bandit_b2.png","70","70","test","1","43","43","3","",""
"null","386754","pSARL_v2","pSARL_v28436cwl4","55ea70c37480920010aa9982","freq_resp","img/orange_2bandit_b.png","70","70","test","","","","3","",""
"null","386909","pSARL_v2","pSARL_v28436cwl4","55ea70c37480920010aa9982","fixation","img/fixation.png","null","","test","","","","","",""
"299.7999999523163","387210","pSARL_v2","pSARL_v28436cwl4","55ea70c37480920010aa9982","freq","img/orange_2bandit_b2.png","70","70","test","1","44","44","3","",""
"null","387723","pSARL_v2","pSARL_v28436cwl4","55ea70c37480920010aa9982","freq_resp","img/orange_2bandit_b.png","70","70","test","","","","3","",""
"null","387881","pSARL_v2","pSARL_v28436cwl4","55ea70c37480920010aa9982","fixation","img/fixation.png","null","","test","","","","","",""
"264.2999999523163","388147","pSARL_v2","pSARL_v28436cwl4","55ea70c37480920010aa9982","freq","img/orange_2bandit_b2.png","70","70","test","1","45","45","3","",""
"null","388688","pSARL_v2","pSARL_v28436cwl4","55ea70c37480920010aa9982","freq_resp","img/orange_2bandit_b.png","70","70","test","","","","3","",""
"null","388843","pSARL_v2","pSARL_v28436cwl4","55ea70c37480920010aa9982","fixation","img/fixation.png","null","","test","","","","","",""
"250.20000004768372","389094","pSARL_v2","pSARL_v28436cwl4","55ea70c37480920010aa9982","freq","img/orange_2bandit_b2.png","70","70","test","1","46","46","3","",""
"null","389654","pSARL_v2","pSARL_v28436cwl4","55ea70c37480920010aa9982","freq_resp","img/orange_2bandit_b.png","70","70","test","","","","3","",""
"null","389810","pSARL_v2","pSARL_v28436cwl4","55ea70c37480920010aa9982","fixation","img/fixation.png","null","","test","","","","","",""
"283.6999999284744","390095","pSARL_v2","pSARL_v28436cwl4","55ea70c37480920010aa9982","freq","img/orange_2bandit_b2.png","70","70","test","1","47","47","3","",""
"null","390620","pSARL_v2","pSARL_v28436cwl4","55ea70c37480920010aa9982","freq_resp","img/orange_2bandit_b.png","70","70","test","","","","3","",""
"null","390776","pSARL_v2","pSARL_v28436cwl4","55ea70c37480920010aa9982","fixation","img/fixation.png","null","","test","","","","","",""
"361.10000002384186","391138","pSARL_v2","pSARL_v28436cwl4","55ea70c37480920010aa9982","infreq","img/green_2bandit_b2.png","68","68","test","1","48","48","3","",""
"null","391588","pSARL_v2","pSARL_v28436cwl4","55ea70c37480920010aa9982","infreq_resp","img/green_2bandit_b.png","68","68","test","","","","3","",""
"null","391746","pSARL_v2","pSARL_v28436cwl4","55ea70c37480920010aa9982","fixation","img/fixation.png","null","","test","","","","","",""
"375","392122","pSARL_v2","pSARL_v28436cwl4","55ea70c37480920010aa9982","freq","img/orange_2bandit_b2.png","70","70","test","1","49","49","3","",""
"null","392557","pSARL_v2","pSARL_v28436cwl4","55ea70c37480920010aa9982","freq_resp","img/orange_2bandit_b.png","70","70","test","","","","3","",""
"null","392715","pSARL_v2","pSARL_v28436cwl4","55ea70c37480920010aa9982","fixation","img/fixation.png","null","","test","","","","","",""
"390","393106","pSARL_v2","pSARL_v28436cwl4","55ea70c37480920010aa9982","infreq","img/green_2bandit_b2.png","68","68","test","1","50","50","3","",""
"null","393527","pSARL_v2","pSARL_v28436cwl4","55ea70c37480920010aa9982","infreq_resp","img/green_2bandit_b.png","68","68","test","","","","3","",""
"null","393682","pSARL_v2","pSARL_v28436cwl4","55ea70c37480920010aa9982","fixation","img/fixation.png","null","","test","","","","","",""
"332.89999997615814","394016","pSARL_v2","pSARL_v28436cwl4","55ea70c37480920010aa9982","freq","img/orange_2bandit_b2.png","70","70","test","1","51","51","3","",""
"null","394497","pSARL_v2","pSARL_v28436cwl4","55ea70c37480920010aa9982","freq_resp","img/orange_2bandit_b.png","70","70","test","","","","3","",""
"null","394654","pSARL_v2","pSARL_v28436cwl4","55ea70c37480920010aa9982","fixation","img/fixation.png","null","","test","","","","","",""
"268.10000002384186","394923","pSARL_v2","pSARL_v28436cwl4","55ea70c37480920010aa9982","freq","img/orange_2bandit_b2.png","70","70","test","1","52","52","3","",""
"null","395468","pSARL_v2","pSARL_v28436cwl4","55ea70c37480920010aa9982","freq_resp","img/orange_2bandit_b.png","70","70","test","","","","3","",""
"null","395626","pSARL_v2","pSARL_v28436cwl4","55ea70c37480920010aa9982","fixation","img/fixation.png","null","","test","","","","","",""
"235","395862","pSARL_v2","pSARL_v28436cwl4","55ea70c37480920010aa9982","freq","img/orange_2bandit_b2.png","70","70","test","1","53","53","3","",""
"null","396439","pSARL_v2","pSARL_v28436cwl4","55ea70c37480920010aa9982","freq_resp","img/orange_2bandit_b.png","70","70","test","","","","3","",""
"null","396597","pSARL_v2","pSARL_v28436cwl4","55ea70c37480920010aa9982","fixation","img/fixation.png","null","","test","","","","","",""
"221.89999997615814","396820","pSARL_v2","pSARL_v28436cwl4","55ea70c37480920010aa9982","freq","img/orange_2bandit_b2.png","70","70","test","1","54","54","3","",""
"null","397401","pSARL_v2","pSARL_v28436cwl4","55ea70c37480920010aa9982","freq_resp","img/orange_2bandit_b.png","70","70","test","","","","3","",""
"null","397558","pSARL_v2","pSARL_v28436cwl4","55ea70c37480920010aa9982","fixation","img/fixation.png","null","","test","","","","","",""
"236.29999995231628","397795","pSARL_v2","pSARL_v28436cwl4","55ea70c37480920010aa9982","freq","img/orange_2bandit_b2.png","70","70","test","1","55","55","3","",""
"null","398373","pSARL_v2","pSARL_v28436cwl4","55ea70c37480920010aa9982","freq_resp","img/orange_2bandit_b.png","70","70","test","","","","3","",""
"null","398526","pSARL_v2","pSARL_v28436cwl4","55ea70c37480920010aa9982","fixation","img/fixation.png","null","","test","","","","","",""
"234","398761","pSARL_v2","pSARL_v28436cwl4","55ea70c37480920010aa9982","freq","img/orange_2bandit_b2.png","70","70","test","1","56","56","3","",""
"null","399341","pSARL_v2","pSARL_v28436cwl4","55ea70c37480920010aa9982","freq_resp","img/orange_2bandit_b.png","70","70","test","","","","3","",""
"null","399497","pSARL_v2","pSARL_v28436cwl4","55ea70c37480920010aa9982","fixation","img/fixation.png","null","","test","","","","","",""
"254.29999995231628","399753","pSARL_v2","pSARL_v28436cwl4","55ea70c37480920010aa9982","freq","img/orange_2bandit_b2.png","70","70","test","1","57","57","3","",""
"null","400313","pSARL_v2","pSARL_v28436cwl4","55ea70c37480920010aa9982","freq_resp","img/orange_2bandit_b.png","70","70","test","","","","3","",""
"null","400468","pSARL_v2","pSARL_v28436cwl4","55ea70c37480920010aa9982","fixation","img/fixation.png","null","","test","","","","","",""
"268","400737","pSARL_v2","pSARL_v28436cwl4","55ea70c37480920010aa9982","freq","img/orange_2bandit_b2.png","70","70","test","1","58","58","3","",""
"null","401280","pSARL_v2","pSARL_v28436cwl4","55ea70c37480920010aa9982","freq_resp","img/orange_2bandit_b.png","70","70","test","","","","3","",""
"null","401436","pSARL_v2","pSARL_v28436cwl4","55ea70c37480920010aa9982","fixation","img/fixation.png","null","","test","","","","","",""
"236.80000007152557","401674","pSARL_v2","pSARL_v28436cwl4","55ea70c37480920010aa9982","freq","img/orange_2bandit_b2.png","70","70","test","1","59","59","3","",""
"null","402250","pSARL_v2","pSARL_v28436cwl4","55ea70c37480920010aa9982","freq_resp","img/orange_2bandit_b.png","70","70","test","","","","3","",""
"null","402407","pSARL_v2","pSARL_v28436cwl4","55ea70c37480920010aa9982","fixation","img/fixation.png","null","","test","","","","","",""
"202.89999997615814","402611","pSARL_v2","pSARL_v28436cwl4","55ea70c37480920010aa9982","freq","img/orange_2bandit_b2.png","70","70","test","1","60","60","3","",""
"null","403217","pSARL_v2","pSARL_v28436cwl4","55ea70c37480920010aa9982","freq_resp","img/orange_2bandit_b.png","70","70","test","","","","3","",""
"null","403371","pSARL_v2","pSARL_v28436cwl4","55ea70c37480920010aa9982","fixation","img/fixation.png","null","","test","","","","","",""
"301","403673","pSARL_v2","pSARL_v28436cwl4","55ea70c37480920010aa9982","freq","img/orange_2bandit_b2.png","70","70","test","1","61","61","3","",""
"null","404187","pSARL_v2","pSARL_v28436cwl4","55ea70c37480920010aa9982","freq_resp","img/orange_2bandit_b.png","70","70","test","","","","3","",""
"null","404344","pSARL_v2","pSARL_v28436cwl4","55ea70c37480920010aa9982","fixation","img/fixation.png","null","","test","","","","","",""
"329.39999997615814","404675","pSARL_v2","pSARL_v28436cwl4","55ea70c37480920010aa9982","freq","img/orange_2bandit_b2.png","70","70","test","1","62","62","3","",""
"null","405159","pSARL_v2","pSARL_v28436cwl4","55ea70c37480920010aa9982","freq_resp","img/orange_2bandit_b.png","70","70","test","","","","3","",""
"null","405316","pSARL_v2","pSARL_v28436cwl4","55ea70c37480920010aa9982","fixation","img/fixation.png","null","","test","","","","","",""
"396.2999999523163","405714","pSARL_v2","pSARL_v28436cwl4","55ea70c37480920010aa9982","freq","img/orange_2bandit_b2.png","70","70","test","1","63","63","3","",""
"null","406122","pSARL_v2","pSARL_v28436cwl4","55ea70c37480920010aa9982","freq_resp","img/orange_2bandit_b.png","70","70","test","","","","3","",""
"null","406277","pSARL_v2","pSARL_v28436cwl4","55ea70c37480920010aa9982","fixation","img/fixation.png","null","","test","","","","","",""
"613.8999999761581","406892","pSARL_v2","pSARL_v28436cwl4","55ea70c37480920010aa9982","freq","img/orange_2bandit_b2.png","70","70","test","1","64","64","3","",""
"null","407094","pSARL_v2","pSARL_v28436cwl4","55ea70c37480920010aa9982","freq_resp","img/orange_2bandit_b.png","70","70","test","","","","3","",""
"null","407250","pSARL_v2","pSARL_v28436cwl4","55ea70c37480920010aa9982","fixation","img/fixation.png","null","","test","","","","","",""
"514.1000000238419","407765","pSARL_v2","pSARL_v28436cwl4","55ea70c37480920010aa9982","freq","img/orange_2bandit_b2.png","70","70","test","1","65","65","3","",""
"null","408060","pSARL_v2","pSARL_v28436cwl4","55ea70c37480920010aa9982","freq_resp","img/orange_2bandit_b.png","70","70","test","","","","3","",""
"null","408214","pSARL_v2","pSARL_v28436cwl4","55ea70c37480920010aa9982","fixation","img/fixation.png","null","","test","","","","","",""
"null","409028","pSARL_v2","pSARL_v28436cwl4","55ea70c37480920010aa9982","freq","img/orange_2bandit_b2.png","null","70","test","0","66","66","3","",""
"null","409184","pSARL_v2","pSARL_v28436cwl4","55ea70c37480920010aa9982","fixation","img/fixation.png","null","","test","","","","","",""
"1071","410256","pSARL_v2","pSARL_v28436cwl4","55ea70c37480920010aa9982","reward","img/slot.png","74","","test","","","","","",""
"null","411015","pSARL_v2","pSARL_v28436cwl4","55ea70c37480920010aa9982","points","<div class=""verylowPoints""> -7 </div>","null","na","test","","","","3","-7","2"
"null","411824","pSARL_v2","pSARL_v28436cwl4","55ea70c37480920010aa9982","freq","img/orange_2bandit_b2.png","null","70","test","0","67","67","4","",""
"null","411980","pSARL_v2","pSARL_v28436cwl4","55ea70c37480920010aa9982","fixation","img/fixation.png","null","","test","","","","","",""
"268.10000002384186","412249","pSARL_v2","pSARL_v28436cwl4","55ea70c37480920010aa9982","freq","img/orange_2bandit_b2.png","70","70","test","1","68","68","4","",""
"null","412790","pSARL_v2","pSARL_v28436cwl4","55ea70c37480920010aa9982","freq_resp","img/orange_2bandit_b.png","70","70","test","","","","4","",""
"null","412945","pSARL_v2","pSARL_v28436cwl4","55ea70c37480920010aa9982","fixation","img/fixation.png","null","","test","","","","","",""
"235.39999997615814","413182","pSARL_v2","pSARL_v28436cwl4","55ea70c37480920010aa9982","freq","img/orange_2bandit_b2.png","70","70","test","1","69","69","4","",""
"null","413755","pSARL_v2","pSARL_v28436cwl4","55ea70c37480920010aa9982","freq_resp","img/orange_2bandit_b.png","70","70","test","","","","4","",""
"null","413910","pSARL_v2","pSARL_v28436cwl4","55ea70c37480920010aa9982","fixation","img/fixation.png","null","","test","","","","","",""
"234.89999997615814","414146","pSARL_v2","pSARL_v28436cwl4","55ea70c37480920010aa9982","infreq","img/green_2bandit_b2.png","70","68","test","0","70","70","4","",""
"null","414723","pSARL_v2","pSARL_v28436cwl4","55ea70c37480920010aa9982","infreq_resp","img/green_2bandit_b.png","70","68","test","","","","4","",""
"null","414880","pSARL_v2","pSARL_v28436cwl4","55ea70c37480920010aa9982","fixation","img/fixation.png","null","","test","","","","","",""
"344","415225","pSARL_v2","pSARL_v28436cwl4","55ea70c37480920010aa9982","freq","img/orange_2bandit_b2.png","70","70","test","1","71","71","4","",""
"null","415690","pSARL_v2","pSARL_v28436cwl4","55ea70c37480920010aa9982","freq_resp","img/orange_2bandit_b.png","70","70","test","","","","4","",""
"null","415845","pSARL_v2","pSARL_v28436cwl4","55ea70c37480920010aa9982","fixation","img/fixation.png","null","","test","","","","","",""
"null","416653","pSARL_v2","pSARL_v28436cwl4","55ea70c37480920010aa9982","freq","img/orange_2bandit_b2.png","null","70","test","0","72","72","4","",""
"null","416811","pSARL_v2","pSARL_v28436cwl4","55ea70c37480920010aa9982","fixation","img/fixation.png","null","","test","","","","","",""
"345","417157","pSARL_v2","pSARL_v28436cwl4","55ea70c37480920010aa9982","freq","img/orange_2bandit_b2.png","70","70","test","1","73","73","4","",""
"null","417623","pSARL_v2","pSARL_v28436cwl4","55ea70c37480920010aa9982","freq_resp","img/orange_2bandit_b.png","70","70","test","","","","4","",""
"null","417779","pSARL_v2","pSARL_v28436cwl4","55ea70c37480920010aa9982","fixation","img/fixation.png","null","","test","","","","","",""
"406.60000002384186","418187","pSARL_v2","pSARL_v28436cwl4","55ea70c37480920010aa9982","freq","img/orange_2bandit_b2.png","70","70","test","1","74","74","4","",""
"null","418590","pSARL_v2","pSARL_v28436cwl4","55ea70c37480920010aa9982","freq_resp","img/orange_2bandit_b.png","70","70","test","","","","4","",""
"null","418744","pSARL_v2","pSARL_v28436cwl4","55ea70c37480920010aa9982","fixation","img/fixation.png","null","","test","","","","","",""
"343.7999999523163","419089","pSARL_v2","pSARL_v28436cwl4","55ea70c37480920010aa9982","freq","img/orange_2bandit_b2.png","70","70","test","1","75","75","4","",""
"null","419555","pSARL_v2","pSARL_v28436cwl4","55ea70c37480920010aa9982","freq_resp","img/orange_2bandit_b.png","70","70","test","","","","4","",""
"null","419713","pSARL_v2","pSARL_v28436cwl4","55ea70c37480920010aa9982","fixation","img/fixation.png","null","","test","","","","","",""
"249.29999995231628","419964","pSARL_v2","pSARL_v28436cwl4","55ea70c37480920010aa9982","freq","img/orange_2bandit_b2.png","70","70","test","1","76","76","4","",""
"null","420520","pSARL_v2","pSARL_v28436cwl4","55ea70c37480920010aa9982","freq_resp","img/orange_2bandit_b.png","70","70","test","","","","4","",""
"null","420677","pSARL_v2","pSARL_v28436cwl4","55ea70c37480920010aa9982","fixation","img/fixation.png","null","","test","","","","","",""
"201.79999995231628","420880","pSARL_v2","pSARL_v28436cwl4","55ea70c37480920010aa9982","infreq","img/green_2bandit_b2.png","70","68","test","0","77","77","4","",""
"null","421486","pSARL_v2","pSARL_v28436cwl4","55ea70c37480920010aa9982","infreq_resp","img/green_2bandit_b.png","70","68","test","","","","4","",""
"null","421643","pSARL_v2","pSARL_v28436cwl4","55ea70c37480920010aa9982","fixation","img/fixation.png","null","","test","","","","","",""
"329","421973","pSARL_v2","pSARL_v28436cwl4","55ea70c37480920010aa9982","infreq","img/green_2bandit_b2.png","68","68","test","1","78","78","4","",""
"null","422456","pSARL_v2","pSARL_v28436cwl4","55ea70c37480920010aa9982","infreq_resp","img/green_2bandit_b.png","68","68","test","","","","4","",""
"null","422615","pSARL_v2","pSARL_v28436cwl4","55ea70c37480920010aa9982","fixation","img/fixation.png","null","","test","","","","","",""
"359.7000000476837","422976","pSARL_v2","pSARL_v28436cwl4","55ea70c37480920010aa9982","freq","img/orange_2bandit_b2.png","70","70","test","1","79","79","4","",""
"null","423425","pSARL_v2","pSARL_v28436cwl4","55ea70c37480920010aa9982","freq_resp","img/orange_2bandit_b.png","70","70","test","","","","4","",""
"null","423583","pSARL_v2","pSARL_v28436cwl4","55ea70c37480920010aa9982","fixation","img/fixation.png","null","","test","","","","","",""
"248.39999997615814","423833","pSARL_v2","pSARL_v28436cwl4","55ea70c37480920010aa9982","freq","img/orange_2bandit_b2.png","70","70","test","1","80","80","4","",""
"null","424394","pSARL_v2","pSARL_v28436cwl4","55ea70c37480920010aa9982","freq_resp","img/orange_2bandit_b.png","70","70","test","","","","4","",""
"null","424550","pSARL_v2","pSARL_v28436cwl4","55ea70c37480920010aa9982","fixation","img/fixation.png","null","","test","","","","","",""
"205.60000002384186","424756","pSARL_v2","pSARL_v28436cwl4","55ea70c37480920010aa9982","freq","img/orange_2bandit_b2.png","70","70","test","1","81","81","4","",""
"null","425353","pSARL_v2","pSARL_v28436cwl4","55ea70c37480920010aa9982","freq_resp","img/orange_2bandit_b.png","70","70","test","","","","4","",""
"null","425510","pSARL_v2","pSARL_v28436cwl4","55ea70c37480920010aa9982","fixation","img/fixation.png","null","","test","","","","","",""
"188.5","425700","pSARL_v2","pSARL_v28436cwl4","55ea70c37480920010aa9982","freq","img/orange_2bandit_b2.png","70","70","test","1","82","82","4","",""
"null","426315","pSARL_v2","pSARL_v28436cwl4","55ea70c37480920010aa9982","freq_resp","img/orange_2bandit_b.png","70","70","test","","","","4","",""
"null","426472","pSARL_v2","pSARL_v28436cwl4","55ea70c37480920010aa9982","fixation","img/fixation.png","null","","test","","","","","",""
"142.5","426615","pSARL_v2","pSARL_v28436cwl4","55ea70c37480920010aa9982","freq","img/orange_2bandit_b2.png","70","70","test","1","83","83","4","",""
"null","427283","pSARL_v2","pSARL_v28436cwl4","55ea70c37480920010aa9982","freq_resp","img/orange_2bandit_b.png","70","70","test","","","","4","",""
"null","427437","pSARL_v2","pSARL_v28436cwl4","55ea70c37480920010aa9982","fixation","img/fixation.png","null","","test","","","","","",""
"189","427627","pSARL_v2","pSARL_v28436cwl4","55ea70c37480920010aa9982","freq","img/orange_2bandit_b2.png","70","70","test","1","84","84","4","",""
"null","428250","pSARL_v2","pSARL_v28436cwl4","55ea70c37480920010aa9982","freq_resp","img/orange_2bandit_b.png","70","70","test","","","","4","",""
"null","428406","pSARL_v2","pSARL_v28436cwl4","55ea70c37480920010aa9982","fixation","img/fixation.png","null","","test","","","","","",""
"140","428548","pSARL_v2","pSARL_v28436cwl4","55ea70c37480920010aa9982","freq","img/orange_2bandit_b2.png","70","70","test","1","85","85","4","",""
"null","429216","pSARL_v2","pSARL_v28436cwl4","55ea70c37480920010aa9982","freq_resp","img/orange_2bandit_b.png","70","70","test","","","","4","",""
"null","429372","pSARL_v2","pSARL_v28436cwl4","55ea70c37480920010aa9982","fixation","img/fixation.png","null","","test","","","","","",""
"141.5","429514","pSARL_v2","pSARL_v28436cwl4","55ea70c37480920010aa9982","freq","img/orange_2bandit_b2.png","70","70","test","1","86","86","4","",""
"null","430185","pSARL_v2","pSARL_v28436cwl4","55ea70c37480920010aa9982","freq_resp","img/orange_2bandit_b.png","70","70","test","","","","4","",""
"null","430342","pSARL_v2","pSARL_v28436cwl4","55ea70c37480920010aa9982","fixation","img/fixation.png","null","","test","","","","","",""
"468.10000002384186","430811","pSARL_v2","pSARL_v28436cwl4","55ea70c37480920010aa9982","reward","img/slot.png","74","","test","","","","","",""
"null","431574","pSARL_v2","pSARL_v28436cwl4","55ea70c37480920010aa9982","points","<div class=""verylowPoints""> -3 </div>","null","na","test","","","","4","-3","3"
"408.10000002384186","431984","pSARL_v2","pSARL_v28436cwl4","55ea70c37480920010aa9982","freq","img/orange_2bandit_b2.png","70","70","test","1","87","87","5","",""
"null","432386","pSARL_v2","pSARL_v28436cwl4","55ea70c37480920010aa9982","freq_resp","img/orange_2bandit_b.png","70","70","test","","","","5","",""
"null","432545","pSARL_v2","pSARL_v28436cwl4","55ea70c37480920010aa9982","fixation","img/fixation.png","null","","test","","","","","",""
"326.89999997615814","432873","pSARL_v2","pSARL_v28436cwl4","55ea70c37480920010aa9982","freq","img/orange_2bandit_b2.png","70","70","test","1","88","88","5","",""
"null","433354","pSARL_v2","pSARL_v28436cwl4","55ea70c37480920010aa9982","freq_resp","img/orange_2bandit_b.png","70","70","test","","","","5","",""
"null","433509","pSARL_v2","pSARL_v28436cwl4","55ea70c37480920010aa9982","fixation","img/fixation.png","null","","test","","","","","",""
"265.8000000715256","433776","pSARL_v2","pSARL_v28436cwl4","55ea70c37480920010aa9982","infreq","img/green_2bandit_b2.png","70","68","test","0","89","89","5","",""
"null","434320","pSARL_v2","pSARL_v28436cwl4","55ea70c37480920010aa9982","infreq_resp","img/green_2bandit_b.png","70","68","test","","","","5","",""
"null","434476","pSARL_v2","pSARL_v28436cwl4","55ea70c37480920010aa9982","fixation","img/fixation.png","null","","test","","","","","",""
"296.39999997615814","434773","pSARL_v2","pSARL_v28436cwl4","55ea70c37480920010aa9982","freq","img/orange_2bandit_b2.png","70","70","test","1","90","90","5","",""
"null","435288","pSARL_v2","pSARL_v28436cwl4","55ea70c37480920010aa9982","freq_resp","img/orange_2bandit_b.png","70","70","test","","","","5","",""
"null","435443","pSARL_v2","pSARL_v28436cwl4","55ea70c37480920010aa9982","fixation","img/fixation.png","null","","test","","","","","",""
"251.60000002384186","435696","pSARL_v2","pSARL_v28436cwl4","55ea70c37480920010aa9982","freq","img/orange_2bandit_b2.png","70","70","test","1","91","91","5","",""
"null","436253","pSARL_v2","pSARL_v28436cwl4","55ea70c37480920010aa9982","freq_resp","img/orange_2bandit_b.png","70","70","test","","","","5","",""
"null","436410","pSARL_v2","pSARL_v28436cwl4","55ea70c37480920010aa9982","fixation","img/fixation.png","null","","test","","","","","",""
"329.1999999284744","436741","pSARL_v2","pSARL_v28436cwl4","55ea70c37480920010aa9982","freq","img/orange_2bandit_b2.png","70","70","test","1","92","92","5","",""
"null","437221","pSARL_v2","pSARL_v28436cwl4","55ea70c37480920010aa9982","freq_resp","img/orange_2bandit_b.png","70","70","test","","","","5","",""
"null","437377","pSARL_v2","pSARL_v28436cwl4","55ea70c37480920010aa9982","fixation","img/fixation.png","null","","test","","","","","",""
"253.09999990463257","437632","pSARL_v2","pSARL_v28436cwl4","55ea70c37480920010aa9982","freq","img/orange_2bandit_b2.png","70","70","test","1","93","93","5","",""
"null","438189","pSARL_v2","pSARL_v28436cwl4","55ea70c37480920010aa9982","freq_resp","img/orange_2bandit_b.png","70","70","test","","","","5","",""
"null","438342","pSARL_v2","pSARL_v28436cwl4","55ea70c37480920010aa9982","fixation","img/fixation.png","null","","test","","","","","",""
"234.29999995231628","438577","pSARL_v2","pSARL_v28436cwl4","55ea70c37480920010aa9982","freq","img/orange_2bandit_b2.png","70","70","test","1","94","94","5","",""
"null","439153","pSARL_v2","pSARL_v28436cwl4","55ea70c37480920010aa9982","freq_resp","img/orange_2bandit_b.png","70","70","test","","","","5","",""
"null","439308","pSARL_v2","pSARL_v28436cwl4","55ea70c37480920010aa9982","fixation","img/fixation.png","null","","test","","","","","",""
"233.89999997615814","439543","pSARL_v2","pSARL_v28436cwl4","55ea70c37480920010aa9982","freq","img/orange_2bandit_b2.png","70","70","test","1","95","95","5","",""
"null","440117","pSARL_v2","pSARL_v28436cwl4","55ea70c37480920010aa9982","freq_resp","img/orange_2bandit_b.png","70","70","test","","","","5","",""
"null","440274","pSARL_v2","pSARL_v28436cwl4","55ea70c37480920010aa9982","fixation","img/fixation.png","null","","test","","","","","",""
"266.5","440542","pSARL_v2","pSARL_v28436cwl4","55ea70c37480920010aa9982","freq","img/orange_2bandit_b2.png","70","70","test","1","96","96","5","",""
"null","441087","pSARL_v2","pSARL_v28436cwl4","55ea70c37480920010aa9982","freq_resp","img/orange_2bandit_b.png","70","70","test","","","","5","",""
"null","441245","pSARL_v2","pSARL_v28436cwl4","55ea70c37480920010aa9982","fixation","img/fixation.png","null","","test","","","","","",""
"252.10000002384186","441498","pSARL_v2","pSARL_v28436cwl4","55ea70c37480920010aa9982","freq","img/orange_2bandit_b2.png","70","70","test","1","97","97","5","",""
"null","442060","pSARL_v2","pSARL_v28436cwl4","55ea70c37480920010aa9982","freq_resp","img/orange_2bandit_b.png","70","70","test","","","","5","",""
"null","442215","pSARL_v2","pSARL_v28436cwl4","55ea70c37480920010aa9982","fixation","img/fixation.png","null","","test","","","","","",""
"264.2999999523163","442481","pSARL_v2","pSARL_v28436cwl4","55ea70c37480920010aa9982","freq","img/orange_2bandit_b2.png","70","70","test","1","98","98","5","",""
"null","443022","pSARL_v2","pSARL_v28436cwl4","55ea70c37480920010aa9982","freq_resp","img/orange_2bandit_b.png","70","70","test","","","","5","",""
"null","443177","pSARL_v2","pSARL_v28436cwl4","55ea70c37480920010aa9982","fixation","img/fixation.png","null","","test","","","","","",""
"267.39999997615814","443445","pSARL_v2","pSARL_v28436cwl4","55ea70c37480920010aa9982","freq","img/orange_2bandit_b2.png","70","70","test","1","99","99","5","",""
"null","443988","pSARL_v2","pSARL_v28436cwl4","55ea70c37480920010aa9982","freq_resp","img/orange_2bandit_b.png","70","70","test","","","","5","",""
"null","444144","pSARL_v2","pSARL_v28436cwl4","55ea70c37480920010aa9982","fixation","img/fixation.png","null","","test","","","","","",""
"265.39999997615814","444411","pSARL_v2","pSARL_v28436cwl4","55ea70c37480920010aa9982","freq","img/orange_2bandit_b2.png","70","70","test","1","100","100","5","",""
"null","444952","pSARL_v2","pSARL_v28436cwl4","55ea70c37480920010aa9982","freq_resp","img/orange_2bandit_b.png","70","70","test","","","","5","",""
"null","445107","pSARL_v2","pSARL_v28436cwl4","55ea70c37480920010aa9982","fixation","img/fixation.png","null","","test","","","","","",""
"248.29999995231628","445357","pSARL_v2","pSARL_v28436cwl4","55ea70c37480920010aa9982","freq","img/orange_2bandit_b2.png","70","70","test","1","101","101","5","",""
"null","445916","pSARL_v2","pSARL_v28436cwl4","55ea70c37480920010aa9982","freq_resp","img/orange_2bandit_b.png","70","70","test","","","","5","",""
"null","446070","pSARL_v2","pSARL_v28436cwl4","55ea70c37480920010aa9982","fixation","img/fixation.png","null","","test","","","","","",""
"235.60000002384186","446306","pSARL_v2","pSARL_v28436cwl4","55ea70c37480920010aa9982","freq","img/orange_2bandit_b2.png","70","70","test","1","102","102","5","",""
"null","446881","pSARL_v2","pSARL_v28436cwl4","55ea70c37480920010aa9982","freq_resp","img/orange_2bandit_b.png","70","70","test","","","","5","",""
"null","447037","pSARL_v2","pSARL_v28436cwl4","55ea70c37480920010aa9982","fixation","img/fixation.png","null","","test","","","","","",""
"249.79999995231628","447288","pSARL_v2","pSARL_v28436cwl4","55ea70c37480920010aa9982","freq","img/orange_2bandit_b2.png","70","70","test","1","103","103","5","",""
"null","447850","pSARL_v2","pSARL_v28436cwl4","55ea70c37480920010aa9982","freq_resp","img/orange_2bandit_b.png","70","70","test","","","","5","",""
"null","448008","pSARL_v2","pSARL_v28436cwl4","55ea70c37480920010aa9982","fixation","img/fixation.png","null","","test","","","","","",""
"359.7999999523163","448369","pSARL_v2","pSARL_v28436cwl4","55ea70c37480920010aa9982","infreq","img/green_2bandit_b2.png","68","68","test","1","104","104","5","",""
"null","448819","pSARL_v2","pSARL_v28436cwl4","55ea70c37480920010aa9982","infreq_resp","img/green_2bandit_b.png","68","68","test","","","","5","",""
"null","448972","pSARL_v2","pSARL_v28436cwl4","55ea70c37480920010aa9982","fixation","img/fixation.png","null","","test","","","","","",""
"330","449303","pSARL_v2","pSARL_v28436cwl4","55ea70c37480920010aa9982","freq","img/orange_2bandit_b2.png","70","70","test","1","105","105","5","",""
"null","449785","pSARL_v2","pSARL_v28436cwl4","55ea70c37480920010aa9982","freq_resp","img/orange_2bandit_b.png","70","70","test","","","","5","",""
"null","449941","pSARL_v2","pSARL_v28436cwl4","55ea70c37480920010aa9982","fixation","img/fixation.png","null","","test","","","","","",""
"329.10000002384186","450272","pSARL_v2","pSARL_v28436cwl4","55ea70c37480920010aa9982","freq","img/orange_2bandit_b2.png","70","70","test","1","106","106","5","",""
"null","450752","pSARL_v2","pSARL_v28436cwl4","55ea70c37480920010aa9982","freq_resp","img/orange_2bandit_b.png","70","70","test","","","","5","",""
"null","450908","pSARL_v2","pSARL_v28436cwl4","55ea70c37480920010aa9982","fixation","img/fixation.png","null","","test","","","","","",""
"248.69999992847443","451158","pSARL_v2","pSARL_v28436cwl4","55ea70c37480920010aa9982","freq","img/orange_2bandit_b2.png","70","70","test","1","107","107","5","",""
"null","451718","pSARL_v2","pSARL_v28436cwl4","55ea70c37480920010aa9982","freq_resp","img/orange_2bandit_b.png","70","70","test","","","","5","",""
"null","451874","pSARL_v2","pSARL_v28436cwl4","55ea70c37480920010aa9982","fixation","img/fixation.png","null","","test","","","","","",""
"282.89999997615814","452158","pSARL_v2","pSARL_v28436cwl4","55ea70c37480920010aa9982","freq","img/orange_2bandit_b2.png","70","70","test","1","108","108","5","",""
"null","452684","pSARL_v2","pSARL_v28436cwl4","55ea70c37480920010aa9982","freq_resp","img/orange_2bandit_b.png","70","70","test","","","","5","",""
"null","452841","pSARL_v2","pSARL_v28436cwl4","55ea70c37480920010aa9982","fixation","img/fixation.png","null","","test","","","","","",""
"469","453311","pSARL_v2","pSARL_v28436cwl4","55ea70c37480920010aa9982","reward","img/slot.png","74","","test","","","","","",""
"null","454073","pSARL_v2","pSARL_v28436cwl4","55ea70c37480920010aa9982","points","<div class=""veryhighPoints""> +1 </div>","null","na","test","","","","5","1","4"
"393","454467","pSARL_v2","pSARL_v28436cwl4","55ea70c37480920010aa9982","freq","img/orange_2bandit_b2.png","70","70","test","1","109","109","6","",""
"null","454889","pSARL_v2","pSARL_v28436cwl4","55ea70c37480920010aa9982","freq_resp","img/orange_2bandit_b.png","70","70","test","","","","6","",""
"null","455046","pSARL_v2","pSARL_v28436cwl4","55ea70c37480920010aa9982","fixation","img/fixation.png","null","","test","","","","","",""
"283.39999997615814","455330","pSARL_v2","pSARL_v28436cwl4","55ea70c37480920010aa9982","freq","img/orange_2bandit_b2.png","70","70","test","1","110","110","6","",""
"null","455860","pSARL_v2","pSARL_v28436cwl4","55ea70c37480920010aa9982","freq_resp","img/orange_2bandit_b.png","70","70","test","","","","6","",""
"null","456016","pSARL_v2","pSARL_v28436cwl4","55ea70c37480920010aa9982","fixation","img/fixation.png","null","","test","","","","","",""
"250.5","456268","pSARL_v2","pSARL_v28436cwl4","55ea70c37480920010aa9982","freq","img/orange_2bandit_b2.png","70","70","test","1","111","111","6","",""
"null","456828","pSARL_v2","pSARL_v28436cwl4","55ea70c37480920010aa9982","freq_resp","img/orange_2bandit_b.png","70","70","test","","","","6","",""
"null","456984","pSARL_v2","pSARL_v28436cwl4","55ea70c37480920010aa9982","fixation","img/fixation.png","null","","test","","","","","",""
"235.20000004768372","457220","pSARL_v2","pSARL_v28436cwl4","55ea70c37480920010aa9982","infreq","img/green_2bandit_b2.png","70","68","test","0","112","112","6","",""
"null","457795","pSARL_v2","pSARL_v28436cwl4","55ea70c37480920010aa9982","infreq_resp","img/green_2bandit_b.png","70","68","test","","","","6","",""
"null","457952","pSARL_v2","pSARL_v28436cwl4","55ea70c37480920010aa9982","fixation","img/fixation.png","null","","test","","","","","",""
"310.10000002384186","458263","pSARL_v2","pSARL_v28436cwl4","55ea70c37480920010aa9982","freq","img/orange_2bandit_b2.png","70","70","test","1","113","113","6","",""
"null","458760","pSARL_v2","pSARL_v28436cwl4","55ea70c37480920010aa9982","freq_resp","img/orange_2bandit_b.png","70","70","test","","","","6","",""
"null","458918","pSARL_v2","pSARL_v28436cwl4","55ea70c37480920010aa9982","fixation","img/fixation.png","null","","test","","","","","",""
"268","459187","pSARL_v2","pSARL_v28436cwl4","55ea70c37480920010aa9982","freq","img/orange_2bandit_b2.png","70","70","test","1","114","114","6","",""
"null","459728","pSARL_v2","pSARL_v28436cwl4","55ea70c37480920010aa9982","freq_resp","img/orange_2bandit_b.png","70","70","test","","","","6","",""
"null","459884","pSARL_v2","pSARL_v28436cwl4","55ea70c37480920010aa9982","fixation","img/fixation.png","null","","test","","","","","",""
"279","460164","pSARL_v2","pSARL_v28436cwl4","55ea70c37480920010aa9982","freq","img/orange_2bandit_b2.png","70","70","test","1","115","115","6","",""
"null","460693","pSARL_v2","pSARL_v28436cwl4","55ea70c37480920010aa9982","freq_resp","img/orange_2bandit_b.png","70","70","test","","","","6","",""
"null","460848","pSARL_v2","pSARL_v28436cwl4","55ea70c37480920010aa9982","fixation","img/fixation.png","null","","test","","","","","",""
"266.10000002384186","461115","pSARL_v2","pSARL_v28436cwl4","55ea70c37480920010aa9982","freq","img/orange_2bandit_b2.png","70","70","test","1","116","116","6","",""
"null","461659","pSARL_v2","pSARL_v28436cwl4","55ea70c37480920010aa9982","freq_resp","img/orange_2bandit_b.png","70","70","test","","","","6","",""
"null","461815","pSARL_v2","pSARL_v28436cwl4","55ea70c37480920010aa9982","fixation","img/fixation.png","null","","test","","","","","",""
"282","462098","pSARL_v2","pSARL_v28436cwl4","55ea70c37480920010aa9982","freq","img/orange_2bandit_b2.png","70","70","test","1","117","117","6","",""
"null","462624","pSARL_v2","pSARL_v28436cwl4","55ea70c37480920010aa9982","freq_resp","img/orange_2bandit_b.png","70","70","test","","","","6","",""
"null","462780","pSARL_v2","pSARL_v28436cwl4","55ea70c37480920010aa9982","fixation","img/fixation.png","null","","test","","","","","",""
"297.10000002384186","463078","pSARL_v2","pSARL_v28436cwl4","55ea70c37480920010aa9982","freq","img/orange_2bandit_b2.png","70","70","test","1","118","118","6","",""
"null","463595","pSARL_v2","pSARL_v28436cwl4","55ea70c37480920010aa9982","freq_resp","img/orange_2bandit_b.png","70","70","test","","","","6","",""
"null","463749","pSARL_v2","pSARL_v28436cwl4","55ea70c37480920010aa9982","fixation","img/fixation.png","null","","test","","","","","",""
"282.60000002384186","464033","pSARL_v2","pSARL_v28436cwl4","55ea70c37480920010aa9982","freq","img/orange_2bandit_b2.png","70","70","test","1","119","119","6","",""
"null","464563","pSARL_v2","pSARL_v28436cwl4","55ea70c37480920010aa9982","freq_resp","img/orange_2bandit_b.png","70","70","test","","","","6","",""
"null","464718","pSARL_v2","pSARL_v28436cwl4","55ea70c37480920010aa9982","fixation","img/fixation.png","null","","test","","","","","",""
"248.60000002384186","464968","pSARL_v2","pSARL_v28436cwl4","55ea70c37480920010aa9982","freq","img/orange_2bandit_b2.png","70","70","test","1","120","120","6","",""
"null","465527","pSARL_v2","pSARL_v28436cwl4","55ea70c37480920010aa9982","freq_resp","img/orange_2bandit_b.png","70","70","test","","","","6","",""
"null","465683","pSARL_v2","pSARL_v28436cwl4","55ea70c37480920010aa9982","fixation","img/fixation.png","null","","test","","","","","",""
"235.89999997615814","465920","pSARL_v2","pSARL_v28436cwl4","55ea70c37480920010aa9982","freq","img/orange_2bandit_b2.png","70","70","test","1","121","121","6","",""
"null","466494","pSARL_v2","pSARL_v28436cwl4","55ea70c37480920010aa9982","freq_resp","img/orange_2bandit_b.png","70","70","test","","","","6","",""
"null","466650","pSARL_v2","pSARL_v28436cwl4","55ea70c37480920010aa9982","fixation","img/fixation.png","null","","test","","","","","",""
"233.89999997615814","466885","pSARL_v2","pSARL_v28436cwl4","55ea70c37480920010aa9982","freq","img/orange_2bandit_b2.png","70","70","test","1","122","122","6","",""
"null","467464","pSARL_v2","pSARL_v28436cwl4","55ea70c37480920010aa9982","freq_resp","img/orange_2bandit_b.png","70","70","test","","","","6","",""
"null","467620","pSARL_v2","pSARL_v28436cwl4","55ea70c37480920010aa9982","fixation","img/fixation.png","null","","test","","","","","",""
"282.89999997615814","467904","pSARL_v2","pSARL_v28436cwl4","55ea70c37480920010aa9982","infreq","img/green_2bandit_b2.png","70","68","test","0","123","123","6","",""
"null","468436","pSARL_v2","pSARL_v28436cwl4","55ea70c37480920010aa9982","infreq_resp","img/green_2bandit_b.png","70","68","test","","","","6","",""
"null","468589","pSARL_v2","pSARL_v28436cwl4","55ea70c37480920010aa9982","fixation","img/fixation.png","null","","test","","","","","",""
"372.7999999523163","468963","pSARL_v2","pSARL_v28436cwl4","55ea70c37480920010aa9982","freq","img/orange_2bandit_b2.png","70","70","test","1","124","124","6","",""
"null","469400","pSARL_v2","pSARL_v28436cwl4","55ea70c37480920010aa9982","freq_resp","img/orange_2bandit_b.png","70","70","test","","","","6","",""
"null","469556","pSARL_v2","pSARL_v28436cwl4","55ea70c37480920010aa9982","fixation","img/fixation.png","null","","test","","","","","",""
"342.7999999523163","469900","pSARL_v2","pSARL_v28436cwl4","55ea70c37480920010aa9982","freq","img/orange_2bandit_b2.png","70","70","test","1","125","125","6","",""
"null","470367","pSARL_v2","pSARL_v28436cwl4","55ea70c37480920010aa9982","freq_resp","img/orange_2bandit_b.png","70","70","test","","","","6","",""
"null","470525","pSARL_v2","pSARL_v28436cwl4","55ea70c37480920010aa9982","fixation","img/fixation.png","null","","test","","","","","",""
"301.3000000715256","470827","pSARL_v2","pSARL_v28436cwl4","55ea70c37480920010aa9982","freq","img/orange_2bandit_b2.png","70","70","test","1","126","126","6","",""
"null","471339","pSARL_v2","pSARL_v28436cwl4","55ea70c37480920010aa9982","freq_resp","img/orange_2bandit_b.png","70","70","test","","","","6","",""
"null","471497","pSARL_v2","pSARL_v28436cwl4","55ea70c37480920010aa9982","fixation","img/fixation.png","null","","test","","","","","",""
"265.89999997615814","471764","pSARL_v2","pSARL_v28436cwl4","55ea70c37480920010aa9982","freq","img/orange_2bandit_b2.png","70","70","test","1","127","127","6","",""
"null","472310","pSARL_v2","pSARL_v28436cwl4","55ea70c37480920010aa9982","freq_resp","img/orange_2bandit_b.png","70","70","test","","","","6","",""
"null","472466","pSARL_v2","pSARL_v28436cwl4","55ea70c37480920010aa9982","fixation","img/fixation.png","null","","test","","","","","",""
"237.70000004768372","472705","pSARL_v2","pSARL_v28436cwl4","55ea70c37480920010aa9982","freq","img/orange_2bandit_b2.png","70","70","test","1","128","128","6","",""
"null","473283","pSARL_v2","pSARL_v28436cwl4","55ea70c37480920010aa9982","freq_resp","img/orange_2bandit_b.png","70","70","test","","","","6","",""
"null","473441","pSARL_v2","pSARL_v28436cwl4","55ea70c37480920010aa9982","fixation","img/fixation.png","null","","test","","","","","",""
"679.8999999761581","474122","pSARL_v2","pSARL_v28436cwl4","55ea70c37480920010aa9982","reward","img/slot.png","74","","test","","","","","",""
"null","474886","pSARL_v2","pSARL_v28436cwl4","55ea70c37480920010aa9982","points","<div class=""verylowPoints""> -7 </div>","null","na","test","","","","6","-7","5"
"425","475312","pSARL_v2","pSARL_v28436cwl4","55ea70c37480920010aa9982","freq","img/orange_2bandit_b2.png","70","70","test","1","129","129","7","",""
"null","475702","pSARL_v2","pSARL_v28436cwl4","55ea70c37480920010aa9982","freq_resp","img/orange_2bandit_b.png","70","70","test","","","","7","",""
"null","475860","pSARL_v2","pSARL_v28436cwl4","55ea70c37480920010aa9982","fixation","img/fixation.png","null","","test","","","","","",""
"267","476128","pSARL_v2","pSARL_v28436cwl4","55ea70c37480920010aa9982","freq","img/orange_2bandit_b2.png","70","70","test","1","130","130","7","",""
"null","476670","pSARL_v2","pSARL_v28436cwl4","55ea70c37480920010aa9982","freq_resp","img/orange_2bandit_b.png","70","70","test","","","","7","",""
"null","476826","pSARL_v2","pSARL_v28436cwl4","55ea70c37480920010aa9982","fixation","img/fixation.png","null","","test","","","","","",""
"282.7999999523163","477110","pSARL_v2","pSARL_v28436cwl4","55ea70c37480920010aa9982","freq","img/orange_2bandit_b2.png","70","70","test","1","131","131","7","",""
"null","477638","pSARL_v2","pSARL_v28436cwl4","55ea70c37480920010aa9982","freq_resp","img/orange_2bandit_b.png","70","70","test","","","","7","",""
"null","477793","pSARL_v2","pSARL_v28436cwl4","55ea70c37480920010aa9982","fixation","img/fixation.png","null","","test","","","","","",""
"204.60000002384186","477999","pSARL_v2","pSARL_v28436cwl4","55ea70c37480920010aa9982","freq","img/orange_2bandit_b2.png","70","70","test","1","132","132","7","",""
"null","478607","pSARL_v2","pSARL_v28436cwl4","55ea70c37480920010aa9982","freq_resp","img/orange_2bandit_b.png","70","70","test","","","","7","",""
"null","478765","pSARL_v2","pSARL_v28436cwl4","55ea70c37480920010aa9982","fixation","img/fixation.png","null","","test","","","","","",""
"235.39999997615814","479002","pSARL_v2","pSARL_v28436cwl4","55ea70c37480920010aa9982","freq","img/orange_2bandit_b2.png","70","70","test","1","133","133","7","",""
"null","479578","pSARL_v2","pSARL_v28436cwl4","55ea70c37480920010aa9982","freq_resp","img/orange_2bandit_b.png","70","70","test","","","","7","",""
"null","479734","pSARL_v2","pSARL_v28436cwl4","55ea70c37480920010aa9982","fixation","img/fixation.png","null","","test","","","","","",""
"281.89999997615814","480017","pSARL_v2","pSARL_v28436cwl4","55ea70c37480920010aa9982","freq","img/orange_2bandit_b2.png","70","70","test","1","134","134","7","",""
"null","480547","pSARL_v2","pSARL_v28436cwl4","55ea70c37480920010aa9982","freq_resp","img/orange_2bandit_b.png","70","70","test","","","","7","",""
"null","480704","pSARL_v2","pSARL_v28436cwl4","55ea70c37480920010aa9982","fixation","img/fixation.png","null","","test","","","","","",""
"249","480954","pSARL_v2","pSARL_v28436cwl4","55ea70c37480920010aa9982","freq","img/orange_2bandit_b2.png","70","70","test","1","135","135","7","",""
"null","481516","pSARL_v2","pSARL_v28436cwl4","55ea70c37480920010aa9982","freq_resp","img/orange_2bandit_b.png","70","70","test","","","","7","",""
"null","481674","pSARL_v2","pSARL_v28436cwl4","55ea70c37480920010aa9982","fixation","img/fixation.png","null","","test","","","","","",""
"279.89999997615814","481955","pSARL_v2","pSARL_v28436cwl4","55ea70c37480920010aa9982","freq","img/orange_2bandit_b2.png","70","70","test","1","136","136","7","",""
"null","482484","pSARL_v2","pSARL_v28436cwl4","55ea70c37480920010aa9982","freq_resp","img/orange_2bandit_b.png","70","70","test","","","","7","",""
"null","482641","pSARL_v2","pSARL_v28436cwl4","55ea70c37480920010aa9982","fixation","img/fixation.png","null","","test","","","","","",""
"264.7999999523163","482907","pSARL_v2","pSARL_v28436cwl4","55ea70c37480920010aa9982","freq","img/orange_2bandit_b2.png","70","70","test","1","137","137","7","",""
"null","483453","pSARL_v2","pSARL_v28436cwl4","55ea70c37480920010aa9982","freq_resp","img/orange_2bandit_b.png","70","70","test","","","","7","",""
"null","483607","pSARL_v2","pSARL_v28436cwl4","55ea70c37480920010aa9982","fixation","img/fixation.png","null","","test","","","","","",""
"251.5","483859","pSARL_v2","pSARL_v28436cwl4","55ea70c37480920010aa9982","freq","img/orange_2bandit_b2.png","70","70","test","1","138","138","7","",""
"null","484420","pSARL_v2","pSARL_v28436cwl4","55ea70c37480920010aa9982","freq_resp","img/orange_2bandit_b.png","70","70","test","","","","7","",""
"null","484577","pSARL_v2","pSARL_v28436cwl4","55ea70c37480920010aa9982","fixation","img/fixation.png","null","","test","","","","","",""
"237.5","484815","pSARL_v2","pSARL_v28436cwl4","55ea70c37480920010aa9982","freq","img/orange_2bandit_b2.png","70","70","test","1","139","139","7","",""
"null","485391","pSARL_v2","pSARL_v28436cwl4","55ea70c37480920010aa9982","freq_resp","img/orange_2bandit_b.png","70","70","test","","","","7","",""
"null","485546","pSARL_v2","pSARL_v28436cwl4","55ea70c37480920010aa9982","fixation","img/fixation.png","null","","test","","","","","",""
"265.2999999523163","485812","pSARL_v2","pSARL_v28436cwl4","55ea70c37480920010aa9982","freq","img/orange_2bandit_b2.png","70","70","test","1","140","140","7","",""
"null","486359","pSARL_v2","pSARL_v28436cwl4","55ea70c37480920010aa9982","freq_resp","img/orange_2bandit_b.png","70","70","test","","","","7","",""
"null","486514","pSARL_v2","pSARL_v28436cwl4","55ea70c37480920010aa9982","fixation","img/fixation.png","null","","test","","","","","",""
"245.39999997615814","486761","pSARL_v2","pSARL_v28436cwl4","55ea70c37480920010aa9982","freq","img/orange_2bandit_b2.png","70","70","test","1","141","141","7","",""
"null","487321","pSARL_v2","pSARL_v28436cwl4","55ea70c37480920010aa9982","freq_resp","img/orange_2bandit_b.png","70","70","test","","","","7","",""
"null","487479","pSARL_v2","pSARL_v28436cwl4","55ea70c37480920010aa9982","fixation","img/fixation.png","null","","test","","","","","",""
"280.1999999284744","487760","pSARL_v2","pSARL_v28436cwl4","55ea70c37480920010aa9982","freq","img/orange_2bandit_b2.png","70","70","test","1","142","142","7","",""
"null","488289","pSARL_v2","pSARL_v28436cwl4","55ea70c37480920010aa9982","freq_resp","img/orange_2bandit_b.png","70","70","test","","","","7","",""
"null","488447","pSARL_v2","pSARL_v28436cwl4","55ea70c37480920010aa9982","fixation","img/fixation.png","null","","test","","","","","",""
"481.89999997615814","488930","pSARL_v2","pSARL_v28436cwl4","55ea70c37480920010aa9982","infreq","img/green_2bandit_b2.png","68","68","test","1","143","143","7","",""
"null","489255","pSARL_v2","pSARL_v28436cwl4","55ea70c37480920010aa9982","infreq_resp","img/green_2bandit_b.png","68","68","test","","","","7","",""
"null","489411","pSARL_v2","pSARL_v28436cwl4","55ea70c37480920010aa9982","fixation","img/fixation.png","null","","test","","","","","",""
"436.1999999284744","489849","pSARL_v2","pSARL_v28436cwl4","55ea70c37480920010aa9982","freq","img/orange_2bandit_b2.png","70","70","test","1","144","144","7","",""
"null","490222","pSARL_v2","pSARL_v28436cwl4","55ea70c37480920010aa9982","freq_resp","img/orange_2bandit_b.png","70","70","test","","","","7","",""
"null","490375","pSARL_v2","pSARL_v28436cwl4","55ea70c37480920010aa9982","fixation","img/fixation.png","null","","test","","","","","",""
"281","490657","pSARL_v2","pSARL_v28436cwl4","55ea70c37480920010aa9982","freq","img/orange_2bandit_b2.png","70","70","test","1","145","145","7","",""
"null","491182","pSARL_v2","pSARL_v28436cwl4","55ea70c37480920010aa9982","freq_resp","img/orange_2bandit_b.png","70","70","test","","","","7","",""
"null","491339","pSARL_v2","pSARL_v28436cwl4","55ea70c37480920010aa9982","fixation","img/fixation.png","null","","test","","","","","",""
"252.60000002384186","491593","pSARL_v2","pSARL_v28436cwl4","55ea70c37480920010aa9982","freq","img/orange_2bandit_b2.png","70","70","test","1","146","146","7","",""
"null","492149","pSARL_v2","pSARL_v28436cwl4","55ea70c37480920010aa9982","freq_resp","img/orange_2bandit_b.png","70","70","test","","","","7","",""
"null","492306","pSARL_v2","pSARL_v28436cwl4","55ea70c37480920010aa9982","fixation","img/fixation.png","null","","test","","","","","",""
"220","492527","pSARL_v2","pSARL_v28436cwl4","55ea70c37480920010aa9982","freq","img/orange_2bandit_b2.png","70","70","test","1","147","147","7","",""
"null","493115","pSARL_v2","pSARL_v28436cwl4","55ea70c37480920010aa9982","freq_resp","img/orange_2bandit_b.png","70","70","test","","","","7","",""
"null","493273","pSARL_v2","pSARL_v28436cwl4","55ea70c37480920010aa9982","fixation","img/fixation.png","null","","test","","","","","",""
"249.39999997615814","493523","pSARL_v2","pSARL_v28436cwl4","55ea70c37480920010aa9982","freq","img/orange_2bandit_b2.png","70","70","test","1","148","148","7","",""
"null","494079","pSARL_v2","pSARL_v28436cwl4","55ea70c37480920010aa9982","freq_resp","img/orange_2bandit_b.png","70","70","test","","","","7","",""
"null","494236","pSARL_v2","pSARL_v28436cwl4","55ea70c37480920010aa9982","fixation","img/fixation.png","null","","test","","","","","",""
"251.79999995231628","494489","pSARL_v2","pSARL_v28436cwl4","55ea70c37480920010aa9982","infreq","img/green_2bandit_b2.png","70","68","test","0","149","149","7","",""
"null","495047","pSARL_v2","pSARL_v28436cwl4","55ea70c37480920010aa9982","infreq_resp","img/green_2bandit_b.png","70","68","test","","","","7","",""
"null","495202","pSARL_v2","pSARL_v28436cwl4","55ea70c37480920010aa9982","fixation","img/fixation.png","null","","test","","","","","",""
"390","495594","pSARL_v2","pSARL_v28436cwl4","55ea70c37480920010aa9982","freq","img/orange_2bandit_b2.png","68","70","test","0","150","150","7","",""
"null","496013","pSARL_v2","pSARL_v28436cwl4","55ea70c37480920010aa9982","freq_resp","img/orange_2bandit_b.png","68","70","test","","","","7","",""
"null","496168","pSARL_v2","pSARL_v28436cwl4","55ea70c37480920010aa9982","fixation","img/fixation.png","null","","test","","","","","",""
"343.7999999523163","496513","pSARL_v2","pSARL_v28436cwl4","55ea70c37480920010aa9982","freq","img/orange_2bandit_b2.png","70","70","test","1","151","151","7","",""
"null","496978","pSARL_v2","pSARL_v28436cwl4","55ea70c37480920010aa9982","freq_resp","img/orange_2bandit_b.png","70","70","test","","","","7","",""
"null","497133","pSARL_v2","pSARL_v28436cwl4","55ea70c37480920010aa9982","fixation","img/fixation.png","null","","test","","","","","",""
"265.10000002384186","497399","pSARL_v2","pSARL_v28436cwl4","55ea70c37480920010aa9982","freq","img/orange_2bandit_b2.png","70","70","test","1","152","152","7","",""
"null","497939","pSARL_v2","pSARL_v28436cwl4","55ea70c37480920010aa9982","freq_resp","img/orange_2bandit_b.png","70","70","test","","","","7","",""
"null","498094","pSARL_v2","pSARL_v28436cwl4","55ea70c37480920010aa9982","fixation","img/fixation.png","null","","test","","","","","",""
"248.79999995231628","498344","pSARL_v2","pSARL_v28436cwl4","55ea70c37480920010aa9982","freq","img/orange_2bandit_b2.png","70","70","test","1","153","153","7","",""
"null","498902","pSARL_v2","pSARL_v28436cwl4","55ea70c37480920010aa9982","freq_resp","img/orange_2bandit_b.png","70","70","test","","","","7","",""
"null","499058","pSARL_v2","pSARL_v28436cwl4","55ea70c37480920010aa9982","fixation","img/fixation.png","null","","test","","","","","",""
"248.60000002384186","499308","pSARL_v2","pSARL_v28436cwl4","55ea70c37480920010aa9982","freq","img/orange_2bandit_b2.png","70","70","test","1","154","154","7","",""
"null","499868","pSARL_v2","pSARL_v28436cwl4","55ea70c37480920010aa9982","freq_resp","img/orange_2bandit_b.png","70","70","test","","","","7","",""
"null","500022","pSARL_v2","pSARL_v28436cwl4","55ea70c37480920010aa9982","fixation","img/fixation.png","null","","test","","","","","",""
"468.2999999523163","500492","pSARL_v2","pSARL_v28436cwl4","55ea70c37480920010aa9982","reward","img/slot.png","74","","test","","","","","",""
"null","501255","pSARL_v2","pSARL_v28436cwl4","55ea70c37480920010aa9982","points","<div class=""verylowPoints""> -6 </div>","null","na","test","","","","7","-6","6"
"402.5","501659","pSARL_v2","pSARL_v28436cwl4","55ea70c37480920010aa9982","freq","img/orange_2bandit_b2.png","70","70","test","1","155","155","8","",""
"null","502062","pSARL_v2","pSARL_v28436cwl4","55ea70c37480920010aa9982","freq_resp","img/orange_2bandit_b.png","70","70","test","","","","8","",""
"null","502218","pSARL_v2","pSARL_v28436cwl4","55ea70c37480920010aa9982","fixation","img/fixation.png","null","","test","","","","","",""
"297.89999997615814","502517","pSARL_v2","pSARL_v28436cwl4","55ea70c37480920010aa9982","freq","img/orange_2bandit_b2.png","70","70","test","1","156","156","8","",""
"null","503030","pSARL_v2","pSARL_v28436cwl4","55ea70c37480920010aa9982","freq_resp","img/orange_2bandit_b.png","70","70","test","","","","8","",""
"null","503188","pSARL_v2","pSARL_v28436cwl4","55ea70c37480920010aa9982","fixation","img/fixation.png","null","","test","","","","","",""
"234.89999997615814","503424","pSARL_v2","pSARL_v28436cwl4","55ea70c37480920010aa9982","freq","img/orange_2bandit_b2.png","70","70","test","1","157","157","8","",""
"null","503997","pSARL_v2","pSARL_v28436cwl4","55ea70c37480920010aa9982","freq_resp","img/orange_2bandit_b.png","70","70","test","","","","8","",""
"null","504152","pSARL_v2","pSARL_v28436cwl4","55ea70c37480920010aa9982","fixation","img/fixation.png","null","","test","","","","","",""
"267.5","504421","pSARL_v2","pSARL_v28436cwl4","55ea70c37480920010aa9982","freq","img/orange_2bandit_b2.png","70","70","test","1","158","158","8","",""
"null","504964","pSARL_v2","pSARL_v28436cwl4","55ea70c37480920010aa9982","freq_resp","img/orange_2bandit_b.png","70","70","test","","","","8","",""
"null","505119","pSARL_v2","pSARL_v28436cwl4","55ea70c37480920010aa9982","fixation","img/fixation.png","null","","test","","","","","",""
"220.40000009536743","505341","pSARL_v2","pSARL_v28436cwl4","55ea70c37480920010aa9982","freq","img/orange_2bandit_b2.png","70","70","test","1","159","159","8","",""
"null","505933","pSARL_v2","pSARL_v28436cwl4","55ea70c37480920010aa9982","freq_resp","img/orange_2bandit_b.png","70","70","test","","","","8","",""
"null","506088","pSARL_v2","pSARL_v28436cwl4","55ea70c37480920010aa9982","fixation","img/fixation.png","null","","test","","","","","",""
"219.19999992847443","506309","pSARL_v2","pSARL_v28436cwl4","55ea70c37480920010aa9982","infreq","img/green_2bandit_b2.png","70","68","test","0","160","160","8","",""
"null","506900","pSARL_v2","pSARL_v28436cwl4","55ea70c37480920010aa9982","infreq_resp","img/green_2bandit_b.png","70","68","test","","","","8","",""
"null","507057","pSARL_v2","pSARL_v28436cwl4","55ea70c37480920010aa9982","fixation","img/fixation.png","null","","test","","","","","",""
"313.39999997615814","507372","pSARL_v2","pSARL_v28436cwl4","55ea70c37480920010aa9982","freq","img/orange_2bandit_b2.png","70","70","test","1","161","161","8","",""
"null","507865","pSARL_v2","pSARL_v28436cwl4","55ea70c37480920010aa9982","freq_resp","img/orange_2bandit_b.png","70","70","test","","","","8","",""
"null","508022","pSARL_v2","pSARL_v28436cwl4","55ea70c37480920010aa9982","fixation","img/fixation.png","null","","test","","","","","",""
"251.19999992847443","508274","pSARL_v2","pSARL_v28436cwl4","55ea70c37480920010aa9982","freq","img/orange_2bandit_b2.png","70","70","test","1","162","162","8","",""
"null","508836","pSARL_v2","pSARL_v28436cwl4","55ea70c37480920010aa9982","freq_resp","img/orange_2bandit_b.png","70","70","test","","","","8","",""
"null","508993","pSARL_v2","pSARL_v28436cwl4","55ea70c37480920010aa9982","fixation","img/fixation.png","null","","test","","","","","",""
"219","509213","pSARL_v2","pSARL_v28436cwl4","55ea70c37480920010aa9982","freq","img/orange_2bandit_b2.png","70","70","test","1","163","163","8","",""
"null","509806","pSARL_v2","pSARL_v28436cwl4","55ea70c37480920010aa9982","freq_resp","img/orange_2bandit_b.png","70","70","test","","","","8","",""
"null","509963","pSARL_v2","pSARL_v28436cwl4","55ea70c37480920010aa9982","fixation","img/fixation.png","null","","test","","","","","",""
"250.60000002384186","510215","pSARL_v2","pSARL_v28436cwl4","55ea70c37480920010aa9982","freq","img/orange_2bandit_b2.png","70","70","test","1","164","164","8","",""
"null","510774","pSARL_v2","pSARL_v28436cwl4","55ea70c37480920010aa9982","freq_resp","img/orange_2bandit_b.png","70","70","test","","","","8","",""
"null","510932","pSARL_v2","pSARL_v28436cwl4","55ea70c37480920010aa9982","fixation","img/fixation.png","null","","test","","","","","",""
"221","511154","pSARL_v2","pSARL_v28436cwl4","55ea70c37480920010aa9982","freq","img/orange_2bandit_b2.png","70","70","test","1","165","165","8","",""
"null","511746","pSARL_v2","pSARL_v28436cwl4","55ea70c37480920010aa9982","freq_resp","img/orange_2bandit_b.png","70","70","test","","","","8","",""
"null","511899","pSARL_v2","pSARL_v28436cwl4","55ea70c37480920010aa9982","fixation","img/fixation.png","null","","test","","","","","",""
"268","512169","pSARL_v2","pSARL_v28436cwl4","55ea70c37480920010aa9982","freq","img/orange_2bandit_b2.png","70","70","test","1","166","166","8","",""
"null","512711","pSARL_v2","pSARL_v28436cwl4","55ea70c37480920010aa9982","freq_resp","img/orange_2bandit_b.png","70","70","test","","","","8","",""
"null","512865","pSARL_v2","pSARL_v28436cwl4","55ea70c37480920010aa9982","fixation","img/fixation.png","null","","test","","","","","",""
"219.09999990463257","513085","pSARL_v2","pSARL_v28436cwl4","55ea70c37480920010aa9982","freq","img/orange_2bandit_b2.png","70","70","test","1","167","167","8","",""
"null","513673","pSARL_v2","pSARL_v28436cwl4","55ea70c37480920010aa9982","freq_resp","img/orange_2bandit_b.png","70","70","test","","","","8","",""
"null","513828","pSARL_v2","pSARL_v28436cwl4","55ea70c37480920010aa9982","fixation","img/fixation.png","null","","test","","","","","",""
"238.70000004768372","514068","pSARL_v2","pSARL_v28436cwl4","55ea70c37480920010aa9982","freq","img/orange_2bandit_b2.png","70","70","test","1","168","168","8","",""
"null","514643","pSARL_v2","pSARL_v28436cwl4","55ea70c37480920010aa9982","freq_resp","img/orange_2bandit_b.png","70","70","test","","","","8","",""
"null","514797","pSARL_v2","pSARL_v28436cwl4","55ea70c37480920010aa9982","fixation","img/fixation.png","null","","test","","","","","",""
"250.80000007152557","515049","pSARL_v2","pSARL_v28436cwl4","55ea70c37480920010aa9982","freq","img/orange_2bandit_b2.png","70","70","test","1","169","169","8","",""
"null","515607","pSARL_v2","pSARL_v28436cwl4","55ea70c37480920010aa9982","freq_resp","img/orange_2bandit_b.png","70","70","test","","","","8","",""
"null","515760","pSARL_v2","pSARL_v28436cwl4","55ea70c37480920010aa9982","fixation","img/fixation.png","null","","test","","","","","",""
"268.60000002384186","516030","pSARL_v2","pSARL_v28436cwl4","55ea70c37480920010aa9982","freq","img/orange_2bandit_b2.png","70","70","test","1","170","170","8","",""
"null","516576","pSARL_v2","pSARL_v28436cwl4","55ea70c37480920010aa9982","freq_resp","img/orange_2bandit_b.png","70","70","test","","","","8","",""
"null","516732","pSARL_v2","pSARL_v28436cwl4","55ea70c37480920010aa9982","fixation","img/fixation.png","null","","test","","","","","",""
"233.90000009536743","516967","pSARL_v2","pSARL_v28436cwl4","55ea70c37480920010aa9982","infreq","img/green_2bandit_b2.png","70","68","test","0","171","171","8","",""
"null","517542","pSARL_v2","pSARL_v28436cwl4","55ea70c37480920010aa9982","infreq_resp","img/green_2bandit_b.png","70","68","test","","","","8","",""
"null","517698","pSARL_v2","pSARL_v28436cwl4","55ea70c37480920010aa9982","fixation","img/fixation.png","null","","test","","","","","",""
"311.2000000476837","518010","pSARL_v2","pSARL_v28436cwl4","55ea70c37480920010aa9982","freq","img/orange_2bandit_b2.png","70","70","test","1","172","172","8","",""
"null","518505","pSARL_v2","pSARL_v28436cwl4","55ea70c37480920010aa9982","freq_resp","img/orange_2bandit_b.png","70","70","test","","","","8","",""
"null","518662","pSARL_v2","pSARL_v28436cwl4","55ea70c37480920010aa9982","fixation","img/fixation.png","null","","test","","","","","",""
"268.59999990463257","518932","pSARL_v2","pSARL_v28436cwl4","55ea70c37480920010aa9982","freq","img/orange_2bandit_b2.png","70","70","test","1","173","173","8","",""
"null","519474","pSARL_v2","pSARL_v28436cwl4","55ea70c37480920010aa9982","freq_resp","img/orange_2bandit_b.png","70","70","test","","","","8","",""
"null","519630","pSARL_v2","pSARL_v28436cwl4","55ea70c37480920010aa9982","fixation","img/fixation.png","null","","test","","","","","",""
"250.89999997615814","519882","pSARL_v2","pSARL_v28436cwl4","55ea70c37480920010aa9982","freq","img/orange_2bandit_b2.png","70","70","test","1","174","174","8","",""
"null","520444","pSARL_v2","pSARL_v28436cwl4","55ea70c37480920010aa9982","freq_resp","img/orange_2bandit_b.png","70","70","test","","","","8","",""
"null","520599","pSARL_v2","pSARL_v28436cwl4","55ea70c37480920010aa9982","fixation","img/fixation.png","null","","test","","","","","",""
"220.29999995231628","520821","pSARL_v2","pSARL_v28436cwl4","55ea70c37480920010aa9982","freq","img/orange_2bandit_b2.png","70","70","test","1","175","175","8","",""
"null","521409","pSARL_v2","pSARL_v28436cwl4","55ea70c37480920010aa9982","freq_resp","img/orange_2bandit_b.png","70","70","test","","","","8","",""
"null","521565","pSARL_v2","pSARL_v28436cwl4","55ea70c37480920010aa9982","fixation","img/fixation.png","null","","test","","","","","",""
"189.09999990463257","521755","pSARL_v2","pSARL_v28436cwl4","55ea70c37480920010aa9982","freq","img/orange_2bandit_b2.png","70","70","test","1","176","176","8","",""
"null","522375","pSARL_v2","pSARL_v28436cwl4","55ea70c37480920010aa9982","freq_resp","img/orange_2bandit_b.png","70","70","test","","","","8","",""
"null","522530","pSARL_v2","pSARL_v28436cwl4","55ea70c37480920010aa9982","fixation","img/fixation.png","null","","test","","","","","",""
"466.40000009536743","522998","pSARL_v2","pSARL_v28436cwl4","55ea70c37480920010aa9982","reward","img/slot.png","74","","test","","","","","",""
"null","523760","pSARL_v2","pSARL_v28436cwl4","55ea70c37480920010aa9982","points","<div class=""verylowPoints""> -4 </div>","null","na","test","","","","8","-4","7"
"359.5","524121","pSARL_v2","pSARL_v28436cwl4","55ea70c37480920010aa9982","freq","img/orange_2bandit_b2.png","70","70","test","1","177","177","9","",""
"null","524569","pSARL_v2","pSARL_v28436cwl4","55ea70c37480920010aa9982","freq_resp","img/orange_2bandit_b.png","70","70","test","","","","9","",""
"null","524726","pSARL_v2","pSARL_v28436cwl4","55ea70c37480920010aa9982","fixation","img/fixation.png","null","","test","","","","","",""
"342.60000002384186","525070","pSARL_v2","pSARL_v28436cwl4","55ea70c37480920010aa9982","infreq","img/green_2bandit_b2.png","68","68","test","1","178","178","9","",""
"null","525536","pSARL_v2","pSARL_v28436cwl4","55ea70c37480920010aa9982","infreq_resp","img/green_2bandit_b.png","68","68","test","","","","9","",""
"null","525692","pSARL_v2","pSARL_v28436cwl4","55ea70c37480920010aa9982","fixation","img/fixation.png","null","","test","","","","","",""
"248.39999997615814","525941","pSARL_v2","pSARL_v28436cwl4","55ea70c37480920010aa9982","freq","img/orange_2bandit_b2.png","70","70","test","1","179","179","9","",""
"null","526503","pSARL_v2","pSARL_v28436cwl4","55ea70c37480920010aa9982","freq_resp","img/orange_2bandit_b.png","70","70","test","","","","9","",""
"null","526659","pSARL_v2","pSARL_v28436cwl4","55ea70c37480920010aa9982","fixation","img/fixation.png","null","","test","","","","","",""
"312.1999999284744","526973","pSARL_v2","pSARL_v28436cwl4","55ea70c37480920010aa9982","freq","img/orange_2bandit_b2.png","70","70","test","1","180","180","9","",""
"null","527468","pSARL_v2","pSARL_v28436cwl4","55ea70c37480920010aa9982","freq_resp","img/orange_2bandit_b.png","70","70","test","","","","9","",""
"null","527625","pSARL_v2","pSARL_v28436cwl4","55ea70c37480920010aa9982","fixation","img/fixation.png","null","","test","","","","","",""
"250.89999997615814","527877","pSARL_v2","pSARL_v28436cwl4","55ea70c37480920010aa9982","freq","img/orange_2bandit_b2.png","70","70","test","1","181","181","9","",""
"null","528438","pSARL_v2","pSARL_v28436cwl4","55ea70c37480920010aa9982","freq_resp","img/orange_2bandit_b.png","70","70","test","","","","9","",""
"null","528592","pSARL_v2","pSARL_v28436cwl4","55ea70c37480920010aa9982","fixation","img/fixation.png","null","","test","","","","","",""
"218.79999995231628","528812","pSARL_v2","pSARL_v28436cwl4","55ea70c37480920010aa9982","freq","img/orange_2bandit_b2.png","70","70","test","1","182","182","9","",""
"null","529403","pSARL_v2","pSARL_v28436cwl4","55ea70c37480920010aa9982","freq_resp","img/orange_2bandit_b.png","70","70","test","","","","9","",""
"null","529560","pSARL_v2","pSARL_v28436cwl4","55ea70c37480920010aa9982","fixation","img/fixation.png","null","","test","","","","","",""
"375.89999997615814","529937","pSARL_v2","pSARL_v28436cwl4","55ea70c37480920010aa9982","infreq","img/green_2bandit_b2.png","68","68","test","1","183","183","9","",""
"null","530373","pSARL_v2","pSARL_v28436cwl4","55ea70c37480920010aa9982","infreq_resp","img/green_2bandit_b.png","68","68","test","","","","9","",""
"null","530528","pSARL_v2","pSARL_v28436cwl4","55ea70c37480920010aa9982","fixation","img/fixation.png","null","","test","","","","","",""
"279.7000000476837","530809","pSARL_v2","pSARL_v28436cwl4","55ea70c37480920010aa9982","freq","img/orange_2bandit_b2.png","70","70","test","1","184","184","9","",""
"null","531340","pSARL_v2","pSARL_v28436cwl4","55ea70c37480920010aa9982","freq_resp","img/orange_2bandit_b.png","70","70","test","","","","9","",""
"null","531494","pSARL_v2","pSARL_v28436cwl4","55ea70c37480920010aa9982","fixation","img/fixation.png","null","","test","","","","","",""
"346.39999997615814","531842","pSARL_v2","pSARL_v28436cwl4","55ea70c37480920010aa9982","freq","img/orange_2bandit_b2.png","70","70","test","1","185","185","9","",""
"null","532308","pSARL_v2","pSARL_v28436cwl4","55ea70c37480920010aa9982","freq_resp","img/orange_2bandit_b.png","70","70","test","","","","9","",""
"null","532464","pSARL_v2","pSARL_v28436cwl4","55ea70c37480920010aa9982","fixation","img/fixation.png","null","","test","","","","","",""
"267.1999999284744","532733","pSARL_v2","pSARL_v28436cwl4","55ea70c37480920010aa9982","freq","img/orange_2bandit_b2.png","70","70","test","1","186","186","9","",""
"null","533281","pSARL_v2","pSARL_v28436cwl4","55ea70c37480920010aa9982","freq_resp","img/orange_2bandit_b.png","70","70","test","","","","9","",""
"null","533437","pSARL_v2","pSARL_v28436cwl4","55ea70c37480920010aa9982","fixation","img/fixation.png","null","","test","","","","","",""
"280.7000000476837","533719","pSARL_v2","pSARL_v28436cwl4","55ea70c37480920010aa9982","freq","img/orange_2bandit_b2.png","70","70","test","1","187","187","9","",""
"null","534248","pSARL_v2","pSARL_v28436cwl4","55ea70c37480920010aa9982","freq_resp","img/orange_2bandit_b.png","70","70","test","","","","9","",""
"null","534403","pSARL_v2","pSARL_v28436cwl4","55ea70c37480920010aa9982","fixation","img/fixation.png","null","","test","","","","","",""
"254","534658","pSARL_v2","pSARL_v28436cwl4","55ea70c37480920010aa9982","freq","img/orange_2bandit_b2.png","70","70","test","1","188","188","9","",""
"null","535218","pSARL_v2","pSARL_v28436cwl4","55ea70c37480920010aa9982","freq_resp","img/orange_2bandit_b.png","70","70","test","","","","9","",""
"null","535375","pSARL_v2","pSARL_v28436cwl4","55ea70c37480920010aa9982","fixation","img/fixation.png","null","","test","","","","","",""
"234.89999997615814","535611","pSARL_v2","pSARL_v28436cwl4","55ea70c37480920010aa9982","freq","img/orange_2bandit_b2.png","70","70","test","1","189","189","9","",""
"null","536188","pSARL_v2","pSARL_v28436cwl4","55ea70c37480920010aa9982","freq_resp","img/orange_2bandit_b.png","70","70","test","","","","9","",""
"null","536343","pSARL_v2","pSARL_v28436cwl4","55ea70c37480920010aa9982","fixation","img/fixation.png","null","","test","","","","","",""
"282.2999999523163","536627","pSARL_v2","pSARL_v28436cwl4","55ea70c37480920010aa9982","freq","img/orange_2bandit_b2.png","70","70","test","1","190","190","9","",""
"null","537152","pSARL_v2","pSARL_v28436cwl4","55ea70c37480920010aa9982","freq_resp","img/orange_2bandit_b.png","70","70","test","","","","9","",""
"null","537308","pSARL_v2","pSARL_v28436cwl4","55ea70c37480920010aa9982","fixation","img/fixation.png","null","","test","","","","","",""
"266.60000002384186","537576","pSARL_v2","pSARL_v28436cwl4","55ea70c37480920010aa9982","freq","img/orange_2bandit_b2.png","70","70","test","1","191","191","9","",""
"null","538119","pSARL_v2","pSARL_v28436cwl4","55ea70c37480920010aa9982","freq_resp","img/orange_2bandit_b.png","70","70","test","","","","9","",""
"null","538275","pSARL_v2","pSARL_v28436cwl4","55ea70c37480920010aa9982","fixation","img/fixation.png","null","","test","","","","","",""
"258.3000000715256","538534","pSARL_v2","pSARL_v28436cwl4","55ea70c37480920010aa9982","freq","img/orange_2bandit_b2.png","70","70","test","1","192","192","9","",""
"null","539085","pSARL_v2","pSARL_v28436cwl4","55ea70c37480920010aa9982","freq_resp","img/orange_2bandit_b.png","70","70","test","","","","9","",""
"null","539241","pSARL_v2","pSARL_v28436cwl4","55ea70c37480920010aa9982","fixation","img/fixation.png","null","","test","","","","","",""
"249.79999995231628","539492","pSARL_v2","pSARL_v28436cwl4","55ea70c37480920010aa9982","freq","img/orange_2bandit_b2.png","70","70","test","1","193","193","9","",""
"null","540051","pSARL_v2","pSARL_v28436cwl4","55ea70c37480920010aa9982","freq_resp","img/orange_2bandit_b.png","70","70","test","","","","9","",""
"null","540208","pSARL_v2","pSARL_v28436cwl4","55ea70c37480920010aa9982","fixation","img/fixation.png","null","","test","","","","","",""
"251","540460","pSARL_v2","pSARL_v28436cwl4","55ea70c37480920010aa9982","freq","img/orange_2bandit_b2.png","70","70","test","1","194","194","9","",""
"null","541019","pSARL_v2","pSARL_v28436cwl4","55ea70c37480920010aa9982","freq_resp","img/orange_2bandit_b.png","70","70","test","","","","9","",""
"null","541174","pSARL_v2","pSARL_v28436cwl4","55ea70c37480920010aa9982","fixation","img/fixation.png","null","","test","","","","","",""
"266.60000002384186","541442","pSARL_v2","pSARL_v28436cwl4","55ea70c37480920010aa9982","freq","img/orange_2bandit_b2.png","70","70","test","1","195","195","9","",""
"null","541984","pSARL_v2","pSARL_v28436cwl4","55ea70c37480920010aa9982","freq_resp","img/orange_2bandit_b.png","70","70","test","","","","9","",""
"null","542141","pSARL_v2","pSARL_v28436cwl4","55ea70c37480920010aa9982","fixation","img/fixation.png","null","","test","","","","","",""
"280.89999997615814","542423","pSARL_v2","pSARL_v28436cwl4","55ea70c37480920010aa9982","freq","img/orange_2bandit_b2.png","70","70","test","1","196","196","9","",""
"null","542954","pSARL_v2","pSARL_v28436cwl4","55ea70c37480920010aa9982","freq_resp","img/orange_2bandit_b.png","70","70","test","","","","9","",""
"null","543108","pSARL_v2","pSARL_v28436cwl4","55ea70c37480920010aa9982","fixation","img/fixation.png","null","","test","","","","","",""
"236.09999990463257","543346","pSARL_v2","pSARL_v28436cwl4","55ea70c37480920010aa9982","freq","img/orange_2bandit_b2.png","70","70","test","1","197","197","9","",""
"null","543920","pSARL_v2","pSARL_v28436cwl4","55ea70c37480920010aa9982","freq_resp","img/orange_2bandit_b.png","70","70","test","","","","9","",""
"null","544077","pSARL_v2","pSARL_v28436cwl4","55ea70c37480920010aa9982","fixation","img/fixation.png","null","","test","","","","","",""
"250.19999992847443","544329","pSARL_v2","pSARL_v28436cwl4","55ea70c37480920010aa9982","freq","img/orange_2bandit_b2.png","70","70","test","1","198","198","9","",""
"null","544891","pSARL_v2","pSARL_v28436cwl4","55ea70c37480920010aa9982","freq_resp","img/orange_2bandit_b.png","70","70","test","","","","9","",""
"null","545046","pSARL_v2","pSARL_v28436cwl4","55ea70c37480920010aa9982","fixation","img/fixation.png","null","","test","","","","","",""
"248.19999992847443","545296","pSARL_v2","pSARL_v28436cwl4","55ea70c37480920010aa9982","freq","img/orange_2bandit_b2.png","70","70","test","1","199","199","9","",""
"null","545859","pSARL_v2","pSARL_v28436cwl4","55ea70c37480920010aa9982","freq_resp","img/orange_2bandit_b.png","70","70","test","","","","9","",""
"null","546014","pSARL_v2","pSARL_v28436cwl4","55ea70c37480920010aa9982","fixation","img/fixation.png","null","","test","","","","","",""
"263.7000000476837","546279","pSARL_v2","pSARL_v28436cwl4","55ea70c37480920010aa9982","infreq","img/green_2bandit_b2.png","70","68","test","0","200","200","9","",""
"null","546819","pSARL_v2","pSARL_v28436cwl4","55ea70c37480920010aa9982","infreq_resp","img/green_2bandit_b.png","70","68","test","","","","9","",""
"null","546976","pSARL_v2","pSARL_v28436cwl4","55ea70c37480920010aa9982","fixation","img/fixation.png","null","","test","","","","","",""
"314.5","547292","pSARL_v2","pSARL_v28436cwl4","55ea70c37480920010aa9982","freq","img/orange_2bandit_b2.png","70","70","test","1","201","201","9","",""
"null","547788","pSARL_v2","pSARL_v28436cwl4","55ea70c37480920010aa9982","freq_resp","img/orange_2bandit_b.png","70","70","test","","","","9","",""
"null","547941","pSARL_v2","pSARL_v28436cwl4","55ea70c37480920010aa9982","fixation","img/fixation.png","null","","test","","","","","",""
"281.10000002384186","548223","pSARL_v2","pSARL_v28436cwl4","55ea70c37480920010aa9982","freq","img/orange_2bandit_b2.png","70","70","test","1","202","202","9","",""
"null","548749","pSARL_v2","pSARL_v28436cwl4","55ea70c37480920010aa9982","freq_resp","img/orange_2bandit_b.png","70","70","test","","","","9","",""
"null","548905","pSARL_v2","pSARL_v28436cwl4","55ea70c37480920010aa9982","fixation","img/fixation.png","null","","test","","","","","",""
"219.30000007152557","549125","pSARL_v2","pSARL_v28436cwl4","55ea70c37480920010aa9982","freq","img/orange_2bandit_b2.png","70","70","test","1","203","203","9","",""
"null","549718","pSARL_v2","pSARL_v28436cwl4","55ea70c37480920010aa9982","freq_resp","img/orange_2bandit_b.png","70","70","test","","","","9","",""
"null","549875","pSARL_v2","pSARL_v28436cwl4","55ea70c37480920010aa9982","fixation","img/fixation.png","null","","test","","","","","",""
"423.5","550300","pSARL_v2","pSARL_v28436cwl4","55ea70c37480920010aa9982","reward","img/slot.png","74","","test","","","","","",""
"null","551061","pSARL_v2","pSARL_v28436cwl4","55ea70c37480920010aa9982","points","<div class=""verylowPoints""> -3 </div>","null","na","test","","","","9","-3","8"
"328.7999999523163","551392","pSARL_v2","pSARL_v28436cwl4","55ea70c37480920010aa9982","freq","img/orange_2bandit_b2.png","70","70","test","1","204","204","10","",""
"null","551875","pSARL_v2","pSARL_v28436cwl4","55ea70c37480920010aa9982","freq_resp","img/orange_2bandit_b.png","70","70","test","","","","10","",""
"null","552031","pSARL_v2","pSARL_v28436cwl4","55ea70c37480920010aa9982","fixation","img/fixation.png","null","","test","","","","","",""
"267.10000002384186","552299","pSARL_v2","pSARL_v28436cwl4","55ea70c37480920010aa9982","freq","img/orange_2bandit_b2.png","70","70","test","1","205","205","10","",""
"null","552839","pSARL_v2","pSARL_v28436cwl4","55ea70c37480920010aa9982","freq_resp","img/orange_2bandit_b.png","70","70","test","","","","10","",""
"null","552994","pSARL_v2","pSARL_v28436cwl4","55ea70c37480920010aa9982","fixation","img/fixation.png","null","","test","","","","","",""
"346.2999999523163","553342","pSARL_v2","pSARL_v28436cwl4","55ea70c37480920010aa9982","infreq","img/green_2bandit_b2.png","68","68","test","1","206","206","10","",""
"null","553807","pSARL_v2","pSARL_v28436cwl4","55ea70c37480920010aa9982","infreq_resp","img/green_2bandit_b.png","68","68","test","","","","10","",""
