"rt","time_elapsed","expId","subject","prolificID","trialType","stimulus","key_press","corrresp","phase","corr","trialNum","attentionRunNum","blockNum","points","rlNum"
"13375.299999999814","13377","pSARL_v2","pSARL_v2b6t168fy","5e1c138a2bf9514062e4de6b","","","","","","","","","","",""
"","16016","pSARL_v2","pSARL_v2b6t168fy","5e1c138a2bf9514062e4de6b","fullscreen","","","","","","","","","",""
"212128.2999999998","228148","pSARL_v2","pSARL_v2b6t168fy","5e1c138a2bf9514062e4de6b","","","","","","","","","","",""
"null","228958","pSARL_v2","pSARL_v2b6t168fy","5e1c138a2bf9514062e4de6b","freqPrac","img/green_2bandit_b2.png","null","70","prac","0","","","","",""
"null","229967","pSARL_v2","pSARL_v2b6t168fy","5e1c138a2bf9514062e4de6b","feedback","img/tooSlow.png","null","na","prac","","","","","",""
"null","230125","pSARL_v2","pSARL_v2b6t168fy","5e1c138a2bf9514062e4de6b","fixation","img/fixation.png","null","","prac","","","","","",""
"601.9000000003725","230728","pSARL_v2","pSARL_v2b6t168fy","5e1c138a2bf9514062e4de6b","infreqPrac","img/orange_2bandit_b2.png","68","68","prac","1","","","","",""
"601.9000000003725","230941","pSARL_v2","pSARL_v2b6t168fy","5e1c138a2bf9514062e4de6b","infreqPrac_resp","img/orange_2bandit_b.png","68","68","prac","","","","","",""
"null","231097","pSARL_v2","pSARL_v2b6t168fy","5e1c138a2bf9514062e4de6b","fixation","img/fixation.png","null","","prac","","","","","",""
"453.30000000074506","231552","pSARL_v2","pSARL_v2b6t168fy","5e1c138a2bf9514062e4de6b","freqPrac","img/green_2bandit_b2.png","70","70","prac","1","","","","",""
"453.30000000074506","231902","pSARL_v2","pSARL_v2b6t168fy","5e1c138a2bf9514062e4de6b","freqPrac_resp","img/green_2bandit_b.png","70","70","prac","","","","","",""
"null","232057","pSARL_v2","pSARL_v2b6t168fy","5e1c138a2bf9514062e4de6b","fixation","img/fixation.png","null","","prac","","","","","",""
"387.40000000037253","232446","pSARL_v2","pSARL_v2b6t168fy","5e1c138a2bf9514062e4de6b","infreqPrac","img/orange_2bandit_b2.png","68","68","prac","1","","","","",""
"387.40000000037253","232873","pSARL_v2","pSARL_v2b6t168fy","5e1c138a2bf9514062e4de6b","infreqPrac_resp","img/orange_2bandit_b.png","68","68","prac","","","","","",""
"null","233031","pSARL_v2","pSARL_v2b6t168fy","5e1c138a2bf9514062e4de6b","fixation","img/fixation.png","null","","prac","","","","","",""
"376.20000000018626","233410","pSARL_v2","pSARL_v2b6t168fy","5e1c138a2bf9514062e4de6b","infreqPrac","img/orange_2bandit_b2.png","70","68","prac","0","","","","",""
"376.20000000018626","233835","pSARL_v2","pSARL_v2b6t168fy","5e1c138a2bf9514062e4de6b","infreqPrac_resp","img/orange_2bandit_b.png","70","68","prac","","","","","",""
"null","234848","pSARL_v2","pSARL_v2b6t168fy","5e1c138a2bf9514062e4de6b","feedback","img/wrongKey.png","null","na","prac","","","","","",""
"null","235005","pSARL_v2","pSARL_v2b6t168fy","5e1c138a2bf9514062e4de6b","fixation","img/fixation.png","null","","prac","","","","","",""
"489.30000000074506","235497","pSARL_v2","pSARL_v2b6t168fy","5e1c138a2bf9514062e4de6b","infreqPrac","img/orange_2bandit_b2.png","68","68","prac","1","","","","",""
"489.30000000074506","235810","pSARL_v2","pSARL_v2b6t168fy","5e1c138a2bf9514062e4de6b","infreqPrac_resp","img/orange_2bandit_b.png","68","68","prac","","","","","",""
"null","235967","pSARL_v2","pSARL_v2b6t168fy","5e1c138a2bf9514062e4de6b","fixation","img/fixation.png","null","","prac","","","","","",""
"511.30000000074506","236480","pSARL_v2","pSARL_v2b6t168fy","5e1c138a2bf9514062e4de6b","freqPrac","img/green_2bandit_b2.png","70","70","prac","1","","","","",""
"511.30000000074506","236773","pSARL_v2","pSARL_v2b6t168fy","5e1c138a2bf9514062e4de6b","freqPrac_resp","img/green_2bandit_b.png","70","70","prac","","","","","",""
"null","236932","pSARL_v2","pSARL_v2b6t168fy","5e1c138a2bf9514062e4de6b","fixation","img/fixation.png","null","","prac","","","","","",""
"441.40000000037253","237375","pSARL_v2","pSARL_v2b6t168fy","5e1c138a2bf9514062e4de6b","infreqPrac","img/orange_2bandit_b2.png","68","68","prac","1","","","","",""
"441.40000000037253","237747","pSARL_v2","pSARL_v2b6t168fy","5e1c138a2bf9514062e4de6b","infreqPrac_resp","img/orange_2bandit_b.png","68","68","prac","","","","","",""
"null","237901","pSARL_v2","pSARL_v2b6t168fy","5e1c138a2bf9514062e4de6b","fixation","img/fixation.png","null","","prac","","","","","",""
"495.59999999962747","238398","pSARL_v2","pSARL_v2b6t168fy","5e1c138a2bf9514062e4de6b","freqPrac","img/green_2bandit_b2.png","70","70","prac","1","","","","",""
"495.59999999962747","238717","pSARL_v2","pSARL_v2b6t168fy","5e1c138a2bf9514062e4de6b","freqPrac_resp","img/green_2bandit_b.png","70","70","prac","","","","","",""
"null","238876","pSARL_v2","pSARL_v2b6t168fy","5e1c138a2bf9514062e4de6b","fixation","img/fixation.png","null","","prac","","","","","",""
"501","239379","pSARL_v2","pSARL_v2b6t168fy","5e1c138a2bf9514062e4de6b","freqPrac","img/green_2bandit_b2.png","70","70","prac","1","","","","",""
"501","239680","pSARL_v2","pSARL_v2b6t168fy","5e1c138a2bf9514062e4de6b","freqPrac_resp","img/green_2bandit_b.png","70","70","prac","","","","","",""
"null","239837","pSARL_v2","pSARL_v2b6t168fy","5e1c138a2bf9514062e4de6b","fixation","img/fixation.png","null","","prac","","","","","",""
"21673.599999999627","261513","pSARL_v2","pSARL_v2b6t168fy","5e1c138a2bf9514062e4de6b","","","","","prac","","","","","",""
"586.7000000001863","262101","pSARL_v2","pSARL_v2b6t168fy","5e1c138a2bf9514062e4de6b","rewardPractice","img/slot.png","74","","prac","","","","","",""
"null","262864","pSARL_v2","pSARL_v2b6t168fy","5e1c138a2bf9514062e4de6b","feedback","<div class=""veryhighPoints""> +15 </div>","null","na","prac","","","","","",""
"null","263021","pSARL_v2","pSARL_v2b6t168fy","5e1c138a2bf9514062e4de6b","fixation","img/fixation.png","null","","prac","","","","","",""
"5905","268927","pSARL_v2","pSARL_v2b6t168fy","5e1c138a2bf9514062e4de6b","","","","","prac","","","","","",""
"585.3000000007451","269514","pSARL_v2","pSARL_v2b6t168fy","5e1c138a2bf9514062e4de6b","freq","img/green_2bandit_b2.png","70","70","test","1","1","1","1","",""
"null","269732","pSARL_v2","pSARL_v2b6t168fy","5e1c138a2bf9514062e4de6b","freq_resp","img/green_2bandit_b.png","70","70","test","","","","1","",""
"null","269889","pSARL_v2","pSARL_v2b6t168fy","5e1c138a2bf9514062e4de6b","fixation","img/fixation.png","null","","test","","","","","",""
"367.59999999962747","270258","pSARL_v2","pSARL_v2b6t168fy","5e1c138a2bf9514062e4de6b","freq","img/green_2bandit_b2.png","70","70","test","1","2","2","1","",""
"null","270694","pSARL_v2","pSARL_v2b6t168fy","5e1c138a2bf9514062e4de6b","freq_resp","img/green_2bandit_b.png","70","70","test","","","","1","",""
"null","270853","pSARL_v2","pSARL_v2b6t168fy","5e1c138a2bf9514062e4de6b","fixation","img/fixation.png","null","","test","","","","","",""
"389.20000000018626","271244","pSARL_v2","pSARL_v2b6t168fy","5e1c138a2bf9514062e4de6b","freq","img/green_2bandit_b2.png","70","70","test","1","3","3","1","",""
"null","271659","pSARL_v2","pSARL_v2b6t168fy","5e1c138a2bf9514062e4de6b","freq_resp","img/green_2bandit_b.png","70","70","test","","","","1","",""
"null","271816","pSARL_v2","pSARL_v2b6t168fy","5e1c138a2bf9514062e4de6b","fixation","img/fixation.png","null","","test","","","","","",""
"414.80000000074506","272233","pSARL_v2","pSARL_v2b6t168fy","5e1c138a2bf9514062e4de6b","infreq","img/orange_2bandit_b2.png","68","68","test","1","4","4","1","",""
"null","272635","pSARL_v2","pSARL_v2b6t168fy","5e1c138a2bf9514062e4de6b","infreq_resp","img/orange_2bandit_b.png","68","68","test","","","","1","",""
"null","272794","pSARL_v2","pSARL_v2b6t168fy","5e1c138a2bf9514062e4de6b","fixation","img/fixation.png","null","","test","","","","","",""
"436.6000000005588","273232","pSARL_v2","pSARL_v2b6t168fy","5e1c138a2bf9514062e4de6b","freq","img/green_2bandit_b2.png","70","70","test","1","5","5","1","",""
"null","273607","pSARL_v2","pSARL_v2b6t168fy","5e1c138a2bf9514062e4de6b","freq_resp","img/green_2bandit_b.png","70","70","test","","","","1","",""
"null","273764","pSARL_v2","pSARL_v2b6t168fy","5e1c138a2bf9514062e4de6b","fixation","img/fixation.png","null","","test","","","","","",""
"424.79999999981374","274191","pSARL_v2","pSARL_v2b6t168fy","5e1c138a2bf9514062e4de6b","infreq","img/orange_2bandit_b2.png","68","68","test","1","6","6","1","",""
"null","274581","pSARL_v2","pSARL_v2b6t168fy","5e1c138a2bf9514062e4de6b","infreq_resp","img/orange_2bandit_b.png","68","68","test","","","","1","",""
"null","274739","pSARL_v2","pSARL_v2b6t168fy","5e1c138a2bf9514062e4de6b","fixation","img/fixation.png","null","","test","","","","","",""
"424.30000000074506","275165","pSARL_v2","pSARL_v2b6t168fy","5e1c138a2bf9514062e4de6b","freq","img/green_2bandit_b2.png","70","70","test","1","7","7","1","",""
"null","275552","pSARL_v2","pSARL_v2b6t168fy","5e1c138a2bf9514062e4de6b","freq_resp","img/green_2bandit_b.png","70","70","test","","","","1","",""
"null","275707","pSARL_v2","pSARL_v2b6t168fy","5e1c138a2bf9514062e4de6b","fixation","img/fixation.png","null","","test","","","","","",""
"367.90000000037253","276077","pSARL_v2","pSARL_v2b6t168fy","5e1c138a2bf9514062e4de6b","freq","img/green_2bandit_b2.png","70","70","test","1","8","8","1","",""
"null","276520","pSARL_v2","pSARL_v2b6t168fy","5e1c138a2bf9514062e4de6b","freq_resp","img/green_2bandit_b.png","70","70","test","","","","1","",""
"null","276678","pSARL_v2","pSARL_v2b6t168fy","5e1c138a2bf9514062e4de6b","fixation","img/fixation.png","null","","test","","","","","",""
"443.5","277123","pSARL_v2","pSARL_v2b6t168fy","5e1c138a2bf9514062e4de6b","freq","img/green_2bandit_b2.png","70","70","test","1","9","9","1","",""
"null","277482","pSARL_v2","pSARL_v2b6t168fy","5e1c138a2bf9514062e4de6b","freq_resp","img/green_2bandit_b.png","70","70","test","","","","1","",""
"null","277638","pSARL_v2","pSARL_v2b6t168fy","5e1c138a2bf9514062e4de6b","fixation","img/fixation.png","null","","test","","","","","",""
"398.80000000074506","278039","pSARL_v2","pSARL_v2b6t168fy","5e1c138a2bf9514062e4de6b","freq","img/green_2bandit_b2.png","70","70","test","1","10","10","1","",""
"null","278456","pSARL_v2","pSARL_v2b6t168fy","5e1c138a2bf9514062e4de6b","freq_resp","img/green_2bandit_b.png","70","70","test","","","","1","",""
"null","278612","pSARL_v2","pSARL_v2b6t168fy","5e1c138a2bf9514062e4de6b","fixation","img/fixation.png","null","","test","","","","","",""
"350.90000000037253","278965","pSARL_v2","pSARL_v2b6t168fy","5e1c138a2bf9514062e4de6b","freq","img/green_2bandit_b2.png","70","70","test","1","11","11","1","",""
"null","279430","pSARL_v2","pSARL_v2b6t168fy","5e1c138a2bf9514062e4de6b","freq_resp","img/green_2bandit_b.png","70","70","test","","","","1","",""
"null","279586","pSARL_v2","pSARL_v2b6t168fy","5e1c138a2bf9514062e4de6b","fixation","img/fixation.png","null","","test","","","","","",""
"381.5","279969","pSARL_v2","pSARL_v2b6t168fy","5e1c138a2bf9514062e4de6b","freq","img/green_2bandit_b2.png","70","70","test","1","12","12","1","",""
"null","280391","pSARL_v2","pSARL_v2b6t168fy","5e1c138a2bf9514062e4de6b","freq_resp","img/green_2bandit_b.png","70","70","test","","","","1","",""
"null","280548","pSARL_v2","pSARL_v2b6t168fy","5e1c138a2bf9514062e4de6b","fixation","img/fixation.png","null","","test","","","","","",""
"371.40000000037253","280921","pSARL_v2","pSARL_v2b6t168fy","5e1c138a2bf9514062e4de6b","freq","img/green_2bandit_b2.png","70","70","test","1","13","13","1","",""
"null","281352","pSARL_v2","pSARL_v2b6t168fy","5e1c138a2bf9514062e4de6b","freq_resp","img/green_2bandit_b.png","70","70","test","","","","1","",""
"null","281510","pSARL_v2","pSARL_v2b6t168fy","5e1c138a2bf9514062e4de6b","fixation","img/fixation.png","null","","test","","","","","",""
"378.6000000005588","281890","pSARL_v2","pSARL_v2b6t168fy","5e1c138a2bf9514062e4de6b","freq","img/green_2bandit_b2.png","70","70","test","1","14","14","1","",""
"null","282328","pSARL_v2","pSARL_v2b6t168fy","5e1c138a2bf9514062e4de6b","freq_resp","img/green_2bandit_b.png","70","70","test","","","","1","",""
"null","282488","pSARL_v2","pSARL_v2b6t168fy","5e1c138a2bf9514062e4de6b","fixation","img/fixation.png","null","","test","","","","","",""
"430.79999999981374","282920","pSARL_v2","pSARL_v2b6t168fy","5e1c138a2bf9514062e4de6b","freq","img/green_2bandit_b2.png","70","70","test","1","15","15","1","",""
"null","283302","pSARL_v2","pSARL_v2b6t168fy","5e1c138a2bf9514062e4de6b","freq_resp","img/green_2bandit_b.png","70","70","test","","","","1","",""
"null","283458","pSARL_v2","pSARL_v2b6t168fy","5e1c138a2bf9514062e4de6b","fixation","img/fixation.png","null","","test","","","","","",""
"400.20000000018626","283860","pSARL_v2","pSARL_v2b6t168fy","5e1c138a2bf9514062e4de6b","freq","img/green_2bandit_b2.png","70","70","test","1","16","16","1","",""
"null","284264","pSARL_v2","pSARL_v2b6t168fy","5e1c138a2bf9514062e4de6b","freq_resp","img/green_2bandit_b.png","70","70","test","","","","1","",""
"null","284420","pSARL_v2","pSARL_v2b6t168fy","5e1c138a2bf9514062e4de6b","fixation","img/fixation.png","null","","test","","","","","",""
"337","284759","pSARL_v2","pSARL_v2b6t168fy","5e1c138a2bf9514062e4de6b","freq","img/green_2bandit_b2.png","70","70","test","1","17","17","1","",""
"null","285236","pSARL_v2","pSARL_v2b6t168fy","5e1c138a2bf9514062e4de6b","freq_resp","img/green_2bandit_b.png","70","70","test","","","","1","",""
"null","285394","pSARL_v2","pSARL_v2b6t168fy","5e1c138a2bf9514062e4de6b","fixation","img/fixation.png","null","","test","","","","","",""
"354.20000000018626","285750","pSARL_v2","pSARL_v2b6t168fy","5e1c138a2bf9514062e4de6b","freq","img/green_2bandit_b2.png","70","70","test","1","18","18","1","",""
"null","286210","pSARL_v2","pSARL_v2b6t168fy","5e1c138a2bf9514062e4de6b","freq_resp","img/green_2bandit_b.png","70","70","test","","","","1","",""
"null","286366","pSARL_v2","pSARL_v2b6t168fy","5e1c138a2bf9514062e4de6b","fixation","img/fixation.png","null","","test","","","","","",""
"329.90000000037253","286698","pSARL_v2","pSARL_v2b6t168fy","5e1c138a2bf9514062e4de6b","freq","img/green_2bandit_b2.png","70","70","test","1","19","19","1","",""
"null","287183","pSARL_v2","pSARL_v2b6t168fy","5e1c138a2bf9514062e4de6b","freq_resp","img/green_2bandit_b.png","70","70","test","","","","1","",""
"null","287337","pSARL_v2","pSARL_v2b6t168fy","5e1c138a2bf9514062e4de6b","fixation","img/fixation.png","null","","test","","","","","",""
"313.5","287652","pSARL_v2","pSARL_v2b6t168fy","5e1c138a2bf9514062e4de6b","freq","img/green_2bandit_b2.png","70","70","test","1","20","20","1","",""
"null","288146","pSARL_v2","pSARL_v2b6t168fy","5e1c138a2bf9514062e4de6b","freq_resp","img/green_2bandit_b.png","70","70","test","","","","1","",""
"null","288305","pSARL_v2","pSARL_v2b6t168fy","5e1c138a2bf9514062e4de6b","fixation","img/fixation.png","null","","test","","","","","",""
"469.59999999962747","288776","pSARL_v2","pSARL_v2b6t168fy","5e1c138a2bf9514062e4de6b","reward","img/slot.png","74","","test","","","","","",""
"null","289533","pSARL_v2","pSARL_v2b6t168fy","5e1c138a2bf9514062e4de6b","points","<div class=""verylowPoints""> -6 </div>","null","na","test","","","","1","-6","0"
"789.2000000001863","290324","pSARL_v2","pSARL_v2b6t168fy","5e1c138a2bf9514062e4de6b","freq","img/green_2bandit_b2.png","70","70","test","1","21","21","2","",""
"null","290335","pSARL_v2","pSARL_v2b6t168fy","5e1c138a2bf9514062e4de6b","freq_resp","img/green_2bandit_b.png","70","70","test","","","","2","",""
"null","290496","pSARL_v2","pSARL_v2b6t168fy","5e1c138a2bf9514062e4de6b","fixation","img/fixation.png","null","","test","","","","","",""
"503.1000000005588","291001","pSARL_v2","pSARL_v2b6t168fy","5e1c138a2bf9514062e4de6b","freq","img/green_2bandit_b2.png","70","70","test","1","22","22","2","",""
"null","291303","pSARL_v2","pSARL_v2b6t168fy","5e1c138a2bf9514062e4de6b","freq_resp","img/green_2bandit_b.png","70","70","test","","","","2","",""
"null","291462","pSARL_v2","pSARL_v2b6t168fy","5e1c138a2bf9514062e4de6b","fixation","img/fixation.png","null","","test","","","","","",""
"473.79999999981374","291937","pSARL_v2","pSARL_v2b6t168fy","5e1c138a2bf9514062e4de6b","freq","img/green_2bandit_b2.png","70","70","test","1","23","23","2","",""
"null","292279","pSARL_v2","pSARL_v2b6t168fy","5e1c138a2bf9514062e4de6b","freq_resp","img/green_2bandit_b.png","70","70","test","","","","2","",""
"null","292435","pSARL_v2","pSARL_v2b6t168fy","5e1c138a2bf9514062e4de6b","fixation","img/fixation.png","null","","test","","","","","",""
"410.80000000074506","292848","pSARL_v2","pSARL_v2b6t168fy","5e1c138a2bf9514062e4de6b","freq","img/green_2bandit_b2.png","70","70","test","1","24","24","2","",""
"null","293254","pSARL_v2","pSARL_v2b6t168fy","5e1c138a2bf9514062e4de6b","freq_resp","img/green_2bandit_b.png","70","70","test","","","","2","",""
"null","293412","pSARL_v2","pSARL_v2b6t168fy","5e1c138a2bf9514062e4de6b","fixation","img/fixation.png","null","","test","","","","","",""
"453.1000000005588","293867","pSARL_v2","pSARL_v2b6t168fy","5e1c138a2bf9514062e4de6b","freq","img/green_2bandit_b2.png","70","70","test","1","25","25","2","",""
"null","294227","pSARL_v2","pSARL_v2b6t168fy","5e1c138a2bf9514062e4de6b","freq_resp","img/green_2bandit_b.png","70","70","test","","","","2","",""
"null","294382","pSARL_v2","pSARL_v2b6t168fy","5e1c138a2bf9514062e4de6b","fixation","img/fixation.png","null","","test","","","","","",""
"494.40000000037253","294878","pSARL_v2","pSARL_v2b6t168fy","5e1c138a2bf9514062e4de6b","freq","img/green_2bandit_b2.png","70","70","test","1","26","26","2","",""
"null","295200","pSARL_v2","pSARL_v2b6t168fy","5e1c138a2bf9514062e4de6b","freq_resp","img/green_2bandit_b.png","70","70","test","","","","2","",""
"null","295358","pSARL_v2","pSARL_v2b6t168fy","5e1c138a2bf9514062e4de6b","fixation","img/fixation.png","null","","test","","","","","",""
"495.09999999962747","295855","pSARL_v2","pSARL_v2b6t168fy","5e1c138a2bf9514062e4de6b","freq","img/green_2bandit_b2.png","70","70","test","1","27","27","2","",""
"null","296161","pSARL_v2","pSARL_v2b6t168fy","5e1c138a2bf9514062e4de6b","freq_resp","img/green_2bandit_b.png","70","70","test","","","","2","",""
"null","296319","pSARL_v2","pSARL_v2b6t168fy","5e1c138a2bf9514062e4de6b","fixation","img/fixation.png","null","","test","","","","","",""
"463.79999999981374","296784","pSARL_v2","pSARL_v2b6t168fy","5e1c138a2bf9514062e4de6b","freq","img/green_2bandit_b2.png","70","70","test","1","28","28","2","",""
"null","297123","pSARL_v2","pSARL_v2b6t168fy","5e1c138a2bf9514062e4de6b","freq_resp","img/green_2bandit_b.png","70","70","test","","","","2","",""
"null","297279","pSARL_v2","pSARL_v2b6t168fy","5e1c138a2bf9514062e4de6b","fixation","img/fixation.png","null","","test","","","","","",""
"503.79999999981374","297785","pSARL_v2","pSARL_v2b6t168fy","5e1c138a2bf9514062e4de6b","freq","img/green_2bandit_b2.png","70","70","test","1","29","29","2","",""
"null","298098","pSARL_v2","pSARL_v2b6t168fy","5e1c138a2bf9514062e4de6b","freq_resp","img/green_2bandit_b.png","70","70","test","","","","2","",""
"null","298256","pSARL_v2","pSARL_v2b6t168fy","5e1c138a2bf9514062e4de6b","fixation","img/fixation.png","null","","test","","","","","",""
"530.5","298788","pSARL_v2","pSARL_v2b6t168fy","5e1c138a2bf9514062e4de6b","freq","img/green_2bandit_b2.png","70","70","test","1","30","30","2","",""
"null","299074","pSARL_v2","pSARL_v2b6t168fy","5e1c138a2bf9514062e4de6b","freq_resp","img/green_2bandit_b.png","70","70","test","","","","2","",""
"null","299232","pSARL_v2","pSARL_v2b6t168fy","5e1c138a2bf9514062e4de6b","fixation","img/fixation.png","null","","test","","","","","",""
"418.70000000018626","299652","pSARL_v2","pSARL_v2b6t168fy","5e1c138a2bf9514062e4de6b","infreq","img/orange_2bandit_b2.png","68","68","test","1","31","31","2","",""
"null","300049","pSARL_v2","pSARL_v2b6t168fy","5e1c138a2bf9514062e4de6b","infreq_resp","img/orange_2bandit_b.png","68","68","test","","","","2","",""
"null","300206","pSARL_v2","pSARL_v2b6t168fy","5e1c138a2bf9514062e4de6b","fixation","img/fixation.png","null","","test","","","","","",""
"435.20000000018626","300643","pSARL_v2","pSARL_v2b6t168fy","5e1c138a2bf9514062e4de6b","freq","img/green_2bandit_b2.png","70","70","test","1","32","32","2","",""
"null","301011","pSARL_v2","pSARL_v2b6t168fy","5e1c138a2bf9514062e4de6b","freq_resp","img/green_2bandit_b.png","70","70","test","","","","2","",""
"null","301168","pSARL_v2","pSARL_v2b6t168fy","5e1c138a2bf9514062e4de6b","fixation","img/fixation.png","null","","test","","","","","",""
"377.79999999981374","301548","pSARL_v2","pSARL_v2b6t168fy","5e1c138a2bf9514062e4de6b","freq","img/green_2bandit_b2.png","70","70","test","1","33","33","2","",""
"null","301988","pSARL_v2","pSARL_v2b6t168fy","5e1c138a2bf9514062e4de6b","freq_resp","img/green_2bandit_b.png","70","70","test","","","","2","",""
"null","302147","pSARL_v2","pSARL_v2b6t168fy","5e1c138a2bf9514062e4de6b","fixation","img/fixation.png","null","","test","","","","","",""
"340.30000000074506","302489","pSARL_v2","pSARL_v2b6t168fy","5e1c138a2bf9514062e4de6b","freq","img/green_2bandit_b2.png","70","70","test","1","34","34","2","",""
"null","302962","pSARL_v2","pSARL_v2b6t168fy","5e1c138a2bf9514062e4de6b","freq_resp","img/green_2bandit_b.png","70","70","test","","","","2","",""
"null","303119","pSARL_v2","pSARL_v2b6t168fy","5e1c138a2bf9514062e4de6b","fixation","img/fixation.png","null","","test","","","","","",""
"235.90000000037253","303357","pSARL_v2","pSARL_v2b6t168fy","5e1c138a2bf9514062e4de6b","freq","img/green_2bandit_b2.png","70","70","test","1","35","35","2","",""
"null","303937","pSARL_v2","pSARL_v2b6t168fy","5e1c138a2bf9514062e4de6b","freq_resp","img/green_2bandit_b.png","70","70","test","","","","2","",""
"null","304094","pSARL_v2","pSARL_v2b6t168fy","5e1c138a2bf9514062e4de6b","fixation","img/fixation.png","null","","test","","","","","",""
"205.70000000018626","304302","pSARL_v2","pSARL_v2b6t168fy","5e1c138a2bf9514062e4de6b","freq","img/green_2bandit_b2.png","70","70","test","1","36","36","2","",""
"null","304901","pSARL_v2","pSARL_v2b6t168fy","5e1c138a2bf9514062e4de6b","freq_resp","img/green_2bandit_b.png","70","70","test","","","","2","",""
"null","305059","pSARL_v2","pSARL_v2b6t168fy","5e1c138a2bf9514062e4de6b","fixation","img/fixation.png","null","","test","","","","","",""
"184.59999999962747","305245","pSARL_v2","pSARL_v2b6t168fy","5e1c138a2bf9514062e4de6b","freq","img/green_2bandit_b2.png","70","70","test","1","37","37","2","",""
"null","305873","pSARL_v2","pSARL_v2b6t168fy","5e1c138a2bf9514062e4de6b","freq_resp","img/green_2bandit_b.png","70","70","test","","","","2","",""
"null","306030","pSARL_v2","pSARL_v2b6t168fy","5e1c138a2bf9514062e4de6b","fixation","img/fixation.png","null","","test","","","","","",""
"272.90000000037253","306305","pSARL_v2","pSARL_v2b6t168fy","5e1c138a2bf9514062e4de6b","freq","img/green_2bandit_b2.png","70","70","test","1","38","38","2","",""
"null","306836","pSARL_v2","pSARL_v2b6t168fy","5e1c138a2bf9514062e4de6b","freq_resp","img/green_2bandit_b.png","70","70","test","","","","2","",""
"null","306992","pSARL_v2","pSARL_v2b6t168fy","5e1c138a2bf9514062e4de6b","fixation","img/fixation.png","null","","test","","","","","",""
"282.59999999962747","307276","pSARL_v2","pSARL_v2b6t168fy","5e1c138a2bf9514062e4de6b","freq","img/green_2bandit_b2.png","70","70","test","1","39","39","2","",""
"null","307804","pSARL_v2","pSARL_v2b6t168fy","5e1c138a2bf9514062e4de6b","freq_resp","img/green_2bandit_b.png","70","70","test","","","","2","",""
"null","307961","pSARL_v2","pSARL_v2b6t168fy","5e1c138a2bf9514062e4de6b","fixation","img/fixation.png","null","","test","","","","","",""
"260.79999999981374","308224","pSARL_v2","pSARL_v2b6t168fy","5e1c138a2bf9514062e4de6b","freq","img/green_2bandit_b2.png","70","70","test","1","40","40","2","",""
"null","308778","pSARL_v2","pSARL_v2b6t168fy","5e1c138a2bf9514062e4de6b","freq_resp","img/green_2bandit_b.png","70","70","test","","","","2","",""
"null","308936","pSARL_v2","pSARL_v2b6t168fy","5e1c138a2bf9514062e4de6b","fixation","img/fixation.png","null","","test","","","","","",""
"378.90000000037253","309317","pSARL_v2","pSARL_v2b6t168fy","5e1c138a2bf9514062e4de6b","infreq","img/orange_2bandit_b2.png","68","68","test","1","41","41","2","",""
"null","309740","pSARL_v2","pSARL_v2b6t168fy","5e1c138a2bf9514062e4de6b","infreq_resp","img/orange_2bandit_b.png","68","68","test","","","","2","",""
"null","309899","pSARL_v2","pSARL_v2b6t168fy","5e1c138a2bf9514062e4de6b","fixation","img/fixation.png","null","","test","","","","","",""
"325.70000000018626","310226","pSARL_v2","pSARL_v2b6t168fy","5e1c138a2bf9514062e4de6b","freq","img/green_2bandit_b2.png","70","70","test","1","42","42","2","",""
"null","310705","pSARL_v2","pSARL_v2b6t168fy","5e1c138a2bf9514062e4de6b","freq_resp","img/green_2bandit_b.png","70","70","test","","","","2","",""
"null","310860","pSARL_v2","pSARL_v2b6t168fy","5e1c138a2bf9514062e4de6b","fixation","img/fixation.png","null","","test","","","","","",""
"459.59999999962747","311321","pSARL_v2","pSARL_v2b6t168fy","5e1c138a2bf9514062e4de6b","reward","img/slot.png","74","","test","","","","","",""
"null","312086","pSARL_v2","pSARL_v2b6t168fy","5e1c138a2bf9514062e4de6b","points","<div class=""verylowPoints""> -11 </div>","null","na","test","","","","2","-11","1"
"516.5","312604","pSARL_v2","pSARL_v2b6t168fy","5e1c138a2bf9514062e4de6b","freq","img/green_2bandit_b2.png","70","70","test","1","43","43","3","",""
"null","312903","pSARL_v2","pSARL_v2b6t168fy","5e1c138a2bf9514062e4de6b","freq_resp","img/green_2bandit_b.png","70","70","test","","","","3","",""
"null","313058","pSARL_v2","pSARL_v2b6t168fy","5e1c138a2bf9514062e4de6b","fixation","img/fixation.png","null","","test","","","","","",""
"479","313539","pSARL_v2","pSARL_v2b6t168fy","5e1c138a2bf9514062e4de6b","freq","img/green_2bandit_b2.png","70","70","test","1","44","44","3","",""
"null","313863","pSARL_v2","pSARL_v2b6t168fy","5e1c138a2bf9514062e4de6b","freq_resp","img/green_2bandit_b.png","70","70","test","","","","3","",""
"null","314021","pSARL_v2","pSARL_v2b6t168fy","5e1c138a2bf9514062e4de6b","fixation","img/fixation.png","null","","test","","","","","",""
"462.29999999981374","314485","pSARL_v2","pSARL_v2b6t168fy","5e1c138a2bf9514062e4de6b","freq","img/green_2bandit_b2.png","70","70","test","1","45","45","3","",""
"null","314826","pSARL_v2","pSARL_v2b6t168fy","5e1c138a2bf9514062e4de6b","freq_resp","img/green_2bandit_b.png","70","70","test","","","","3","",""
"null","314983","pSARL_v2","pSARL_v2b6t168fy","5e1c138a2bf9514062e4de6b","fixation","img/fixation.png","null","","test","","","","","",""
"437.59999999962747","315422","pSARL_v2","pSARL_v2b6t168fy","5e1c138a2bf9514062e4de6b","freq","img/green_2bandit_b2.png","70","70","test","1","46","46","3","",""
"null","315789","pSARL_v2","pSARL_v2b6t168fy","5e1c138a2bf9514062e4de6b","freq_resp","img/green_2bandit_b.png","70","70","test","","","","3","",""
"null","315947","pSARL_v2","pSARL_v2b6t168fy","5e1c138a2bf9514062e4de6b","fixation","img/fixation.png","null","","test","","","","","",""
"349.5","316298","pSARL_v2","pSARL_v2b6t168fy","5e1c138a2bf9514062e4de6b","freq","img/green_2bandit_b2.png","70","70","test","1","47","47","3","",""
"null","316751","pSARL_v2","pSARL_v2b6t168fy","5e1c138a2bf9514062e4de6b","freq_resp","img/green_2bandit_b.png","70","70","test","","","","3","",""
"null","316908","pSARL_v2","pSARL_v2b6t168fy","5e1c138a2bf9514062e4de6b","fixation","img/fixation.png","null","","test","","","","","",""
"376.09999999962747","317286","pSARL_v2","pSARL_v2b6t168fy","5e1c138a2bf9514062e4de6b","freq","img/green_2bandit_b2.png","70","70","test","1","48","48","3","",""
"null","317727","pSARL_v2","pSARL_v2b6t168fy","5e1c138a2bf9514062e4de6b","freq_resp","img/green_2bandit_b.png","70","70","test","","","","3","",""
"null","317885","pSARL_v2","pSARL_v2b6t168fy","5e1c138a2bf9514062e4de6b","fixation","img/fixation.png","null","","test","","","","","",""
"382.70000000018626","318270","pSARL_v2","pSARL_v2b6t168fy","5e1c138a2bf9514062e4de6b","infreq","img/orange_2bandit_b2.png","68","68","test","1","49","49","3","",""
"null","318692","pSARL_v2","pSARL_v2b6t168fy","5e1c138a2bf9514062e4de6b","infreq_resp","img/orange_2bandit_b.png","68","68","test","","","","3","",""
"null","318850","pSARL_v2","pSARL_v2b6t168fy","5e1c138a2bf9514062e4de6b","fixation","img/fixation.png","null","","test","","","","","",""
"281.8999999994412","319134","pSARL_v2","pSARL_v2b6t168fy","5e1c138a2bf9514062e4de6b","freq","img/green_2bandit_b2.png","70","70","test","1","50","50","3","",""
"null","319668","pSARL_v2","pSARL_v2b6t168fy","5e1c138a2bf9514062e4de6b","freq_resp","img/green_2bandit_b.png","70","70","test","","","","3","",""
"null","319824","pSARL_v2","pSARL_v2b6t168fy","5e1c138a2bf9514062e4de6b","fixation","img/fixation.png","null","","test","","","","","",""
"288.90000000037253","320115","pSARL_v2","pSARL_v2b6t168fy","5e1c138a2bf9514062e4de6b","freq","img/green_2bandit_b2.png","70","70","test","1","51","51","3","",""
"null","320642","pSARL_v2","pSARL_v2b6t168fy","5e1c138a2bf9514062e4de6b","freq_resp","img/green_2bandit_b.png","70","70","test","","","","3","",""
"null","320800","pSARL_v2","pSARL_v2b6t168fy","5e1c138a2bf9514062e4de6b","fixation","img/fixation.png","null","","test","","","","","",""
"333.29999999981374","321135","pSARL_v2","pSARL_v2b6t168fy","5e1c138a2bf9514062e4de6b","freq","img/green_2bandit_b2.png","70","70","test","1","52","52","3","",""
"null","321616","pSARL_v2","pSARL_v2b6t168fy","5e1c138a2bf9514062e4de6b","freq_resp","img/green_2bandit_b.png","70","70","test","","","","3","",""
"null","321774","pSARL_v2","pSARL_v2b6t168fy","5e1c138a2bf9514062e4de6b","fixation","img/fixation.png","null","","test","","","","","",""
"304.20000000018626","322080","pSARL_v2","pSARL_v2b6t168fy","5e1c138a2bf9514062e4de6b","freq","img/green_2bandit_b2.png","70","70","test","1","53","53","3","",""
"null","322591","pSARL_v2","pSARL_v2b6t168fy","5e1c138a2bf9514062e4de6b","freq_resp","img/green_2bandit_b.png","70","70","test","","","","3","",""
"null","322748","pSARL_v2","pSARL_v2b6t168fy","5e1c138a2bf9514062e4de6b","fixation","img/fixation.png","null","","test","","","","","",""
"272","323022","pSARL_v2","pSARL_v2b6t168fy","5e1c138a2bf9514062e4de6b","freq","img/green_2bandit_b2.png","70","70","test","1","54","54","3","",""
"null","323568","pSARL_v2","pSARL_v2b6t168fy","5e1c138a2bf9514062e4de6b","freq_resp","img/green_2bandit_b.png","70","70","test","","","","3","",""
"null","323724","pSARL_v2","pSARL_v2b6t168fy","5e1c138a2bf9514062e4de6b","fixation","img/fixation.png","null","","test","","","","","",""
"227.79999999981374","323953","pSARL_v2","pSARL_v2b6t168fy","5e1c138a2bf9514062e4de6b","infreq","img/orange_2bandit_b2.png","70","68","test","0","55","55","3","",""
"null","324528","pSARL_v2","pSARL_v2b6t168fy","5e1c138a2bf9514062e4de6b","infreq_resp","img/orange_2bandit_b.png","70","68","test","","","","3","",""
"null","324685","pSARL_v2","pSARL_v2b6t168fy","5e1c138a2bf9514062e4de6b","fixation","img/fixation.png","null","","test","","","","","",""
"249","324938","pSARL_v2","pSARL_v2b6t168fy","5e1c138a2bf9514062e4de6b","freq","img/green_2bandit_b2.png","70","70","test","1","56","56","3","",""
"null","325502","pSARL_v2","pSARL_v2b6t168fy","5e1c138a2bf9514062e4de6b","freq_resp","img/green_2bandit_b.png","70","70","test","","","","3","",""
"null","325658","pSARL_v2","pSARL_v2b6t168fy","5e1c138a2bf9514062e4de6b","fixation","img/fixation.png","null","","test","","","","","",""
"336.79999999981374","325997","pSARL_v2","pSARL_v2b6t168fy","5e1c138a2bf9514062e4de6b","freq","img/green_2bandit_b2.png","70","70","test","1","57","57","3","",""
"null","326475","pSARL_v2","pSARL_v2b6t168fy","5e1c138a2bf9514062e4de6b","freq_resp","img/green_2bandit_b.png","70","70","test","","","","3","",""
"null","326632","pSARL_v2","pSARL_v2b6t168fy","5e1c138a2bf9514062e4de6b","fixation","img/fixation.png","null","","test","","","","","",""
"297.70000000018626","326931","pSARL_v2","pSARL_v2b6t168fy","5e1c138a2bf9514062e4de6b","freq","img/green_2bandit_b2.png","70","70","test","1","58","58","3","",""
"null","327447","pSARL_v2","pSARL_v2b6t168fy","5e1c138a2bf9514062e4de6b","freq_resp","img/green_2bandit_b.png","70","70","test","","","","3","",""
"null","327604","pSARL_v2","pSARL_v2b6t168fy","5e1c138a2bf9514062e4de6b","fixation","img/fixation.png","null","","test","","","","","",""
"305.79999999981374","327911","pSARL_v2","pSARL_v2b6t168fy","5e1c138a2bf9514062e4de6b","freq","img/green_2bandit_b2.png","70","70","test","1","59","59","3","",""
"null","328415","pSARL_v2","pSARL_v2b6t168fy","5e1c138a2bf9514062e4de6b","freq_resp","img/green_2bandit_b.png","70","70","test","","","","3","",""
"null","328572","pSARL_v2","pSARL_v2b6t168fy","5e1c138a2bf9514062e4de6b","fixation","img/fixation.png","null","","test","","","","","",""
"281","328855","pSARL_v2","pSARL_v2b6t168fy","5e1c138a2bf9514062e4de6b","freq","img/green_2bandit_b2.png","70","70","test","1","60","60","3","",""
"null","329391","pSARL_v2","pSARL_v2b6t168fy","5e1c138a2bf9514062e4de6b","freq_resp","img/green_2bandit_b.png","70","70","test","","","","3","",""
"null","329547","pSARL_v2","pSARL_v2b6t168fy","5e1c138a2bf9514062e4de6b","fixation","img/fixation.png","null","","test","","","","","",""
"303.79999999981374","329852","pSARL_v2","pSARL_v2b6t168fy","5e1c138a2bf9514062e4de6b","freq","img/green_2bandit_b2.png","70","70","test","1","61","61","3","",""
"null","330352","pSARL_v2","pSARL_v2b6t168fy","5e1c138a2bf9514062e4de6b","freq_resp","img/green_2bandit_b.png","70","70","test","","","","3","",""
"null","330510","pSARL_v2","pSARL_v2b6t168fy","5e1c138a2bf9514062e4de6b","fixation","img/fixation.png","null","","test","","","","","",""
"296","330808","pSARL_v2","pSARL_v2b6t168fy","5e1c138a2bf9514062e4de6b","freq","img/green_2bandit_b2.png","70","70","test","1","62","62","3","",""
"null","331318","pSARL_v2","pSARL_v2b6t168fy","5e1c138a2bf9514062e4de6b","freq_resp","img/green_2bandit_b.png","70","70","test","","","","3","",""
"null","331474","pSARL_v2","pSARL_v2b6t168fy","5e1c138a2bf9514062e4de6b","fixation","img/fixation.png","null","","test","","","","","",""
"283.90000000037253","331760","pSARL_v2","pSARL_v2b6t168fy","5e1c138a2bf9514062e4de6b","freq","img/green_2bandit_b2.png","70","70","test","1","63","63","3","",""
"null","332294","pSARL_v2","pSARL_v2b6t168fy","5e1c138a2bf9514062e4de6b","freq_resp","img/green_2bandit_b.png","70","70","test","","","","3","",""
"null","332453","pSARL_v2","pSARL_v2b6t168fy","5e1c138a2bf9514062e4de6b","fixation","img/fixation.png","null","","test","","","","","",""
"268.29999999981374","332723","pSARL_v2","pSARL_v2b6t168fy","5e1c138a2bf9514062e4de6b","freq","img/green_2bandit_b2.png","70","70","test","1","64","64","3","",""
"null","333271","pSARL_v2","pSARL_v2b6t168fy","5e1c138a2bf9514062e4de6b","freq_resp","img/green_2bandit_b.png","70","70","test","","","","3","",""
"null","333428","pSARL_v2","pSARL_v2b6t168fy","5e1c138a2bf9514062e4de6b","fixation","img/fixation.png","null","","test","","","","","",""
"447.90000000037253","333878","pSARL_v2","pSARL_v2b6t168fy","5e1c138a2bf9514062e4de6b","reward","img/slot.png","74","","test","","","","","",""
"null","334641","pSARL_v2","pSARL_v2b6t168fy","5e1c138a2bf9514062e4de6b","points","<div class=""verylowPoints""> -7 </div>","null","na","test","","","","3","-7","2"
"456.3999999994412","335099","pSARL_v2","pSARL_v2b6t168fy","5e1c138a2bf9514062e4de6b","freq","img/green_2bandit_b2.png","70","70","test","1","65","65","4","",""
"null","335460","pSARL_v2","pSARL_v2b6t168fy","5e1c138a2bf9514062e4de6b","freq_resp","img/green_2bandit_b.png","70","70","test","","","","4","",""
"null","335616","pSARL_v2","pSARL_v2b6t168fy","5e1c138a2bf9514062e4de6b","fixation","img/fixation.png","null","","test","","","","","",""
"422.70000000018626","336040","pSARL_v2","pSARL_v2b6t168fy","5e1c138a2bf9514062e4de6b","freq","img/green_2bandit_b2.png","70","70","test","1","66","66","4","",""
"null","336434","pSARL_v2","pSARL_v2b6t168fy","5e1c138a2bf9514062e4de6b","freq_resp","img/green_2bandit_b.png","70","70","test","","","","4","",""
"null","336593","pSARL_v2","pSARL_v2b6t168fy","5e1c138a2bf9514062e4de6b","fixation","img/fixation.png","null","","test","","","","","",""
"377","336972","pSARL_v2","pSARL_v2b6t168fy","5e1c138a2bf9514062e4de6b","freq","img/green_2bandit_b2.png","70","70","test","1","67","67","4","",""
"null","337411","pSARL_v2","pSARL_v2b6t168fy","5e1c138a2bf9514062e4de6b","freq_resp","img/green_2bandit_b.png","70","70","test","","","","4","",""
"null","337569","pSARL_v2","pSARL_v2b6t168fy","5e1c138a2bf9514062e4de6b","fixation","img/fixation.png","null","","test","","","","","",""
"257.90000000037253","337829","pSARL_v2","pSARL_v2b6t168fy","5e1c138a2bf9514062e4de6b","freq","img/green_2bandit_b2.png","70","70","test","1","68","68","4","",""
"null","338375","pSARL_v2","pSARL_v2b6t168fy","5e1c138a2bf9514062e4de6b","freq_resp","img/green_2bandit_b.png","70","70","test","","","","4","",""
"null","338534","pSARL_v2","pSARL_v2b6t168fy","5e1c138a2bf9514062e4de6b","fixation","img/fixation.png","null","","test","","","","","",""
"309.40000000037253","338845","pSARL_v2","pSARL_v2b6t168fy","5e1c138a2bf9514062e4de6b","freq","img/green_2bandit_b2.png","70","70","test","1","69","69","4","",""
"null","339349","pSARL_v2","pSARL_v2b6t168fy","5e1c138a2bf9514062e4de6b","freq_resp","img/green_2bandit_b.png","70","70","test","","","","4","",""
"null","339508","pSARL_v2","pSARL_v2b6t168fy","5e1c138a2bf9514062e4de6b","fixation","img/fixation.png","null","","test","","","","","",""
"327.20000000018626","339837","pSARL_v2","pSARL_v2b6t168fy","5e1c138a2bf9514062e4de6b","freq","img/green_2bandit_b2.png","70","70","test","1","70","70","4","",""
"null","340312","pSARL_v2","pSARL_v2b6t168fy","5e1c138a2bf9514062e4de6b","freq_resp","img/green_2bandit_b.png","70","70","test","","","","4","",""
"null","340470","pSARL_v2","pSARL_v2b6t168fy","5e1c138a2bf9514062e4de6b","fixation","img/fixation.png","null","","test","","","","","",""
"296.69999999925494","340768","pSARL_v2","pSARL_v2b6t168fy","5e1c138a2bf9514062e4de6b","freq","img/green_2bandit_b2.png","70","70","test","1","71","71","4","",""
"null","341274","pSARL_v2","pSARL_v2b6t168fy","5e1c138a2bf9514062e4de6b","freq_resp","img/green_2bandit_b.png","70","70","test","","","","4","",""
"null","341431","pSARL_v2","pSARL_v2b6t168fy","5e1c138a2bf9514062e4de6b","fixation","img/fixation.png","null","","test","","","","","",""
"417.79999999981374","341850","pSARL_v2","pSARL_v2b6t168fy","5e1c138a2bf9514062e4de6b","freq","img/green_2bandit_b2.png","70","70","test","1","72","72","4","",""
"null","342235","pSARL_v2","pSARL_v2b6t168fy","5e1c138a2bf9514062e4de6b","freq_resp","img/green_2bandit_b.png","70","70","test","","","","4","",""
"null","342391","pSARL_v2","pSARL_v2b6t168fy","5e1c138a2bf9514062e4de6b","fixation","img/fixation.png","null","","test","","","","","",""
"338.69999999925494","342731","pSARL_v2","pSARL_v2b6t168fy","5e1c138a2bf9514062e4de6b","freq","img/green_2bandit_b2.png","70","70","test","1","73","73","4","",""
"null","343208","pSARL_v2","pSARL_v2b6t168fy","5e1c138a2bf9514062e4de6b","freq_resp","img/green_2bandit_b.png","70","70","test","","","","4","",""
"null","343367","pSARL_v2","pSARL_v2b6t168fy","5e1c138a2bf9514062e4de6b","fixation","img/fixation.png","null","","test","","","","","",""
"266.79999999981374","343636","pSARL_v2","pSARL_v2b6t168fy","5e1c138a2bf9514062e4de6b","freq","img/green_2bandit_b2.png","70","70","test","1","74","74","4","",""
"null","344182","pSARL_v2","pSARL_v2b6t168fy","5e1c138a2bf9514062e4de6b","freq_resp","img/green_2bandit_b.png","70","70","test","","","","4","",""
"null","344340","pSARL_v2","pSARL_v2b6t168fy","5e1c138a2bf9514062e4de6b","fixation","img/fixation.png","null","","test","","","","","",""
"382.3999999994412","344724","pSARL_v2","pSARL_v2b6t168fy","5e1c138a2bf9514062e4de6b","infreq","img/orange_2bandit_b2.png","68","68","test","1","75","75","4","",""
"null","345145","pSARL_v2","pSARL_v2b6t168fy","5e1c138a2bf9514062e4de6b","infreq_resp","img/orange_2bandit_b.png","68","68","test","","","","4","",""
"null","345300","pSARL_v2","pSARL_v2b6t168fy","5e1c138a2bf9514062e4de6b","fixation","img/fixation.png","null","","test","","","","","",""
"290.59999999962747","345592","pSARL_v2","pSARL_v2b6t168fy","5e1c138a2bf9514062e4de6b","freq","img/green_2bandit_b2.png","70","70","test","1","76","76","4","",""
"null","346108","pSARL_v2","pSARL_v2b6t168fy","5e1c138a2bf9514062e4de6b","freq_resp","img/green_2bandit_b.png","70","70","test","","","","4","",""
"null","346264","pSARL_v2","pSARL_v2b6t168fy","5e1c138a2bf9514062e4de6b","fixation","img/fixation.png","null","","test","","","","","",""
"392.5","346659","pSARL_v2","pSARL_v2b6t168fy","5e1c138a2bf9514062e4de6b","freq","img/green_2bandit_b2.png","70","70","test","1","77","77","4","",""
"null","347070","pSARL_v2","pSARL_v2b6t168fy","5e1c138a2bf9514062e4de6b","freq_resp","img/green_2bandit_b.png","70","70","test","","","","4","",""
"null","347227","pSARL_v2","pSARL_v2b6t168fy","5e1c138a2bf9514062e4de6b","fixation","img/fixation.png","null","","test","","","","","",""
"292.29999999981374","347521","pSARL_v2","pSARL_v2b6t168fy","5e1c138a2bf9514062e4de6b","freq","img/green_2bandit_b2.png","70","70","test","1","78","78","4","",""
"null","348032","pSARL_v2","pSARL_v2b6t168fy","5e1c138a2bf9514062e4de6b","freq_resp","img/green_2bandit_b.png","70","70","test","","","","4","",""
"null","348187","pSARL_v2","pSARL_v2b6t168fy","5e1c138a2bf9514062e4de6b","fixation","img/fixation.png","null","","test","","","","","",""
"467","348656","pSARL_v2","pSARL_v2b6t168fy","5e1c138a2bf9514062e4de6b","infreq","img/orange_2bandit_b2.png","68","68","test","1","79","79","4","",""
"null","349007","pSARL_v2","pSARL_v2b6t168fy","5e1c138a2bf9514062e4de6b","infreq_resp","img/orange_2bandit_b.png","68","68","test","","","","4","",""
"null","349164","pSARL_v2","pSARL_v2b6t168fy","5e1c138a2bf9514062e4de6b","fixation","img/fixation.png","null","","test","","","","","",""
"375.40000000037253","349541","pSARL_v2","pSARL_v2b6t168fy","5e1c138a2bf9514062e4de6b","freq","img/green_2bandit_b2.png","70","70","test","1","80","80","4","",""
"null","349969","pSARL_v2","pSARL_v2b6t168fy","5e1c138a2bf9514062e4de6b","freq_resp","img/green_2bandit_b.png","70","70","test","","","","4","",""
"null","350128","pSARL_v2","pSARL_v2b6t168fy","5e1c138a2bf9514062e4de6b","fixation","img/fixation.png","null","","test","","","","","",""
"515.6999999992549","350646","pSARL_v2","pSARL_v2b6t168fy","5e1c138a2bf9514062e4de6b","freq","img/green_2bandit_b2.png","70","70","test","1","81","81","4","",""
"null","350945","pSARL_v2","pSARL_v2b6t168fy","5e1c138a2bf9514062e4de6b","freq_resp","img/green_2bandit_b.png","70","70","test","","","","4","",""
"null","351102","pSARL_v2","pSARL_v2b6t168fy","5e1c138a2bf9514062e4de6b","fixation","img/fixation.png","null","","test","","","","","",""
"458.8999999994412","351562","pSARL_v2","pSARL_v2b6t168fy","5e1c138a2bf9514062e4de6b","freq","img/green_2bandit_b2.png","70","70","test","1","82","82","4","",""
"null","351917","pSARL_v2","pSARL_v2b6t168fy","5e1c138a2bf9514062e4de6b","freq_resp","img/green_2bandit_b.png","70","70","test","","","","4","",""
"null","352074","pSARL_v2","pSARL_v2b6t168fy","5e1c138a2bf9514062e4de6b","fixation","img/fixation.png","null","","test","","","","","",""
"287.70000000018626","352363","pSARL_v2","pSARL_v2b6t168fy","5e1c138a2bf9514062e4de6b","freq","img/green_2bandit_b2.png","70","70","test","1","83","83","4","",""
"null","352879","pSARL_v2","pSARL_v2b6t168fy","5e1c138a2bf9514062e4de6b","freq_resp","img/green_2bandit_b.png","70","70","test","","","","4","",""
"null","353037","pSARL_v2","pSARL_v2b6t168fy","5e1c138a2bf9514062e4de6b","fixation","img/fixation.png","null","","test","","","","","",""
"269.59999999962747","353308","pSARL_v2","pSARL_v2b6t168fy","5e1c138a2bf9514062e4de6b","freq","img/green_2bandit_b2.png","70","70","test","1","84","84","4","",""
"null","353856","pSARL_v2","pSARL_v2b6t168fy","5e1c138a2bf9514062e4de6b","freq_resp","img/green_2bandit_b.png","70","70","test","","","","4","",""
"null","354012","pSARL_v2","pSARL_v2b6t168fy","5e1c138a2bf9514062e4de6b","fixation","img/fixation.png","null","","test","","","","","",""
"285.3999999994412","354299","pSARL_v2","pSARL_v2b6t168fy","5e1c138a2bf9514062e4de6b","freq","img/green_2bandit_b2.png","70","70","test","1","85","85","4","",""
"null","354817","pSARL_v2","pSARL_v2b6t168fy","5e1c138a2bf9514062e4de6b","freq_resp","img/green_2bandit_b.png","70","70","test","","","","4","",""
"null","354975","pSARL_v2","pSARL_v2b6t168fy","5e1c138a2bf9514062e4de6b","fixation","img/fixation.png","null","","test","","","","","",""
"311.70000000018626","355288","pSARL_v2","pSARL_v2b6t168fy","5e1c138a2bf9514062e4de6b","freq","img/green_2bandit_b2.png","70","70","test","1","86","86","4","",""
"null","355783","pSARL_v2","pSARL_v2b6t168fy","5e1c138a2bf9514062e4de6b","freq_resp","img/green_2bandit_b.png","70","70","test","","","","4","",""
"null","355942","pSARL_v2","pSARL_v2b6t168fy","5e1c138a2bf9514062e4de6b","fixation","img/fixation.png","null","","test","","","","","",""
"278.70000000018626","356222","pSARL_v2","pSARL_v2b6t168fy","5e1c138a2bf9514062e4de6b","freq","img/green_2bandit_b2.png","70","70","test","1","87","87","4","",""
"null","356746","pSARL_v2","pSARL_v2b6t168fy","5e1c138a2bf9514062e4de6b","freq_resp","img/green_2bandit_b.png","70","70","test","","","","4","",""
"null","356905","pSARL_v2","pSARL_v2b6t168fy","5e1c138a2bf9514062e4de6b","fixation","img/fixation.png","null","","test","","","","","",""
"245.69999999925494","357152","pSARL_v2","pSARL_v2b6t168fy","5e1c138a2bf9514062e4de6b","freq","img/green_2bandit_b2.png","70","70","test","1","88","88","4","",""
"null","357709","pSARL_v2","pSARL_v2b6t168fy","5e1c138a2bf9514062e4de6b","freq_resp","img/green_2bandit_b.png","70","70","test","","","","4","",""
"null","357867","pSARL_v2","pSARL_v2b6t168fy","5e1c138a2bf9514062e4de6b","fixation","img/fixation.png","null","","test","","","","","",""
"370.79999999981374","358239","pSARL_v2","pSARL_v2b6t168fy","5e1c138a2bf9514062e4de6b","reward","img/slot.png","74","","test","","","","","",""
"null","359005","pSARL_v2","pSARL_v2b6t168fy","5e1c138a2bf9514062e4de6b","points","<div class=""verylowPoints""> -3 </div>","null","na","test","","","","4","-3","3"
"277.59999999962747","359284","pSARL_v2","pSARL_v2b6t168fy","5e1c138a2bf9514062e4de6b","freq","img/green_2bandit_b2.png","70","70","test","1","89","89","5","",""
"null","359824","pSARL_v2","pSARL_v2b6t168fy","5e1c138a2bf9514062e4de6b","freq_resp","img/green_2bandit_b.png","70","70","test","","","","5","",""
"null","359982","pSARL_v2","pSARL_v2b6t168fy","5e1c138a2bf9514062e4de6b","fixation","img/fixation.png","null","","test","","","","","",""
"335.29999999981374","360319","pSARL_v2","pSARL_v2b6t168fy","5e1c138a2bf9514062e4de6b","freq","img/green_2bandit_b2.png","70","70","test","1","90","90","5","",""
"null","360787","pSARL_v2","pSARL_v2b6t168fy","5e1c138a2bf9514062e4de6b","freq_resp","img/green_2bandit_b.png","70","70","test","","","","5","",""
"null","360945","pSARL_v2","pSARL_v2b6t168fy","5e1c138a2bf9514062e4de6b","fixation","img/fixation.png","null","","test","","","","","",""
"383.69999999925494","361330","pSARL_v2","pSARL_v2b6t168fy","5e1c138a2bf9514062e4de6b","freq","img/green_2bandit_b2.png","70","70","test","1","91","91","5","",""
"null","361763","pSARL_v2","pSARL_v2b6t168fy","5e1c138a2bf9514062e4de6b","freq_resp","img/green_2bandit_b.png","70","70","test","","","","5","",""
"null","361919","pSARL_v2","pSARL_v2b6t168fy","5e1c138a2bf9514062e4de6b","fixation","img/fixation.png","null","","test","","","","","",""
"334.79999999981374","362256","pSARL_v2","pSARL_v2b6t168fy","5e1c138a2bf9514062e4de6b","freq","img/green_2bandit_b2.png","70","70","test","1","92","92","5","",""
"null","362738","pSARL_v2","pSARL_v2b6t168fy","5e1c138a2bf9514062e4de6b","freq_resp","img/green_2bandit_b.png","70","70","test","","","","5","",""
"null","362896","pSARL_v2","pSARL_v2b6t168fy","5e1c138a2bf9514062e4de6b","fixation","img/fixation.png","null","","test","","","","","",""
"307.90000000037253","363206","pSARL_v2","pSARL_v2b6t168fy","5e1c138a2bf9514062e4de6b","freq","img/green_2bandit_b2.png","70","70","test","1","93","93","5","",""
"null","363715","pSARL_v2","pSARL_v2b6t168fy","5e1c138a2bf9514062e4de6b","freq_resp","img/green_2bandit_b.png","70","70","test","","","","5","",""
"null","363875","pSARL_v2","pSARL_v2b6t168fy","5e1c138a2bf9514062e4de6b","fixation","img/fixation.png","null","","test","","","","","",""
"286.59999999962747","364163","pSARL_v2","pSARL_v2b6t168fy","5e1c138a2bf9514062e4de6b","freq","img/green_2bandit_b2.png","70","70","test","1","94","94","5","",""
"null","364682","pSARL_v2","pSARL_v2b6t168fy","5e1c138a2bf9514062e4de6b","freq_resp","img/green_2bandit_b.png","70","70","test","","","","5","",""
"null","364839","pSARL_v2","pSARL_v2b6t168fy","5e1c138a2bf9514062e4de6b","fixation","img/fixation.png","null","","test","","","","","",""
"335.59999999962747","365176","pSARL_v2","pSARL_v2b6t168fy","5e1c138a2bf9514062e4de6b","freq","img/green_2bandit_b2.png","70","70","test","1","95","95","5","",""
"null","365644","pSARL_v2","pSARL_v2b6t168fy","5e1c138a2bf9514062e4de6b","freq_resp","img/green_2bandit_b.png","70","70","test","","","","5","",""
"null","365800","pSARL_v2","pSARL_v2b6t168fy","5e1c138a2bf9514062e4de6b","fixation","img/fixation.png","null","","test","","","","","",""
"298.09999999962747","366100","pSARL_v2","pSARL_v2b6t168fy","5e1c138a2bf9514062e4de6b","freq","img/green_2bandit_b2.png","70","70","test","1","96","96","5","",""
"null","366618","pSARL_v2","pSARL_v2b6t168fy","5e1c138a2bf9514062e4de6b","freq_resp","img/green_2bandit_b.png","70","70","test","","","","5","",""
"null","366776","pSARL_v2","pSARL_v2b6t168fy","5e1c138a2bf9514062e4de6b","fixation","img/fixation.png","null","","test","","","","","",""
"250.79999999981374","367028","pSARL_v2","pSARL_v2b6t168fy","5e1c138a2bf9514062e4de6b","freq","img/green_2bandit_b2.png","70","70","test","1","97","97","5","",""
"null","367587","pSARL_v2","pSARL_v2b6t168fy","5e1c138a2bf9514062e4de6b","freq_resp","img/green_2bandit_b.png","70","70","test","","","","5","",""
"null","367745","pSARL_v2","pSARL_v2b6t168fy","5e1c138a2bf9514062e4de6b","fixation","img/fixation.png","null","","test","","","","","",""
"254.79999999981374","368001","pSARL_v2","pSARL_v2b6t168fy","5e1c138a2bf9514062e4de6b","freq","img/green_2bandit_b2.png","70","70","test","1","98","98","5","",""
"null","368560","pSARL_v2","pSARL_v2b6t168fy","5e1c138a2bf9514062e4de6b","freq_resp","img/green_2bandit_b.png","70","70","test","","","","5","",""
"null","368716","pSARL_v2","pSARL_v2b6t168fy","5e1c138a2bf9514062e4de6b","fixation","img/fixation.png","null","","test","","","","","",""
"417.79999999981374","369135","pSARL_v2","pSARL_v2b6t168fy","5e1c138a2bf9514062e4de6b","infreq","img/orange_2bandit_b2.png","68","68","test","1","99","99","5","",""
"null","369523","pSARL_v2","pSARL_v2b6t168fy","5e1c138a2bf9514062e4de6b","infreq_resp","img/orange_2bandit_b.png","68","68","test","","","","5","",""
"null","369681","pSARL_v2","pSARL_v2b6t168fy","5e1c138a2bf9514062e4de6b","fixation","img/fixation.png","null","","test","","","","","",""
"413","370095","pSARL_v2","pSARL_v2b6t168fy","5e1c138a2bf9514062e4de6b","infreq","img/orange_2bandit_b2.png","68","68","test","1","100","100","5","",""
"null","370499","pSARL_v2","pSARL_v2b6t168fy","5e1c138a2bf9514062e4de6b","infreq_resp","img/orange_2bandit_b.png","68","68","test","","","","5","",""
"null","370658","pSARL_v2","pSARL_v2b6t168fy","5e1c138a2bf9514062e4de6b","fixation","img/fixation.png","null","","test","","","","","",""
"364","371023","pSARL_v2","pSARL_v2b6t168fy","5e1c138a2bf9514062e4de6b","freq","img/green_2bandit_b2.png","70","70","test","1","101","101","5","",""
"null","371476","pSARL_v2","pSARL_v2b6t168fy","5e1c138a2bf9514062e4de6b","freq_resp","img/green_2bandit_b.png","70","70","test","","","","5","",""
"null","371633","pSARL_v2","pSARL_v2b6t168fy","5e1c138a2bf9514062e4de6b","fixation","img/fixation.png","null","","test","","","","","",""
"344.59999999962747","371979","pSARL_v2","pSARL_v2b6t168fy","5e1c138a2bf9514062e4de6b","freq","img/green_2bandit_b2.png","70","70","test","1","102","102","5","",""
"null","372437","pSARL_v2","pSARL_v2b6t168fy","5e1c138a2bf9514062e4de6b","freq_resp","img/green_2bandit_b.png","70","70","test","","","","5","",""
"null","372593","pSARL_v2","pSARL_v2b6t168fy","5e1c138a2bf9514062e4de6b","fixation","img/fixation.png","null","","test","","","","","",""
"314.90000000037253","372910","pSARL_v2","pSARL_v2b6t168fy","5e1c138a2bf9514062e4de6b","freq","img/green_2bandit_b2.png","70","70","test","1","103","103","5","",""
"null","373400","pSARL_v2","pSARL_v2b6t168fy","5e1c138a2bf9514062e4de6b","freq_resp","img/green_2bandit_b.png","70","70","test","","","","5","",""
"null","373557","pSARL_v2","pSARL_v2b6t168fy","5e1c138a2bf9514062e4de6b","fixation","img/fixation.png","null","","test","","","","","",""
"265.79999999981374","373824","pSARL_v2","pSARL_v2b6t168fy","5e1c138a2bf9514062e4de6b","freq","img/green_2bandit_b2.png","70","70","test","1","104","104","5","",""
"null","374376","pSARL_v2","pSARL_v2b6t168fy","5e1c138a2bf9514062e4de6b","freq_resp","img/green_2bandit_b.png","70","70","test","","","","5","",""
"null","374535","pSARL_v2","pSARL_v2b6t168fy","5e1c138a2bf9514062e4de6b","fixation","img/fixation.png","null","","test","","","","","",""
"286.59999999962747","374823","pSARL_v2","pSARL_v2b6t168fy","5e1c138a2bf9514062e4de6b","freq","img/green_2bandit_b2.png","70","70","test","1","105","105","5","",""
"null","375339","pSARL_v2","pSARL_v2b6t168fy","5e1c138a2bf9514062e4de6b","freq_resp","img/green_2bandit_b.png","70","70","test","","","","5","",""
"null","375495","pSARL_v2","pSARL_v2b6t168fy","5e1c138a2bf9514062e4de6b","fixation","img/fixation.png","null","","test","","","","","",""
"290.80000000074506","375788","pSARL_v2","pSARL_v2b6t168fy","5e1c138a2bf9514062e4de6b","freq","img/green_2bandit_b2.png","70","70","test","1","106","106","5","",""
"null","376301","pSARL_v2","pSARL_v2b6t168fy","5e1c138a2bf9514062e4de6b","freq_resp","img/green_2bandit_b.png","70","70","test","","","","5","",""
"null","376459","pSARL_v2","pSARL_v2b6t168fy","5e1c138a2bf9514062e4de6b","fixation","img/fixation.png","null","","test","","","","","",""
"268.1000000005588","376729","pSARL_v2","pSARL_v2b6t168fy","5e1c138a2bf9514062e4de6b","freq","img/green_2bandit_b2.png","70","70","test","1","107","107","5","",""
"null","377265","pSARL_v2","pSARL_v2b6t168fy","5e1c138a2bf9514062e4de6b","freq_resp","img/green_2bandit_b.png","70","70","test","","","","5","",""
"null","377423","pSARL_v2","pSARL_v2b6t168fy","5e1c138a2bf9514062e4de6b","fixation","img/fixation.png","null","","test","","","","","",""
"298.19999999925494","377723","pSARL_v2","pSARL_v2b6t168fy","5e1c138a2bf9514062e4de6b","freq","img/green_2bandit_b2.png","70","70","test","1","108","108","5","",""
"null","378238","pSARL_v2","pSARL_v2b6t168fy","5e1c138a2bf9514062e4de6b","freq_resp","img/green_2bandit_b.png","70","70","test","","","","5","",""
"null","378397","pSARL_v2","pSARL_v2b6t168fy","5e1c138a2bf9514062e4de6b","fixation","img/fixation.png","null","","test","","","","","",""
"268.69999999925494","378667","pSARL_v2","pSARL_v2b6t168fy","5e1c138a2bf9514062e4de6b","freq","img/green_2bandit_b2.png","70","70","test","1","109","109","5","",""
"null","379210","pSARL_v2","pSARL_v2b6t168fy","5e1c138a2bf9514062e4de6b","freq_resp","img/green_2bandit_b.png","70","70","test","","","","5","",""
"null","379367","pSARL_v2","pSARL_v2b6t168fy","5e1c138a2bf9514062e4de6b","fixation","img/fixation.png","null","","test","","","","","",""
"268.90000000037253","379637","pSARL_v2","pSARL_v2b6t168fy","5e1c138a2bf9514062e4de6b","freq","img/green_2bandit_b2.png","70","70","test","1","110","110","5","",""
"null","380171","pSARL_v2","pSARL_v2b6t168fy","5e1c138a2bf9514062e4de6b","freq_resp","img/green_2bandit_b.png","70","70","test","","","","5","",""
"null","380329","pSARL_v2","pSARL_v2b6t168fy","5e1c138a2bf9514062e4de6b","fixation","img/fixation.png","null","","test","","","","","",""
"477.79999999981374","380808","pSARL_v2","pSARL_v2b6t168fy","5e1c138a2bf9514062e4de6b","freq","img/green_2bandit_b2.png","70","70","test","1","111","111","5","",""
"null","381146","pSARL_v2","pSARL_v2b6t168fy","5e1c138a2bf9514062e4de6b","freq_resp","img/green_2bandit_b.png","70","70","test","","","","5","",""
"null","381304","pSARL_v2","pSARL_v2b6t168fy","5e1c138a2bf9514062e4de6b","fixation","img/fixation.png","null","","test","","","","","",""
"424.29999999981374","381730","pSARL_v2","pSARL_v2b6t168fy","5e1c138a2bf9514062e4de6b","reward","img/slot.png","74","","test","","","","","",""
"null","382487","pSARL_v2","pSARL_v2b6t168fy","5e1c138a2bf9514062e4de6b","points","<div class=""veryhighPoints""> +1 </div>","null","na","test","","","","5","1","4"
"481.59999999962747","382970","pSARL_v2","pSARL_v2b6t168fy","5e1c138a2bf9514062e4de6b","freq","img/green_2bandit_b2.png","70","70","test","1","112","112","6","",""
"null","383293","pSARL_v2","pSARL_v2b6t168fy","5e1c138a2bf9514062e4de6b","freq_resp","img/green_2bandit_b.png","70","70","test","","","","6","",""
"null","383449","pSARL_v2","pSARL_v2b6t168fy","5e1c138a2bf9514062e4de6b","fixation","img/fixation.png","null","","test","","","","","",""
"450.6000000005588","383901","pSARL_v2","pSARL_v2b6t168fy","5e1c138a2bf9514062e4de6b","freq","img/green_2bandit_b2.png","70","70","test","1","113","113","6","",""
"null","384258","pSARL_v2","pSARL_v2b6t168fy","5e1c138a2bf9514062e4de6b","freq_resp","img/green_2bandit_b.png","70","70","test","","","","6","",""
"null","384414","pSARL_v2","pSARL_v2b6t168fy","5e1c138a2bf9514062e4de6b","fixation","img/fixation.png","null","","test","","","","","",""
"558.7999999998137","384974","pSARL_v2","pSARL_v2b6t168fy","5e1c138a2bf9514062e4de6b","freq","img/green_2bandit_b2.png","70","70","test","1","114","114","6","",""
"null","385218","pSARL_v2","pSARL_v2b6t168fy","5e1c138a2bf9514062e4de6b","freq_resp","img/green_2bandit_b.png","70","70","test","","","","6","",""
"null","385375","pSARL_v2","pSARL_v2b6t168fy","5e1c138a2bf9514062e4de6b","fixation","img/fixation.png","null","","test","","","","","",""
"487.20000000018626","385864","pSARL_v2","pSARL_v2b6t168fy","5e1c138a2bf9514062e4de6b","freq","img/green_2bandit_b2.png","70","70","test","1","115","115","6","",""
"null","386191","pSARL_v2","pSARL_v2b6t168fy","5e1c138a2bf9514062e4de6b","freq_resp","img/green_2bandit_b.png","70","70","test","","","","6","",""
"null","386349","pSARL_v2","pSARL_v2b6t168fy","5e1c138a2bf9514062e4de6b","fixation","img/fixation.png","null","","test","","","","","",""
"467.1000000005588","386818","pSARL_v2","pSARL_v2b6t168fy","5e1c138a2bf9514062e4de6b","infreq","img/orange_2bandit_b2.png","68","68","test","1","116","116","6","",""
"null","387155","pSARL_v2","pSARL_v2b6t168fy","5e1c138a2bf9514062e4de6b","infreq_resp","img/orange_2bandit_b.png","68","68","test","","","","6","",""
"null","387310","pSARL_v2","pSARL_v2b6t168fy","5e1c138a2bf9514062e4de6b","fixation","img/fixation.png","null","","test","","","","","",""
"556.1999999992549","387868","pSARL_v2","pSARL_v2b6t168fy","5e1c138a2bf9514062e4de6b","freq","img/green_2bandit_b2.png","70","70","test","1","117","117","6","",""
"null","388129","pSARL_v2","pSARL_v2b6t168fy","5e1c138a2bf9514062e4de6b","freq_resp","img/green_2bandit_b.png","70","70","test","","","","6","",""
"null","388285","pSARL_v2","pSARL_v2b6t168fy","5e1c138a2bf9514062e4de6b","fixation","img/fixation.png","null","","test","","","","","",""
"510","388797","pSARL_v2","pSARL_v2b6t168fy","5e1c138a2bf9514062e4de6b","freq","img/green_2bandit_b2.png","70","70","test","1","118","118","6","",""
"null","389104","pSARL_v2","pSARL_v2b6t168fy","5e1c138a2bf9514062e4de6b","freq_resp","img/green_2bandit_b.png","70","70","test","","","","6","",""
"null","389262","pSARL_v2","pSARL_v2b6t168fy","5e1c138a2bf9514062e4de6b","fixation","img/fixation.png","null","","test","","","","","",""
"359.79999999981374","389623","pSARL_v2","pSARL_v2b6t168fy","5e1c138a2bf9514062e4de6b","freq","img/green_2bandit_b2.png","70","70","test","1","119","119","6","",""
"null","390079","pSARL_v2","pSARL_v2b6t168fy","5e1c138a2bf9514062e4de6b","freq_resp","img/green_2bandit_b.png","70","70","test","","","","6","",""
"null","390236","pSARL_v2","pSARL_v2b6t168fy","5e1c138a2bf9514062e4de6b","fixation","img/fixation.png","null","","test","","","","","",""
"325.29999999981374","390564","pSARL_v2","pSARL_v2b6t168fy","5e1c138a2bf9514062e4de6b","freq","img/green_2bandit_b2.png","70","70","test","1","120","120","6","",""
"null","391043","pSARL_v2","pSARL_v2b6t168fy","5e1c138a2bf9514062e4de6b","freq_resp","img/green_2bandit_b.png","70","70","test","","","","6","",""
"null","391201","pSARL_v2","pSARL_v2b6t168fy","5e1c138a2bf9514062e4de6b","fixation","img/fixation.png","null","","test","","","","","",""
"311.29999999981374","391514","pSARL_v2","pSARL_v2b6t168fy","5e1c138a2bf9514062e4de6b","freq","img/green_2bandit_b2.png","70","70","test","1","121","121","6","",""
"null","392007","pSARL_v2","pSARL_v2b6t168fy","5e1c138a2bf9514062e4de6b","freq_resp","img/green_2bandit_b.png","70","70","test","","","","6","",""
"null","392165","pSARL_v2","pSARL_v2b6t168fy","5e1c138a2bf9514062e4de6b","fixation","img/fixation.png","null","","test","","","","","",""
"377","392544","pSARL_v2","pSARL_v2b6t168fy","5e1c138a2bf9514062e4de6b","infreq","img/orange_2bandit_b2.png","68","68","test","1","122","122","6","",""
"null","392983","pSARL_v2","pSARL_v2b6t168fy","5e1c138a2bf9514062e4de6b","infreq_resp","img/orange_2bandit_b.png","68","68","test","","","","6","",""
"null","393143","pSARL_v2","pSARL_v2b6t168fy","5e1c138a2bf9514062e4de6b","fixation","img/fixation.png","null","","test","","","","","",""
"421.40000000037253","393566","pSARL_v2","pSARL_v2b6t168fy","5e1c138a2bf9514062e4de6b","freq","img/green_2bandit_b2.png","70","70","test","1","123","123","6","",""
"null","393960","pSARL_v2","pSARL_v2b6t168fy","5e1c138a2bf9514062e4de6b","freq_resp","img/green_2bandit_b.png","70","70","test","","","","6","",""
"null","394119","pSARL_v2","pSARL_v2b6t168fy","5e1c138a2bf9514062e4de6b","fixation","img/fixation.png","null","","test","","","","","",""
"464.29999999981374","394585","pSARL_v2","pSARL_v2b6t168fy","5e1c138a2bf9514062e4de6b","infreq","img/orange_2bandit_b2.png","68","68","test","1","124","124","6","",""
"null","394923","pSARL_v2","pSARL_v2b6t168fy","5e1c138a2bf9514062e4de6b","infreq_resp","img/orange_2bandit_b.png","68","68","test","","","","6","",""
"null","395080","pSARL_v2","pSARL_v2b6t168fy","5e1c138a2bf9514062e4de6b","fixation","img/fixation.png","null","","test","","","","","",""
"328.5","395411","pSARL_v2","pSARL_v2b6t168fy","5e1c138a2bf9514062e4de6b","freq","img/green_2bandit_b2.png","70","70","test","1","125","125","6","",""
"null","395899","pSARL_v2","pSARL_v2b6t168fy","5e1c138a2bf9514062e4de6b","freq_resp","img/green_2bandit_b.png","70","70","test","","","","6","",""
"null","396058","pSARL_v2","pSARL_v2b6t168fy","5e1c138a2bf9514062e4de6b","fixation","img/fixation.png","null","","test","","","","","",""
"288.3999999994412","396348","pSARL_v2","pSARL_v2b6t168fy","5e1c138a2bf9514062e4de6b","freq","img/green_2bandit_b2.png","70","70","test","1","126","126","6","",""
"null","396864","pSARL_v2","pSARL_v2b6t168fy","5e1c138a2bf9514062e4de6b","freq_resp","img/green_2bandit_b.png","70","70","test","","","","6","",""
"null","397021","pSARL_v2","pSARL_v2b6t168fy","5e1c138a2bf9514062e4de6b","fixation","img/fixation.png","null","","test","","","","","",""
"264.5","397287","pSARL_v2","pSARL_v2b6t168fy","5e1c138a2bf9514062e4de6b","freq","img/green_2bandit_b2.png","70","70","test","1","127","127","6","",""
"null","397833","pSARL_v2","pSARL_v2b6t168fy","5e1c138a2bf9514062e4de6b","freq_resp","img/green_2bandit_b.png","70","70","test","","","","6","",""
"null","397990","pSARL_v2","pSARL_v2b6t168fy","5e1c138a2bf9514062e4de6b","fixation","img/fixation.png","null","","test","","","","","",""
"235.59999999962747","398227","pSARL_v2","pSARL_v2b6t168fy","5e1c138a2bf9514062e4de6b","freq","img/green_2bandit_b2.png","70","70","test","1","128","128","6","",""
"null","398794","pSARL_v2","pSARL_v2b6t168fy","5e1c138a2bf9514062e4de6b","freq_resp","img/green_2bandit_b.png","70","70","test","","","","6","",""
"null","398952","pSARL_v2","pSARL_v2b6t168fy","5e1c138a2bf9514062e4de6b","fixation","img/fixation.png","null","","test","","","","","",""
"332.69999999925494","399286","pSARL_v2","pSARL_v2b6t168fy","5e1c138a2bf9514062e4de6b","freq","img/green_2bandit_b2.png","70","70","test","1","129","129","6","",""
"null","399765","pSARL_v2","pSARL_v2b6t168fy","5e1c138a2bf9514062e4de6b","freq_resp","img/green_2bandit_b.png","70","70","test","","","","6","",""
"null","399920","pSARL_v2","pSARL_v2b6t168fy","5e1c138a2bf9514062e4de6b","fixation","img/fixation.png","null","","test","","","","","",""
"279.79999999981374","400201","pSARL_v2","pSARL_v2b6t168fy","5e1c138a2bf9514062e4de6b","freq","img/green_2bandit_b2.png","70","70","test","1","130","130","6","",""
"null","400737","pSARL_v2","pSARL_v2b6t168fy","5e1c138a2bf9514062e4de6b","freq_resp","img/green_2bandit_b.png","70","70","test","","","","6","",""
"null","400894","pSARL_v2","pSARL_v2b6t168fy","5e1c138a2bf9514062e4de6b","fixation","img/fixation.png","null","","test","","","","","",""
"289.90000000037253","401186","pSARL_v2","pSARL_v2b6t168fy","5e1c138a2bf9514062e4de6b","freq","img/green_2bandit_b2.png","70","70","test","1","131","131","6","",""
"null","401712","pSARL_v2","pSARL_v2b6t168fy","5e1c138a2bf9514062e4de6b","freq_resp","img/green_2bandit_b.png","70","70","test","","","","6","",""
"null","401870","pSARL_v2","pSARL_v2b6t168fy","5e1c138a2bf9514062e4de6b","fixation","img/fixation.png","null","","test","","","","","",""
"241.59999999962747","402113","pSARL_v2","pSARL_v2b6t168fy","5e1c138a2bf9514062e4de6b","freq","img/green_2bandit_b2.png","70","70","test","1","132","132","6","",""
"null","402675","pSARL_v2","pSARL_v2b6t168fy","5e1c138a2bf9514062e4de6b","freq_resp","img/green_2bandit_b.png","70","70","test","","","","6","",""
"null","402833","pSARL_v2","pSARL_v2b6t168fy","5e1c138a2bf9514062e4de6b","fixation","img/fixation.png","null","","test","","","","","",""
"254.8999999994412","403090","pSARL_v2","pSARL_v2b6t168fy","5e1c138a2bf9514062e4de6b","freq","img/green_2bandit_b2.png","70","70","test","1","133","133","6","",""
"null","403638","pSARL_v2","pSARL_v2b6t168fy","5e1c138a2bf9514062e4de6b","freq_resp","img/green_2bandit_b.png","70","70","test","","","","6","",""
"null","403797","pSARL_v2","pSARL_v2b6t168fy","5e1c138a2bf9514062e4de6b","fixation","img/fixation.png","null","","test","","","","","",""
"494.59999999962747","404293","pSARL_v2","pSARL_v2b6t168fy","5e1c138a2bf9514062e4de6b","reward","img/slot.png","74","","test","","","","","",""
"null","405060","pSARL_v2","pSARL_v2b6t168fy","5e1c138a2bf9514062e4de6b","points","<div class=""verylowPoints""> -7 </div>","null","na","test","","","","6","-7","5"
"752.5999999996275","405815","pSARL_v2","pSARL_v2b6t168fy","5e1c138a2bf9514062e4de6b","freq","img/green_2bandit_b2.png","70","70","test","1","134","134","7","",""
"null","405865","pSARL_v2","pSARL_v2b6t168fy","5e1c138a2bf9514062e4de6b","freq_resp","img/green_2bandit_b.png","70","70","test","","","","7","",""
"null","406021","pSARL_v2","pSARL_v2b6t168fy","5e1c138a2bf9514062e4de6b","fixation","img/fixation.png","null","","test","","","","","",""
"544.2000000001863","406567","pSARL_v2","pSARL_v2b6t168fy","5e1c138a2bf9514062e4de6b","freq","img/green_2bandit_b2.png","70","70","test","1","135","135","7","",""
"null","406829","pSARL_v2","pSARL_v2b6t168fy","5e1c138a2bf9514062e4de6b","freq_resp","img/green_2bandit_b.png","70","70","test","","","","7","",""
"null","406986","pSARL_v2","pSARL_v2b6t168fy","5e1c138a2bf9514062e4de6b","fixation","img/fixation.png","null","","test","","","","","",""
"336.59999999962747","407324","pSARL_v2","pSARL_v2b6t168fy","5e1c138a2bf9514062e4de6b","freq","img/green_2bandit_b2.png","70","70","test","1","136","136","7","",""
"null","407800","pSARL_v2","pSARL_v2b6t168fy","5e1c138a2bf9514062e4de6b","freq_resp","img/green_2bandit_b.png","70","70","test","","","","7","",""
"null","407959","pSARL_v2","pSARL_v2b6t168fy","5e1c138a2bf9514062e4de6b","fixation","img/fixation.png","null","","test","","","","","",""
"263.70000000018626","408225","pSARL_v2","pSARL_v2b6t168fy","5e1c138a2bf9514062e4de6b","freq","img/green_2bandit_b2.png","70","70","test","1","137","137","7","",""
"null","408765","pSARL_v2","pSARL_v2b6t168fy","5e1c138a2bf9514062e4de6b","freq_resp","img/green_2bandit_b.png","70","70","test","","","","7","",""
"null","408924","pSARL_v2","pSARL_v2b6t168fy","5e1c138a2bf9514062e4de6b","fixation","img/fixation.png","null","","test","","","","","",""
"285.8999999994412","409211","pSARL_v2","pSARL_v2b6t168fy","5e1c138a2bf9514062e4de6b","freq","img/green_2bandit_b2.png","70","70","test","1","138","138","7","",""
"null","409743","pSARL_v2","pSARL_v2b6t168fy","5e1c138a2bf9514062e4de6b","freq_resp","img/green_2bandit_b.png","70","70","test","","","","7","",""
"null","409898","pSARL_v2","pSARL_v2b6t168fy","5e1c138a2bf9514062e4de6b","fixation","img/fixation.png","null","","test","","","","","",""
"286.69999999925494","410186","pSARL_v2","pSARL_v2b6t168fy","5e1c138a2bf9514062e4de6b","freq","img/green_2bandit_b2.png","70","70","test","1","139","139","7","",""
"null","410715","pSARL_v2","pSARL_v2b6t168fy","5e1c138a2bf9514062e4de6b","freq_resp","img/green_2bandit_b.png","70","70","test","","","","7","",""
"null","410872","pSARL_v2","pSARL_v2b6t168fy","5e1c138a2bf9514062e4de6b","fixation","img/fixation.png","null","","test","","","","","",""
"248.3999999994412","411122","pSARL_v2","pSARL_v2b6t168fy","5e1c138a2bf9514062e4de6b","freq","img/green_2bandit_b2.png","70","70","test","1","140","140","7","",""
"null","411687","pSARL_v2","pSARL_v2b6t168fy","5e1c138a2bf9514062e4de6b","freq_resp","img/green_2bandit_b.png","70","70","test","","","","7","",""
"null","411842","pSARL_v2","pSARL_v2b6t168fy","5e1c138a2bf9514062e4de6b","fixation","img/fixation.png","null","","test","","","","","",""
"239.8999999994412","412083","pSARL_v2","pSARL_v2b6t168fy","5e1c138a2bf9514062e4de6b","freq","img/green_2bandit_b2.png","70","70","test","1","141","141","7","",""
"null","412660","pSARL_v2","pSARL_v2b6t168fy","5e1c138a2bf9514062e4de6b","freq_resp","img/green_2bandit_b.png","70","70","test","","","","7","",""
"null","412817","pSARL_v2","pSARL_v2b6t168fy","5e1c138a2bf9514062e4de6b","fixation","img/fixation.png","null","","test","","","","","",""
"234.19999999925494","413053","pSARL_v2","pSARL_v2b6t168fy","5e1c138a2bf9514062e4de6b","freq","img/green_2bandit_b2.png","70","70","test","1","142","142","7","",""
"null","413634","pSARL_v2","pSARL_v2b6t168fy","5e1c138a2bf9514062e4de6b","freq_resp","img/green_2bandit_b.png","70","70","test","","","","7","",""
"null","413792","pSARL_v2","pSARL_v2b6t168fy","5e1c138a2bf9514062e4de6b","fixation","img/fixation.png","null","","test","","","","","",""
"257.29999999981374","414051","pSARL_v2","pSARL_v2b6t168fy","5e1c138a2bf9514062e4de6b","freq","img/green_2bandit_b2.png","70","70","test","1","143","143","7","",""
"null","414597","pSARL_v2","pSARL_v2b6t168fy","5e1c138a2bf9514062e4de6b","freq_resp","img/green_2bandit_b.png","70","70","test","","","","7","",""
"null","414755","pSARL_v2","pSARL_v2b6t168fy","5e1c138a2bf9514062e4de6b","fixation","img/fixation.png","null","","test","","","","","",""
"267.6000000005588","415024","pSARL_v2","pSARL_v2b6t168fy","5e1c138a2bf9514062e4de6b","freq","img/green_2bandit_b2.png","70","70","test","1","144","144","7","",""
"null","415561","pSARL_v2","pSARL_v2b6t168fy","5e1c138a2bf9514062e4de6b","freq_resp","img/green_2bandit_b.png","70","70","test","","","","7","",""
"null","415718","pSARL_v2","pSARL_v2b6t168fy","5e1c138a2bf9514062e4de6b","fixation","img/fixation.png","null","","test","","","","","",""
"320.79999999981374","416040","pSARL_v2","pSARL_v2b6t168fy","5e1c138a2bf9514062e4de6b","freq","img/green_2bandit_b2.png","70","70","test","1","145","145","7","",""
"null","416523","pSARL_v2","pSARL_v2b6t168fy","5e1c138a2bf9514062e4de6b","freq_resp","img/green_2bandit_b.png","70","70","test","","","","7","",""
"null","416682","pSARL_v2","pSARL_v2b6t168fy","5e1c138a2bf9514062e4de6b","fixation","img/fixation.png","null","","test","","","","","",""
"274","416958","pSARL_v2","pSARL_v2b6t168fy","5e1c138a2bf9514062e4de6b","freq","img/green_2bandit_b2.png","70","70","test","1","146","146","7","",""
"null","417489","pSARL_v2","pSARL_v2b6t168fy","5e1c138a2bf9514062e4de6b","freq_resp","img/green_2bandit_b.png","70","70","test","","","","7","",""
"null","417645","pSARL_v2","pSARL_v2b6t168fy","5e1c138a2bf9514062e4de6b","fixation","img/fixation.png","null","","test","","","","","",""
"200.79999999981374","417847","pSARL_v2","pSARL_v2b6t168fy","5e1c138a2bf9514062e4de6b","freq","img/green_2bandit_b2.png","70","70","test","1","147","147","7","",""
"null","418464","pSARL_v2","pSARL_v2b6t168fy","5e1c138a2bf9514062e4de6b","freq_resp","img/green_2bandit_b.png","70","70","test","","","","7","",""
"null","418623","pSARL_v2","pSARL_v2b6t168fy","5e1c138a2bf9514062e4de6b","fixation","img/fixation.png","null","","test","","","","","",""
"256.59999999962747","418881","pSARL_v2","pSARL_v2b6t168fy","5e1c138a2bf9514062e4de6b","freq","img/green_2bandit_b2.png","70","70","test","1","148","148","7","",""
"null","419429","pSARL_v2","pSARL_v2b6t168fy","5e1c138a2bf9514062e4de6b","freq_resp","img/green_2bandit_b.png","70","70","test","","","","7","",""
"null","419584","pSARL_v2","pSARL_v2b6t168fy","5e1c138a2bf9514062e4de6b","fixation","img/fixation.png","null","","test","","","","","",""
"370.79999999981374","419956","pSARL_v2","pSARL_v2b6t168fy","5e1c138a2bf9514062e4de6b","infreq","img/orange_2bandit_b2.png","68","68","test","1","149","149","7","",""
"null","420389","pSARL_v2","pSARL_v2b6t168fy","5e1c138a2bf9514062e4de6b","infreq_resp","img/orange_2bandit_b.png","68","68","test","","","","7","",""
"null","420546","pSARL_v2","pSARL_v2b6t168fy","5e1c138a2bf9514062e4de6b","fixation","img/fixation.png","null","","test","","","","","",""
"359.69999999925494","420907","pSARL_v2","pSARL_v2b6t168fy","5e1c138a2bf9514062e4de6b","infreq","img/orange_2bandit_b2.png","68","68","test","1","150","150","7","",""
"null","421353","pSARL_v2","pSARL_v2b6t168fy","5e1c138a2bf9514062e4de6b","infreq_resp","img/orange_2bandit_b.png","68","68","test","","","","7","",""
"null","421511","pSARL_v2","pSARL_v2b6t168fy","5e1c138a2bf9514062e4de6b","fixation","img/fixation.png","null","","test","","","","","",""
"330.5","421844","pSARL_v2","pSARL_v2b6t168fy","5e1c138a2bf9514062e4de6b","freq","img/green_2bandit_b2.png","70","70","test","1","151","151","7","",""
"null","422326","pSARL_v2","pSARL_v2b6t168fy","5e1c138a2bf9514062e4de6b","freq_resp","img/green_2bandit_b.png","70","70","test","","","","7","",""
"null","422484","pSARL_v2","pSARL_v2b6t168fy","5e1c138a2bf9514062e4de6b","fixation","img/fixation.png","null","","test","","","","","",""
"270.69999999925494","422756","pSARL_v2","pSARL_v2b6t168fy","5e1c138a2bf9514062e4de6b","freq","img/green_2bandit_b2.png","70","70","test","1","152","152","7","",""
"null","423289","pSARL_v2","pSARL_v2b6t168fy","5e1c138a2bf9514062e4de6b","freq_resp","img/green_2bandit_b.png","70","70","test","","","","7","",""
"null","423448","pSARL_v2","pSARL_v2b6t168fy","5e1c138a2bf9514062e4de6b","fixation","img/fixation.png","null","","test","","","","","",""
"192.79999999981374","423642","pSARL_v2","pSARL_v2b6t168fy","5e1c138a2bf9514062e4de6b","freq","img/green_2bandit_b2.png","70","70","test","1","153","153","7","",""
"null","424265","pSARL_v2","pSARL_v2b6t168fy","5e1c138a2bf9514062e4de6b","freq_resp","img/green_2bandit_b.png","70","70","test","","","","7","",""
"null","424422","pSARL_v2","pSARL_v2b6t168fy","5e1c138a2bf9514062e4de6b","fixation","img/fixation.png","null","","test","","","","","",""
"228.79999999981374","424652","pSARL_v2","pSARL_v2b6t168fy","5e1c138a2bf9514062e4de6b","freq","img/green_2bandit_b2.png","70","70","test","1","154","154","7","",""
"null","425237","pSARL_v2","pSARL_v2b6t168fy","5e1c138a2bf9514062e4de6b","freq_resp","img/green_2bandit_b.png","70","70","test","","","","7","",""
"null","425395","pSARL_v2","pSARL_v2b6t168fy","5e1c138a2bf9514062e4de6b","fixation","img/fixation.png","null","","test","","","","","",""
"240.5","425638","pSARL_v2","pSARL_v2b6t168fy","5e1c138a2bf9514062e4de6b","freq","img/green_2bandit_b2.png","70","70","test","1","155","155","7","",""
"null","426214","pSARL_v2","pSARL_v2b6t168fy","5e1c138a2bf9514062e4de6b","freq_resp","img/green_2bandit_b.png","70","70","test","","","","7","",""
"null","426372","pSARL_v2","pSARL_v2b6t168fy","5e1c138a2bf9514062e4de6b","fixation","img/fixation.png","null","","test","","","","","",""
"202.79999999981374","426577","pSARL_v2","pSARL_v2b6t168fy","5e1c138a2bf9514062e4de6b","freq","img/green_2bandit_b2.png","70","70","test","1","156","156","7","",""
"null","427176","pSARL_v2","pSARL_v2b6t168fy","5e1c138a2bf9514062e4de6b","freq_resp","img/green_2bandit_b.png","70","70","test","","","","7","",""
"null","427333","pSARL_v2","pSARL_v2b6t168fy","5e1c138a2bf9514062e4de6b","fixation","img/fixation.png","null","","test","","","","","",""
"235","427570","pSARL_v2","pSARL_v2b6t168fy","5e1c138a2bf9514062e4de6b","freq","img/green_2bandit_b2.png","70","70","test","1","157","157","7","",""
"null","428139","pSARL_v2","pSARL_v2b6t168fy","5e1c138a2bf9514062e4de6b","freq_resp","img/green_2bandit_b.png","70","70","test","","","","7","",""
"null","428298","pSARL_v2","pSARL_v2b6t168fy","5e1c138a2bf9514062e4de6b","fixation","img/fixation.png","null","","test","","","","","",""
"466.5","428766","pSARL_v2","pSARL_v2b6t168fy","5e1c138a2bf9514062e4de6b","reward","img/slot.png","74","","test","","","","","",""
"null","429526","pSARL_v2","pSARL_v2b6t168fy","5e1c138a2bf9514062e4de6b","points","<div class=""verylowPoints""> -6 </div>","null","na","test","","","","7","-6","6"
"400.59999999962747","429928","pSARL_v2","pSARL_v2b6t168fy","5e1c138a2bf9514062e4de6b","freq","img/green_2bandit_b2.png","70","70","test","1","158","158","8","",""
"null","430334","pSARL_v2","pSARL_v2b6t168fy","5e1c138a2bf9514062e4de6b","freq_resp","img/green_2bandit_b.png","70","70","test","","","","8","",""
"null","430490","pSARL_v2","pSARL_v2b6t168fy","5e1c138a2bf9514062e4de6b","fixation","img/fixation.png","null","","test","","","","","",""
"255.5","430748","pSARL_v2","pSARL_v2b6t168fy","5e1c138a2bf9514062e4de6b","freq","img/green_2bandit_b2.png","70","70","test","1","159","159","8","",""
"null","431294","pSARL_v2","pSARL_v2b6t168fy","5e1c138a2bf9514062e4de6b","freq_resp","img/green_2bandit_b.png","70","70","test","","","","8","",""
"null","431452","pSARL_v2","pSARL_v2b6t168fy","5e1c138a2bf9514062e4de6b","fixation","img/fixation.png","null","","test","","","","","",""
"263.29999999981374","431717","pSARL_v2","pSARL_v2b6t168fy","5e1c138a2bf9514062e4de6b","freq","img/green_2bandit_b2.png","70","70","test","1","160","160","8","",""
"null","432256","pSARL_v2","pSARL_v2b6t168fy","5e1c138a2bf9514062e4de6b","freq_resp","img/green_2bandit_b.png","70","70","test","","","","8","",""
"null","432414","pSARL_v2","pSARL_v2b6t168fy","5e1c138a2bf9514062e4de6b","fixation","img/fixation.png","null","","test","","","","","",""
"234.6000000005588","432650","pSARL_v2","pSARL_v2b6t168fy","5e1c138a2bf9514062e4de6b","freq","img/green_2bandit_b2.png","70","70","test","1","161","161","8","",""
"null","433231","pSARL_v2","pSARL_v2b6t168fy","5e1c138a2bf9514062e4de6b","freq_resp","img/green_2bandit_b.png","70","70","test","","","","8","",""
"null","433389","pSARL_v2","pSARL_v2b6t168fy","5e1c138a2bf9514062e4de6b","fixation","img/fixation.png","null","","test","","","","","",""
"239.29999999981374","433630","pSARL_v2","pSARL_v2b6t168fy","5e1c138a2bf9514062e4de6b","infreq","img/orange_2bandit_b2.png","70","68","test","0","162","162","8","",""
"null","434193","pSARL_v2","pSARL_v2b6t168fy","5e1c138a2bf9514062e4de6b","infreq_resp","img/orange_2bandit_b.png","70","68","test","","","","8","",""
"null","434347","pSARL_v2","pSARL_v2b6t168fy","5e1c138a2bf9514062e4de6b","fixation","img/fixation.png","null","","test","","","","","",""
"344.6000000005588","434693","pSARL_v2","pSARL_v2b6t168fy","5e1c138a2bf9514062e4de6b","freq","img/green_2bandit_b2.png","70","70","test","1","163","163","8","",""
"null","435164","pSARL_v2","pSARL_v2b6t168fy","5e1c138a2bf9514062e4de6b","freq_resp","img/green_2bandit_b.png","70","70","test","","","","8","",""
"null","435322","pSARL_v2","pSARL_v2b6t168fy","5e1c138a2bf9514062e4de6b","fixation","img/fixation.png","null","","test","","","","","",""
"274.79999999981374","435598","pSARL_v2","pSARL_v2b6t168fy","5e1c138a2bf9514062e4de6b","freq","img/green_2bandit_b2.png","70","70","test","1","164","164","8","",""
"null","436126","pSARL_v2","pSARL_v2b6t168fy","5e1c138a2bf9514062e4de6b","freq_resp","img/green_2bandit_b.png","70","70","test","","","","8","",""
"null","436284","pSARL_v2","pSARL_v2b6t168fy","5e1c138a2bf9514062e4de6b","fixation","img/fixation.png","null","","test","","","","","",""
"238.70000000018626","436524","pSARL_v2","pSARL_v2b6t168fy","5e1c138a2bf9514062e4de6b","freq","img/green_2bandit_b2.png","70","70","test","1","165","165","8","",""
"null","437092","pSARL_v2","pSARL_v2b6t168fy","5e1c138a2bf9514062e4de6b","freq_resp","img/green_2bandit_b.png","70","70","test","","","","8","",""
"null","437248","pSARL_v2","pSARL_v2b6t168fy","5e1c138a2bf9514062e4de6b","fixation","img/fixation.png","null","","test","","","","","",""
"218.40000000037253","437468","pSARL_v2","pSARL_v2b6t168fy","5e1c138a2bf9514062e4de6b","freq","img/green_2bandit_b2.png","70","70","test","1","166","166","8","",""
"null","438065","pSARL_v2","pSARL_v2b6t168fy","5e1c138a2bf9514062e4de6b","freq_resp","img/green_2bandit_b.png","70","70","test","","","","8","",""
"null","438221","pSARL_v2","pSARL_v2b6t168fy","5e1c138a2bf9514062e4de6b","fixation","img/fixation.png","null","","test","","","","","",""
"203.59999999962747","438426","pSARL_v2","pSARL_v2b6t168fy","5e1c138a2bf9514062e4de6b","freq","img/green_2bandit_b2.png","70","70","test","1","167","167","8","",""
"null","439036","pSARL_v2","pSARL_v2b6t168fy","5e1c138a2bf9514062e4de6b","freq_resp","img/green_2bandit_b.png","70","70","test","","","","8","",""
"null","439193","pSARL_v2","pSARL_v2b6t168fy","5e1c138a2bf9514062e4de6b","fixation","img/fixation.png","null","","test","","","","","",""
"216.79999999981374","439411","pSARL_v2","pSARL_v2b6t168fy","5e1c138a2bf9514062e4de6b","freq","img/green_2bandit_b2.png","70","70","test","1","168","168","8","",""
"null","440012","pSARL_v2","pSARL_v2b6t168fy","5e1c138a2bf9514062e4de6b","freq_resp","img/green_2bandit_b.png","70","70","test","","","","8","",""
"null","440169","pSARL_v2","pSARL_v2b6t168fy","5e1c138a2bf9514062e4de6b","fixation","img/fixation.png","null","","test","","","","","",""
"186.5","440357","pSARL_v2","pSARL_v2b6t168fy","5e1c138a2bf9514062e4de6b","freq","img/green_2bandit_b2.png","70","70","test","1","169","169","8","",""
"null","440975","pSARL_v2","pSARL_v2b6t168fy","5e1c138a2bf9514062e4de6b","freq_resp","img/green_2bandit_b.png","70","70","test","","","","8","",""
"null","441130","pSARL_v2","pSARL_v2b6t168fy","5e1c138a2bf9514062e4de6b","fixation","img/fixation.png","null","","test","","","","","",""
"276.1000000005588","441409","pSARL_v2","pSARL_v2b6t168fy","5e1c138a2bf9514062e4de6b","freq","img/green_2bandit_b2.png","70","70","test","1","170","170","8","",""
"null","441949","pSARL_v2","pSARL_v2b6t168fy","5e1c138a2bf9514062e4de6b","freq_resp","img/green_2bandit_b.png","70","70","test","","","","8","",""
"null","442108","pSARL_v2","pSARL_v2b6t168fy","5e1c138a2bf9514062e4de6b","fixation","img/fixation.png","null","","test","","","","","",""
"128.70000000018626","442238","pSARL_v2","pSARL_v2b6t168fy","5e1c138a2bf9514062e4de6b","infreq","img/orange_2bandit_b2.png","70","68","test","0","171","171","8","",""
"null","442916","pSARL_v2","pSARL_v2b6t168fy","5e1c138a2bf9514062e4de6b","infreq_resp","img/orange_2bandit_b.png","70","68","test","","","","8","",""
"null","443070","pSARL_v2","pSARL_v2b6t168fy","5e1c138a2bf9514062e4de6b","fixation","img/fixation.png","null","","test","","","","","",""
"307.59999999962747","443380","pSARL_v2","pSARL_v2b6t168fy","5e1c138a2bf9514062e4de6b","freq","img/green_2bandit_b2.png","70","70","test","1","172","172","8","",""
"null","443877","pSARL_v2","pSARL_v2b6t168fy","5e1c138a2bf9514062e4de6b","freq_resp","img/green_2bandit_b.png","70","70","test","","","","8","",""
"null","444033","pSARL_v2","pSARL_v2b6t168fy","5e1c138a2bf9514062e4de6b","fixation","img/fixation.png","null","","test","","","","","",""
"269.20000000018626","444304","pSARL_v2","pSARL_v2b6t168fy","5e1c138a2bf9514062e4de6b","freq","img/green_2bandit_b2.png","70","70","test","1","173","173","8","",""
"null","444838","pSARL_v2","pSARL_v2b6t168fy","5e1c138a2bf9514062e4de6b","freq_resp","img/green_2bandit_b.png","70","70","test","","","","8","",""
"null","444996","pSARL_v2","pSARL_v2b6t168fy","5e1c138a2bf9514062e4de6b","fixation","img/fixation.png","null","","test","","","","","",""
"273.90000000037253","445271","pSARL_v2","pSARL_v2b6t168fy","5e1c138a2bf9514062e4de6b","freq","img/green_2bandit_b2.png","70","70","test","1","174","174","8","",""
"null","445801","pSARL_v2","pSARL_v2b6t168fy","5e1c138a2bf9514062e4de6b","freq_resp","img/green_2bandit_b.png","70","70","test","","","","8","",""
"null","445956","pSARL_v2","pSARL_v2b6t168fy","5e1c138a2bf9514062e4de6b","fixation","img/fixation.png","null","","test","","","","","",""
"257.29999999981374","446215","pSARL_v2","pSARL_v2b6t168fy","5e1c138a2bf9514062e4de6b","freq","img/green_2bandit_b2.png","70","70","test","1","175","175","8","",""
"null","446767","pSARL_v2","pSARL_v2b6t168fy","5e1c138a2bf9514062e4de6b","freq_resp","img/green_2bandit_b.png","70","70","test","","","","8","",""
"null","446926","pSARL_v2","pSARL_v2b6t168fy","5e1c138a2bf9514062e4de6b","fixation","img/fixation.png","null","","test","","","","","",""
"239.59999999962747","447169","pSARL_v2","pSARL_v2b6t168fy","5e1c138a2bf9514062e4de6b","freq","img/green_2bandit_b2.png","70","70","test","1","176","176","8","",""
"null","447743","pSARL_v2","pSARL_v2b6t168fy","5e1c138a2bf9514062e4de6b","freq_resp","img/green_2bandit_b.png","70","70","test","","","","8","",""
"null","447900","pSARL_v2","pSARL_v2b6t168fy","5e1c138a2bf9514062e4de6b","fixation","img/fixation.png","null","","test","","","","","",""
"162.5","448064","pSARL_v2","pSARL_v2b6t168fy","5e1c138a2bf9514062e4de6b","freq","img/green_2bandit_b2.png","70","70","test","1","177","177","8","",""
"null","448705","pSARL_v2","pSARL_v2b6t168fy","5e1c138a2bf9514062e4de6b","freq_resp","img/green_2bandit_b.png","70","70","test","","","","8","",""
"null","448864","pSARL_v2","pSARL_v2b6t168fy","5e1c138a2bf9514062e4de6b","fixation","img/fixation.png","null","","test","","","","","",""
"251.3999999994412","449117","pSARL_v2","pSARL_v2b6t168fy","5e1c138a2bf9514062e4de6b","freq","img/green_2bandit_b2.png","70","70","test","1","178","178","8","",""
"null","449669","pSARL_v2","pSARL_v2b6t168fy","5e1c138a2bf9514062e4de6b","freq_resp","img/green_2bandit_b.png","70","70","test","","","","8","",""
"null","449829","pSARL_v2","pSARL_v2b6t168fy","5e1c138a2bf9514062e4de6b","fixation","img/fixation.png","null","","test","","","","","",""
"239.20000000018626","450070","pSARL_v2","pSARL_v2b6t168fy","5e1c138a2bf9514062e4de6b","freq","img/green_2bandit_b2.png","70","70","test","1","179","179","8","",""
"null","450631","pSARL_v2","pSARL_v2b6t168fy","5e1c138a2bf9514062e4de6b","freq_resp","img/green_2bandit_b.png","70","70","test","","","","8","",""
"null","450790","pSARL_v2","pSARL_v2b6t168fy","5e1c138a2bf9514062e4de6b","fixation","img/fixation.png","null","","test","","","","","",""
"153.90000000037253","450946","pSARL_v2","pSARL_v2b6t168fy","5e1c138a2bf9514062e4de6b","freq","img/green_2bandit_b2.png","70","70","test","1","180","180","8","",""
"null","451594","pSARL_v2","pSARL_v2b6t168fy","5e1c138a2bf9514062e4de6b","freq_resp","img/green_2bandit_b.png","70","70","test","","","","8","",""
"null","451751","pSARL_v2","pSARL_v2b6t168fy","5e1c138a2bf9514062e4de6b","fixation","img/fixation.png","null","","test","","","","","",""
"231.5","451985","pSARL_v2","pSARL_v2b6t168fy","5e1c138a2bf9514062e4de6b","freq","img/green_2bandit_b2.png","70","70","test","1","181","181","8","",""
"null","452558","pSARL_v2","pSARL_v2b6t168fy","5e1c138a2bf9514062e4de6b","freq_resp","img/green_2bandit_b.png","70","70","test","","","","8","",""
"null","452716","pSARL_v2","pSARL_v2b6t168fy","5e1c138a2bf9514062e4de6b","fixation","img/fixation.png","null","","test","","","","","",""
"221.8999999994412","452940","pSARL_v2","pSARL_v2b6t168fy","5e1c138a2bf9514062e4de6b","freq","img/green_2bandit_b2.png","70","70","test","1","182","182","8","",""
"null","453533","pSARL_v2","pSARL_v2b6t168fy","5e1c138a2bf9514062e4de6b","freq_resp","img/green_2bandit_b.png","70","70","test","","","","8","",""
"null","453691","pSARL_v2","pSARL_v2b6t168fy","5e1c138a2bf9514062e4de6b","fixation","img/fixation.png","null","","test","","","","","",""
"209.79999999981374","453903","pSARL_v2","pSARL_v2b6t168fy","5e1c138a2bf9514062e4de6b","freq","img/green_2bandit_b2.png","70","70","test","1","183","183","8","",""
"null","454511","pSARL_v2","pSARL_v2b6t168fy","5e1c138a2bf9514062e4de6b","freq_resp","img/green_2bandit_b.png","70","70","test","","","","8","",""
"null","454667","pSARL_v2","pSARL_v2b6t168fy","5e1c138a2bf9514062e4de6b","fixation","img/fixation.png","null","","test","","","","","",""
"496","455165","pSARL_v2","pSARL_v2b6t168fy","5e1c138a2bf9514062e4de6b","reward","img/slot.png","74","","test","","","","","",""
"null","455924","pSARL_v2","pSARL_v2b6t168fy","5e1c138a2bf9514062e4de6b","points","<div class=""verylowPoints""> -4 </div>","null","na","test","","","","8","-4","7"
"357.1000000005588","456283","pSARL_v2","pSARL_v2b6t168fy","5e1c138a2bf9514062e4de6b","freq","img/green_2bandit_b2.png","70","70","test","1","184","184","9","",""
"null","456730","pSARL_v2","pSARL_v2b6t168fy","5e1c138a2bf9514062e4de6b","freq_resp","img/green_2bandit_b.png","70","70","test","","","","9","",""
"null","456889","pSARL_v2","pSARL_v2b6t168fy","5e1c138a2bf9514062e4de6b","fixation","img/fixation.png","null","","test","","","","","",""
"232.29999999981374","457123","pSARL_v2","pSARL_v2b6t168fy","5e1c138a2bf9514062e4de6b","freq","img/green_2bandit_b2.png","70","70","test","1","185","185","9","",""
"null","457701","pSARL_v2","pSARL_v2b6t168fy","5e1c138a2bf9514062e4de6b","freq_resp","img/green_2bandit_b.png","70","70","test","","","","9","",""
"null","457860","pSARL_v2","pSARL_v2b6t168fy","5e1c138a2bf9514062e4de6b","fixation","img/fixation.png","null","","test","","","","","",""
"259.29999999981374","458122","pSARL_v2","pSARL_v2b6t168fy","5e1c138a2bf9514062e4de6b","freq","img/green_2bandit_b2.png","70","70","test","1","186","186","9","",""
"null","458664","pSARL_v2","pSARL_v2b6t168fy","5e1c138a2bf9514062e4de6b","freq_resp","img/green_2bandit_b.png","70","70","test","","","","9","",""
"null","458821","pSARL_v2","pSARL_v2b6t168fy","5e1c138a2bf9514062e4de6b","fixation","img/fixation.png","null","","test","","","","","",""
"247","459070","pSARL_v2","pSARL_v2b6t168fy","5e1c138a2bf9514062e4de6b","freq","img/green_2bandit_b2.png","70","70","test","1","187","187","9","",""
"null","459639","pSARL_v2","pSARL_v2b6t168fy","5e1c138a2bf9514062e4de6b","freq_resp","img/green_2bandit_b.png","70","70","test","","","","9","",""
"null","459797","pSARL_v2","pSARL_v2b6t168fy","5e1c138a2bf9514062e4de6b","fixation","img/fixation.png","null","","test","","","","","",""
"196.5","459996","pSARL_v2","pSARL_v2b6t168fy","5e1c138a2bf9514062e4de6b","infreq","img/orange_2bandit_b2.png","70","68","test","0","188","188","9","",""
"null","460614","pSARL_v2","pSARL_v2b6t168fy","5e1c138a2bf9514062e4de6b","infreq_resp","img/orange_2bandit_b.png","70","68","test","","","","9","",""
"null","460774","pSARL_v2","pSARL_v2b6t168fy","5e1c138a2bf9514062e4de6b","fixation","img/fixation.png","null","","test","","","","","",""
"131.70000000018626","460908","pSARL_v2","pSARL_v2b6t168fy","5e1c138a2bf9514062e4de6b","freq","img/green_2bandit_b2.png","70","70","test","1","189","189","9","",""
"null","461590","pSARL_v2","pSARL_v2b6t168fy","5e1c138a2bf9514062e4de6b","freq_resp","img/green_2bandit_b.png","70","70","test","","","","9","",""
"null","461749","pSARL_v2","pSARL_v2b6t168fy","5e1c138a2bf9514062e4de6b","fixation","img/fixation.png","null","","test","","","","","",""
"206.6000000005588","461958","pSARL_v2","pSARL_v2b6t168fy","5e1c138a2bf9514062e4de6b","infreq","img/orange_2bandit_b2.png","70","68","test","0","190","190","9","",""
"null","462567","pSARL_v2","pSARL_v2b6t168fy","5e1c138a2bf9514062e4de6b","infreq_resp","img/orange_2bandit_b.png","70","68","test","","","","9","",""
"null","462725","pSARL_v2","pSARL_v2b6t168fy","5e1c138a2bf9514062e4de6b","fixation","img/fixation.png","null","","test","","","","","",""
"379.79999999981374","463107","pSARL_v2","pSARL_v2b6t168fy","5e1c138a2bf9514062e4de6b","freq","img/green_2bandit_b2.png","70","70","test","1","191","191","9","",""
"null","463543","pSARL_v2","pSARL_v2b6t168fy","5e1c138a2bf9514062e4de6b","freq_resp","img/green_2bandit_b.png","70","70","test","","","","9","",""
"null","463702","pSARL_v2","pSARL_v2b6t168fy","5e1c138a2bf9514062e4de6b","fixation","img/fixation.png","null","","test","","","","","",""
"292.70000000018626","463997","pSARL_v2","pSARL_v2b6t168fy","5e1c138a2bf9514062e4de6b","freq","img/green_2bandit_b2.png","70","70","test","1","192","192","9","",""
"null","464508","pSARL_v2","pSARL_v2b6t168fy","5e1c138a2bf9514062e4de6b","freq_resp","img/green_2bandit_b.png","70","70","test","","","","9","",""
"null","464664","pSARL_v2","pSARL_v2b6t168fy","5e1c138a2bf9514062e4de6b","fixation","img/fixation.png","null","","test","","","","","",""
"267.5","464934","pSARL_v2","pSARL_v2b6t168fy","5e1c138a2bf9514062e4de6b","freq","img/green_2bandit_b2.png","70","70","test","1","193","193","9","",""
"null","465469","pSARL_v2","pSARL_v2b6t168fy","5e1c138a2bf9514062e4de6b","freq_resp","img/green_2bandit_b.png","70","70","test","","","","9","",""
"null","465626","pSARL_v2","pSARL_v2b6t168fy","5e1c138a2bf9514062e4de6b","fixation","img/fixation.png","null","","test","","","","","",""
"266.90000000037253","465895","pSARL_v2","pSARL_v2b6t168fy","5e1c138a2bf9514062e4de6b","freq","img/green_2bandit_b2.png","70","70","test","1","194","194","9","",""
"null","466445","pSARL_v2","pSARL_v2b6t168fy","5e1c138a2bf9514062e4de6b","freq_resp","img/green_2bandit_b.png","70","70","test","","","","9","",""
"null","466603","pSARL_v2","pSARL_v2b6t168fy","5e1c138a2bf9514062e4de6b","fixation","img/fixation.png","null","","test","","","","","",""
"265","466870","pSARL_v2","pSARL_v2b6t168fy","5e1c138a2bf9514062e4de6b","freq","img/green_2bandit_b2.png","70","70","test","1","195","195","9","",""
"null","467419","pSARL_v2","pSARL_v2b6t168fy","5e1c138a2bf9514062e4de6b","freq_resp","img/green_2bandit_b.png","70","70","test","","","","9","",""
"null","467573","pSARL_v2","pSARL_v2b6t168fy","5e1c138a2bf9514062e4de6b","fixation","img/fixation.png","null","","test","","","","","",""
"298.40000000037253","467873","pSARL_v2","pSARL_v2b6t168fy","5e1c138a2bf9514062e4de6b","freq","img/green_2bandit_b2.png","70","70","test","1","196","196","9","",""
"null","468380","pSARL_v2","pSARL_v2b6t168fy","5e1c138a2bf9514062e4de6b","freq_resp","img/green_2bandit_b.png","70","70","test","","","","9","",""
"null","468538","pSARL_v2","pSARL_v2b6t168fy","5e1c138a2bf9514062e4de6b","fixation","img/fixation.png","null","","test","","","","","",""
"289.90000000037253","468830","pSARL_v2","pSARL_v2b6t168fy","5e1c138a2bf9514062e4de6b","freq","img/green_2bandit_b2.png","70","70","test","1","197","197","9","",""
"null","469342","pSARL_v2","pSARL_v2b6t168fy","5e1c138a2bf9514062e4de6b","freq_resp","img/green_2bandit_b.png","70","70","test","","","","9","",""
"null","469493","pSARL_v2","pSARL_v2b6t168fy","5e1c138a2bf9514062e4de6b","fixation","img/fixation.png","null","","test","","","","","",""
"330.69999999925494","469826","pSARL_v2","pSARL_v2b6t168fy","5e1c138a2bf9514062e4de6b","freq","img/green_2bandit_b2.png","70","70","test","1","198","198","9","",""
"null","470304","pSARL_v2","pSARL_v2b6t168fy","5e1c138a2bf9514062e4de6b","freq_resp","img/green_2bandit_b.png","70","70","test","","","","9","",""
"null","470461","pSARL_v2","pSARL_v2b6t168fy","5e1c138a2bf9514062e4de6b","fixation","img/fixation.png","null","","test","","","","","",""
"411.40000000037253","470874","pSARL_v2","pSARL_v2b6t168fy","5e1c138a2bf9514062e4de6b","freq","img/green_2bandit_b2.png","70","70","test","1","199","199","9","",""
"null","471274","pSARL_v2","pSARL_v2b6t168fy","5e1c138a2bf9514062e4de6b","freq_resp","img/green_2bandit_b.png","70","70","test","","","","9","",""
"null","471432","pSARL_v2","pSARL_v2b6t168fy","5e1c138a2bf9514062e4de6b","fixation","img/fixation.png","null","","test","","","","","",""
"323.90000000037253","471758","pSARL_v2","pSARL_v2b6t168fy","5e1c138a2bf9514062e4de6b","freq","img/green_2bandit_b2.png","70","70","test","1","200","200","9","",""
"null","472250","pSARL_v2","pSARL_v2b6t168fy","5e1c138a2bf9514062e4de6b","freq_resp","img/green_2bandit_b.png","70","70","test","","","","9","",""
"null","472410","pSARL_v2","pSARL_v2b6t168fy","5e1c138a2bf9514062e4de6b","fixation","img/fixation.png","null","","test","","","","","",""
"245.70000000018626","472658","pSARL_v2","pSARL_v2b6t168fy","5e1c138a2bf9514062e4de6b","freq","img/green_2bandit_b2.png","70","70","test","1","201","201","9","",""
"null","473216","pSARL_v2","pSARL_v2b6t168fy","5e1c138a2bf9514062e4de6b","freq_resp","img/green_2bandit_b.png","70","70","test","","","","9","",""
"null","473375","pSARL_v2","pSARL_v2b6t168fy","5e1c138a2bf9514062e4de6b","fixation","img/fixation.png","null","","test","","","","","",""
"219.20000000018626","473596","pSARL_v2","pSARL_v2b6t168fy","5e1c138a2bf9514062e4de6b","freq","img/green_2bandit_b2.png","70","70","test","1","202","202","9","",""
"null","474190","pSARL_v2","pSARL_v2b6t168fy","5e1c138a2bf9514062e4de6b","freq_resp","img/green_2bandit_b.png","70","70","test","","","","9","",""
"null","474347","pSARL_v2","pSARL_v2b6t168fy","5e1c138a2bf9514062e4de6b","fixation","img/fixation.png","null","","test","","","","","",""
"158.79999999981374","474508","pSARL_v2","pSARL_v2b6t168fy","5e1c138a2bf9514062e4de6b","freq","img/green_2bandit_b2.png","70","70","test","1","203","203","9","",""
"null","475154","pSARL_v2","pSARL_v2b6t168fy","5e1c138a2bf9514062e4de6b","freq_resp","img/green_2bandit_b.png","70","70","test","","","","9","",""
"null","475310","pSARL_v2","pSARL_v2b6t168fy","5e1c138a2bf9514062e4de6b","fixation","img/fixation.png","null","","test","","","","","",""
"144.6000000005588","475457","pSARL_v2","pSARL_v2b6t168fy","5e1c138a2bf9514062e4de6b","infreq","img/orange_2bandit_b2.png","70","68","test","0","204","204","9","",""
"null","476117","pSARL_v2","pSARL_v2b6t168fy","5e1c138a2bf9514062e4de6b","infreq_resp","img/orange_2bandit_b.png","70","68","test","","","","9","",""
"null","476274","pSARL_v2","pSARL_v2b6t168fy","5e1c138a2bf9514062e4de6b","fixation","img/fixation.png","null","","test","","","","","",""
"277","476553","pSARL_v2","pSARL_v2b6t168fy","5e1c138a2bf9514062e4de6b","freq","img/green_2bandit_b2.png","70","70","test","1","205","205","9","",""
"null","477093","pSARL_v2","pSARL_v2b6t168fy","5e1c138a2bf9514062e4de6b","freq_resp","img/green_2bandit_b.png","70","70","test","","","","9","",""
"null","477252","pSARL_v2","pSARL_v2b6t168fy","5e1c138a2bf9514062e4de6b","fixation","img/fixation.png","null","","test","","","","","",""
"277.20000000018626","477531","pSARL_v2","pSARL_v2b6t168fy","5e1c138a2bf9514062e4de6b","freq","img/green_2bandit_b2.png","70","70","test","1","206","206","9","",""
