"rt","time_elapsed","expId","subject","prolificID","trialType","rlType","attType","stimulus","key_press","stim","corrresp","phase","corr","pracCounter","trialNum","rewardOne","rewardTwo","reward","bandOne","bandTwo","attentionNum","attentionRunNum","blockNum","performance","bandChosen","circleVal","squareVal","bandOneVal","bandTwoVal","shapeChosen","rlNum","badFlag"
"55330.5","55346","SARL_v6","SARL_v63dz6whwx","56849d528f456f000c45e1dd","","","","","","","","","","","","","","","","","","","","","","","","","","","",""
"","58613","SARL_v6","SARL_v63dz6whwx","56849d528f456f000c45e1dd","fullscreen","fullscreen","fullscreen","","","","","","","","","","","","","","","","","","","","","","","","",""
"125530.70000000298","184156","SARL_v6","SARL_v63dz6whwx","56849d528f456f000c45e1dd","","","","","","","","","","","","","","","","","","","","","","","","","","","",""
"null","184999","SARL_v6","SARL_v63dz6whwx","56849d528f456f000c45e1dd","freqPrac","","","img/orange_2bandit_a2.png","null","img/orange_2bandit_a2.png","70","prac","0","1","","","","","","","","","","","","","","","","","",""
"null","186017","SARL_v6","SARL_v63dz6whwx","56849d528f456f000c45e1dd","feedback","","","img/tooSlow.png","null","","na","prac","","","","","","","","","","","","","","","","","","","",""
"null","186190","SARL_v6","SARL_v63dz6whwx","56849d528f456f000c45e1dd","fixation","","","img/fixation.png","null","","","prac","","","","","","","","","","","","","","","","","","","",""
"492.5","186712","SARL_v6","SARL_v63dz6whwx","56849d528f456f000c45e1dd","infreqPrac","","","img/blue_2bandit_a2.png","68","img/blue_2bandit_a2.png","68","prac","1","1","","","","","","","","","","","","","","","","","",""
"492.5","187043","SARL_v6","SARL_v63dz6whwx","56849d528f456f000c45e1dd","infreqPrac_resp","","","img/blue_2bandit_a.png","68","img/blue_2bandit_a.png","68","prac","","","","","","","","","","","","","","","","","","","",""
"null","187226","SARL_v6","SARL_v63dz6whwx","56849d528f456f000c45e1dd","fixation","","","img/fixation.png","null","","","prac","","","","","","","","","","","","","","","","","","","",""
"594.7999999970198","187850","SARL_v6","SARL_v63dz6whwx","56849d528f456f000c45e1dd","freqPrac","","","img/orange_2bandit_a2.png","68","img/orange_2bandit_a2.png","70","prac","0","2","","","","","","","","","","","","","","","","","",""
"594.7999999970198","188082","SARL_v6","SARL_v63dz6whwx","56849d528f456f000c45e1dd","freqPrac_resp","","","img/orange_2bandit_a.png","68","img/orange_2bandit_a.png","70","prac","","","","","","","","","","","","","","","","","","","",""
"null","189110","SARL_v6","SARL_v63dz6whwx","56849d528f456f000c45e1dd","feedback","","","img/wrongKey.png","null","","na","prac","","","","","","","","","","","","","","","","","","","",""
"null","189284","SARL_v6","SARL_v63dz6whwx","56849d528f456f000c45e1dd","fixation","","","img/fixation.png","null","","","prac","","","","","","","","","","","","","","","","","","","",""
"783.3999999910593","190090","SARL_v6","SARL_v63dz6whwx","56849d528f456f000c45e1dd","infreqPrac","","","img/blue_2bandit_a2.png","68","img/blue_2bandit_a2.png","68","prac","1","2","","","","","","","","","","","","","","","","","",""
"783.3999999910593","190133","SARL_v6","SARL_v63dz6whwx","56849d528f456f000c45e1dd","infreqPrac_resp","","","img/blue_2bandit_a.png","68","img/blue_2bandit_a.png","68","prac","","","","","","","","","","","","","","","","","","","",""
"null","190313","SARL_v6","SARL_v63dz6whwx","56849d528f456f000c45e1dd","fixation","","","img/fixation.png","null","","","prac","","","","","","","","","","","","","","","","","","","",""
"662.1000000089407","190998","SARL_v6","SARL_v63dz6whwx","56849d528f456f000c45e1dd","infreqPrac","","","img/blue_2bandit_a2.png","68","img/blue_2bandit_a2.png","68","prac","1","2","","","","","","","","","","","","","","","","","",""
"662.1000000089407","191170","SARL_v6","SARL_v63dz6whwx","56849d528f456f000c45e1dd","infreqPrac_resp","","","img/blue_2bandit_a.png","68","img/blue_2bandit_a.png","68","prac","","","","","","","","","","","","","","","","","","","",""
"null","191353","SARL_v6","SARL_v63dz6whwx","56849d528f456f000c45e1dd","fixation","","","img/fixation.png","null","","","prac","","","","","","","","","","","","","","","","","","","",""
"619.8000000119209","191983","SARL_v6","SARL_v63dz6whwx","56849d528f456f000c45e1dd","infreqPrac","","","img/blue_2bandit_a2.png","68","img/blue_2bandit_a2.png","68","prac","1","2","","","","","","","","","","","","","","","","","",""
"619.8000000119209","192193","SARL_v6","SARL_v63dz6whwx","56849d528f456f000c45e1dd","infreqPrac_resp","","","img/blue_2bandit_a.png","68","img/blue_2bandit_a.png","68","prac","","","","","","","","","","","","","","","","","","","",""
"null","192376","SARL_v6","SARL_v63dz6whwx","56849d528f456f000c45e1dd","fixation","","","img/fixation.png","null","","","prac","","","","","","","","","","","","","","","","","","","",""
"516.2999999970198","192907","SARL_v6","SARL_v63dz6whwx","56849d528f456f000c45e1dd","freqPrac","","","img/orange_2bandit_a2.png","70","img/orange_2bandit_a2.png","70","prac","1","2","","","","","","","","","","","","","","","","","",""
"516.2999999970198","193225","SARL_v6","SARL_v63dz6whwx","56849d528f456f000c45e1dd","freqPrac_resp","","","img/orange_2bandit_a.png","70","img/orange_2bandit_a.png","70","prac","","","","","","","","","","","","","","","","","","","",""
"null","193409","SARL_v6","SARL_v63dz6whwx","56849d528f456f000c45e1dd","fixation","","","img/fixation.png","null","","","prac","","","","","","","","","","","","","","","","","","","",""
"515","193936","SARL_v6","SARL_v63dz6whwx","56849d528f456f000c45e1dd","infreqPrac","","","img/blue_2bandit_a2.png","68","img/blue_2bandit_a2.png","68","prac","1","2","","","","","","","","","","","","","","","","","",""
"515","194249","SARL_v6","SARL_v63dz6whwx","56849d528f456f000c45e1dd","infreqPrac_resp","","","img/blue_2bandit_a.png","68","img/blue_2bandit_a.png","68","prac","","","","","","","","","","","","","","","","","","","",""
"null","194435","SARL_v6","SARL_v63dz6whwx","56849d528f456f000c45e1dd","fixation","","","img/fixation.png","null","","","prac","","","","","","","","","","","","","","","","","","","",""
"537.9000000059605","194982","SARL_v6","SARL_v63dz6whwx","56849d528f456f000c45e1dd","freqPrac","","","img/orange_2bandit_a2.png","70","img/orange_2bandit_a2.png","70","prac","1","2","","","","","","","","","","","","","","","","","",""
"537.9000000059605","195273","SARL_v6","SARL_v63dz6whwx","56849d528f456f000c45e1dd","freqPrac_resp","","","img/orange_2bandit_a.png","70","img/orange_2bandit_a.png","70","prac","","","","","","","","","","","","","","","","","","","",""
"null","195458","SARL_v6","SARL_v63dz6whwx","56849d528f456f000c45e1dd","fixation","","","img/fixation.png","null","","","prac","","","","","","","","","","","","","","","","","","","",""
"486.5","195955","SARL_v6","SARL_v63dz6whwx","56849d528f456f000c45e1dd","freqPrac","","","img/orange_2bandit_a2.png","70","img/orange_2bandit_a2.png","70","prac","1","2","","","","","","","","","","","","","","","","","",""
"486.5","196298","SARL_v6","SARL_v63dz6whwx","56849d528f456f000c45e1dd","freqPrac_resp","","","img/orange_2bandit_a.png","70","img/orange_2bandit_a.png","70","prac","","","","","","","","","","","","","","","","","","","",""
"null","196480","SARL_v6","SARL_v63dz6whwx","56849d528f456f000c45e1dd","fixation","","","img/fixation.png","null","","","prac","","","","","","","","","","","","","","","","","","","",""
"48543.70000000298","245049","SARL_v6","SARL_v63dz6whwx","56849d528f456f000c45e1dd","","","","","","","","prac","","","","","","","","","","","","","","","","","","","",""
"915","245993","SARL_v6","SARL_v63dz6whwx","56849d528f456f000c45e1dd","rlPractice","","","img/black_2bandit_a2.png","74","img/black_2bandit_a2.png","","prac","","","0","","","","","","","","","","","","","","","","",""
"null","246780","SARL_v6","SARL_v63dz6whwx","56849d528f456f000c45e1dd","feedback","","","<div class=""verylowPoints_sq""> -14 </div>","null","","na","prac","","","1","10","-14","10","","","","","","","","","","","","","",""
"null","246957","SARL_v6","SARL_v63dz6whwx","56849d528f456f000c45e1dd","fixation","","","img/fixation.png","null","","","prac","","","","","","","","","","","","","","","","","","","",""
"503.90000000596046","247489","SARL_v6","SARL_v63dz6whwx","56849d528f456f000c45e1dd","rlPractice","","","img/black_2bandit_a2.png","75","img/black_2bandit_a2.png","","prac","","","1","","","","","","","","","","","","","","","","",""
"null","248263","SARL_v6","SARL_v63dz6whwx","56849d528f456f000c45e1dd","feedback","","","<div class=""veryhighPoints""> 5 </div>","null","","na","prac","","","2","5","-5","5","","","","","","","","","","","","","",""
"null","248442","SARL_v6","SARL_v63dz6whwx","56849d528f456f000c45e1dd","fixation","","","img/fixation.png","null","","","prac","","","","","","","","","","","","","","","","","","","",""
"304.09999999403954","248774","SARL_v6","SARL_v63dz6whwx","56849d528f456f000c45e1dd","rlPractice","","","img/black_2bandit_a2.png","75","img/black_2bandit_a2.png","","prac","","","2","","","","","","","","","","","","","","","","",""
"null","249559","SARL_v6","SARL_v63dz6whwx","56849d528f456f000c45e1dd","feedback","","","<div class=""veryhighPoints""> 30 </div>","null","","na","prac","","","3","30","2","30","","","","","","","","","","","","","",""
"null","249747","SARL_v6","SARL_v63dz6whwx","56849d528f456f000c45e1dd","fixation","","","img/fixation.png","null","","","prac","","","","","","","","","","","","","","","","","","","",""
"408.5","250184","SARL_v6","SARL_v63dz6whwx","56849d528f456f000c45e1dd","rlPractice","","","img/black_2bandit_a2.png","75","img/black_2bandit_a2.png","","prac","","","3","","","","","","","","","","","","","","","","",""
"null","250955","SARL_v6","SARL_v63dz6whwx","56849d528f456f000c45e1dd","feedback","","","<div class=""verylowPoints""> -2 </div>","null","","na","prac","","","4","-2","20","-2","","","","","","","","","","","","","",""
"null","251139","SARL_v6","SARL_v63dz6whwx","56849d528f456f000c45e1dd","fixation","","","img/fixation.png","null","","","prac","","","","","","","","","","","","","","","","","","","",""
"102552","353716","SARL_v6","SARL_v63dz6whwx","56849d528f456f000c45e1dd","","","","","","","","prac","","","","","","","","","","","","","","","","","","","",""
"null","354552","SARL_v6","SARL_v63dz6whwx","56849d528f456f000c45e1dd","mixAttFreqPrac","","","img/orange_2bandit_a2.png","null","img/orange_2bandit_a2.png","70","prac","","","1","","","","","","","","","","","","","","","","",""
"null","354739","SARL_v6","SARL_v63dz6whwx","56849d528f456f000c45e1dd","fixation","","","img/fixation.png","null","","","prac","","","","","","","","","","","","","","","","","","","",""
"null","355568","SARL_v6","SARL_v63dz6whwx","56849d528f456f000c45e1dd","mixAttInfreqPrac","","","img/blue_2bandit_a2.png","null","img/blue_2bandit_a2.png","68","prac","","","2","","","","","","","","","","","","","","","","",""
"32.099999994039536","355756","SARL_v6","SARL_v63dz6whwx","56849d528f456f000c45e1dd","fixation","","","img/fixation.png","68","","","prac","","","","","","","","","","","","","","","","","","","",""
"527.5","356312","SARL_v6","SARL_v63dz6whwx","56849d528f456f000c45e1dd","mixAttInfreqPrac","","","img/blue_2bandit_a2.png","68","img/blue_2bandit_a2.png","68","prac","","","3","","","","","","","","","","","","","","","","",""
"527.5","356615","SARL_v6","SARL_v63dz6whwx","56849d528f456f000c45e1dd","infreqPrac_resp","","","img/blue_2bandit_a.png","68","img/orange_2bandit_a.png","68","prac","","","3","","","","","","","","","","","","","","","","",""
"null","356794","SARL_v6","SARL_v63dz6whwx","56849d528f456f000c45e1dd","fixation","","","img/fixation.png","null","","","prac","","","","","","","","","","","","","","","","","","","",""
"417.3999999910593","357237","SARL_v6","SARL_v63dz6whwx","56849d528f456f000c45e1dd","mixAttInfreqPrac","","","img/blue_2bandit_a2.png","68","img/blue_2bandit_a2.png","68","prac","","","4","","","","","","","","","","","","","","","","",""
"417.3999999910593","357649","SARL_v6","SARL_v63dz6whwx","56849d528f456f000c45e1dd","infreqPrac_resp","","","img/blue_2bandit_a.png","68","img/orange_2bandit_a.png","68","prac","","","4","","","","","","","","","","","","","","","","",""
"null","357828","SARL_v6","SARL_v63dz6whwx","56849d528f456f000c45e1dd","fixation","","","img/fixation.png","null","","","prac","","","","","","","","","","","","","","","","","","","",""
"444.29999999701977","358299","SARL_v6","SARL_v63dz6whwx","56849d528f456f000c45e1dd","mixAttFreqPrac","","","img/orange_2bandit_a2.png","70","img/orange_2bandit_a2.png","70","prac","","","5","","","","","","","","","","","","","","","","",""
"444.29999999701977","358690","SARL_v6","SARL_v63dz6whwx","56849d528f456f000c45e1dd","freqPrac_resp","","","img/orange_2bandit_a.png","70","img/orange_2bandit_a.png","70","prac","","","5","","","","","","","","","","","","","","","","",""
"null","358859","SARL_v6","SARL_v63dz6whwx","56849d528f456f000c45e1dd","fixation","","","img/fixation.png","null","","","prac","","","","","","","","","","","","","","","","","","","",""
"null","360391","SARL_v6","SARL_v63dz6whwx","56849d528f456f000c45e1dd","mixRLPractice","","","img/black_2bandit_a2.png","null","img/black_2bandit_a2.png","","prac","","","5","","","","","","","","","","","","","","","","",""
"null","361174","SARL_v6","SARL_v63dz6whwx","56849d528f456f000c45e1dd","feedback","","","<div font size = 80> TOO SLOW  </div>","null","","na","prac","","","6","-14","10","-14","","","","","","","","","","","","","",""
"null","361360","SARL_v6","SARL_v63dz6whwx","56849d528f456f000c45e1dd","fixation","","","img/fixation.png","null","","","prac","","","","","","","","","","","","","","","","","","","",""
"null","362191","SARL_v6","SARL_v63dz6whwx","56849d528f456f000c45e1dd","mixAttFreqPrac","","","img/orange_2bandit_a2.png","null","img/orange_2bandit_a2.png","70","prac","","","7","","","","","","","","","","","","","","","","",""
"7.300000011920929","362380","SARL_v6","SARL_v63dz6whwx","56849d528f456f000c45e1dd","fixation","","","img/fixation.png","70","","","prac","","","","","","","","","","","","","","","","","","","",""
"579.2999999970198","362982","SARL_v6","SARL_v63dz6whwx","56849d528f456f000c45e1dd","mixAttInfreqPrac","","","img/blue_2bandit_a2.png","68","img/blue_2bandit_a2.png","68","prac","","","8","","","","","","","","","","","","","","","","",""
"579.2999999970198","363236","SARL_v6","SARL_v63dz6whwx","56849d528f456f000c45e1dd","infreqPrac_resp","","","img/blue_2bandit_a.png","68","img/orange_2bandit_a.png","68","prac","","","8","","","","","","","","","","","","","","","","",""
"null","363415","SARL_v6","SARL_v63dz6whwx","56849d528f456f000c45e1dd","fixation","","","img/fixation.png","null","","","prac","","","","","","","","","","","","","","","","","","","",""
"568.7999999970198","364002","SARL_v6","SARL_v63dz6whwx","56849d528f456f000c45e1dd","mixAttFreqPrac","","","img/orange_2bandit_a2.png","70","img/orange_2bandit_a2.png","70","prac","","","9","","","","","","","","","","","","","","","","",""
"568.7999999970198","364263","SARL_v6","SARL_v63dz6whwx","56849d528f456f000c45e1dd","freqPrac_resp","","","img/orange_2bandit_a.png","70","img/orange_2bandit_a.png","70","prac","","","9","","","","","","","","","","","","","","","","",""
"null","364445","SARL_v6","SARL_v63dz6whwx","56849d528f456f000c45e1dd","fixation","","","img/fixation.png","null","","","prac","","","","","","","","","","","","","","","","","","","",""
"607.4000000059605","365066","SARL_v6","SARL_v63dz6whwx","56849d528f456f000c45e1dd","mixAttFreqPrac","","","img/orange_2bandit_a2.png","70","img/orange_2bandit_a2.png","70","prac","","","10","","","","","","","","","","","","","","","","",""
"607.4000000059605","365288","SARL_v6","SARL_v63dz6whwx","56849d528f456f000c45e1dd","freqPrac_resp","","","img/orange_2bandit_a.png","70","img/orange_2bandit_a.png","70","prac","","","10","","","","","","","","","","","","","","","","",""
"null","365476","SARL_v6","SARL_v63dz6whwx","56849d528f456f000c45e1dd","fixation","","","img/fixation.png","null","","","prac","","","","","","","","","","","","","","","","","","","",""
"648.7999999970198","366147","SARL_v6","SARL_v63dz6whwx","56849d528f456f000c45e1dd","mixAttInfreqPrac","","","img/blue_2bandit_a2.png","68","img/blue_2bandit_a2.png","68","prac","","","11","","","","","","","","","","","","","","","","",""
"648.7999999970198","366332","SARL_v6","SARL_v63dz6whwx","56849d528f456f000c45e1dd","infreqPrac_resp","","","img/blue_2bandit_a.png","68","img/orange_2bandit_a.png","68","prac","","","11","","","","","","","","","","","","","","","","",""
"null","366514","SARL_v6","SARL_v63dz6whwx","56849d528f456f000c45e1dd","fixation","","","img/fixation.png","null","","","prac","","","","","","","","","","","","","","","","","","","",""
"618.1000000089407","367156","SARL_v6","SARL_v63dz6whwx","56849d528f456f000c45e1dd","mixRLPractice","","","img/black_2bandit_a2.png","75","img/black_2bandit_a2.png","","prac","","","11","","","","","","","","","","","","","","","","",""
"null","367920","SARL_v6","SARL_v63dz6whwx","56849d528f456f000c45e1dd","feedback","","","<div class=""veryhighPoints""> 5 </div>","null","","na","prac","","","12","5","-5","5","","","","","","","","","","","","","",""
"null","368082","SARL_v6","SARL_v63dz6whwx","56849d528f456f000c45e1dd","fixation","","","img/fixation.png","null","","","prac","","","","","","","","","","","","","","","","","","","",""
"29883.5","397978","SARL_v6","SARL_v63dz6whwx","56849d528f456f000c45e1dd","","","","","","","","prac","","","","","","","","","","","","","","","","","","","",""
"770.7999999970198","398776","SARL_v6","SARL_v63dz6whwx","56849d528f456f000c45e1dd","freq","","","img/orange_2bandit_a2.png","70","","70","test","1","","1","","","","square","circle","1","1","1","1","","","","","","","",""
"null","398826","SARL_v6","SARL_v63dz6whwx","56849d528f456f000c45e1dd","freq_resp","","","img/orange_2bandit_a.png","70","img/orange_2bandit_a.png","70","test","","","","","","","","","","","1","","","","","","","","",""
"null","399009","SARL_v6","SARL_v63dz6whwx","56849d528f456f000c45e1dd","fixation","","","img/fixation.png","null","","","test","","","","","","","","","","","","","","","","","","","",""
"549.5","399583","SARL_v6","SARL_v63dz6whwx","56849d528f456f000c45e1dd","freq","","","img/orange_2bandit_a2.png","70","","70","test","1","","2","","","","square","circle","2","2","1","1","","","","","","","",""
"null","399866","SARL_v6","SARL_v63dz6whwx","56849d528f456f000c45e1dd","freq_resp","","","img/orange_2bandit_a.png","70","img/orange_2bandit_a.png","70","test","","","","","","","","","","","1","","","","","","","","",""
"null","400033","SARL_v6","SARL_v63dz6whwx","56849d528f456f000c45e1dd","fixation","","","img/fixation.png","null","","","test","","","","","","","","","","","","","","","","","","","",""
"360","400413","SARL_v6","SARL_v63dz6whwx","56849d528f456f000c45e1dd","freq","","","img/orange_2bandit_a2.png","70","","70","test","1","","3","","","","square","circle","3","3","1","1","","","","","","","",""
"null","400887","SARL_v6","SARL_v63dz6whwx","56849d528f456f000c45e1dd","freq_resp","","","img/orange_2bandit_a.png","70","img/orange_2bandit_a.png","70","test","","","","","","","","","","","1","","","","","","","","",""
"null","401065","SARL_v6","SARL_v63dz6whwx","56849d528f456f000c45e1dd","fixation","","","img/fixation.png","null","","","test","","","","","","","","","","","","","","","","","","","",""
"386.30000001192093","401475","SARL_v6","SARL_v63dz6whwx","56849d528f456f000c45e1dd","freq","","","img/orange_2bandit_a2.png","70","","70","test","1","","4","","","","square","circle","4","4","1","1","","","","","","","",""
"null","401923","SARL_v6","SARL_v63dz6whwx","56849d528f456f000c45e1dd","freq_resp","","","img/orange_2bandit_a.png","70","img/orange_2bandit_a.png","70","test","","","","","","","","","","","1","","","","","","","","",""
"null","402090","SARL_v6","SARL_v63dz6whwx","56849d528f456f000c45e1dd","fixation","","","img/fixation.png","null","","","test","","","","","","","","","","","","","","","","","","","",""
"448.90000000596046","402564","SARL_v6","SARL_v63dz6whwx","56849d528f456f000c45e1dd","infreq","","","img/blue_2bandit_a2.png","68","","68","test","1","","5","","","","square","circle","5","5","1","1","","","","","","","",""
"null","402946","SARL_v6","SARL_v63dz6whwx","56849d528f456f000c45e1dd","infreq_resp","","","img/blue_2bandit_a.png","68","img/blue_2bandit_a.png","68","test","","","","","","","","","","","1","","","","","","","","",""
"null","403112","SARL_v6","SARL_v63dz6whwx","56849d528f456f000c45e1dd","fixation","","","img/fixation.png","null","","","test","","","","","","","","","","","","","","","","","","","",""
"494.80000001192093","403633","SARL_v6","SARL_v63dz6whwx","56849d528f456f000c45e1dd","freq","","","img/orange_2bandit_a2.png","70","","70","test","1","","6","","","","square","circle","6","6","1","1","","","","","","","",""
"null","403969","SARL_v6","SARL_v63dz6whwx","56849d528f456f000c45e1dd","freq_resp","","","img/orange_2bandit_a.png","70","img/orange_2bandit_a.png","70","test","","","","","","","","","","","1","","","","","","","","",""
"null","404146","SARL_v6","SARL_v63dz6whwx","56849d528f456f000c45e1dd","fixation","","","img/fixation.png","null","","","test","","","","","","","","","","","","","","","","","","","",""
"351.5","404528","SARL_v6","SARL_v63dz6whwx","56849d528f456f000c45e1dd","freq","","","img/orange_2bandit_a2.png","70","","70","test","1","","7","","","","square","circle","7","7","1","1","","","","","","","",""
"null","405009","SARL_v6","SARL_v63dz6whwx","56849d528f456f000c45e1dd","freq_resp","","","img/orange_2bandit_a.png","70","img/orange_2bandit_a.png","70","test","","","","","","","","","","","1","","","","","","","","",""
"null","405175","SARL_v6","SARL_v63dz6whwx","56849d528f456f000c45e1dd","fixation","","","img/fixation.png","null","","","test","","","","","","","","","","","","","","","","","","","",""
"478.20000000298023","405679","SARL_v6","SARL_v63dz6whwx","56849d528f456f000c45e1dd","freq","","","img/orange_2bandit_a2.png","70","","70","test","1","","8","","","","square","circle","8","8","1","1","","","","","","","",""
"null","406034","SARL_v6","SARL_v63dz6whwx","56849d528f456f000c45e1dd","freq_resp","","","img/orange_2bandit_a.png","70","img/orange_2bandit_a.png","70","test","","","","","","","","","","","1","","","","","","","","",""
"null","406201","SARL_v6","SARL_v63dz6whwx","56849d528f456f000c45e1dd","fixation","","","img/fixation.png","null","","","test","","","","","","","","","","","","","","","","","","","",""
"343.90000000596046","406574","SARL_v6","SARL_v63dz6whwx","56849d528f456f000c45e1dd","freq","","","img/orange_2bandit_a2.png","70","","70","test","1","","9","","","","square","circle","9","9","1","1","","","","","","","",""
"null","407063","SARL_v6","SARL_v63dz6whwx","56849d528f456f000c45e1dd","freq_resp","","","img/orange_2bandit_a.png","70","img/orange_2bandit_a.png","70","test","","","","","","","","","","","1","","","","","","","","",""
"null","407234","SARL_v6","SARL_v63dz6whwx","56849d528f456f000c45e1dd","fixation","","","img/fixation.png","null","","","test","","","","","","","","","","","","","","","","","","","",""
"306.79999999701977","407569","SARL_v6","SARL_v63dz6whwx","56849d528f456f000c45e1dd","freq","","","img/orange_2bandit_a2.png","70","","70","test","1","","10","","","","square","circle","10","10","1","1","","","","","","","",""
"null","408086","SARL_v6","SARL_v63dz6whwx","56849d528f456f000c45e1dd","freq_resp","","","img/orange_2bandit_a.png","70","img/orange_2bandit_a.png","70","test","","","","","","","","","","","1","","","","","","","","",""
"null","408264","SARL_v6","SARL_v63dz6whwx","56849d528f456f000c45e1dd","fixation","","","img/fixation.png","null","","","test","","","","","","","","","","","","","","","","","","","",""
"311.6000000089407","408603","SARL_v6","SARL_v63dz6whwx","56849d528f456f000c45e1dd","freq","","","img/orange_2bandit_a2.png","70","","70","test","1","","11","","","","square","circle","11","11","1","1","","","","","","","",""
"null","409103","SARL_v6","SARL_v63dz6whwx","56849d528f456f000c45e1dd","freq_resp","","","img/orange_2bandit_a.png","70","img/orange_2bandit_a.png","70","test","","","","","","","","","","","1","","","","","","","","",""
"null","409270","SARL_v6","SARL_v63dz6whwx","56849d528f456f000c45e1dd","fixation","","","img/fixation.png","null","","","test","","","","","","","","","","","","","","","","","","","",""
"312.8999999910593","409610","SARL_v6","SARL_v63dz6whwx","56849d528f456f000c45e1dd","freq","","","img/orange_2bandit_a2.png","70","","70","test","1","","12","","","","square","circle","12","12","1","1","","","","","","","",""
"null","410111","SARL_v6","SARL_v63dz6whwx","56849d528f456f000c45e1dd","freq_resp","","","img/orange_2bandit_a.png","70","img/orange_2bandit_a.png","70","test","","","","","","","","","","","1","","","","","","","","",""
"null","410280","SARL_v6","SARL_v63dz6whwx","56849d528f456f000c45e1dd","fixation","","","img/fixation.png","null","","","test","","","","","","","","","","","","","","","","","","","",""
"318.70000000298023","410624","SARL_v6","SARL_v63dz6whwx","56849d528f456f000c45e1dd","freq","","","img/orange_2bandit_a2.png","70","","70","test","1","","13","","","","square","circle","13","13","1","1","","","","","","","",""
"null","411122","SARL_v6","SARL_v63dz6whwx","56849d528f456f000c45e1dd","freq_resp","","","img/orange_2bandit_a.png","70","img/orange_2bandit_a.png","70","test","","","","","","","","","","","1","","","","","","","","",""
"null","411289","SARL_v6","SARL_v63dz6whwx","56849d528f456f000c45e1dd","fixation","","","img/fixation.png","null","","","test","","","","","","","","","","","","","","","","","","","",""
"297.29999999701977","411612","SARL_v6","SARL_v63dz6whwx","56849d528f456f000c45e1dd","freq","","","img/orange_2bandit_a2.png","70","","70","test","1","","14","","","","square","circle","14","14","1","1","","","","","","","",""
"null","412136","SARL_v6","SARL_v63dz6whwx","56849d528f456f000c45e1dd","freq_resp","","","img/orange_2bandit_a.png","70","img/orange_2bandit_a.png","70","test","","","","","","","","","","","1","","","","","","","","",""
"null","412304","SARL_v6","SARL_v63dz6whwx","56849d528f456f000c45e1dd","fixation","","","img/fixation.png","null","","","test","","","","","","","","","","","","","","","","","","","",""
"333.70000000298023","412664","SARL_v6","SARL_v63dz6whwx","56849d528f456f000c45e1dd","freq","","","img/orange_2bandit_a2.png","70","","70","test","1","","15","","","","square","circle","15","15","1","1","","","","","","","",""
"null","413143","SARL_v6","SARL_v63dz6whwx","56849d528f456f000c45e1dd","freq_resp","","","img/orange_2bandit_a.png","70","img/orange_2bandit_a.png","70","test","","","","","","","","","","","1","","","","","","","","",""
"null","413313","SARL_v6","SARL_v63dz6whwx","56849d528f456f000c45e1dd","fixation","","","img/fixation.png","null","","","test","","","","","","","","","","","","","","","","","","","",""
"338.59999999403954","413678","SARL_v6","SARL_v63dz6whwx","56849d528f456f000c45e1dd","freq","","","img/orange_2bandit_a2.png","70","","70","test","1","","16","","","","square","circle","16","16","1","1","","","","","","","",""
"null","414150","SARL_v6","SARL_v63dz6whwx","56849d528f456f000c45e1dd","freq_resp","","","img/orange_2bandit_a.png","70","img/orange_2bandit_a.png","70","test","","","","","","","","","","","1","","","","","","","","",""
"null","414314","SARL_v6","SARL_v63dz6whwx","56849d528f456f000c45e1dd","fixation","","","img/fixation.png","null","","","test","","","","","","","","","","","","","","","","","","","",""
"572.7999999970198","414913","SARL_v6","SARL_v63dz6whwx","56849d528f456f000c45e1dd","infreq","","","img/blue_2bandit_a2.png","68","","68","test","1","","17","","","","square","circle","17","17","1","1","","","","","","","",""
"null","415158","SARL_v6","SARL_v63dz6whwx","56849d528f456f000c45e1dd","infreq_resp","","","img/blue_2bandit_a.png","68","img/blue_2bandit_a.png","68","test","","","","","","","","","","","1","","","","","","","","",""
"null","415328","SARL_v6","SARL_v63dz6whwx","56849d528f456f000c45e1dd","fixation","","","img/fixation.png","null","","","test","","","","","","","","","","","","","","","","","","","",""
"397.1000000089407","415752","SARL_v6","SARL_v63dz6whwx","56849d528f456f000c45e1dd","freq","","","img/orange_2bandit_a2.png","68","","70","test","0","","18","","","","square","circle","18","18","1","0.9444444444444444","","","","","","","",""
"null","416175","SARL_v6","SARL_v63dz6whwx","56849d528f456f000c45e1dd","freq_resp","","","img/orange_2bandit_a.png","68","img/orange_2bandit_a.png","70","test","","","","","","","","","","","1","","","","","","","","",""
"null","416344","SARL_v6","SARL_v63dz6whwx","56849d528f456f000c45e1dd","fixation","","","img/fixation.png","null","","","test","","","","","","","","","","","","","","","","","","","",""
"482.69999998807907","416850","SARL_v6","SARL_v63dz6whwx","56849d528f456f000c45e1dd","freq","","","img/orange_2bandit_a2.png","70","","70","test","1","","19","","","","square","circle","19","19","1","0.9473684210526315","","","","","","","",""
"null","417193","SARL_v6","SARL_v63dz6whwx","56849d528f456f000c45e1dd","freq_resp","","","img/orange_2bandit_a.png","70","img/orange_2bandit_a.png","70","test","","","","","","","","","","","1","","","","","","","","",""
"null","417372","SARL_v6","SARL_v63dz6whwx","56849d528f456f000c45e1dd","fixation","","","img/fixation.png","null","","","test","","","","","","","","","","","","","","","","","","","",""
"624.2000000029802","418024","SARL_v6","SARL_v63dz6whwx","56849d528f456f000c45e1dd","rl","","","img/black_2bandit_a2.png","75","","0","test","","","20","","","-3","square","circle","","0","1","","75","-3","-3","-3","-3","circle","1","0"
"null","418809","SARL_v6","SARL_v63dz6whwx","56849d528f456f000c45e1dd","feedback","","","<div class=""verylowPoints""> -3 </div>","null","","na","test","","","NaN","","","","","","","","1","","75","","","","","","1",""
"574.3999999910593","419409","SARL_v6","SARL_v63dz6whwx","56849d528f456f000c45e1dd","freq","","","img/orange_2bandit_a2.png","70","","70","test","1","","21","","","","square","circle","20","1","2","0.95","","","","","","","",""
"null","419666","SARL_v6","SARL_v63dz6whwx","56849d528f456f000c45e1dd","freq_resp","","","img/orange_2bandit_a.png","70","img/orange_2bandit_a.png","70","test","","","","","","","","","","","2","","","","","","","","",""
"null","419849","SARL_v6","SARL_v63dz6whwx","56849d528f456f000c45e1dd","fixation","","","img/fixation.png","null","","","test","","","","","","","","","","","","","","","","","","","",""
"359.69999998807907","420222","SARL_v6","SARL_v63dz6whwx","56849d528f456f000c45e1dd","freq","","","img/orange_2bandit_a2.png","70","","70","test","1","","22","","","","square","circle","21","2","2","0.9523809523809523","","","","","","","",""
"null","420689","SARL_v6","SARL_v63dz6whwx","56849d528f456f000c45e1dd","freq_resp","","","img/orange_2bandit_a.png","70","img/orange_2bandit_a.png","70","test","","","","","","","","","","","2","","","","","","","","",""
"null","420873","SARL_v6","SARL_v63dz6whwx","56849d528f456f000c45e1dd","fixation","","","img/fixation.png","null","","","test","","","","","","","","","","","","","","","","","","","",""
"332","421221","SARL_v6","SARL_v63dz6whwx","56849d528f456f000c45e1dd","freq","","","img/orange_2bandit_a2.png","70","","70","test","1","","23","","","","square","circle","22","3","2","0.9545454545454546","","","","","","","",""
"null","421723","SARL_v6","SARL_v63dz6whwx","56849d528f456f000c45e1dd","freq_resp","","","img/orange_2bandit_a.png","70","img/orange_2bandit_a.png","70","test","","","","","","","","","","","2","","","","","","","","",""
"null","421903","SARL_v6","SARL_v63dz6whwx","56849d528f456f000c45e1dd","fixation","","","img/fixation.png","null","","","test","","","","","","","","","","","","","","","","","","","",""
"300.59999999403954","422222","SARL_v6","SARL_v63dz6whwx","56849d528f456f000c45e1dd","freq","","","img/orange_2bandit_a2.png","70","","70","test","1","","24","","","","square","circle","23","4","2","0.9565217391304348","","","","","","","",""
"null","422753","SARL_v6","SARL_v63dz6whwx","56849d528f456f000c45e1dd","freq_resp","","","img/orange_2bandit_a.png","70","img/orange_2bandit_a.png","70","test","","","","","","","","","","","2","","","","","","","","",""
"null","422931","SARL_v6","SARL_v63dz6whwx","56849d528f456f000c45e1dd","fixation","","","img/fixation.png","null","","","test","","","","","","","","","","","","","","","","","","","",""
"331.59999999403954","423283","SARL_v6","SARL_v63dz6whwx","56849d528f456f000c45e1dd","freq","","","img/orange_2bandit_a2.png","70","","70","test","1","","25","","","","square","circle","24","5","2","0.9583333333333334","","","","","","","",""
"null","423784","SARL_v6","SARL_v63dz6whwx","56849d528f456f000c45e1dd","freq_resp","","","img/orange_2bandit_a.png","70","img/orange_2bandit_a.png","70","test","","","","","","","","","","","2","","","","","","","","",""
"null","423970","SARL_v6","SARL_v63dz6whwx","56849d528f456f000c45e1dd","fixation","","","img/fixation.png","null","","","test","","","","","","","","","","","","","","","","","","","",""
"299.09999999403954","424292","SARL_v6","SARL_v63dz6whwx","56849d528f456f000c45e1dd","freq","","","img/orange_2bandit_a2.png","70","","70","test","1","","26","","","","square","circle","25","6","2","0.96","","","","","","","",""
"null","424824","SARL_v6","SARL_v63dz6whwx","56849d528f456f000c45e1dd","freq_resp","","","img/orange_2bandit_a.png","70","img/orange_2bandit_a.png","70","test","","","","","","","","","","","2","","","","","","","","",""
"null","425010","SARL_v6","SARL_v63dz6whwx","56849d528f456f000c45e1dd","fixation","","","img/fixation.png","null","","","test","","","","","","","","","","","","","","","","","","","",""
"350.90000000596046","425371","SARL_v6","SARL_v63dz6whwx","56849d528f456f000c45e1dd","freq","","","img/orange_2bandit_a2.png","70","","70","test","1","","27","","","","square","circle","26","7","2","0.9615384615384616","","","","","","","",""
"null","425849","SARL_v6","SARL_v63dz6whwx","56849d528f456f000c45e1dd","freq_resp","","","img/orange_2bandit_a.png","70","img/orange_2bandit_a.png","70","test","","","","","","","","","","","2","","","","","","","","",""
"null","426030","SARL_v6","SARL_v63dz6whwx","56849d528f456f000c45e1dd","fixation","","","img/fixation.png","null","","","test","","","","","","","","","","","","","","","","","","","",""
"304.70000000298023","426351","SARL_v6","SARL_v63dz6whwx","56849d528f456f000c45e1dd","freq","","","img/orange_2bandit_a2.png","70","","70","test","1","","28","","","","square","circle","27","8","2","0.9629629629629629","","","","","","","",""
"null","426874","SARL_v6","SARL_v63dz6whwx","56849d528f456f000c45e1dd","freq_resp","","","img/orange_2bandit_a.png","70","img/orange_2bandit_a.png","70","test","","","","","","","","","","","2","","","","","","","","",""
"null","427059","SARL_v6","SARL_v63dz6whwx","56849d528f456f000c45e1dd","fixation","","","img/fixation.png","null","","","test","","","","","","","","","","","","","","","","","","","",""
"332.20000000298023","427411","SARL_v6","SARL_v63dz6whwx","56849d528f456f000c45e1dd","freq","","","img/orange_2bandit_a2.png","70","","70","test","1","","29","","","","square","circle","28","9","2","0.9642857142857143","","","","","","","",""
"null","427913","SARL_v6","SARL_v63dz6whwx","56849d528f456f000c45e1dd","freq_resp","","","img/orange_2bandit_a.png","70","img/orange_2bandit_a.png","70","test","","","","","","","","","","","2","","","","","","","","",""
"null","428098","SARL_v6","SARL_v63dz6whwx","56849d528f456f000c45e1dd","fixation","","","img/fixation.png","null","","","test","","","","","","","","","","","","","","","","","","","",""
"409","428536","SARL_v6","SARL_v63dz6whwx","56849d528f456f000c45e1dd","freq","","","img/orange_2bandit_a2.png","70","","70","test","1","","30","","","","square","circle","29","10","2","0.9655172413793104","","","","","","","",""
"null","428962","SARL_v6","SARL_v63dz6whwx","56849d528f456f000c45e1dd","freq_resp","","","img/orange_2bandit_a.png","70","img/orange_2bandit_a.png","70","test","","","","","","","","","","","2","","","","","","","","",""
"null","429147","SARL_v6","SARL_v63dz6whwx","56849d528f456f000c45e1dd","fixation","","","img/fixation.png","null","","","test","","","","","","","","","","","","","","","","","","","",""
"398.3999999910593","429567","SARL_v6","SARL_v63dz6whwx","56849d528f456f000c45e1dd","freq","","","img/orange_2bandit_a2.png","70","","70","test","1","","31","","","","square","circle","30","11","2","0.9666666666666667","","","","","","","",""
"null","429986","SARL_v6","SARL_v63dz6whwx","56849d528f456f000c45e1dd","freq_resp","","","img/orange_2bandit_a.png","70","img/orange_2bandit_a.png","70","test","","","","","","","","","","","2","","","","","","","","",""
"null","430165","SARL_v6","SARL_v63dz6whwx","56849d528f456f000c45e1dd","fixation","","","img/fixation.png","null","","","test","","","","","","","","","","","","","","","","","","","",""
"336.8999999910593","430531","SARL_v6","SARL_v63dz6whwx","56849d528f456f000c45e1dd","freq","","","img/orange_2bandit_a2.png","70","","70","test","1","","32","","","","square","circle","31","12","2","0.967741935483871","","","","","","","",""
"null","431022","SARL_v6","SARL_v63dz6whwx","56849d528f456f000c45e1dd","freq_resp","","","img/orange_2bandit_a.png","70","img/orange_2bandit_a.png","70","test","","","","","","","","","","","2","","","","","","","","",""
"null","431198","SARL_v6","SARL_v63dz6whwx","56849d528f456f000c45e1dd","fixation","","","img/fixation.png","null","","","test","","","","","","","","","","","","","","","","","","","",""
"362.79999999701977","431588","SARL_v6","SARL_v63dz6whwx","56849d528f456f000c45e1dd","freq","","","img/orange_2bandit_a2.png","70","","70","test","1","","33","","","","square","circle","32","13","2","0.96875","","","","","","","",""
"null","432058","SARL_v6","SARL_v63dz6whwx","56849d528f456f000c45e1dd","freq_resp","","","img/orange_2bandit_a.png","70","img/orange_2bandit_a.png","70","test","","","","","","","","","","","2","","","","","","","","",""
"null","432225","SARL_v6","SARL_v63dz6whwx","56849d528f456f000c45e1dd","fixation","","","img/fixation.png","null","","","test","","","","","","","","","","","","","","","","","","","",""
"325.6000000089407","432575","SARL_v6","SARL_v63dz6whwx","56849d528f456f000c45e1dd","freq","","","img/orange_2bandit_a2.png","70","","70","test","1","","34","","","","square","circle","33","14","2","0.9696969696969697","","","","","","","",""
"null","433082","SARL_v6","SARL_v63dz6whwx","56849d528f456f000c45e1dd","freq_resp","","","img/orange_2bandit_a.png","70","img/orange_2bandit_a.png","70","test","","","","","","","","","","","2","","","","","","","","",""
"null","433258","SARL_v6","SARL_v63dz6whwx","56849d528f456f000c45e1dd","fixation","","","img/fixation.png","null","","","test","","","","","","","","","","","","","","","","","","","",""
"306.09999999403954","433590","SARL_v6","SARL_v63dz6whwx","56849d528f456f000c45e1dd","infreq","","","img/blue_2bandit_a2.png","70","","68","test","0","","35","","","","square","circle","34","15","2","0.9411764705882353","","","","","","","",""
"null","434114","SARL_v6","SARL_v63dz6whwx","56849d528f456f000c45e1dd","infreq_resp","","","img/blue_2bandit_a.png","70","img/blue_2bandit_a.png","68","test","","","","","","","","","","","2","","","","","","","","",""
"null","434280","SARL_v6","SARL_v63dz6whwx","56849d528f456f000c45e1dd","fixation","","","img/fixation.png","null","","","test","","","","","","","","","","","","","","","","","","","",""
"625.5","434932","SARL_v6","SARL_v63dz6whwx","56849d528f456f000c45e1dd","freq","","","img/orange_2bandit_a2.png","70","","70","test","1","","36","","","","square","circle","35","16","2","0.9428571428571428","","","","","","","",""
"null","435138","SARL_v6","SARL_v63dz6whwx","56849d528f456f000c45e1dd","freq_resp","","","img/orange_2bandit_a.png","70","img/orange_2bandit_a.png","70","test","","","","","","","","","","","2","","","","","","","","",""
"null","435303","SARL_v6","SARL_v63dz6whwx","56849d528f456f000c45e1dd","fixation","","","img/fixation.png","null","","","test","","","","","","","","","","","","","","","","","","","",""
"660.9000000059605","435990","SARL_v6","SARL_v63dz6whwx","56849d528f456f000c45e1dd","freq","","","img/orange_2bandit_a2.png","70","","70","test","1","","37","","","","square","circle","36","17","2","0.9444444444444444","","","","","","","",""
"null","436154","SARL_v6","SARL_v63dz6whwx","56849d528f456f000c45e1dd","freq_resp","","","img/orange_2bandit_a.png","70","img/orange_2bandit_a.png","70","test","","","","","","","","","","","2","","","","","","","","",""
"null","436330","SARL_v6","SARL_v63dz6whwx","56849d528f456f000c45e1dd","fixation","","","img/fixation.png","null","","","test","","","","","","","","","","","","","","","","","","","",""
"709.5","437068","SARL_v6","SARL_v63dz6whwx","56849d528f456f000c45e1dd","freq","","","img/orange_2bandit_a2.png","70","","70","test","1","","38","","","","square","circle","37","18","2","0.9459459459459459","","","","","","","",""
"null","437196","SARL_v6","SARL_v63dz6whwx","56849d528f456f000c45e1dd","freq_resp","","","img/orange_2bandit_a.png","70","img/orange_2bandit_a.png","70","test","","","","","","","","","","","2","","","","","","","","",""
"null","437375","SARL_v6","SARL_v63dz6whwx","56849d528f456f000c45e1dd","fixation","","","img/fixation.png","null","","","test","","","","","","","","","","","","","","","","","","","",""
"652.2999999970198","438055","SARL_v6","SARL_v63dz6whwx","56849d528f456f000c45e1dd","infreq","","","img/blue_2bandit_a2.png","68","","68","test","1","","39","","","","square","circle","38","19","2","0.9473684210526315","","","","","","","",""
"null","438223","SARL_v6","SARL_v63dz6whwx","56849d528f456f000c45e1dd","infreq_resp","","","img/blue_2bandit_a.png","68","img/blue_2bandit_a.png","68","test","","","","","","","","","","","2","","","","","","","","",""
"null","438399","SARL_v6","SARL_v63dz6whwx","56849d528f456f000c45e1dd","fixation","","","img/fixation.png","null","","","test","","","","","","","","","","","","","","","","","","","",""
"614.5999999940395","439039","SARL_v6","SARL_v63dz6whwx","56849d528f456f000c45e1dd","freq","","","img/orange_2bandit_a2.png","70","","70","test","1","","40","","","","square","circle","39","20","2","0.9487179487179487","","","","","","","",""
"null","439245","SARL_v6","SARL_v63dz6whwx","56849d528f456f000c45e1dd","freq_resp","","","img/orange_2bandit_a.png","70","img/orange_2bandit_a.png","70","test","","","","","","","","","","","2","","","","","","","","",""
"null","439413","SARL_v6","SARL_v63dz6whwx","56849d528f456f000c45e1dd","fixation","","","img/fixation.png","null","","","test","","","","","","","","","","","","","","","","","","","",""
"495.1000000089407","439927","SARL_v6","SARL_v63dz6whwx","56849d528f456f000c45e1dd","freq","","","img/orange_2bandit_a2.png","70","","70","test","1","","41","","","","square","circle","40","21","2","0.95","","","","","","","",""
"null","440249","SARL_v6","SARL_v63dz6whwx","56849d528f456f000c45e1dd","freq_resp","","","img/orange_2bandit_a.png","70","img/orange_2bandit_a.png","70","test","","","","","","","","","","","2","","","","","","","","",""
"null","440421","SARL_v6","SARL_v63dz6whwx","56849d528f456f000c45e1dd","fixation","","","img/fixation.png","null","","","test","","","","","","","","","","","","","","","","","","","",""
"607.1000000089407","441039","SARL_v6","SARL_v63dz6whwx","56849d528f456f000c45e1dd","freq","","","img/orange_2bandit_a2.png","70","","70","test","1","","42","","","","square","circle","41","22","2","0.9512195121951219","","","","","","","",""
"null","441251","SARL_v6","SARL_v63dz6whwx","56849d528f456f000c45e1dd","freq_resp","","","img/orange_2bandit_a.png","70","img/orange_2bandit_a.png","70","test","","","","","","","","","","","2","","","","","","","","",""
"null","441421","SARL_v6","SARL_v63dz6whwx","56849d528f456f000c45e1dd","fixation","","","img/fixation.png","null","","","test","","","","","","","","","","","","","","","","","","","",""
"604.2999999970198","442050","SARL_v6","SARL_v63dz6whwx","56849d528f456f000c45e1dd","rl","","","img/black_2bandit_a2.png","75","","0","test","","","43","","","-5","square","circle","","0","2","","75","-5","-8","-8","-5","circle","2","0"
"null","442833","SARL_v6","SARL_v63dz6whwx","56849d528f456f000c45e1dd","feedback","","","<div class=""verylowPoints""> -5 </div>","null","","na","test","","","NaN","","","","","","","","2","","75","","","","","","2",""
"null","443666","SARL_v6","SARL_v63dz6whwx","56849d528f456f000c45e1dd","freq","","","img/orange_2bandit_a2.png","null","","70","test","0","","44","","","","square","circle","42","1","3","0.9285714285714286","","","","","","","",""
"null","443846","SARL_v6","SARL_v63dz6whwx","56849d528f456f000c45e1dd","fixation","","","img/fixation.png","null","","","test","","","","","","","","","","","","","","","","","","","",""
"null","444682","SARL_v6","SARL_v63dz6whwx","56849d528f456f000c45e1dd","freq","","","img/orange_2bandit_a2.png","null","","70","test","0","","45","","","","square","circle","43","2","3","0.9069767441860465","","","","","","","",""
"null","444862","SARL_v6","SARL_v63dz6whwx","56849d528f456f000c45e1dd","fixation","","","img/fixation.png","null","","","test","","","","","","","","","","","","","","","","","","","",""
"23.200000002980232","444898","SARL_v6","SARL_v63dz6whwx","56849d528f456f000c45e1dd","freq","","","img/orange_2bandit_a2.png","70","","70","test","1","","46","","","","square","circle","44","3","3","0.9090909090909091","","","","","","","",""
"null","445703","SARL_v6","SARL_v63dz6whwx","56849d528f456f000c45e1dd","freq_resp","","","img/orange_2bandit_a.png","70","img/orange_2bandit_a.png","70","test","","","","","","","","","","","3","","","","","","","","",""
"null","445888","SARL_v6","SARL_v63dz6whwx","56849d528f456f000c45e1dd","fixation","","","img/fixation.png","null","","","test","","","","","","","","","","","","","","","","","","","",""
"310.20000000298023","446227","SARL_v6","SARL_v63dz6whwx","56849d528f456f000c45e1dd","freq","","","img/orange_2bandit_a2.png","70","","70","test","1","","47","","","","square","circle","45","4","3","0.9111111111111111","","","","","","","",""
"null","446745","SARL_v6","SARL_v63dz6whwx","56849d528f456f000c45e1dd","freq_resp","","","img/orange_2bandit_a.png","70","img/orange_2bandit_a.png","70","test","","","","","","","","","","","3","","","","","","","","",""
"null","446928","SARL_v6","SARL_v63dz6whwx","56849d528f456f000c45e1dd","fixation","","","img/fixation.png","null","","","test","","","","","","","","","","","","","","","","","","","",""
"377.5","447317","SARL_v6","SARL_v63dz6whwx","56849d528f456f000c45e1dd","freq","","","img/orange_2bandit_a2.png","70","","70","test","1","","48","","","","square","circle","46","5","3","0.9130434782608695","","","","","","","",""
"null","447770","SARL_v6","SARL_v63dz6whwx","56849d528f456f000c45e1dd","freq_resp","","","img/orange_2bandit_a.png","70","img/orange_2bandit_a.png","70","test","","","","","","","","","","","3","","","","","","","","",""
"null","447953","SARL_v6","SARL_v63dz6whwx","56849d528f456f000c45e1dd","fixation","","","img/fixation.png","null","","","test","","","","","","","","","","","","","","","","","","","",""
"617","448598","SARL_v6","SARL_v63dz6whwx","56849d528f456f000c45e1dd","infreq","","","img/blue_2bandit_a2.png","68","","68","test","1","","49","","","","square","circle","47","6","3","0.9148936170212766","","","","","","","",""
"null","448814","SARL_v6","SARL_v63dz6whwx","56849d528f456f000c45e1dd","infreq_resp","","","img/blue_2bandit_a.png","68","img/blue_2bandit_a.png","68","test","","","","","","","","","","","3","","","","","","","","",""
"null","448989","SARL_v6","SARL_v63dz6whwx","56849d528f456f000c45e1dd","fixation","","","img/fixation.png","null","","","test","","","","","","","","","","","","","","","","","","","",""
"595.8000000119209","449613","SARL_v6","SARL_v63dz6whwx","56849d528f456f000c45e1dd","freq","","","img/orange_2bandit_a2.png","70","","70","test","1","","50","","","","square","circle","48","7","3","0.9166666666666666","","","","","","","",""
"null","449848","SARL_v6","SARL_v63dz6whwx","56849d528f456f000c45e1dd","freq_resp","","","img/orange_2bandit_a.png","70","img/orange_2bandit_a.png","70","test","","","","","","","","","","","3","","","","","","","","",""
"null","450033","SARL_v6","SARL_v63dz6whwx","56849d528f456f000c45e1dd","fixation","","","img/fixation.png","null","","","test","","","","","","","","","","","","","","","","","","","",""
"467.29999999701977","450523","SARL_v6","SARL_v63dz6whwx","56849d528f456f000c45e1dd","freq","","","img/orange_2bandit_a2.png","70","","70","test","1","","51","","","","square","circle","49","8","3","0.9183673469387755","","","","","","","",""
"null","450889","SARL_v6","SARL_v63dz6whwx","56849d528f456f000c45e1dd","freq_resp","","","img/orange_2bandit_a.png","70","img/orange_2bandit_a.png","70","test","","","","","","","","","","","3","","","","","","","","",""
"null","451074","SARL_v6","SARL_v63dz6whwx","56849d528f456f000c45e1dd","fixation","","","img/fixation.png","null","","","test","","","","","","","","","","","","","","","","","","","",""
"566.7000000029802","451669","SARL_v6","SARL_v63dz6whwx","56849d528f456f000c45e1dd","freq","","","img/orange_2bandit_a2.png","70","","70","test","1","","52","","","","square","circle","50","9","3","0.92","","","","","","","",""
"null","451935","SARL_v6","SARL_v63dz6whwx","56849d528f456f000c45e1dd","freq_resp","","","img/orange_2bandit_a.png","70","img/orange_2bandit_a.png","70","test","","","","","","","","","","","3","","","","","","","","",""
"null","452113","SARL_v6","SARL_v63dz6whwx","56849d528f456f000c45e1dd","fixation","","","img/fixation.png","null","","","test","","","","","","","","","","","","","","","","","","","",""
"569.5","452711","SARL_v6","SARL_v63dz6whwx","56849d528f456f000c45e1dd","freq","","","img/orange_2bandit_a2.png","70","","70","test","1","","53","","","","square","circle","51","10","3","0.9215686274509803","","","","","","","",""
"null","452968","SARL_v6","SARL_v63dz6whwx","56849d528f456f000c45e1dd","freq_resp","","","img/orange_2bandit_a.png","70","img/orange_2bandit_a.png","70","test","","","","","","","","","","","3","","","","","","","","",""
"null","453151","SARL_v6","SARL_v63dz6whwx","56849d528f456f000c45e1dd","fixation","","","img/fixation.png","null","","","test","","","","","","","","","","","","","","","","","","","",""
"546.3999999910593","453726","SARL_v6","SARL_v63dz6whwx","56849d528f456f000c45e1dd","freq","","","img/orange_2bandit_a2.png","70","","70","test","1","","54","","","","square","circle","52","11","3","0.9230769230769231","","","","","","","",""
"null","454009","SARL_v6","SARL_v63dz6whwx","56849d528f456f000c45e1dd","freq_resp","","","img/orange_2bandit_a.png","70","img/orange_2bandit_a.png","70","test","","","","","","","","","","","3","","","","","","","","",""
"null","454196","SARL_v6","SARL_v63dz6whwx","56849d528f456f000c45e1dd","fixation","","","img/fixation.png","null","","","test","","","","","","","","","","","","","","","","","","","",""
"462.70000000298023","454688","SARL_v6","SARL_v63dz6whwx","56849d528f456f000c45e1dd","freq","","","img/orange_2bandit_a2.png","70","","70","test","1","","55","","","","square","circle","53","12","3","0.9245283018867925","","","","","","","",""
"null","455059","SARL_v6","SARL_v63dz6whwx","56849d528f456f000c45e1dd","freq_resp","","","img/orange_2bandit_a.png","70","img/orange_2bandit_a.png","70","test","","","","","","","","","","","3","","","","","","","","",""
"null","455237","SARL_v6","SARL_v63dz6whwx","56849d528f456f000c45e1dd","fixation","","","img/fixation.png","null","","","test","","","","","","","","","","","","","","","","","","","",""
"368","455630","SARL_v6","SARL_v63dz6whwx","56849d528f456f000c45e1dd","freq","","","img/orange_2bandit_a2.png","70","","70","test","1","","56","","","","square","circle","54","13","3","0.9259259259259259","","","","","","","",""
"null","456098","SARL_v6","SARL_v63dz6whwx","56849d528f456f000c45e1dd","freq_resp","","","img/orange_2bandit_a.png","70","img/orange_2bandit_a.png","70","test","","","","","","","","","","","3","","","","","","","","",""
"null","456276","SARL_v6","SARL_v63dz6whwx","56849d528f456f000c45e1dd","fixation","","","img/fixation.png","null","","","test","","","","","","","","","","","","","","","","","","","",""
"326.20000000298023","456630","SARL_v6","SARL_v63dz6whwx","56849d528f456f000c45e1dd","freq","","","img/orange_2bandit_a2.png","70","","70","test","1","","57","","","","square","circle","55","14","3","0.9272727272727272","","","","","","","",""
"null","457138","SARL_v6","SARL_v63dz6whwx","56849d528f456f000c45e1dd","freq_resp","","","img/orange_2bandit_a.png","70","img/orange_2bandit_a.png","70","test","","","","","","","","","","","3","","","","","","","","",""
"null","457303","SARL_v6","SARL_v63dz6whwx","56849d528f456f000c45e1dd","fixation","","","img/fixation.png","null","","","test","","","","","","","","","","","","","","","","","","","",""
"340.70000000298023","457665","SARL_v6","SARL_v63dz6whwx","56849d528f456f000c45e1dd","freq","","","img/orange_2bandit_a2.png","70","","70","test","1","","58","","","","square","circle","56","15","3","0.9285714285714286","","","","","","","",""
"null","458151","SARL_v6","SARL_v63dz6whwx","56849d528f456f000c45e1dd","freq_resp","","","img/orange_2bandit_a.png","70","img/orange_2bandit_a.png","70","test","","","","","","","","","","","3","","","","","","","","",""
"null","458321","SARL_v6","SARL_v63dz6whwx","56849d528f456f000c45e1dd","fixation","","","img/fixation.png","null","","","test","","","","","","","","","","","","","","","","","","","",""
"295.70000000298023","458642","SARL_v6","SARL_v63dz6whwx","56849d528f456f000c45e1dd","freq","","","img/orange_2bandit_a2.png","70","","70","test","1","","59","","","","square","circle","57","16","3","0.9298245614035088","","","","","","","",""
"null","459177","SARL_v6","SARL_v63dz6whwx","56849d528f456f000c45e1dd","freq_resp","","","img/orange_2bandit_a.png","70","img/orange_2bandit_a.png","70","test","","","","","","","","","","","3","","","","","","","","",""
"null","459348","SARL_v6","SARL_v63dz6whwx","56849d528f456f000c45e1dd","fixation","","","img/fixation.png","null","","","test","","","","","","","","","","","","","","","","","","","",""
"416","459790","SARL_v6","SARL_v63dz6whwx","56849d528f456f000c45e1dd","freq","","","img/orange_2bandit_a2.png","70","","70","test","1","","60","","","","square","circle","58","17","3","0.9310344827586207","","","","","","","",""
"null","460210","SARL_v6","SARL_v63dz6whwx","56849d528f456f000c45e1dd","freq_resp","","","img/orange_2bandit_a.png","70","img/orange_2bandit_a.png","70","test","","","","","","","","","","","3","","","","","","","","",""
"null","460376","SARL_v6","SARL_v63dz6whwx","56849d528f456f000c45e1dd","fixation","","","img/fixation.png","null","","","test","","","","","","","","","","","","","","","","","","","",""
"349.69999998807907","460750","SARL_v6","SARL_v63dz6whwx","56849d528f456f000c45e1dd","freq","","","img/orange_2bandit_a2.png","70","","70","test","1","","61","","","","square","circle","59","18","3","0.9322033898305084","","","","","","","",""
"null","461233","SARL_v6","SARL_v63dz6whwx","56849d528f456f000c45e1dd","freq_resp","","","img/orange_2bandit_a.png","70","img/orange_2bandit_a.png","70","test","","","","","","","","","","","3","","","","","","","","",""
"null","461410","SARL_v6","SARL_v63dz6whwx","56849d528f456f000c45e1dd","fixation","","","img/fixation.png","null","","","test","","","","","","","","","","","","","","","","","","","",""
"349.40000000596046","461784","SARL_v6","SARL_v63dz6whwx","56849d528f456f000c45e1dd","freq","","","img/orange_2bandit_a2.png","70","","70","test","1","","62","","","","square","circle","60","19","3","0.9333333333333333","","","","","","","",""
"null","462266","SARL_v6","SARL_v63dz6whwx","56849d528f456f000c45e1dd","freq_resp","","","img/orange_2bandit_a.png","70","img/orange_2bandit_a.png","70","test","","","","","","","","","","","3","","","","","","","","",""
"null","462446","SARL_v6","SARL_v63dz6whwx","56849d528f456f000c45e1dd","fixation","","","img/fixation.png","null","","","test","","","","","","","","","","","","","","","","","","","",""
"518.5","462992","SARL_v6","SARL_v63dz6whwx","56849d528f456f000c45e1dd","infreq","","","img/blue_2bandit_a2.png","68","","68","test","1","","63","","","","square","circle","61","20","3","0.9344262295081968","","","","","","","",""
"null","463303","SARL_v6","SARL_v63dz6whwx","56849d528f456f000c45e1dd","infreq_resp","","","img/blue_2bandit_a.png","68","img/blue_2bandit_a.png","68","test","","","","","","","","","","","3","","","","","","","","",""
"null","463482","SARL_v6","SARL_v63dz6whwx","56849d528f456f000c45e1dd","fixation","","","img/fixation.png","null","","","test","","","","","","","","","","","","","","","","","","","",""
"547.5999999940395","464056","SARL_v6","SARL_v63dz6whwx","56849d528f456f000c45e1dd","freq","","","img/orange_2bandit_a2.png","70","","70","test","1","","64","","","","square","circle","62","21","3","0.9354838709677419","","","","","","","",""
"null","464338","SARL_v6","SARL_v63dz6whwx","56849d528f456f000c45e1dd","freq_resp","","","img/orange_2bandit_a.png","70","img/orange_2bandit_a.png","70","test","","","","","","","","","","","3","","","","","","","","",""
"null","464521","SARL_v6","SARL_v63dz6whwx","56849d528f456f000c45e1dd","fixation","","","img/fixation.png","null","","","test","","","","","","","","","","","","","","","","","","","",""
"499.20000000298023","465049","SARL_v6","SARL_v63dz6whwx","56849d528f456f000c45e1dd","freq","","","img/orange_2bandit_a2.png","70","","70","test","1","","65","","","","square","circle","63","22","3","0.9365079365079365","","","","","","","",""
"null","465371","SARL_v6","SARL_v63dz6whwx","56849d528f456f000c45e1dd","freq_resp","","","img/orange_2bandit_a.png","70","img/orange_2bandit_a.png","70","test","","","","","","","","","","","3","","","","","","","","",""
"null","465536","SARL_v6","SARL_v63dz6whwx","56849d528f456f000c45e1dd","fixation","","","img/fixation.png","null","","","test","","","","","","","","","","","","","","","","","","","",""
"798.2000000029802","466343","SARL_v6","SARL_v63dz6whwx","56849d528f456f000c45e1dd","rl","","","img/black_2bandit_a2.png","74","","0","test","","","66","","","-8","square","circle","","0","3","","74","-4","-8","-8","-4","square","3","0"
"null","467121","SARL_v6","SARL_v63dz6whwx","56849d528f456f000c45e1dd","feedback","","","<div class=""verylowPoints_sq""> -8 </div>","null","","na","test","","","NaN","","","","","","","","3","","74","","","","","","3",""
"618.7999999970198","467753","SARL_v6","SARL_v63dz6whwx","56849d528f456f000c45e1dd","freq","","","img/orange_2bandit_a2.png","70","","70","test","1","","67","","","","square","circle","64","1","4","0.9375","","","","","","","",""
"null","467972","SARL_v6","SARL_v63dz6whwx","56849d528f456f000c45e1dd","freq_resp","","","img/orange_2bandit_a.png","70","img/orange_2bandit_a.png","70","test","","","","","","","","","","","4","","","","","","","","",""
"null","468151","SARL_v6","SARL_v63dz6whwx","56849d528f456f000c45e1dd","fixation","","","img/fixation.png","null","","","test","","","","","","","","","","","","","","","","","","","",""
"473.5","468638","SARL_v6","SARL_v63dz6whwx","56849d528f456f000c45e1dd","freq","","","img/orange_2bandit_a2.png","70","","70","test","1","","68","","","","square","circle","65","2","4","0.9384615384615385","","","","","","","",""
"null","468991","SARL_v6","SARL_v63dz6whwx","56849d528f456f000c45e1dd","freq_resp","","","img/orange_2bandit_a.png","70","img/orange_2bandit_a.png","70","test","","","","","","","","","","","4","","","","","","","","",""
"null","469166","SARL_v6","SARL_v63dz6whwx","56849d528f456f000c45e1dd","fixation","","","img/fixation.png","null","","","test","","","","","","","","","","","","","","","","","","","",""
"417.69999998807907","469605","SARL_v6","SARL_v63dz6whwx","56849d528f456f000c45e1dd","freq","","","img/orange_2bandit_a2.png","70","","70","test","1","","69","","","","square","circle","66","3","4","0.9393939393939394","","","","","","","",""
"null","470020","SARL_v6","SARL_v63dz6whwx","56849d528f456f000c45e1dd","freq_resp","","","img/orange_2bandit_a.png","70","img/orange_2bandit_a.png","70","test","","","","","","","","","","","4","","","","","","","","",""
"null","470202","SARL_v6","SARL_v63dz6whwx","56849d528f456f000c45e1dd","fixation","","","img/fixation.png","null","","","test","","","","","","","","","","","","","","","","","","","",""
"354.79999999701977","470580","SARL_v6","SARL_v63dz6whwx","56849d528f456f000c45e1dd","freq","","","img/orange_2bandit_a2.png","70","","70","test","1","","70","","","","square","circle","67","4","4","0.9402985074626866","","","","","","","",""
"null","471056","SARL_v6","SARL_v63dz6whwx","56849d528f456f000c45e1dd","freq_resp","","","img/orange_2bandit_a.png","70","img/orange_2bandit_a.png","70","test","","","","","","","","","","","4","","","","","","","","",""
"null","471235","SARL_v6","SARL_v63dz6whwx","56849d528f456f000c45e1dd","fixation","","","img/fixation.png","null","","","test","","","","","","","","","","","","","","","","","","","",""
"382","471641","SARL_v6","SARL_v63dz6whwx","56849d528f456f000c45e1dd","freq","","","img/orange_2bandit_a2.png","70","","70","test","1","","71","","","","square","circle","68","5","4","0.9411764705882353","","","","","","","",""
"null","472089","SARL_v6","SARL_v63dz6whwx","56849d528f456f000c45e1dd","freq_resp","","","img/orange_2bandit_a.png","70","img/orange_2bandit_a.png","70","test","","","","","","","","","","","4","","","","","","","","",""
"null","472270","SARL_v6","SARL_v63dz6whwx","56849d528f456f000c45e1dd","fixation","","","img/fixation.png","null","","","test","","","","","","","","","","","","","","","","","","","",""
"370.90000000596046","472655","SARL_v6","SARL_v63dz6whwx","56849d528f456f000c45e1dd","freq","","","img/orange_2bandit_a2.png","70","","70","test","1","","72","","","","square","circle","69","6","4","0.9420289855072463","","","","","","","",""
"null","473114","SARL_v6","SARL_v63dz6whwx","56849d528f456f000c45e1dd","freq_resp","","","img/orange_2bandit_a.png","70","img/orange_2bandit_a.png","70","test","","","","","","","","","","","4","","","","","","","","",""
"null","473297","SARL_v6","SARL_v63dz6whwx","56849d528f456f000c45e1dd","fixation","","","img/fixation.png","null","","","test","","","","","","","","","","","","","","","","","","","",""
"428.90000000596046","473755","SARL_v6","SARL_v63dz6whwx","56849d528f456f000c45e1dd","freq","","","img/orange_2bandit_a2.png","70","","70","test","1","","73","","","","square","circle","70","7","4","0.9428571428571428","","","","","","","",""
"null","474161","SARL_v6","SARL_v63dz6whwx","56849d528f456f000c45e1dd","freq_resp","","","img/orange_2bandit_a.png","70","img/orange_2bandit_a.png","70","test","","","","","","","","","","","4","","","","","","","","",""
"null","474342","SARL_v6","SARL_v63dz6whwx","56849d528f456f000c45e1dd","fixation","","","img/fixation.png","null","","","test","","","","","","","","","","","","","","","","","","","",""
"433.8999999910593","474805","SARL_v6","SARL_v63dz6whwx","56849d528f456f000c45e1dd","freq","","","img/orange_2bandit_a2.png","70","","70","test","1","","74","","","","square","circle","71","8","4","0.9436619718309859","","","","","","","",""
"null","475199","SARL_v6","SARL_v63dz6whwx","56849d528f456f000c45e1dd","freq_resp","","","img/orange_2bandit_a.png","70","img/orange_2bandit_a.png","70","test","","","","","","","","","","","4","","","","","","","","",""
"null","475368","SARL_v6","SARL_v63dz6whwx","56849d528f456f000c45e1dd","fixation","","","img/fixation.png","null","","","test","","","","","","","","","","","","","","","","","","","",""
"391.3999999910593","475786","SARL_v6","SARL_v63dz6whwx","56849d528f456f000c45e1dd","freq","","","img/orange_2bandit_a2.png","70","","70","test","1","","75","","","","square","circle","72","9","4","0.9444444444444444","","","","","","","",""
"null","476226","SARL_v6","SARL_v63dz6whwx","56849d528f456f000c45e1dd","freq_resp","","","img/orange_2bandit_a.png","70","img/orange_2bandit_a.png","70","test","","","","","","","","","","","4","","","","","","","","",""
"null","476401","SARL_v6","SARL_v63dz6whwx","56849d528f456f000c45e1dd","fixation","","","img/fixation.png","null","","","test","","","","","","","","","","","","","","","","","","","",""
"336.59999999403954","476765","SARL_v6","SARL_v63dz6whwx","56849d528f456f000c45e1dd","freq","","","img/orange_2bandit_a2.png","70","","70","test","1","","76","","","","square","circle","73","10","4","0.9452054794520548","","","","","","","",""
"null","477266","SARL_v6","SARL_v63dz6whwx","56849d528f456f000c45e1dd","freq_resp","","","img/orange_2bandit_a.png","70","img/orange_2bandit_a.png","70","test","","","","","","","","","","","4","","","","","","","","",""
"null","477437","SARL_v6","SARL_v63dz6whwx","56849d528f456f000c45e1dd","fixation","","","img/fixation.png","null","","","test","","","","","","","","","","","","","","","","","","","",""
"261.1000000089407","477725","SARL_v6","SARL_v63dz6whwx","56849d528f456f000c45e1dd","freq","","","img/orange_2bandit_a2.png","70","","70","test","1","","77","","","","square","circle","74","11","4","0.9459459459459459","","","","","","","",""
"null","478297","SARL_v6","SARL_v63dz6whwx","56849d528f456f000c45e1dd","freq_resp","","","img/orange_2bandit_a.png","70","img/orange_2bandit_a.png","70","test","","","","","","","","","","","4","","","","","","","","",""
"null","478463","SARL_v6","SARL_v63dz6whwx","56849d528f456f000c45e1dd","fixation","","","img/fixation.png","null","","","test","","","","","","","","","","","","","","","","","","","",""
"317.59999999403954","478807","SARL_v6","SARL_v63dz6whwx","56849d528f456f000c45e1dd","freq","","","img/orange_2bandit_a2.png","70","","70","test","1","","78","","","","square","circle","75","12","4","0.9466666666666667","","","","","","","",""
"null","479323","SARL_v6","SARL_v63dz6whwx","56849d528f456f000c45e1dd","freq_resp","","","img/orange_2bandit_a.png","70","img/orange_2bandit_a.png","70","test","","","","","","","","","","","4","","","","","","","","",""
"null","479486","SARL_v6","SARL_v63dz6whwx","56849d528f456f000c45e1dd","fixation","","","img/fixation.png","null","","","test","","","","","","","","","","","","","","","","","","","",""
"367.90000000596046","479880","SARL_v6","SARL_v63dz6whwx","56849d528f456f000c45e1dd","freq","","","img/orange_2bandit_a2.png","70","","70","test","1","","79","","","","square","circle","76","13","4","0.9473684210526315","","","","","","","",""
"null","480345","SARL_v6","SARL_v63dz6whwx","56849d528f456f000c45e1dd","freq_resp","","","img/orange_2bandit_a.png","70","img/orange_2bandit_a.png","70","test","","","","","","","","","","","4","","","","","","","","",""
"null","480522","SARL_v6","SARL_v63dz6whwx","56849d528f456f000c45e1dd","fixation","","","img/fixation.png","null","","","test","","","","","","","","","","","","","","","","","","","",""
"311","480864","SARL_v6","SARL_v63dz6whwx","56849d528f456f000c45e1dd","freq","","","img/orange_2bandit_a2.png","70","","70","test","1","","80","","","","square","circle","77","14","4","0.948051948051948","","","","","","","",""
"null","481385","SARL_v6","SARL_v63dz6whwx","56849d528f456f000c45e1dd","freq_resp","","","img/orange_2bandit_a.png","70","img/orange_2bandit_a.png","70","test","","","","","","","","","","","4","","","","","","","","",""
"null","481563","SARL_v6","SARL_v63dz6whwx","56849d528f456f000c45e1dd","fixation","","","img/fixation.png","null","","","test","","","","","","","","","","","","","","","","","","","",""
"362.69999998807907","481954","SARL_v6","SARL_v63dz6whwx","56849d528f456f000c45e1dd","freq","","","img/orange_2bandit_a2.png","70","","70","test","1","","81","","","","square","circle","78","15","4","0.9487179487179487","","","","","","","",""
"null","482412","SARL_v6","SARL_v63dz6whwx","56849d528f456f000c45e1dd","freq_resp","","","img/orange_2bandit_a.png","70","img/orange_2bandit_a.png","70","test","","","","","","","","","","","4","","","","","","","","",""
"null","482588","SARL_v6","SARL_v63dz6whwx","56849d528f456f000c45e1dd","fixation","","","img/fixation.png","null","","","test","","","","","","","","","","","","","","","","","","","",""
"518.3999999910593","483135","SARL_v6","SARL_v63dz6whwx","56849d528f456f000c45e1dd","infreq","","","img/blue_2bandit_a2.png","68","","68","test","1","","82","","","","square","circle","79","16","4","0.9493670886075949","","","","","","","",""
"null","483441","SARL_v6","SARL_v63dz6whwx","56849d528f456f000c45e1dd","infreq_resp","","","img/blue_2bandit_a.png","68","img/blue_2bandit_a.png","68","test","","","","","","","","","","","4","","","","","","","","",""
"null","483626","SARL_v6","SARL_v63dz6whwx","56849d528f456f000c45e1dd","fixation","","","img/fixation.png","null","","","test","","","","","","","","","","","","","","","","","","","",""
"645","484296","SARL_v6","SARL_v63dz6whwx","56849d528f456f000c45e1dd","freq","","","img/orange_2bandit_a2.png","70","","70","test","1","","83","","","","square","circle","80","17","4","0.95","","","","","","","",""
"null","484467","SARL_v6","SARL_v63dz6whwx","56849d528f456f000c45e1dd","freq_resp","","","img/orange_2bandit_a.png","70","img/orange_2bandit_a.png","70","test","","","","","","","","","","","4","","","","","","","","",""
"null","484641","SARL_v6","SARL_v63dz6whwx","56849d528f456f000c45e1dd","fixation","","","img/fixation.png","null","","","test","","","","","","","","","","","","","","","","","","","",""
"524.0999999940395","485194","SARL_v6","SARL_v63dz6whwx","56849d528f456f000c45e1dd","infreq","","","img/blue_2bandit_a2.png","68","","68","test","1","","84","","","","square","circle","81","18","4","0.9506172839506173","","","","","","","",""
"null","485493","SARL_v6","SARL_v63dz6whwx","56849d528f456f000c45e1dd","infreq_resp","","","img/blue_2bandit_a.png","68","img/blue_2bandit_a.png","68","test","","","","","","","","","","","4","","","","","","","","",""
"null","485658","SARL_v6","SARL_v63dz6whwx","56849d528f456f000c45e1dd","fixation","","","img/fixation.png","null","","","test","","","","","","","","","","","","","","","","","","","",""
"372.6000000089407","486057","SARL_v6","SARL_v63dz6whwx","56849d528f456f000c45e1dd","freq","","","img/orange_2bandit_a2.png","70","","70","test","1","","85","","","","square","circle","82","19","4","0.9512195121951219","","","","","","","",""
"null","486503","SARL_v6","SARL_v63dz6whwx","56849d528f456f000c45e1dd","freq_resp","","","img/orange_2bandit_a.png","70","img/orange_2bandit_a.png","70","test","","","","","","","","","","","4","","","","","","","","",""
"null","486663","SARL_v6","SARL_v63dz6whwx","56849d528f456f000c45e1dd","fixation","","","img/fixation.png","null","","","test","","","","","","","","","","","","","","","","","","","",""
"530.0999999940395","487218","SARL_v6","SARL_v63dz6whwx","56849d528f456f000c45e1dd","freq","","","img/orange_2bandit_a2.png","70","","70","test","1","","86","","","","square","circle","83","20","4","0.9518072289156626","","","","","","","",""
"null","487502","SARL_v6","SARL_v63dz6whwx","56849d528f456f000c45e1dd","freq_resp","","","img/orange_2bandit_a.png","70","img/orange_2bandit_a.png","70","test","","","","","","","","","","","4","","","","","","","","",""
"null","487676","SARL_v6","SARL_v63dz6whwx","56849d528f456f000c45e1dd","fixation","","","img/fixation.png","null","","","test","","","","","","","","","","","","","","","","","","","",""
"471.59999999403954","488175","SARL_v6","SARL_v63dz6whwx","56849d528f456f000c45e1dd","freq","","","img/orange_2bandit_a2.png","70","","70","test","1","","87","","","","square","circle","84","21","4","0.9523809523809523","","","","","","","",""
"null","488529","SARL_v6","SARL_v63dz6whwx","56849d528f456f000c45e1dd","freq_resp","","","img/orange_2bandit_a.png","70","img/orange_2bandit_a.png","70","test","","","","","","","","","","","4","","","","","","","","",""
"null","488706","SARL_v6","SARL_v63dz6whwx","56849d528f456f000c45e1dd","fixation","","","img/fixation.png","null","","","test","","","","","","","","","","","","","","","","","","","",""
"801.5","489517","SARL_v6","SARL_v63dz6whwx","56849d528f456f000c45e1dd","rl","","","img/black_2bandit_a2.png","74","","0","test","","","88","","","-12","square","circle","","0","4","","74","0","-12","-12","0","square","4","0"
"null","490297","SARL_v6","SARL_v63dz6whwx","56849d528f456f000c45e1dd","feedback","","","<div class=""verylowPoints_sq""> -12 </div>","null","","na","test","","","NaN","","","","","","","","4","","74","","","","","","4",""
"null","491126","SARL_v6","SARL_v63dz6whwx","56849d528f456f000c45e1dd","freq","","","img/orange_2bandit_a2.png","null","","70","test","0","","89","","","","square","circle","85","1","5","0.9411764705882353","","","","","","","",""
"null","491309","SARL_v6","SARL_v63dz6whwx","56849d528f456f000c45e1dd","fixation","","","img/fixation.png","null","","","test","","","","","","","","","","","","","","","","","","","",""
"359","491680","SARL_v6","SARL_v63dz6whwx","56849d528f456f000c45e1dd","freq","","","img/orange_2bandit_a2.png","70","","70","test","1","","90","","","","square","circle","86","2","5","0.9418604651162791","","","","","","","",""
"null","492154","SARL_v6","SARL_v63dz6whwx","56849d528f456f000c45e1dd","freq_resp","","","img/orange_2bandit_a.png","70","img/orange_2bandit_a.png","70","test","","","","","","","","","","","5","","","","","","","","",""
"null","492333","SARL_v6","SARL_v63dz6whwx","56849d528f456f000c45e1dd","fixation","","","img/fixation.png","null","","","test","","","","","","","","","","","","","","","","","","","",""
"350.40000000596046","492703","SARL_v6","SARL_v63dz6whwx","56849d528f456f000c45e1dd","freq","","","img/orange_2bandit_a2.png","70","","70","test","1","","91","","","","square","circle","87","3","5","0.9425287356321839","","","","","","","",""
"null","493185","SARL_v6","SARL_v63dz6whwx","56849d528f456f000c45e1dd","freq_resp","","","img/orange_2bandit_a.png","70","img/orange_2bandit_a.png","70","test","","","","","","","","","","","5","","","","","","","","",""
"null","493371","SARL_v6","SARL_v63dz6whwx","56849d528f456f000c45e1dd","fixation","","","img/fixation.png","null","","","test","","","","","","","","","","","","","","","","","","","",""
"318.90000000596046","493711","SARL_v6","SARL_v63dz6whwx","56849d528f456f000c45e1dd","freq","","","img/orange_2bandit_a2.png","70","","70","test","1","","92","","","","square","circle","88","4","5","0.9431818181818182","","","","","","","",""
"null","494223","SARL_v6","SARL_v63dz6whwx","56849d528f456f000c45e1dd","freq_resp","","","img/orange_2bandit_a.png","70","img/orange_2bandit_a.png","70","test","","","","","","","","","","","5","","","","","","","","",""
"null","494399","SARL_v6","SARL_v63dz6whwx","56849d528f456f000c45e1dd","fixation","","","img/fixation.png","null","","","test","","","","","","","","","","","","","","","","","","","",""
"325","494748","SARL_v6","SARL_v63dz6whwx","56849d528f456f000c45e1dd","freq","","","img/orange_2bandit_a2.png","70","","70","test","1","","93","","","","square","circle","89","5","5","0.9438202247191011","","","","","","","",""
"null","495243","SARL_v6","SARL_v63dz6whwx","56849d528f456f000c45e1dd","freq_resp","","","img/orange_2bandit_a.png","70","img/orange_2bandit_a.png","70","test","","","","","","","","","","","5","","","","","","","","",""
"null","495425","SARL_v6","SARL_v63dz6whwx","56849d528f456f000c45e1dd","fixation","","","img/fixation.png","null","","","test","","","","","","","","","","","","","","","","","","","",""
"534.3999999910593","495989","SARL_v6","SARL_v63dz6whwx","56849d528f456f000c45e1dd","infreq","","","img/blue_2bandit_a2.png","68","","68","test","1","","94","","","","square","circle","90","6","5","0.9444444444444444","","","","","","","",""
"null","496290","SARL_v6","SARL_v63dz6whwx","56849d528f456f000c45e1dd","infreq_resp","","","img/blue_2bandit_a.png","68","img/blue_2bandit_a.png","68","test","","","","","","","","","","","5","","","","","","","","",""
"null","496468","SARL_v6","SARL_v63dz6whwx","56849d528f456f000c45e1dd","fixation","","","img/fixation.png","null","","","test","","","","","","","","","","","","","","","","","","","",""
"558.9000000059605","497052","SARL_v6","SARL_v63dz6whwx","56849d528f456f000c45e1dd","freq","","","img/orange_2bandit_a2.png","70","","70","test","1","","95","","","","square","circle","91","7","5","0.945054945054945","","","","","","","",""
"null","497330","SARL_v6","SARL_v63dz6whwx","56849d528f456f000c45e1dd","freq_resp","","","img/orange_2bandit_a.png","70","img/orange_2bandit_a.png","70","test","","","","","","","","","","","5","","","","","","","","",""
"null","497495","SARL_v6","SARL_v63dz6whwx","56849d528f456f000c45e1dd","fixation","","","img/fixation.png","null","","","test","","","","","","","","","","","","","","","","","","","",""
"488.6000000089407","498013","SARL_v6","SARL_v63dz6whwx","56849d528f456f000c45e1dd","freq","","","img/orange_2bandit_a2.png","68","","70","test","0","","96","","","","square","circle","92","8","5","0.9347826086956522","","","","","","","",""
"null","498352","SARL_v6","SARL_v63dz6whwx","56849d528f456f000c45e1dd","freq_resp","","","img/orange_2bandit_a.png","68","img/orange_2bandit_a.png","70","test","","","","","","","","","","","5","","","","","","","","",""
"null","498521","SARL_v6","SARL_v63dz6whwx","56849d528f456f000c45e1dd","fixation","","","img/fixation.png","null","","","test","","","","","","","","","","","","","","","","","","","",""
"731.6000000089407","499264","SARL_v6","SARL_v63dz6whwx","56849d528f456f000c45e1dd","freq","","","img/orange_2bandit_a2.png","70","","70","test","1","","97","","","","square","circle","93","9","5","0.9354838709677419","","","","","","","",""
"null","499365","SARL_v6","SARL_v63dz6whwx","56849d528f456f000c45e1dd","freq_resp","","","img/orange_2bandit_a.png","70","img/orange_2bandit_a.png","70","test","","","","","","","","","","","5","","","","","","","","",""
"null","499529","SARL_v6","SARL_v63dz6whwx","56849d528f456f000c45e1dd","fixation","","","img/fixation.png","null","","","test","","","","","","","","","","","","","","","","","","","",""
"633.9000000059605","500189","SARL_v6","SARL_v63dz6whwx","56849d528f456f000c45e1dd","freq","","","img/orange_2bandit_a2.png","70","","70","test","1","","98","","","","square","circle","94","10","5","0.9361702127659575","","","","","","","",""
"null","500382","SARL_v6","SARL_v63dz6whwx","56849d528f456f000c45e1dd","freq_resp","","","img/orange_2bandit_a.png","70","img/orange_2bandit_a.png","70","test","","","","","","","","","","","5","","","","","","","","",""
"null","500547","SARL_v6","SARL_v63dz6whwx","56849d528f456f000c45e1dd","fixation","","","img/fixation.png","null","","","test","","","","","","","","","","","","","","","","","","","",""
"621.1999999880791","501194","SARL_v6","SARL_v63dz6whwx","56849d528f456f000c45e1dd","freq","","","img/orange_2bandit_a2.png","70","","70","test","1","","99","","","","square","circle","95","11","5","0.9368421052631579","","","","","","","",""
"null","501404","SARL_v6","SARL_v63dz6whwx","56849d528f456f000c45e1dd","freq_resp","","","img/orange_2bandit_a.png","70","img/orange_2bandit_a.png","70","test","","","","","","","","","","","5","","","","","","","","",""
"null","501567","SARL_v6","SARL_v63dz6whwx","56849d528f456f000c45e1dd","fixation","","","img/fixation.png","null","","","test","","","","","","","","","","","","","","","","","","","",""
"634.7999999970198","502227","SARL_v6","SARL_v63dz6whwx","56849d528f456f000c45e1dd","freq","","","img/orange_2bandit_a2.png","70","","70","test","1","","100","","","","square","circle","96","12","5","0.9375","","","","","","","",""
"null","502428","SARL_v6","SARL_v63dz6whwx","56849d528f456f000c45e1dd","freq_resp","","","img/orange_2bandit_a.png","70","img/orange_2bandit_a.png","70","test","","","","","","","","","","","5","","","","","","","","",""
"null","502602","SARL_v6","SARL_v63dz6whwx","56849d528f456f000c45e1dd","fixation","","","img/fixation.png","null","","","test","","","","","","","","","","","","","","","","","","","",""
"651.5","503281","SARL_v6","SARL_v63dz6whwx","56849d528f456f000c45e1dd","freq","","","img/orange_2bandit_a2.png","70","","70","test","1","","101","","","","square","circle","97","13","5","0.9381443298969072","","","","","","","",""
"null","503464","SARL_v6","SARL_v63dz6whwx","56849d528f456f000c45e1dd","freq_resp","","","img/orange_2bandit_a.png","70","img/orange_2bandit_a.png","70","test","","","","","","","","","","","5","","","","","","","","",""
"null","503648","SARL_v6","SARL_v63dz6whwx","56849d528f456f000c45e1dd","fixation","","","img/fixation.png","null","","","test","","","","","","","","","","","","","","","","","","","",""
"616","504290","SARL_v6","SARL_v63dz6whwx","56849d528f456f000c45e1dd","freq","","","img/orange_2bandit_a2.png","70","","70","test","1","","102","","","","square","circle","98","14","5","0.9387755102040817","","","","","","","",""
"null","504506","SARL_v6","SARL_v63dz6whwx","56849d528f456f000c45e1dd","freq_resp","","","img/orange_2bandit_a.png","70","img/orange_2bandit_a.png","70","test","","","","","","","","","","","5","","","","","","","","",""
"null","504684","SARL_v6","SARL_v63dz6whwx","56849d528f456f000c45e1dd","fixation","","","img/fixation.png","null","","","test","","","","","","","","","","","","","","","","","","","",""
"647.9000000059605","505360","SARL_v6","SARL_v63dz6whwx","56849d528f456f000c45e1dd","infreq","","","img/blue_2bandit_a2.png","68","","68","test","1","","103","","","","square","circle","99","15","5","0.9393939393939394","","","","","","","",""
"null","505530","SARL_v6","SARL_v63dz6whwx","56849d528f456f000c45e1dd","infreq_resp","","","img/blue_2bandit_a.png","68","img/blue_2bandit_a.png","68","test","","","","","","","","","","","5","","","","","","","","",""
"null","505710","SARL_v6","SARL_v63dz6whwx","56849d528f456f000c45e1dd","fixation","","","img/fixation.png","null","","","test","","","","","","","","","","","","","","","","","","","",""
"664.9000000059605","506399","SARL_v6","SARL_v63dz6whwx","56849d528f456f000c45e1dd","freq","","","img/orange_2bandit_a2.png","70","","70","test","1","","104","","","","square","circle","100","16","5","0.94","","","","","","","",""
"null","506551","SARL_v6","SARL_v63dz6whwx","56849d528f456f000c45e1dd","freq_resp","","","img/orange_2bandit_a.png","70","img/orange_2bandit_a.png","70","test","","","","","","","","","","","5","","","","","","","","",""
"null","506721","SARL_v6","SARL_v63dz6whwx","56849d528f456f000c45e1dd","fixation","","","img/fixation.png","null","","","test","","","","","","","","","","","","","","","","","","","",""
"546.9000000059605","507293","SARL_v6","SARL_v63dz6whwx","56849d528f456f000c45e1dd","freq","","","img/orange_2bandit_a2.png","70","","70","test","1","","105","","","","square","circle","101","17","5","0.9405940594059405","","","","","","","",""
"null","507559","SARL_v6","SARL_v63dz6whwx","56849d528f456f000c45e1dd","freq_resp","","","img/orange_2bandit_a.png","70","img/orange_2bandit_a.png","70","test","","","","","","","","","","","5","","","","","","","","",""
"null","507731","SARL_v6","SARL_v63dz6whwx","56849d528f456f000c45e1dd","fixation","","","img/fixation.png","null","","","test","","","","","","","","","","","","","","","","","","","",""
"498.09999999403954","508253","SARL_v6","SARL_v63dz6whwx","56849d528f456f000c45e1dd","freq","","","img/orange_2bandit_a2.png","70","","70","test","1","","106","","","","square","circle","102","18","5","0.9411764705882353","","","","","","","",""
"null","508570","SARL_v6","SARL_v63dz6whwx","56849d528f456f000c45e1dd","freq_resp","","","img/orange_2bandit_a.png","70","img/orange_2bandit_a.png","70","test","","","","","","","","","","","5","","","","","","","","",""
"null","508736","SARL_v6","SARL_v63dz6whwx","56849d528f456f000c45e1dd","fixation","","","img/fixation.png","null","","","test","","","","","","","","","","","","","","","","","","","",""
"580","509341","SARL_v6","SARL_v63dz6whwx","56849d528f456f000c45e1dd","freq","","","img/orange_2bandit_a2.png","70","","70","test","1","","107","","","","square","circle","103","19","5","0.941747572815534","","","","","","","",""
"null","509577","SARL_v6","SARL_v63dz6whwx","56849d528f456f000c45e1dd","freq_resp","","","img/orange_2bandit_a.png","70","img/orange_2bandit_a.png","70","test","","","","","","","","","","","5","","","","","","","","",""
"null","509745","SARL_v6","SARL_v63dz6whwx","56849d528f456f000c45e1dd","fixation","","","img/fixation.png","null","","","test","","","","","","","","","","","","","","","","","","","",""
"557.7999999970198","510330","SARL_v6","SARL_v63dz6whwx","56849d528f456f000c45e1dd","freq","","","img/orange_2bandit_a2.png","70","","70","test","1","","108","","","","square","circle","104","20","5","0.9423076923076923","","","","","","","",""
"null","510592","SARL_v6","SARL_v63dz6whwx","56849d528f456f000c45e1dd","freq_resp","","","img/orange_2bandit_a.png","70","img/orange_2bandit_a.png","70","test","","","","","","","","","","","5","","","","","","","","",""
"null","510753","SARL_v6","SARL_v63dz6whwx","56849d528f456f000c45e1dd","fixation","","","img/fixation.png","null","","","test","","","","","","","","","","","","","","","","","","","",""
"991.8999999910593","511754","SARL_v6","SARL_v63dz6whwx","56849d528f456f000c45e1dd","rl","","","img/black_2bandit_a2.png","75","","0","test","","","109","","","4","square","circle","","0","5","","75","4","-7","-7","4","circle","5","0"
"null","512525","SARL_v6","SARL_v63dz6whwx","56849d528f456f000c45e1dd","feedback","","","<div class=""veryhighPoints""> 4 </div>","null","","na","test","","","NaN","","","","","","","","5","","75","","","","","","5",""
"473.29999999701977","513025","SARL_v6","SARL_v63dz6whwx","56849d528f456f000c45e1dd","freq","","","img/orange_2bandit_a2.png","70","","70","test","1","","110","","","","square","circle","105","1","6","0.9428571428571428","","","","","","","",""
"null","513386","SARL_v6","SARL_v63dz6whwx","56849d528f456f000c45e1dd","freq_resp","","","img/orange_2bandit_a.png","70","img/orange_2bandit_a.png","70","test","","","","","","","","","","","6","","","","","","","","",""
"null","513558","SARL_v6","SARL_v63dz6whwx","56849d528f456f000c45e1dd","fixation","","","img/fixation.png","null","","","test","","","","","","","","","","","","","","","","","","","",""
"744.5999999940395","514332","SARL_v6","SARL_v63dz6whwx","56849d528f456f000c45e1dd","infreq","","","img/blue_2bandit_a2.png","68","","68","test","1","","111","","","","square","circle","106","2","6","0.9433962264150944","","","","","","","",""
"null","514414","SARL_v6","SARL_v63dz6whwx","56849d528f456f000c45e1dd","infreq_resp","","","img/blue_2bandit_a.png","68","img/blue_2bandit_a.png","68","test","","","","","","","","","","","6","","","","","","","","",""
"null","514575","SARL_v6","SARL_v63dz6whwx","56849d528f456f000c45e1dd","fixation","","","img/fixation.png","null","","","test","","","","","","","","","","","","","","","","","","","",""
"689.9000000059605","515295","SARL_v6","SARL_v63dz6whwx","56849d528f456f000c45e1dd","freq","","","img/orange_2bandit_a2.png","70","","70","test","1","","112","","","","square","circle","107","3","6","0.9439252336448598","","","","","","","",""
"null","515438","SARL_v6","SARL_v63dz6whwx","56849d528f456f000c45e1dd","freq_resp","","","img/orange_2bandit_a.png","70","img/orange_2bandit_a.png","70","test","","","","","","","","","","","6","","","","","","","","",""
"null","515598","SARL_v6","SARL_v63dz6whwx","56849d528f456f000c45e1dd","fixation","","","img/fixation.png","null","","","test","","","","","","","","","","","","","","","","","","","",""
"496.70000000298023","516115","SARL_v6","SARL_v63dz6whwx","56849d528f456f000c45e1dd","freq","","","img/orange_2bandit_a2.png","70","","70","test","1","","113","","","","square","circle","108","4","6","0.9444444444444444","","","","","","","",""
"null","516447","SARL_v6","SARL_v63dz6whwx","56849d528f456f000c45e1dd","freq_resp","","","img/orange_2bandit_a.png","70","img/orange_2bandit_a.png","70","test","","","","","","","","","","","6","","","","","","","","",""
"null","516610","SARL_v6","SARL_v63dz6whwx","56849d528f456f000c45e1dd","fixation","","","img/fixation.png","null","","","test","","","","","","","","","","","","","","","","","","","",""
"605.1999999880791","517229","SARL_v6","SARL_v63dz6whwx","56849d528f456f000c45e1dd","freq","","","img/orange_2bandit_a2.png","70","","70","test","1","","114","","","","square","circle","109","5","6","0.944954128440367","","","","","","","",""
"null","517454","SARL_v6","SARL_v63dz6whwx","56849d528f456f000c45e1dd","freq_resp","","","img/orange_2bandit_a.png","70","img/orange_2bandit_a.png","70","test","","","","","","","","","","","6","","","","","","","","",""
"null","517620","SARL_v6","SARL_v63dz6whwx","56849d528f456f000c45e1dd","fixation","","","img/fixation.png","null","","","test","","","","","","","","","","","","","","","","","","","",""
"603.1000000089407","518249","SARL_v6","SARL_v63dz6whwx","56849d528f456f000c45e1dd","freq","","","img/orange_2bandit_a2.png","70","","70","test","1","","115","","","","square","circle","110","6","6","0.9454545454545454","","","","","","","",""
"null","518464","SARL_v6","SARL_v63dz6whwx","56849d528f456f000c45e1dd","freq_resp","","","img/orange_2bandit_a.png","70","img/orange_2bandit_a.png","70","test","","","","","","","","","","","6","","","","","","","","",""
"null","518631","SARL_v6","SARL_v63dz6whwx","56849d528f456f000c45e1dd","fixation","","","img/fixation.png","null","","","test","","","","","","","","","","","","","","","","","","","",""
"554.7999999970198","519212","SARL_v6","SARL_v63dz6whwx","56849d528f456f000c45e1dd","freq","","","img/orange_2bandit_a2.png","70","","70","test","1","","116","","","","square","circle","111","7","6","0.9459459459459459","","","","","","","",""
"null","519492","SARL_v6","SARL_v63dz6whwx","56849d528f456f000c45e1dd","freq_resp","","","img/orange_2bandit_a.png","70","img/orange_2bandit_a.png","70","test","","","","","","","","","","","6","","","","","","","","",""
"null","519654","SARL_v6","SARL_v63dz6whwx","56849d528f456f000c45e1dd","fixation","","","img/fixation.png","null","","","test","","","","","","","","","","","","","","","","","","","",""
"415.19999998807907","520095","SARL_v6","SARL_v63dz6whwx","56849d528f456f000c45e1dd","freq","","","img/orange_2bandit_a2.png","70","","70","test","1","","117","","","","square","circle","112","8","6","0.9464285714285714","","","","","","","",""
"null","520513","SARL_v6","SARL_v63dz6whwx","56849d528f456f000c45e1dd","freq_resp","","","img/orange_2bandit_a.png","70","img/orange_2bandit_a.png","70","test","","","","","","","","","","","6","","","","","","","","",""
"null","520694","SARL_v6","SARL_v63dz6whwx","56849d528f456f000c45e1dd","fixation","","","img/fixation.png","null","","","test","","","","","","","","","","","","","","","","","","","",""
"335.70000000298023","521058","SARL_v6","SARL_v63dz6whwx","56849d528f456f000c45e1dd","freq","","","img/orange_2bandit_a2.png","70","","70","test","1","","118","","","","square","circle","113","9","6","0.9469026548672567","","","","","","","",""
"null","521552","SARL_v6","SARL_v63dz6whwx","56849d528f456f000c45e1dd","freq_resp","","","img/orange_2bandit_a.png","70","img/orange_2bandit_a.png","70","test","","","","","","","","","","","6","","","","","","","","",""
"null","521738","SARL_v6","SARL_v63dz6whwx","56849d528f456f000c45e1dd","fixation","","","img/fixation.png","null","","","test","","","","","","","","","","","","","","","","","","","",""
"367.8999999910593","522134","SARL_v6","SARL_v63dz6whwx","56849d528f456f000c45e1dd","freq","","","img/orange_2bandit_a2.png","70","","70","test","1","","119","","","","square","circle","114","10","6","0.9473684210526315","","","","","","","",""
"null","522584","SARL_v6","SARL_v63dz6whwx","56849d528f456f000c45e1dd","freq_resp","","","img/orange_2bandit_a.png","70","img/orange_2bandit_a.png","70","test","","","","","","","","","","","6","","","","","","","","",""
"null","522759","SARL_v6","SARL_v63dz6whwx","56849d528f456f000c45e1dd","fixation","","","img/fixation.png","null","","","test","","","","","","","","","","","","","","","","","","","",""
"393.90000000596046","523179","SARL_v6","SARL_v63dz6whwx","56849d528f456f000c45e1dd","freq","","","img/orange_2bandit_a2.png","70","","70","test","1","","120","","","","square","circle","115","11","6","0.9478260869565217","","","","","","","",""
"null","523610","SARL_v6","SARL_v63dz6whwx","56849d528f456f000c45e1dd","freq_resp","","","img/orange_2bandit_a.png","70","img/orange_2bandit_a.png","70","test","","","","","","","","","","","6","","","","","","","","",""
"null","523792","SARL_v6","SARL_v63dz6whwx","56849d528f456f000c45e1dd","fixation","","","img/fixation.png","null","","","test","","","","","","","","","","","","","","","","","","","",""
"711.5","524528","SARL_v6","SARL_v63dz6whwx","56849d528f456f000c45e1dd","freq","","","img/orange_2bandit_a2.png","70","","70","test","1","","121","","","","square","circle","116","12","6","0.9482758620689655","","","","","","","",""
"null","524637","SARL_v6","SARL_v63dz6whwx","56849d528f456f000c45e1dd","freq_resp","","","img/orange_2bandit_a.png","70","img/orange_2bandit_a.png","70","test","","","","","","","","","","","6","","","","","","","","",""
"null","524799","SARL_v6","SARL_v63dz6whwx","56849d528f456f000c45e1dd","fixation","","","img/fixation.png","null","","","test","","","","","","","","","","","","","","","","","","","",""
"null","525612","SARL_v6","SARL_v63dz6whwx","56849d528f456f000c45e1dd","freq","","","img/orange_2bandit_a2.png","null","","70","test","0","","122","","","","square","circle","117","13","6","0.9401709401709402","","","","","","","",""
"null","525795","SARL_v6","SARL_v63dz6whwx","56849d528f456f000c45e1dd","fixation","","","img/fixation.png","null","","","test","","","","","","","","","","","","","","","","","","","",""
"61.5","525866","SARL_v6","SARL_v63dz6whwx","56849d528f456f000c45e1dd","freq","","","img/orange_2bandit_a2.png","70","","70","test","1","","123","","","","square","circle","118","14","6","0.940677966101695","","","","","","","",""
"null","526616","SARL_v6","SARL_v63dz6whwx","56849d528f456f000c45e1dd","freq_resp","","","img/orange_2bandit_a.png","70","img/orange_2bandit_a.png","70","test","","","","","","","","","","","6","","","","","","","","",""
"null","526795","SARL_v6","SARL_v63dz6whwx","56849d528f456f000c45e1dd","fixation","","","img/fixation.png","null","","","test","","","","","","","","","","","","","","","","","","","",""
"304.70000000298023","527132","SARL_v6","SARL_v63dz6whwx","56849d528f456f000c45e1dd","freq","","","img/orange_2bandit_a2.png","70","","70","test","1","","124","","","","square","circle","119","15","6","0.9411764705882353","","","","","","","",""
"null","527641","SARL_v6","SARL_v63dz6whwx","56849d528f456f000c45e1dd","freq_resp","","","img/orange_2bandit_a.png","70","img/orange_2bandit_a.png","70","test","","","","","","","","","","","6","","","","","","","","",""
"null","527810","SARL_v6","SARL_v63dz6whwx","56849d528f456f000c45e1dd","fixation","","","img/fixation.png","null","","","test","","","","","","","","","","","","","","","","","","","",""
"369.19999998807907","528201","SARL_v6","SARL_v63dz6whwx","56849d528f456f000c45e1dd","freq","","","img/orange_2bandit_a2.png","70","","70","test","1","","125","","","","square","circle","120","16","6","0.9416666666666667","","","","","","","",""
"null","528650","SARL_v6","SARL_v63dz6whwx","56849d528f456f000c45e1dd","freq_resp","","","img/orange_2bandit_a.png","70","img/orange_2bandit_a.png","70","test","","","","","","","","","","","6","","","","","","","","",""
"null","528816","SARL_v6","SARL_v63dz6whwx","56849d528f456f000c45e1dd","fixation","","","img/fixation.png","null","","","test","","","","","","","","","","","","","","","","","","","",""
"377","529223","SARL_v6","SARL_v63dz6whwx","56849d528f456f000c45e1dd","freq","","","img/orange_2bandit_a2.png","70","","70","test","1","","126","","","","square","circle","121","17","6","0.9421487603305785","","","","","","","",""
"null","529667","SARL_v6","SARL_v63dz6whwx","56849d528f456f000c45e1dd","freq_resp","","","img/orange_2bandit_a.png","70","img/orange_2bandit_a.png","70","test","","","","","","","","","","","6","","","","","","","","",""
"null","529830","SARL_v6","SARL_v63dz6whwx","56849d528f456f000c45e1dd","fixation","","","img/fixation.png","null","","","test","","","","","","","","","","","","","","","","","","","",""
"432.5","530291","SARL_v6","SARL_v63dz6whwx","56849d528f456f000c45e1dd","freq","","","img/orange_2bandit_a2.png","70","","70","test","1","","127","","","","square","circle","122","18","6","0.9426229508196722","","","","","","","",""
"null","530673","SARL_v6","SARL_v63dz6whwx","56849d528f456f000c45e1dd","freq_resp","","","img/orange_2bandit_a.png","70","img/orange_2bandit_a.png","70","test","","","","","","","","","","","6","","","","","","","","",""
"null","530846","SARL_v6","SARL_v63dz6whwx","56849d528f456f000c45e1dd","fixation","","","img/fixation.png","null","","","test","","","","","","","","","","","","","","","","","","","",""
"376.79999999701977","531253","SARL_v6","SARL_v63dz6whwx","56849d528f456f000c45e1dd","freq","","","img/orange_2bandit_a2.png","70","","70","test","1","","128","","","","square","circle","123","19","6","0.943089430894309","","","","","","","",""
"null","531686","SARL_v6","SARL_v63dz6whwx","56849d528f456f000c45e1dd","freq_resp","","","img/orange_2bandit_a.png","70","img/orange_2bandit_a.png","70","test","","","","","","","","","","","6","","","","","","","","",""
"null","531856","SARL_v6","SARL_v63dz6whwx","56849d528f456f000c45e1dd","fixation","","","img/fixation.png","null","","","test","","","","","","","","","","","","","","","","","","","",""
"568.4000000059605","532451","SARL_v6","SARL_v63dz6whwx","56849d528f456f000c45e1dd","infreq","","","img/blue_2bandit_a2.png","68","","68","test","1","","129","","","","square","circle","124","20","6","0.9435483870967742","","","","","","","",""
"null","532705","SARL_v6","SARL_v63dz6whwx","56849d528f456f000c45e1dd","infreq_resp","","","img/blue_2bandit_a.png","68","img/blue_2bandit_a.png","68","test","","","","","","","","","","","6","","","","","","","","",""
"null","532870","SARL_v6","SARL_v63dz6whwx","56849d528f456f000c45e1dd","fixation","","","img/fixation.png","null","","","test","","","","","","","","","","","","","","","","","","","",""
"497.20000000298023","533393","SARL_v6","SARL_v63dz6whwx","56849d528f456f000c45e1dd","freq","","","img/orange_2bandit_a2.png","70","","70","test","1","","130","","","","square","circle","125","21","6","0.944","","","","","","","",""
"null","533710","SARL_v6","SARL_v63dz6whwx","56849d528f456f000c45e1dd","freq_resp","","","img/orange_2bandit_a.png","70","img/orange_2bandit_a.png","70","test","","","","","","","","","","","6","","","","","","","","",""
"null","533872","SARL_v6","SARL_v63dz6whwx","56849d528f456f000c45e1dd","fixation","","","img/fixation.png","null","","","test","","","","","","","","","","","","","","","","","","","",""
"813.4000000059605","534693","SARL_v6","SARL_v63dz6whwx","56849d528f456f000c45e1dd","rl","","","img/black_2bandit_a2.png","74","","0","test","","","131","","","-1","square","circle","","0","6","","74","-4","-1","-1","-4","square","6","0"
