"rt","time_elapsed","expId","subject","prolificID","trialType","rlType","attType","stimulus","key_press","stim","corrresp","phase","corr","pracCounter","trialNum","rewardOne","rewardTwo","reward","bandOne","bandTwo","attentionNum","attentionRunNum","blockNum","performance","bandChosen","circleVal","squareVal","bandOneVal","bandTwoVal","shapeChosen","rlNum","badFlag"
"18767.20000000298","18768","SARL_v6","SARL_v606nraj5s","631b4849c2daec6a4966605c","","","","","","","","","","","","","","","","","","","","","","","","","","","",""
"","21153","SARL_v6","SARL_v606nraj5s","631b4849c2daec6a4966605c","fullscreen","fullscreen","fullscreen","","","","","","","","","","","","","","","","","","","","","","","","",""
"138928.09999999404","160082","SARL_v6","SARL_v606nraj5s","631b4849c2daec6a4966605c","","","","","","","","","","","","","","","","","","","","","","","","","","","",""
"null","160899","SARL_v6","SARL_v606nraj5s","631b4849c2daec6a4966605c","freqPrac","","","img/orange_2bandit_a2.png","null","img/orange_2bandit_a2.png","70","prac","0","1","","","","","","","","","","","","","","","","","",""
"null","161903","SARL_v6","SARL_v606nraj5s","631b4849c2daec6a4966605c","feedback","","","img/tooSlow.png","null","","na","prac","","","","","","","","","","","","","","","","","","","",""
"null","162056","SARL_v6","SARL_v606nraj5s","631b4849c2daec6a4966605c","fixation","","","img/fixation.png","null","","","prac","","","","","","","","","","","","","","","","","","","",""
"460.70000000298023","162519","SARL_v6","SARL_v606nraj5s","631b4849c2daec6a4966605c","infreqPrac","","","img/blue_2bandit_a2.png","70","img/blue_2bandit_a2.png","68","prac","0","2","","","","","","","","","","","","","","","","","",""
"460.70000000298023","162860","SARL_v6","SARL_v606nraj5s","631b4849c2daec6a4966605c","infreqPrac_resp","","","img/blue_2bandit_a.png","70","img/blue_2bandit_a.png","68","prac","","","","","","","","","","","","","","","","","","","",""
"null","163869","SARL_v6","SARL_v606nraj5s","631b4849c2daec6a4966605c","feedback","","","img/wrongKey.png","null","","na","prac","","","","","","","","","","","","","","","","","","","",""
"null","164025","SARL_v6","SARL_v606nraj5s","631b4849c2daec6a4966605c","fixation","","","img/fixation.png","null","","","prac","","","","","","","","","","","","","","","","","","","",""
"309.5","164336","SARL_v6","SARL_v606nraj5s","631b4849c2daec6a4966605c","freqPrac","","","img/orange_2bandit_a2.png","70","img/orange_2bandit_a2.png","70","prac","1","2","","","","","","","","","","","","","","","","","",""
"309.5","164829","SARL_v6","SARL_v606nraj5s","631b4849c2daec6a4966605c","freqPrac_resp","","","img/orange_2bandit_a.png","70","img/orange_2bandit_a.png","70","prac","","","","","","","","","","","","","","","","","","","",""
"null","164985","SARL_v6","SARL_v606nraj5s","631b4849c2daec6a4966605c","fixation","","","img/fixation.png","null","","","prac","","","","","","","","","","","","","","","","","","","",""
"493.69999998807907","165482","SARL_v6","SARL_v606nraj5s","631b4849c2daec6a4966605c","infreqPrac","","","img/blue_2bandit_a2.png","68","img/blue_2bandit_a2.png","68","prac","1","2","","","","","","","","","","","","","","","","","",""
"493.69999998807907","165803","SARL_v6","SARL_v606nraj5s","631b4849c2daec6a4966605c","infreqPrac_resp","","","img/blue_2bandit_a.png","68","img/blue_2bandit_a.png","68","prac","","","","","","","","","","","","","","","","","","","",""
"null","165959","SARL_v6","SARL_v606nraj5s","631b4849c2daec6a4966605c","fixation","","","img/fixation.png","null","","","prac","","","","","","","","","","","","","","","","","","","",""
"421.20000000298023","166383","SARL_v6","SARL_v606nraj5s","631b4849c2daec6a4966605c","infreqPrac","","","img/blue_2bandit_a2.png","68","img/blue_2bandit_a2.png","68","prac","1","2","","","","","","","","","","","","","","","","","",""
"421.20000000298023","166777","SARL_v6","SARL_v606nraj5s","631b4849c2daec6a4966605c","infreqPrac_resp","","","img/blue_2bandit_a.png","68","img/blue_2bandit_a.png","68","prac","","","","","","","","","","","","","","","","","","","",""
"null","166934","SARL_v6","SARL_v606nraj5s","631b4849c2daec6a4966605c","fixation","","","img/fixation.png","null","","","prac","","","","","","","","","","","","","","","","","","","",""
"310.5","167247","SARL_v6","SARL_v606nraj5s","631b4849c2daec6a4966605c","infreqPrac","","","img/blue_2bandit_a2.png","68","img/blue_2bandit_a2.png","68","prac","1","2","","","","","","","","","","","","","","","","","",""
"310.5","167752","SARL_v6","SARL_v606nraj5s","631b4849c2daec6a4966605c","infreqPrac_resp","","","img/blue_2bandit_a.png","68","img/blue_2bandit_a.png","68","prac","","","","","","","","","","","","","","","","","","","",""
"null","167909","SARL_v6","SARL_v606nraj5s","631b4849c2daec6a4966605c","fixation","","","img/fixation.png","null","","","prac","","","","","","","","","","","","","","","","","","","",""
"464.09999999403954","168375","SARL_v6","SARL_v606nraj5s","631b4849c2daec6a4966605c","freqPrac","","","img/orange_2bandit_a2.png","70","img/orange_2bandit_a2.png","70","prac","1","2","","","","","","","","","","","","","","","","","",""
"464.09999999403954","168726","SARL_v6","SARL_v606nraj5s","631b4849c2daec6a4966605c","freqPrac_resp","","","img/orange_2bandit_a.png","70","img/orange_2bandit_a.png","70","prac","","","","","","","","","","","","","","","","","","","",""
"null","168880","SARL_v6","SARL_v606nraj5s","631b4849c2daec6a4966605c","fixation","","","img/fixation.png","null","","","prac","","","","","","","","","","","","","","","","","","","",""
"412.8999999910593","169295","SARL_v6","SARL_v606nraj5s","631b4849c2daec6a4966605c","infreqPrac","","","img/blue_2bandit_a2.png","68","img/blue_2bandit_a2.png","68","prac","1","2","","","","","","","","","","","","","","","","","",""
"412.8999999910593","169684","SARL_v6","SARL_v606nraj5s","631b4849c2daec6a4966605c","infreqPrac_resp","","","img/blue_2bandit_a.png","68","img/blue_2bandit_a.png","68","prac","","","","","","","","","","","","","","","","","","","",""
"null","169840","SARL_v6","SARL_v606nraj5s","631b4849c2daec6a4966605c","fixation","","","img/fixation.png","null","","","prac","","","","","","","","","","","","","","","","","","","",""
"436.29999999701977","170278","SARL_v6","SARL_v606nraj5s","631b4849c2daec6a4966605c","freqPrac","","","img/orange_2bandit_a2.png","70","img/orange_2bandit_a2.png","70","prac","1","2","","","","","","","","","","","","","","","","","",""
"436.29999999701977","170658","SARL_v6","SARL_v606nraj5s","631b4849c2daec6a4966605c","freqPrac_resp","","","img/orange_2bandit_a.png","70","img/orange_2bandit_a.png","70","prac","","","","","","","","","","","","","","","","","","","",""
"null","170814","SARL_v6","SARL_v606nraj5s","631b4849c2daec6a4966605c","fixation","","","img/fixation.png","null","","","prac","","","","","","","","","","","","","","","","","","","",""
"455","171270","SARL_v6","SARL_v606nraj5s","631b4849c2daec6a4966605c","freqPrac","","","img/orange_2bandit_a2.png","70","img/orange_2bandit_a2.png","70","prac","1","2","","","","","","","","","","","","","","","","","",""
"455","171632","SARL_v6","SARL_v606nraj5s","631b4849c2daec6a4966605c","freqPrac_resp","","","img/orange_2bandit_a.png","70","img/orange_2bandit_a.png","70","prac","","","","","","","","","","","","","","","","","","","",""
"null","171785","SARL_v6","SARL_v606nraj5s","631b4849c2daec6a4966605c","fixation","","","img/fixation.png","null","","","prac","","","","","","","","","","","","","","","","","","","",""
"32147.40000000596","203934","SARL_v6","SARL_v606nraj5s","631b4849c2daec6a4966605c","","","","","","","","prac","","","","","","","","","","","","","","","","","","","",""
"742.5","204677","SARL_v6","SARL_v606nraj5s","631b4849c2daec6a4966605c","rlPractice","","","img/black_2bandit_a2.png","74","img/black_2bandit_a2.png","","prac","","","0","","","","","","","","","","","","","","","","",""
"null","205443","SARL_v6","SARL_v606nraj5s","631b4849c2daec6a4966605c","feedback","","","<div class=""verylowPoints_sq""> -14 </div>","null","","na","prac","","","1","10","-14","10","","","","","","","","","","","","","",""
"null","205601","SARL_v6","SARL_v606nraj5s","631b4849c2daec6a4966605c","fixation","","","img/fixation.png","null","","","prac","","","","","","","","","","","","","","","","","","","",""
"244.20000000298023","205847","SARL_v6","SARL_v606nraj5s","631b4849c2daec6a4966605c","rlPractice","","","img/black_2bandit_a2.png","74","img/black_2bandit_a2.png","","prac","","","1","","","","","","","","","","","","","","","","",""
"null","206601","SARL_v6","SARL_v606nraj5s","631b4849c2daec6a4966605c","feedback","","","<div class=""verylowPoints_sq""> -5 </div>","null","","na","prac","","","2","5","-5","5","","","","","","","","","","","","","",""
"null","206756","SARL_v6","SARL_v606nraj5s","631b4849c2daec6a4966605c","fixation","","","img/fixation.png","null","","","prac","","","","","","","","","","","","","","","","","","","",""
"127.79999999701977","206886","SARL_v6","SARL_v606nraj5s","631b4849c2daec6a4966605c","rlPractice","","","img/black_2bandit_a2.png","75","img/black_2bandit_a2.png","","prac","","","2","","","","","","","","","","","","","","","","",""
"null","207640","SARL_v6","SARL_v606nraj5s","631b4849c2daec6a4966605c","feedback","","","<div class=""veryhighPoints""> 30 </div>","null","","na","prac","","","3","30","2","30","","","","","","","","","","","","","",""
"null","207796","SARL_v6","SARL_v606nraj5s","631b4849c2daec6a4966605c","fixation","","","img/fixation.png","null","","","prac","","","","","","","","","","","","","","","","","","","",""
"296.19999998807907","208093","SARL_v6","SARL_v606nraj5s","631b4849c2daec6a4966605c","rlPractice","","","img/black_2bandit_a2.png","75","img/black_2bandit_a2.png","","prac","","","3","","","","","","","","","","","","","","","","",""
"null","208849","SARL_v6","SARL_v606nraj5s","631b4849c2daec6a4966605c","feedback","","","<div class=""verylowPoints""> -2 </div>","null","","na","prac","","","4","-2","20","-2","","","","","","","","","","","","","",""
"null","209003","SARL_v6","SARL_v606nraj5s","631b4849c2daec6a4966605c","fixation","","","img/fixation.png","null","","","prac","","","","","","","","","","","","","","","","","","","",""
"18707","227714","SARL_v6","SARL_v606nraj5s","631b4849c2daec6a4966605c","","","","","","","","prac","","","","","","","","","","","","","","","","","","","",""
"739.5","228456","SARL_v6","SARL_v606nraj5s","631b4849c2daec6a4966605c","mixAttFreqPrac","","","img/orange_2bandit_a2.png","70","img/orange_2bandit_a2.png","70","prac","","","1","","","","","","","","","","","","","","","","",""
"739.5","228526","SARL_v6","SARL_v606nraj5s","631b4849c2daec6a4966605c","freqPrac_resp","","","img/orange_2bandit_a.png","70","img/orange_2bandit_a.png","70","prac","","","1","","","","","","","","","","","","","","","","",""
"null","228682","SARL_v6","SARL_v606nraj5s","631b4849c2daec6a4966605c","fixation","","","img/fixation.png","null","","","prac","","","","","","","","","","","","","","","","","","","",""
"593.8999999910593","229278","SARL_v6","SARL_v606nraj5s","631b4849c2daec6a4966605c","mixAttInfreqPrac","","","img/blue_2bandit_a2.png","68","img/blue_2bandit_a2.png","68","prac","","","2","","","","","","","","","","","","","","","","",""
"593.8999999910593","229499","SARL_v6","SARL_v606nraj5s","631b4849c2daec6a4966605c","infreqPrac_resp","","","img/blue_2bandit_a.png","68","img/orange_2bandit_a.png","68","prac","","","2","","","","","","","","","","","","","","","","",""
"null","229653","SARL_v6","SARL_v606nraj5s","631b4849c2daec6a4966605c","fixation","","","img/fixation.png","null","","","prac","","","","","","","","","","","","","","","","","","","",""
"384.5","230039","SARL_v6","SARL_v606nraj5s","631b4849c2daec6a4966605c","mixAttInfreqPrac","","","img/blue_2bandit_a2.png","68","img/blue_2bandit_a2.png","68","prac","","","3","","","","","","","","","","","","","","","","",""
"384.5","230472","SARL_v6","SARL_v606nraj5s","631b4849c2daec6a4966605c","infreqPrac_resp","","","img/blue_2bandit_a.png","68","img/orange_2bandit_a.png","68","prac","","","3","","","","","","","","","","","","","","","","",""
"null","230627","SARL_v6","SARL_v606nraj5s","631b4849c2daec6a4966605c","fixation","","","img/fixation.png","null","","","prac","","","","","","","","","","","","","","","","","","","",""
"417.3999999910593","231048","SARL_v6","SARL_v606nraj5s","631b4849c2daec6a4966605c","mixAttInfreqPrac","","","img/blue_2bandit_a2.png","68","img/blue_2bandit_a2.png","68","prac","","","4","","","","","","","","","","","","","","","","",""
"417.3999999910593","231445","SARL_v6","SARL_v606nraj5s","631b4849c2daec6a4966605c","infreqPrac_resp","","","img/blue_2bandit_a.png","68","img/orange_2bandit_a.png","68","prac","","","4","","","","","","","","","","","","","","","","",""
"null","231600","SARL_v6","SARL_v606nraj5s","631b4849c2daec6a4966605c","fixation","","","img/fixation.png","null","","","prac","","","","","","","","","","","","","","","","","","","",""
"588.0999999940395","232190","SARL_v6","SARL_v606nraj5s","631b4849c2daec6a4966605c","mixAttFreqPrac","","","img/orange_2bandit_a2.png","70","img/orange_2bandit_a2.png","70","prac","","","5","","","","","","","","","","","","","","","","",""
"588.0999999940395","232403","SARL_v6","SARL_v606nraj5s","631b4849c2daec6a4966605c","freqPrac_resp","","","img/orange_2bandit_a.png","70","img/orange_2bandit_a.png","70","prac","","","5","","","","","","","","","","","","","","","","",""
"null","232558","SARL_v6","SARL_v606nraj5s","631b4849c2daec6a4966605c","fixation","","","img/fixation.png","null","","","prac","","","","","","","","","","","","","","","","","","","",""
"735.0999999940395","233296","SARL_v6","SARL_v606nraj5s","631b4849c2daec6a4966605c","mixRLPractice","","","img/black_2bandit_a2.png","75","img/black_2bandit_a2.png","","prac","","","5","","","","","","","","","","","","","","","","",""
"null","234057","SARL_v6","SARL_v606nraj5s","631b4849c2daec6a4966605c","feedback","","","<div class=""verylowPoints""> -14 </div>","null","","na","prac","","","6","-14","10","-14","","","","","","","","","","","","","",""
"null","234211","SARL_v6","SARL_v606nraj5s","631b4849c2daec6a4966605c","fixation","","","img/fixation.png","null","","","prac","","","","","","","","","","","","","","","","","","","",""
"null","235017","SARL_v6","SARL_v606nraj5s","631b4849c2daec6a4966605c","mixAttFreqPrac","","","img/orange_2bandit_a2.png","null","img/orange_2bandit_a2.png","70","prac","","","7","","","","","","","","","","","","","","","","",""
"null","235171","SARL_v6","SARL_v606nraj5s","631b4849c2daec6a4966605c","fixation","","","img/fixation.png","null","","","prac","","","","","","","","","","","","","","","","","","","",""
"34.3999999910593","235207","SARL_v6","SARL_v606nraj5s","631b4849c2daec6a4966605c","mixAttInfreqPrac","","","img/blue_2bandit_a2.png","70","img/blue_2bandit_a2.png","68","prac","","","8","","","","","","","","","","","","","","","","",""
"34.3999999910593","235977","SARL_v6","SARL_v606nraj5s","631b4849c2daec6a4966605c","infreqPrac_resp","","","img/blue_2bandit_a.png","70","img/orange_2bandit_a.png","68","prac","","","8","","","","","","","","","","","","","","","","",""
"null","236145","SARL_v6","SARL_v606nraj5s","631b4849c2daec6a4966605c","fixation","","","img/fixation.png","null","","","prac","","","","","","","","","","","","","","","","","","","",""
"531.7999999970198","236678","SARL_v6","SARL_v606nraj5s","631b4849c2daec6a4966605c","mixAttFreqPrac","","","img/orange_2bandit_a2.png","70","img/orange_2bandit_a2.png","70","prac","","","9","","","","","","","","","","","","","","","","",""
"531.7999999970198","236963","SARL_v6","SARL_v606nraj5s","631b4849c2daec6a4966605c","freqPrac_resp","","","img/orange_2bandit_a.png","70","img/orange_2bandit_a.png","70","prac","","","9","","","","","","","","","","","","","","","","",""
"null","237119","SARL_v6","SARL_v606nraj5s","631b4849c2daec6a4966605c","fixation","","","img/fixation.png","null","","","prac","","","","","","","","","","","","","","","","","","","",""
"397.8999999910593","237518","SARL_v6","SARL_v606nraj5s","631b4849c2daec6a4966605c","mixAttFreqPrac","","","img/orange_2bandit_a2.png","70","img/orange_2bandit_a2.png","70","prac","","","10","","","","","","","","","","","","","","","","",""
"397.8999999910593","237925","SARL_v6","SARL_v606nraj5s","631b4849c2daec6a4966605c","freqPrac_resp","","","img/orange_2bandit_a.png","70","img/orange_2bandit_a.png","70","prac","","","10","","","","","","","","","","","","","","","","",""
"null","238080","SARL_v6","SARL_v606nraj5s","631b4849c2daec6a4966605c","fixation","","","img/fixation.png","null","","","prac","","","","","","","","","","","","","","","","","","","",""
"324.30000001192093","238406","SARL_v6","SARL_v606nraj5s","631b4849c2daec6a4966605c","mixAttInfreqPrac","","","img/blue_2bandit_a2.png","68","img/blue_2bandit_a2.png","68","prac","","","11","","","","","","","","","","","","","","","","",""
"324.30000001192093","238884","SARL_v6","SARL_v606nraj5s","631b4849c2daec6a4966605c","infreqPrac_resp","","","img/blue_2bandit_a.png","68","img/orange_2bandit_a.png","68","prac","","","11","","","","","","","","","","","","","","","","",""
"null","239039","SARL_v6","SARL_v606nraj5s","631b4849c2daec6a4966605c","fixation","","","img/fixation.png","null","","","prac","","","","","","","","","","","","","","","","","","","",""
"453.59999999403954","239495","SARL_v6","SARL_v606nraj5s","631b4849c2daec6a4966605c","mixRLPractice","","","img/black_2bandit_a2.png","74","img/black_2bandit_a2.png","","prac","","","11","","","","","","","","","","","","","","","","",""
"null","240248","SARL_v6","SARL_v606nraj5s","631b4849c2daec6a4966605c","feedback","","","<div class=""verylowPoints_sq""> -5 </div>","null","","na","prac","","","12","5","-5","5","","","","","","","","","","","","","",""
"null","240403","SARL_v6","SARL_v606nraj5s","631b4849c2daec6a4966605c","fixation","","","img/fixation.png","null","","","prac","","","","","","","","","","","","","","","","","","","",""
"24466","264870","SARL_v6","SARL_v606nraj5s","631b4849c2daec6a4966605c","","","","","","","","prac","","","","","","","","","","","","","","","","","","","",""
"629.5","265501","SARL_v6","SARL_v606nraj5s","631b4849c2daec6a4966605c","freq","","","img/orange_2bandit_a2.png","70","","70","test","1","","1","","","","square","circle","1","1","1","1","","","","","","","",""
"null","265684","SARL_v6","SARL_v606nraj5s","631b4849c2daec6a4966605c","freq_resp","","","img/orange_2bandit_a.png","70","img/orange_2bandit_a.png","70","test","","","","","","","","","","","1","","","","","","","","",""
"null","265839","SARL_v6","SARL_v606nraj5s","631b4849c2daec6a4966605c","fixation","","","img/fixation.png","null","","","test","","","","","","","","","","","","","","","","","","","",""
"405.20000000298023","266246","SARL_v6","SARL_v606nraj5s","631b4849c2daec6a4966605c","freq","","","img/orange_2bandit_a2.png","70","","70","test","1","","2","","","","square","circle","2","2","1","1","","","","","","","",""
"null","266643","SARL_v6","SARL_v606nraj5s","631b4849c2daec6a4966605c","freq_resp","","","img/orange_2bandit_a.png","70","img/orange_2bandit_a.png","70","test","","","","","","","","","","","1","","","","","","","","",""
"null","266798","SARL_v6","SARL_v606nraj5s","631b4849c2daec6a4966605c","fixation","","","img/fixation.png","null","","","test","","","","","","","","","","","","","","","","","","","",""
"349.70000000298023","267150","SARL_v6","SARL_v606nraj5s","631b4849c2daec6a4966605c","freq","","","img/orange_2bandit_a2.png","70","","70","test","1","","3","","","","square","circle","3","3","1","1","","","","","","","",""
"null","267604","SARL_v6","SARL_v606nraj5s","631b4849c2daec6a4966605c","freq_resp","","","img/orange_2bandit_a.png","70","img/orange_2bandit_a.png","70","test","","","","","","","","","","","1","","","","","","","","",""
"null","267758","SARL_v6","SARL_v606nraj5s","631b4849c2daec6a4966605c","fixation","","","img/fixation.png","null","","","test","","","","","","","","","","","","","","","","","","","",""
"390.5","268151","SARL_v6","SARL_v606nraj5s","631b4849c2daec6a4966605c","freq","","","img/orange_2bandit_a2.png","70","","70","test","1","","4","","","","square","circle","4","4","1","1","","","","","","","",""
"null","268564","SARL_v6","SARL_v606nraj5s","631b4849c2daec6a4966605c","freq_resp","","","img/orange_2bandit_a.png","70","img/orange_2bandit_a.png","70","test","","","","","","","","","","","1","","","","","","","","",""
"null","268719","SARL_v6","SARL_v606nraj5s","631b4849c2daec6a4966605c","fixation","","","img/fixation.png","null","","","test","","","","","","","","","","","","","","","","","","","",""
"373.40000000596046","269094","SARL_v6","SARL_v606nraj5s","631b4849c2daec6a4966605c","freq","","","img/orange_2bandit_a2.png","70","","70","test","1","","5","","","","square","circle","5","5","1","1","","","","","","","",""
"null","269539","SARL_v6","SARL_v606nraj5s","631b4849c2daec6a4966605c","freq_resp","","","img/orange_2bandit_a.png","70","img/orange_2bandit_a.png","70","test","","","","","","","","","","","1","","","","","","","","",""
"null","269693","SARL_v6","SARL_v606nraj5s","631b4849c2daec6a4966605c","fixation","","","img/fixation.png","null","","","test","","","","","","","","","","","","","","","","","","","",""
"328","270022","SARL_v6","SARL_v606nraj5s","631b4849c2daec6a4966605c","freq","","","img/orange_2bandit_a2.png","70","","70","test","1","","6","","","","square","circle","6","6","1","1","","","","","","","",""
"null","270497","SARL_v6","SARL_v606nraj5s","631b4849c2daec6a4966605c","freq_resp","","","img/orange_2bandit_a.png","70","img/orange_2bandit_a.png","70","test","","","","","","","","","","","1","","","","","","","","",""
"null","270652","SARL_v6","SARL_v606nraj5s","631b4849c2daec6a4966605c","fixation","","","img/fixation.png","null","","","test","","","","","","","","","","","","","","","","","","","",""
"336.6000000089407","270990","SARL_v6","SARL_v606nraj5s","631b4849c2daec6a4966605c","freq","","","img/orange_2bandit_a2.png","70","","70","test","1","","7","","","","square","circle","7","7","1","1","","","","","","","",""
"null","271458","SARL_v6","SARL_v606nraj5s","631b4849c2daec6a4966605c","freq_resp","","","img/orange_2bandit_a.png","70","img/orange_2bandit_a.png","70","test","","","","","","","","","","","1","","","","","","","","",""
"null","271613","SARL_v6","SARL_v606nraj5s","631b4849c2daec6a4966605c","fixation","","","img/fixation.png","null","","","test","","","","","","","","","","","","","","","","","","","",""
"438.80000001192093","272054","SARL_v6","SARL_v606nraj5s","631b4849c2daec6a4966605c","freq","","","img/orange_2bandit_a2.png","70","","70","test","1","","8","","","","square","circle","8","8","1","1","","","","","","","",""
"null","272431","SARL_v6","SARL_v606nraj5s","631b4849c2daec6a4966605c","freq_resp","","","img/orange_2bandit_a.png","70","img/orange_2bandit_a.png","70","test","","","","","","","","","","","1","","","","","","","","",""
"null","272587","SARL_v6","SARL_v606nraj5s","631b4849c2daec6a4966605c","fixation","","","img/fixation.png","null","","","test","","","","","","","","","","","","","","","","","","","",""
"432.20000000298023","273021","SARL_v6","SARL_v606nraj5s","631b4849c2daec6a4966605c","freq","","","img/orange_2bandit_a2.png","70","","70","test","1","","9","","","","square","circle","9","9","1","1","","","","","","","",""
"null","273390","SARL_v6","SARL_v606nraj5s","631b4849c2daec6a4966605c","freq_resp","","","img/orange_2bandit_a.png","70","img/orange_2bandit_a.png","70","test","","","","","","","","","","","1","","","","","","","","",""
"null","273546","SARL_v6","SARL_v606nraj5s","631b4849c2daec6a4966605c","fixation","","","img/fixation.png","null","","","test","","","","","","","","","","","","","","","","","","","",""
"449.3999999910593","273997","SARL_v6","SARL_v606nraj5s","631b4849c2daec6a4966605c","freq","","","img/orange_2bandit_a2.png","70","","70","test","1","","10","","","","square","circle","10","10","1","1","","","","","","","",""
"null","274352","SARL_v6","SARL_v606nraj5s","631b4849c2daec6a4966605c","freq_resp","","","img/orange_2bandit_a.png","70","img/orange_2bandit_a.png","70","test","","","","","","","","","","","1","","","","","","","","",""
"null","274506","SARL_v6","SARL_v606nraj5s","631b4849c2daec6a4966605c","fixation","","","img/fixation.png","null","","","test","","","","","","","","","","","","","","","","","","","",""
"378.1000000089407","274886","SARL_v6","SARL_v606nraj5s","631b4849c2daec6a4966605c","freq","","","img/orange_2bandit_a2.png","70","","70","test","1","","11","","","","square","circle","11","11","1","1","","","","","","","",""
"null","275310","SARL_v6","SARL_v606nraj5s","631b4849c2daec6a4966605c","freq_resp","","","img/orange_2bandit_a.png","70","img/orange_2bandit_a.png","70","test","","","","","","","","","","","1","","","","","","","","",""
"null","275466","SARL_v6","SARL_v606nraj5s","631b4849c2daec6a4966605c","fixation","","","img/fixation.png","null","","","test","","","","","","","","","","","","","","","","","","","",""
"290.69999998807907","275759","SARL_v6","SARL_v606nraj5s","631b4849c2daec6a4966605c","freq","","","img/orange_2bandit_a2.png","70","","70","test","1","","12","","","","square","circle","12","12","1","1","","","","","","","",""
"null","276271","SARL_v6","SARL_v606nraj5s","631b4849c2daec6a4966605c","freq_resp","","","img/orange_2bandit_a.png","70","img/orange_2bandit_a.png","70","test","","","","","","","","","","","1","","","","","","","","",""
"null","276425","SARL_v6","SARL_v606nraj5s","631b4849c2daec6a4966605c","fixation","","","img/fixation.png","null","","","test","","","","","","","","","","","","","","","","","","","",""
"317.79999999701977","276745","SARL_v6","SARL_v606nraj5s","631b4849c2daec6a4966605c","freq","","","img/orange_2bandit_a2.png","70","","70","test","1","","13","","","","square","circle","13","13","1","1","","","","","","","",""
"null","277230","SARL_v6","SARL_v606nraj5s","631b4849c2daec6a4966605c","freq_resp","","","img/orange_2bandit_a.png","70","img/orange_2bandit_a.png","70","test","","","","","","","","","","","1","","","","","","","","",""
"null","277384","SARL_v6","SARL_v606nraj5s","631b4849c2daec6a4966605c","fixation","","","img/fixation.png","null","","","test","","","","","","","","","","","","","","","","","","","",""
"262.5","277649","SARL_v6","SARL_v606nraj5s","631b4849c2daec6a4966605c","freq","","","img/orange_2bandit_a2.png","70","","70","test","1","","14","","","","square","circle","14","14","1","1","","","","","","","",""
"null","278203","SARL_v6","SARL_v606nraj5s","631b4849c2daec6a4966605c","freq_resp","","","img/orange_2bandit_a.png","70","img/orange_2bandit_a.png","70","test","","","","","","","","","","","1","","","","","","","","",""
"null","278354","SARL_v6","SARL_v606nraj5s","631b4849c2daec6a4966605c","fixation","","","img/fixation.png","null","","","test","","","","","","","","","","","","","","","","","","","",""
"292.59999999403954","278650","SARL_v6","SARL_v606nraj5s","631b4849c2daec6a4966605c","freq","","","img/orange_2bandit_a2.png","70","","70","test","1","","15","","","","square","circle","15","15","1","1","","","","","","","",""
"null","279177","SARL_v6","SARL_v606nraj5s","631b4849c2daec6a4966605c","freq_resp","","","img/orange_2bandit_a.png","70","img/orange_2bandit_a.png","70","test","","","","","","","","","","","1","","","","","","","","",""
"null","279330","SARL_v6","SARL_v606nraj5s","631b4849c2daec6a4966605c","fixation","","","img/fixation.png","null","","","test","","","","","","","","","","","","","","","","","","","",""
"305.70000000298023","279637","SARL_v6","SARL_v606nraj5s","631b4849c2daec6a4966605c","freq","","","img/orange_2bandit_a2.png","70","","70","test","1","","16","","","","square","circle","16","16","1","1","","","","","","","",""
"null","280135","SARL_v6","SARL_v606nraj5s","631b4849c2daec6a4966605c","freq_resp","","","img/orange_2bandit_a.png","70","img/orange_2bandit_a.png","70","test","","","","","","","","","","","1","","","","","","","","",""
"null","280289","SARL_v6","SARL_v606nraj5s","631b4849c2daec6a4966605c","fixation","","","img/fixation.png","null","","","test","","","","","","","","","","","","","","","","","","","",""
"291","280581","SARL_v6","SARL_v606nraj5s","631b4849c2daec6a4966605c","infreq","","","img/blue_2bandit_a2.png","70","","68","test","0","","17","","","","square","circle","17","17","1","0.9411764705882353","","","","","","","",""
"null","281108","SARL_v6","SARL_v606nraj5s","631b4849c2daec6a4966605c","infreq_resp","","","img/blue_2bandit_a.png","70","img/blue_2bandit_a.png","68","test","","","","","","","","","","","1","","","","","","","","",""
"null","281260","SARL_v6","SARL_v606nraj5s","631b4849c2daec6a4966605c","fixation","","","img/fixation.png","null","","","test","","","","","","","","","","","","","","","","","","","",""
"344.1000000089407","281606","SARL_v6","SARL_v606nraj5s","631b4849c2daec6a4966605c","infreq","","","img/blue_2bandit_a2.png","68","","68","test","1","","18","","","","square","circle","18","18","1","0.9444444444444444","","","","","","","",""
"null","282066","SARL_v6","SARL_v606nraj5s","631b4849c2daec6a4966605c","infreq_resp","","","img/blue_2bandit_a.png","68","img/blue_2bandit_a.png","68","test","","","","","","","","","","","1","","","","","","","","",""
"null","282220","SARL_v6","SARL_v606nraj5s","631b4849c2daec6a4966605c","fixation","","","img/fixation.png","null","","","test","","","","","","","","","","","","","","","","","","","",""
"504.29999999701977","282726","SARL_v6","SARL_v606nraj5s","631b4849c2daec6a4966605c","freq","","","img/orange_2bandit_a2.png","70","","70","test","1","","19","","","","square","circle","19","19","1","0.9473684210526315","","","","","","","",""
"null","283023","SARL_v6","SARL_v606nraj5s","631b4849c2daec6a4966605c","freq_resp","","","img/orange_2bandit_a.png","70","img/orange_2bandit_a.png","70","test","","","","","","","","","","","1","","","","","","","","",""
"null","283179","SARL_v6","SARL_v606nraj5s","631b4849c2daec6a4966605c","fixation","","","img/fixation.png","null","","","test","","","","","","","","","","","","","","","","","","","",""
"513.8000000119209","283695","SARL_v6","SARL_v606nraj5s","631b4849c2daec6a4966605c","freq","","","img/orange_2bandit_a2.png","70","","70","test","1","","20","","","","square","circle","20","20","1","0.95","","","","","","","",""
"null","283995","SARL_v6","SARL_v606nraj5s","631b4849c2daec6a4966605c","freq_resp","","","img/orange_2bandit_a.png","70","img/orange_2bandit_a.png","70","test","","","","","","","","","","","1","","","","","","","","",""
"null","284151","SARL_v6","SARL_v606nraj5s","631b4849c2daec6a4966605c","fixation","","","img/fixation.png","null","","","test","","","","","","","","","","","","","","","","","","","",""
"429.20000000298023","284582","SARL_v6","SARL_v606nraj5s","631b4849c2daec6a4966605c","freq","","","img/orange_2bandit_a2.png","70","","70","test","1","","21","","","","square","circle","21","21","1","0.9523809523809523","","","","","","","",""
"null","284971","SARL_v6","SARL_v606nraj5s","631b4849c2daec6a4966605c","freq_resp","","","img/orange_2bandit_a.png","70","img/orange_2bandit_a.png","70","test","","","","","","","","","","","1","","","","","","","","",""
"null","285126","SARL_v6","SARL_v606nraj5s","631b4849c2daec6a4966605c","fixation","","","img/fixation.png","null","","","test","","","","","","","","","","","","","","","","","","","",""
"892.4000000059605","286022","SARL_v6","SARL_v606nraj5s","631b4849c2daec6a4966605c","rl","","","img/black_2bandit_a2.png","74","","0","test","","","22","","","-3","square","circle","","0","1","","74","-3","-3","-3","-3","square","1","0"
"null","286778","SARL_v6","SARL_v606nraj5s","631b4849c2daec6a4966605c","feedback","","","<div class=""verylowPoints_sq""> -3 </div>","null","","na","test","","","NaN","","","","","","","","1","","74","","","","","","1",""
"null","287582","SARL_v6","SARL_v606nraj5s","631b4849c2daec6a4966605c","freq","","","img/orange_2bandit_a2.png","null","","70","test","0","","23","","","","square","circle","22","1","2","0.9090909090909091","","","","","","","",""
"null","287736","SARL_v6","SARL_v606nraj5s","631b4849c2daec6a4966605c","fixation","","","img/fixation.png","null","","","test","","","","","","","","","","","","","","","","","","","",""
"20.599999994039536","287758","SARL_v6","SARL_v606nraj5s","631b4849c2daec6a4966605c","infreq","","","img/blue_2bandit_a2.png","68","","68","test","1","","24","","","","square","circle","23","2","2","0.9130434782608695","","","","","","","",""
"null","288541","SARL_v6","SARL_v606nraj5s","631b4849c2daec6a4966605c","infreq_resp","","","img/blue_2bandit_a.png","68","img/blue_2bandit_a.png","68","test","","","","","","","","","","","2","","","","","","","","",""
"null","288695","SARL_v6","SARL_v606nraj5s","631b4849c2daec6a4966605c","fixation","","","img/fixation.png","null","","","test","","","","","","","","","","","","","","","","","","","",""
"485.6000000089407","289182","SARL_v6","SARL_v606nraj5s","631b4849c2daec6a4966605c","freq","","","img/orange_2bandit_a2.png","70","","70","test","1","","25","","","","square","circle","24","3","2","0.9166666666666666","","","","","","","",""
"null","289500","SARL_v6","SARL_v606nraj5s","631b4849c2daec6a4966605c","freq_resp","","","img/orange_2bandit_a.png","70","img/orange_2bandit_a.png","70","test","","","","","","","","","","","2","","","","","","","","",""
"null","289652","SARL_v6","SARL_v606nraj5s","631b4849c2daec6a4966605c","fixation","","","img/fixation.png","null","","","test","","","","","","","","","","","","","","","","","","","",""
"361","290015","SARL_v6","SARL_v606nraj5s","631b4849c2daec6a4966605c","infreq","","","img/blue_2bandit_a2.png","68","","68","test","1","","26","","","","square","circle","25","4","2","0.92","","","","","","","",""
"null","290457","SARL_v6","SARL_v606nraj5s","631b4849c2daec6a4966605c","infreq_resp","","","img/blue_2bandit_a.png","68","img/blue_2bandit_a.png","68","test","","","","","","","","","","","2","","","","","","","","",""
"null","290611","SARL_v6","SARL_v606nraj5s","631b4849c2daec6a4966605c","fixation","","","img/fixation.png","null","","","test","","","","","","","","","","","","","","","","","","","",""
"425.09999999403954","291039","SARL_v6","SARL_v606nraj5s","631b4849c2daec6a4966605c","freq","","","img/orange_2bandit_a2.png","70","","70","test","1","","27","","","","square","circle","26","5","2","0.9230769230769231","","","","","","","",""
"null","291416","SARL_v6","SARL_v606nraj5s","631b4849c2daec6a4966605c","freq_resp","","","img/orange_2bandit_a.png","70","img/orange_2bandit_a.png","70","test","","","","","","","","","","","2","","","","","","","","",""
"null","291572","SARL_v6","SARL_v606nraj5s","631b4849c2daec6a4966605c","fixation","","","img/fixation.png","null","","","test","","","","","","","","","","","","","","","","","","","",""
"504.20000000298023","292079","SARL_v6","SARL_v606nraj5s","631b4849c2daec6a4966605c","freq","","","img/orange_2bandit_a2.png","70","","70","test","1","","28","","","","square","circle","27","6","2","0.9259259259259259","","","","","","","",""
"null","292390","SARL_v6","SARL_v606nraj5s","631b4849c2daec6a4966605c","freq_resp","","","img/orange_2bandit_a.png","70","img/orange_2bandit_a.png","70","test","","","","","","","","","","","2","","","","","","","","",""
"null","292545","SARL_v6","SARL_v606nraj5s","631b4849c2daec6a4966605c","fixation","","","img/fixation.png","null","","","test","","","","","","","","","","","","","","","","","","","",""
"379.8999999910593","292927","SARL_v6","SARL_v606nraj5s","631b4849c2daec6a4966605c","freq","","","img/orange_2bandit_a2.png","70","","70","test","1","","29","","","","square","circle","28","7","2","0.9285714285714286","","","","","","","",""
"null","293351","SARL_v6","SARL_v606nraj5s","631b4849c2daec6a4966605c","freq_resp","","","img/orange_2bandit_a.png","70","img/orange_2bandit_a.png","70","test","","","","","","","","","","","2","","","","","","","","",""
"null","293505","SARL_v6","SARL_v606nraj5s","631b4849c2daec6a4966605c","fixation","","","img/fixation.png","null","","","test","","","","","","","","","","","","","","","","","","","",""
"340.20000000298023","293847","SARL_v6","SARL_v606nraj5s","631b4849c2daec6a4966605c","freq","","","img/orange_2bandit_a2.png","70","","70","test","1","","30","","","","square","circle","29","8","2","0.9310344827586207","","","","","","","",""
"null","294312","SARL_v6","SARL_v606nraj5s","631b4849c2daec6a4966605c","freq_resp","","","img/orange_2bandit_a.png","70","img/orange_2bandit_a.png","70","test","","","","","","","","","","","2","","","","","","","","",""
"null","294477","SARL_v6","SARL_v606nraj5s","631b4849c2daec6a4966605c","fixation","","","img/fixation.png","null","","","test","","","","","","","","","","","","","","","","","","","",""
"303.29999999701977","294783","SARL_v6","SARL_v606nraj5s","631b4849c2daec6a4966605c","freq","","","img/orange_2bandit_a2.png","70","","70","test","1","","31","","","","square","circle","30","9","2","0.9333333333333333","","","","","","","",""
"null","295283","SARL_v6","SARL_v606nraj5s","631b4849c2daec6a4966605c","freq_resp","","","img/orange_2bandit_a.png","70","img/orange_2bandit_a.png","70","test","","","","","","","","","","","2","","","","","","","","",""
"null","295439","SARL_v6","SARL_v606nraj5s","631b4849c2daec6a4966605c","fixation","","","img/fixation.png","null","","","test","","","","","","","","","","","","","","","","","","","",""
"277.69999998807907","295719","SARL_v6","SARL_v606nraj5s","631b4849c2daec6a4966605c","freq","","","img/orange_2bandit_a2.png","70","","70","test","1","","32","","","","square","circle","31","10","2","0.9354838709677419","","","","","","","",""
"null","296244","SARL_v6","SARL_v606nraj5s","631b4849c2daec6a4966605c","freq_resp","","","img/orange_2bandit_a.png","70","img/orange_2bandit_a.png","70","test","","","","","","","","","","","2","","","","","","","","",""
"null","296398","SARL_v6","SARL_v606nraj5s","631b4849c2daec6a4966605c","fixation","","","img/fixation.png","null","","","test","","","","","","","","","","","","","","","","","","","",""
"286.20000000298023","296686","SARL_v6","SARL_v606nraj5s","631b4849c2daec6a4966605c","freq","","","img/orange_2bandit_a2.png","70","","70","test","1","","33","","","","square","circle","32","11","2","0.9375","","","","","","","",""
"null","297202","SARL_v6","SARL_v606nraj5s","631b4849c2daec6a4966605c","freq_resp","","","img/orange_2bandit_a.png","70","img/orange_2bandit_a.png","70","test","","","","","","","","","","","2","","","","","","","","",""
"null","297357","SARL_v6","SARL_v606nraj5s","631b4849c2daec6a4966605c","fixation","","","img/fixation.png","null","","","test","","","","","","","","","","","","","","","","","","","",""
"294.19999998807907","297653","SARL_v6","SARL_v606nraj5s","631b4849c2daec6a4966605c","freq","","","img/orange_2bandit_a2.png","70","","70","test","1","","34","","","","square","circle","33","12","2","0.9393939393939394","","","","","","","",""
"null","298163","SARL_v6","SARL_v606nraj5s","631b4849c2daec6a4966605c","freq_resp","","","img/orange_2bandit_a.png","70","img/orange_2bandit_a.png","70","test","","","","","","","","","","","2","","","","","","","","",""
"null","298318","SARL_v6","SARL_v606nraj5s","631b4849c2daec6a4966605c","fixation","","","img/fixation.png","null","","","test","","","","","","","","","","","","","","","","","","","",""
"277.59999999403954","298597","SARL_v6","SARL_v606nraj5s","631b4849c2daec6a4966605c","freq","","","img/orange_2bandit_a2.png","70","","70","test","1","","35","","","","square","circle","34","13","2","0.9411764705882353","","","","","","","",""
"null","299122","SARL_v6","SARL_v606nraj5s","631b4849c2daec6a4966605c","freq_resp","","","img/orange_2bandit_a.png","70","img/orange_2bandit_a.png","70","test","","","","","","","","","","","2","","","","","","","","",""
"null","299277","SARL_v6","SARL_v606nraj5s","631b4849c2daec6a4966605c","fixation","","","img/fixation.png","null","","","test","","","","","","","","","","","","","","","","","","","",""
"287.40000000596046","299565","SARL_v6","SARL_v606nraj5s","631b4849c2daec6a4966605c","freq","","","img/orange_2bandit_a2.png","70","","70","test","1","","36","","","","square","circle","35","14","2","0.9428571428571428","","","","","","","",""
"null","300082","SARL_v6","SARL_v606nraj5s","631b4849c2daec6a4966605c","freq_resp","","","img/orange_2bandit_a.png","70","img/orange_2bandit_a.png","70","test","","","","","","","","","","","2","","","","","","","","",""
"null","300236","SARL_v6","SARL_v606nraj5s","631b4849c2daec6a4966605c","fixation","","","img/fixation.png","null","","","test","","","","","","","","","","","","","","","","","","","",""
"311.3999999910593","300549","SARL_v6","SARL_v606nraj5s","631b4849c2daec6a4966605c","freq","","","img/orange_2bandit_a2.png","70","","70","test","1","","37","","","","square","circle","36","15","2","0.9444444444444444","","","","","","","",""
"null","301039","SARL_v6","SARL_v606nraj5s","631b4849c2daec6a4966605c","freq_resp","","","img/orange_2bandit_a.png","70","img/orange_2bandit_a.png","70","test","","","","","","","","","","","2","","","","","","","","",""
"null","301194","SARL_v6","SARL_v606nraj5s","631b4849c2daec6a4966605c","fixation","","","img/fixation.png","null","","","test","","","","","","","","","","","","","","","","","","","",""
"346.29999999701977","301543","SARL_v6","SARL_v606nraj5s","631b4849c2daec6a4966605c","freq","","","img/orange_2bandit_a2.png","70","","70","test","1","","38","","","","square","circle","37","16","2","0.9459459459459459","","","","","","","",""
"null","301999","SARL_v6","SARL_v606nraj5s","631b4849c2daec6a4966605c","freq_resp","","","img/orange_2bandit_a.png","70","img/orange_2bandit_a.png","70","test","","","","","","","","","","","2","","","","","","","","",""
"null","302153","SARL_v6","SARL_v606nraj5s","631b4849c2daec6a4966605c","fixation","","","img/fixation.png","null","","","test","","","","","","","","","","","","","","","","","","","",""
"309.70000000298023","302464","SARL_v6","SARL_v606nraj5s","631b4849c2daec6a4966605c","freq","","","img/orange_2bandit_a2.png","70","","70","test","1","","39","","","","square","circle","38","17","2","0.9473684210526315","","","","","","","",""
"null","302972","SARL_v6","SARL_v606nraj5s","631b4849c2daec6a4966605c","freq_resp","","","img/orange_2bandit_a.png","70","img/orange_2bandit_a.png","70","test","","","","","","","","","","","2","","","","","","","","",""
"null","303128","SARL_v6","SARL_v606nraj5s","631b4849c2daec6a4966605c","fixation","","","img/fixation.png","null","","","test","","","","","","","","","","","","","","","","","","","",""
"292.79999999701977","303423","SARL_v6","SARL_v606nraj5s","631b4849c2daec6a4966605c","freq","","","img/orange_2bandit_a2.png","70","","70","test","1","","40","","","","square","circle","39","18","2","0.9487179487179487","","","","","","","",""
"null","303932","SARL_v6","SARL_v606nraj5s","631b4849c2daec6a4966605c","freq_resp","","","img/orange_2bandit_a.png","70","img/orange_2bandit_a.png","70","test","","","","","","","","","","","2","","","","","","","","",""
"null","304086","SARL_v6","SARL_v606nraj5s","631b4849c2daec6a4966605c","fixation","","","img/fixation.png","null","","","test","","","","","","","","","","","","","","","","","","","",""
"286.90000000596046","304374","SARL_v6","SARL_v606nraj5s","631b4849c2daec6a4966605c","freq","","","img/orange_2bandit_a2.png","70","","70","test","1","","41","","","","square","circle","40","19","2","0.95","","","","","","","",""
"null","304893","SARL_v6","SARL_v606nraj5s","631b4849c2daec6a4966605c","freq_resp","","","img/orange_2bandit_a.png","70","img/orange_2bandit_a.png","70","test","","","","","","","","","","","2","","","","","","","","",""
"null","305046","SARL_v6","SARL_v606nraj5s","631b4849c2daec6a4966605c","fixation","","","img/fixation.png","null","","","test","","","","","","","","","","","","","","","","","","","",""
"629.2000000029802","305677","SARL_v6","SARL_v606nraj5s","631b4849c2daec6a4966605c","rl","","","img/black_2bandit_a2.png","75","","0","test","","","42","","","-8","square","circle","","0","2","","75","-8","-5","-5","-8","circle","2","0"
"null","306440","SARL_v6","SARL_v606nraj5s","631b4849c2daec6a4966605c","feedback","","","<div class=""verylowPoints""> -8 </div>","null","","na","test","","","NaN","","","","","","","","2","","75","","","","","","2",""
"null","307258","SARL_v6","SARL_v606nraj5s","631b4849c2daec6a4966605c","freq","","","img/orange_2bandit_a2.png","null","","70","test","0","","43","","","","square","circle","41","1","3","0.926829268292683","","","","","","","",""
"null","307414","SARL_v6","SARL_v606nraj5s","631b4849c2daec6a4966605c","fixation","","","img/fixation.png","null","","","test","","","","","","","","","","","","","","","","","","","",""
"598.3000000119209","308014","SARL_v6","SARL_v606nraj5s","631b4849c2daec6a4966605c","freq","","","img/orange_2bandit_a2.png","70","","70","test","1","","44","","","","square","circle","42","2","3","0.9285714285714286","","","","","","","",""
"null","308233","SARL_v6","SARL_v606nraj5s","631b4849c2daec6a4966605c","freq_resp","","","img/orange_2bandit_a.png","70","img/orange_2bandit_a.png","70","test","","","","","","","","","","","3","","","","","","","","",""
"null","308388","SARL_v6","SARL_v606nraj5s","631b4849c2daec6a4966605c","fixation","","","img/fixation.png","null","","","test","","","","","","","","","","","","","","","","","","","",""
"320","308710","SARL_v6","SARL_v606nraj5s","631b4849c2daec6a4966605c","freq","","","img/orange_2bandit_a2.png","70","","70","test","1","","45","","","","square","circle","43","3","3","0.9302325581395349","","","","","","","",""
"null","309207","SARL_v6","SARL_v606nraj5s","631b4849c2daec6a4966605c","freq_resp","","","img/orange_2bandit_a.png","70","img/orange_2bandit_a.png","70","test","","","","","","","","","","","3","","","","","","","","",""
"null","309361","SARL_v6","SARL_v606nraj5s","631b4849c2daec6a4966605c","fixation","","","img/fixation.png","null","","","test","","","","","","","","","","","","","","","","","","","",""
"314.8999999910593","309677","SARL_v6","SARL_v606nraj5s","631b4849c2daec6a4966605c","freq","","","img/orange_2bandit_a2.png","70","","70","test","1","","46","","","","square","circle","44","4","3","0.9318181818181818","","","","","","","",""
"null","310166","SARL_v6","SARL_v606nraj5s","631b4849c2daec6a4966605c","freq_resp","","","img/orange_2bandit_a.png","70","img/orange_2bandit_a.png","70","test","","","","","","","","","","","3","","","","","","","","",""
"null","310320","SARL_v6","SARL_v606nraj5s","631b4849c2daec6a4966605c","fixation","","","img/fixation.png","null","","","test","","","","","","","","","","","","","","","","","","","",""
"300.79999999701977","310623","SARL_v6","SARL_v606nraj5s","631b4849c2daec6a4966605c","freq","","","img/orange_2bandit_a2.png","70","","70","test","1","","47","","","","square","circle","45","5","3","0.9333333333333333","","","","","","","",""
"null","311140","SARL_v6","SARL_v606nraj5s","631b4849c2daec6a4966605c","freq_resp","","","img/orange_2bandit_a.png","70","img/orange_2bandit_a.png","70","test","","","","","","","","","","","3","","","","","","","","",""
"null","311294","SARL_v6","SARL_v606nraj5s","631b4849c2daec6a4966605c","fixation","","","img/fixation.png","null","","","test","","","","","","","","","","","","","","","","","","","",""
"254","311550","SARL_v6","SARL_v606nraj5s","631b4849c2daec6a4966605c","freq","","","img/orange_2bandit_a2.png","70","","70","test","1","","48","","","","square","circle","46","6","3","0.9347826086956522","","","","","","","",""
"null","312112","SARL_v6","SARL_v606nraj5s","631b4849c2daec6a4966605c","freq_resp","","","img/orange_2bandit_a.png","70","img/orange_2bandit_a.png","70","test","","","","","","","","","","","3","","","","","","","","",""
"null","312267","SARL_v6","SARL_v606nraj5s","631b4849c2daec6a4966605c","fixation","","","img/fixation.png","null","","","test","","","","","","","","","","","","","","","","","","","",""
"265.80000001192093","312534","SARL_v6","SARL_v606nraj5s","631b4849c2daec6a4966605c","freq","","","img/orange_2bandit_a2.png","70","","70","test","1","","49","","","","square","circle","47","7","3","0.9361702127659575","","","","","","","",""
"null","313071","SARL_v6","SARL_v606nraj5s","631b4849c2daec6a4966605c","freq_resp","","","img/orange_2bandit_a.png","70","img/orange_2bandit_a.png","70","test","","","","","","","","","","","3","","","","","","","","",""
"null","313239","SARL_v6","SARL_v606nraj5s","631b4849c2daec6a4966605c","fixation","","","img/fixation.png","null","","","test","","","","","","","","","","","","","","","","","","","",""
"206.40000000596046","313447","SARL_v6","SARL_v606nraj5s","631b4849c2daec6a4966605c","freq","","","img/orange_2bandit_a2.png","70","","70","test","1","","50","","","","square","circle","48","8","3","0.9375","","","","","","","",""
"null","314044","SARL_v6","SARL_v606nraj5s","631b4849c2daec6a4966605c","freq_resp","","","img/orange_2bandit_a.png","70","img/orange_2bandit_a.png","70","test","","","","","","","","","","","3","","","","","","","","",""
"null","314199","SARL_v6","SARL_v606nraj5s","631b4849c2daec6a4966605c","fixation","","","img/fixation.png","null","","","test","","","","","","","","","","","","","","","","","","","",""
"373.09999999403954","314574","SARL_v6","SARL_v606nraj5s","631b4849c2daec6a4966605c","freq","","","img/orange_2bandit_a2.png","70","","70","test","1","","51","","","","square","circle","49","9","3","0.9387755102040817","","","","","","","",""
"null","315006","SARL_v6","SARL_v606nraj5s","631b4849c2daec6a4966605c","freq_resp","","","img/orange_2bandit_a.png","70","img/orange_2bandit_a.png","70","test","","","","","","","","","","","3","","","","","","","","",""
"null","315160","SARL_v6","SARL_v606nraj5s","631b4849c2daec6a4966605c","fixation","","","img/fixation.png","null","","","test","","","","","","","","","","","","","","","","","","","",""
"316.40000000596046","315479","SARL_v6","SARL_v606nraj5s","631b4849c2daec6a4966605c","freq","","","img/orange_2bandit_a2.png","70","","70","test","1","","52","","","","square","circle","50","10","3","0.94","","","","","","","",""
"null","315977","SARL_v6","SARL_v606nraj5s","631b4849c2daec6a4966605c","freq_resp","","","img/orange_2bandit_a.png","70","img/orange_2bandit_a.png","70","test","","","","","","","","","","","3","","","","","","","","",""
"null","316133","SARL_v6","SARL_v606nraj5s","631b4849c2daec6a4966605c","fixation","","","img/fixation.png","null","","","test","","","","","","","","","","","","","","","","","","","",""
"330.59999999403954","316465","SARL_v6","SARL_v606nraj5s","631b4849c2daec6a4966605c","freq","","","img/orange_2bandit_a2.png","70","","70","test","1","","53","","","","square","circle","51","11","3","0.9411764705882353","","","","","","","",""
"null","316951","SARL_v6","SARL_v606nraj5s","631b4849c2daec6a4966605c","freq_resp","","","img/orange_2bandit_a.png","70","img/orange_2bandit_a.png","70","test","","","","","","","","","","","3","","","","","","","","",""
"null","317105","SARL_v6","SARL_v606nraj5s","631b4849c2daec6a4966605c","fixation","","","img/fixation.png","null","","","test","","","","","","","","","","","","","","","","","","","",""
"299.59999999403954","317406","SARL_v6","SARL_v606nraj5s","631b4849c2daec6a4966605c","freq","","","img/orange_2bandit_a2.png","70","","70","test","1","","54","","","","square","circle","52","12","3","0.9423076923076923","","","","","","","",""
"null","317912","SARL_v6","SARL_v606nraj5s","631b4849c2daec6a4966605c","freq_resp","","","img/orange_2bandit_a.png","70","img/orange_2bandit_a.png","70","test","","","","","","","","","","","3","","","","","","","","",""
"null","318079","SARL_v6","SARL_v606nraj5s","631b4849c2daec6a4966605c","fixation","","","img/fixation.png","null","","","test","","","","","","","","","","","","","","","","","","","",""
"253.79999999701977","318335","SARL_v6","SARL_v606nraj5s","631b4849c2daec6a4966605c","freq","","","img/orange_2bandit_a2.png","70","","70","test","1","","55","","","","square","circle","53","13","3","0.9433962264150944","","","","","","","",""
"null","318886","SARL_v6","SARL_v606nraj5s","631b4849c2daec6a4966605c","freq_resp","","","img/orange_2bandit_a.png","70","img/orange_2bandit_a.png","70","test","","","","","","","","","","","3","","","","","","","","",""
"null","319040","SARL_v6","SARL_v606nraj5s","631b4849c2daec6a4966605c","fixation","","","img/fixation.png","null","","","test","","","","","","","","","","","","","","","","","","","",""
"348.29999999701977","319390","SARL_v6","SARL_v606nraj5s","631b4849c2daec6a4966605c","freq","","","img/orange_2bandit_a2.png","70","","70","test","1","","56","","","","square","circle","54","14","3","0.9444444444444444","","","","","","","",""
"null","319845","SARL_v6","SARL_v606nraj5s","631b4849c2daec6a4966605c","freq_resp","","","img/orange_2bandit_a.png","70","img/orange_2bandit_a.png","70","test","","","","","","","","","","","3","","","","","","","","",""
"null","320001","SARL_v6","SARL_v606nraj5s","631b4849c2daec6a4966605c","fixation","","","img/fixation.png","null","","","test","","","","","","","","","","","","","","","","","","","",""
"314.29999999701977","320317","SARL_v6","SARL_v606nraj5s","631b4849c2daec6a4966605c","freq","","","img/orange_2bandit_a2.png","70","","70","test","1","","57","","","","square","circle","55","15","3","0.9454545454545454","","","","","","","",""
"null","320804","SARL_v6","SARL_v606nraj5s","631b4849c2daec6a4966605c","freq_resp","","","img/orange_2bandit_a.png","70","img/orange_2bandit_a.png","70","test","","","","","","","","","","","3","","","","","","","","",""
"null","320960","SARL_v6","SARL_v606nraj5s","631b4849c2daec6a4966605c","fixation","","","img/fixation.png","null","","","test","","","","","","","","","","","","","","","","","","","",""
"283.70000000298023","321246","SARL_v6","SARL_v606nraj5s","631b4849c2daec6a4966605c","freq","","","img/orange_2bandit_a2.png","70","","70","test","1","","58","","","","square","circle","56","16","3","0.9464285714285714","","","","","","","",""
"null","321777","SARL_v6","SARL_v606nraj5s","631b4849c2daec6a4966605c","freq_resp","","","img/orange_2bandit_a.png","70","img/orange_2bandit_a.png","70","test","","","","","","","","","","","3","","","","","","","","",""
"null","321933","SARL_v6","SARL_v606nraj5s","631b4849c2daec6a4966605c","fixation","","","img/fixation.png","null","","","test","","","","","","","","","","","","","","","","","","","",""
"303.70000000298023","322238","SARL_v6","SARL_v606nraj5s","631b4849c2daec6a4966605c","freq","","","img/orange_2bandit_a2.png","70","","70","test","1","","59","","","","square","circle","57","17","3","0.9473684210526315","","","","","","","",""
"null","322738","SARL_v6","SARL_v606nraj5s","631b4849c2daec6a4966605c","freq_resp","","","img/orange_2bandit_a.png","70","img/orange_2bandit_a.png","70","test","","","","","","","","","","","3","","","","","","","","",""
"null","322893","SARL_v6","SARL_v606nraj5s","631b4849c2daec6a4966605c","fixation","","","img/fixation.png","null","","","test","","","","","","","","","","","","","","","","","","","",""
"479.5","323376","SARL_v6","SARL_v606nraj5s","631b4849c2daec6a4966605c","infreq","","","img/blue_2bandit_a2.png","68","","68","test","1","","60","","","","square","circle","58","18","3","0.9482758620689655","","","","","","","",""
"null","323710","SARL_v6","SARL_v606nraj5s","631b4849c2daec6a4966605c","infreq_resp","","","img/blue_2bandit_a.png","68","img/blue_2bandit_a.png","68","test","","","","","","","","","","","3","","","","","","","","",""
"null","323866","SARL_v6","SARL_v606nraj5s","631b4849c2daec6a4966605c","fixation","","","img/fixation.png","null","","","test","","","","","","","","","","","","","","","","","","","",""
"457.79999999701977","324326","SARL_v6","SARL_v606nraj5s","631b4849c2daec6a4966605c","freq","","","img/orange_2bandit_a2.png","70","","70","test","1","","61","","","","square","circle","59","19","3","0.9491525423728814","","","","","","","",""
"null","324685","SARL_v6","SARL_v606nraj5s","631b4849c2daec6a4966605c","freq_resp","","","img/orange_2bandit_a.png","70","img/orange_2bandit_a.png","70","test","","","","","","","","","","","3","","","","","","","","",""
"null","324840","SARL_v6","SARL_v606nraj5s","631b4849c2daec6a4966605c","fixation","","","img/fixation.png","null","","","test","","","","","","","","","","","","","","","","","","","",""
"604","325446","SARL_v6","SARL_v606nraj5s","631b4849c2daec6a4966605c","infreq","","","img/blue_2bandit_a2.png","68","","68","test","1","","62","","","","square","circle","60","20","3","0.95","","","","","","","",""
"null","325646","SARL_v6","SARL_v606nraj5s","631b4849c2daec6a4966605c","infreq_resp","","","img/blue_2bandit_a.png","68","img/blue_2bandit_a.png","68","test","","","","","","","","","","","3","","","","","","","","",""
"null","325802","SARL_v6","SARL_v606nraj5s","631b4849c2daec6a4966605c","fixation","","","img/fixation.png","null","","","test","","","","","","","","","","","","","","","","","","","",""
"435.29999999701977","326239","SARL_v6","SARL_v606nraj5s","631b4849c2daec6a4966605c","freq","","","img/orange_2bandit_a2.png","70","","70","test","1","","63","","","","square","circle","61","21","3","0.9508196721311475","","","","","","","",""
"null","326607","SARL_v6","SARL_v606nraj5s","631b4849c2daec6a4966605c","freq_resp","","","img/orange_2bandit_a.png","70","img/orange_2bandit_a.png","70","test","","","","","","","","","","","3","","","","","","","","",""
"null","326761","SARL_v6","SARL_v606nraj5s","631b4849c2daec6a4966605c","fixation","","","img/fixation.png","null","","","test","","","","","","","","","","","","","","","","","","","",""
"363.90000000596046","327127","SARL_v6","SARL_v606nraj5s","631b4849c2daec6a4966605c","freq","","","img/orange_2bandit_a2.png","70","","70","test","1","","64","","","","square","circle","62","22","3","0.9516129032258065","","","","","","","",""
"null","327567","SARL_v6","SARL_v606nraj5s","631b4849c2daec6a4966605c","freq_resp","","","img/orange_2bandit_a.png","70","img/orange_2bandit_a.png","70","test","","","","","","","","","","","3","","","","","","","","",""
"null","327720","SARL_v6","SARL_v606nraj5s","631b4849c2daec6a4966605c","fixation","","","img/fixation.png","null","","","test","","","","","","","","","","","","","","","","","","","",""
"271.29999999701977","327993","SARL_v6","SARL_v606nraj5s","631b4849c2daec6a4966605c","freq","","","img/orange_2bandit_a2.png","70","","70","test","1","","65","","","","square","circle","63","23","3","0.9523809523809523","","","","","","","",""
"null","328523","SARL_v6","SARL_v606nraj5s","631b4849c2daec6a4966605c","freq_resp","","","img/orange_2bandit_a.png","70","img/orange_2bandit_a.png","70","test","","","","","","","","","","","3","","","","","","","","",""
"null","328678","SARL_v6","SARL_v606nraj5s","631b4849c2daec6a4966605c","fixation","","","img/fixation.png","null","","","test","","","","","","","","","","","","","","","","","","","",""
"351.19999998807907","329031","SARL_v6","SARL_v606nraj5s","631b4849c2daec6a4966605c","freq","","","img/orange_2bandit_a2.png","70","","70","test","1","","66","","","","square","circle","64","24","3","0.953125","","","","","","","",""
"null","329484","SARL_v6","SARL_v606nraj5s","631b4849c2daec6a4966605c","freq_resp","","","img/orange_2bandit_a.png","70","img/orange_2bandit_a.png","70","test","","","","","","","","","","","3","","","","","","","","",""
"null","329637","SARL_v6","SARL_v606nraj5s","631b4849c2daec6a4966605c","fixation","","","img/fixation.png","null","","","test","","","","","","","","","","","","","","","","","","","",""
"616.1999999880791","330258","SARL_v6","SARL_v606nraj5s","631b4849c2daec6a4966605c","rl","","","img/black_2bandit_a2.png","75","","0","test","","","67","","","-8","square","circle","","0","3","","75","-8","-4","-4","-8","circle","3","0"
"null","331014","SARL_v6","SARL_v606nraj5s","631b4849c2daec6a4966605c","feedback","","","<div class=""verylowPoints""> -8 </div>","null","","na","test","","","NaN","","","","","","","","3","","75","","","","","","3",""
"null","331820","SARL_v6","SARL_v606nraj5s","631b4849c2daec6a4966605c","freq","","","img/orange_2bandit_a2.png","null","","70","test","0","","68","","","","square","circle","65","1","4","0.9384615384615385","","","","","","","",""
"null","331988","SARL_v6","SARL_v606nraj5s","631b4849c2daec6a4966605c","fixation","","","img/fixation.png","null","","","test","","","","","","","","","","","","","","","","","","","",""
"384.6000000089407","332375","SARL_v6","SARL_v606nraj5s","631b4849c2daec6a4966605c","freq","","","img/orange_2bandit_a2.png","70","","70","test","1","","69","","","","square","circle","66","2","4","0.9393939393939394","","","","","","","",""
"null","332806","SARL_v6","SARL_v606nraj5s","631b4849c2daec6a4966605c","freq_resp","","","img/orange_2bandit_a.png","70","img/orange_2bandit_a.png","70","test","","","","","","","","","","","4","","","","","","","","",""
"null","332961","SARL_v6","SARL_v606nraj5s","631b4849c2daec6a4966605c","fixation","","","img/fixation.png","null","","","test","","","","","","","","","","","","","","","","","","","",""
"379.1000000089407","333342","SARL_v6","SARL_v606nraj5s","631b4849c2daec6a4966605c","freq","","","img/orange_2bandit_a2.png","70","","70","test","1","","70","","","","square","circle","67","3","4","0.9402985074626866","","","","","","","",""
"null","333763","SARL_v6","SARL_v606nraj5s","631b4849c2daec6a4966605c","freq_resp","","","img/orange_2bandit_a.png","70","img/orange_2bandit_a.png","70","test","","","","","","","","","","","4","","","","","","","","",""
"null","333918","SARL_v6","SARL_v606nraj5s","631b4849c2daec6a4966605c","fixation","","","img/fixation.png","null","","","test","","","","","","","","","","","","","","","","","","","",""
"383.29999999701977","334304","SARL_v6","SARL_v606nraj5s","631b4849c2daec6a4966605c","freq","","","img/orange_2bandit_a2.png","70","","70","test","1","","71","","","","square","circle","68","4","4","0.9411764705882353","","","","","","","",""
"null","334725","SARL_v6","SARL_v606nraj5s","631b4849c2daec6a4966605c","freq_resp","","","img/orange_2bandit_a.png","70","img/orange_2bandit_a.png","70","test","","","","","","","","","","","4","","","","","","","","",""
"null","334879","SARL_v6","SARL_v606nraj5s","631b4849c2daec6a4966605c","fixation","","","img/fixation.png","null","","","test","","","","","","","","","","","","","","","","","","","",""
"286.69999998807907","335167","SARL_v6","SARL_v606nraj5s","631b4849c2daec6a4966605c","freq","","","img/orange_2bandit_a2.png","70","","70","test","1","","72","","","","square","circle","69","5","4","0.9420289855072463","","","","","","","",""
"null","335686","SARL_v6","SARL_v606nraj5s","631b4849c2daec6a4966605c","freq_resp","","","img/orange_2bandit_a.png","70","img/orange_2bandit_a.png","70","test","","","","","","","","","","","4","","","","","","","","",""
"null","335843","SARL_v6","SARL_v606nraj5s","631b4849c2daec6a4966605c","fixation","","","img/fixation.png","null","","","test","","","","","","","","","","","","","","","","","","","",""
"328.79999999701977","336175","SARL_v6","SARL_v606nraj5s","631b4849c2daec6a4966605c","freq","","","img/orange_2bandit_a2.png","70","","70","test","1","","73","","","","square","circle","70","6","4","0.9428571428571428","","","","","","","",""
"null","336660","SARL_v6","SARL_v606nraj5s","631b4849c2daec6a4966605c","freq_resp","","","img/orange_2bandit_a.png","70","img/orange_2bandit_a.png","70","test","","","","","","","","","","","4","","","","","","","","",""
"null","336815","SARL_v6","SARL_v606nraj5s","631b4849c2daec6a4966605c","fixation","","","img/fixation.png","null","","","test","","","","","","","","","","","","","","","","","","","",""
"245.40000000596046","337064","SARL_v6","SARL_v606nraj5s","631b4849c2daec6a4966605c","infreq","","","img/blue_2bandit_a2.png","70","","68","test","0","","74","","","","square","circle","71","7","4","0.9295774647887324","","","","","","","",""
"null","337633","SARL_v6","SARL_v606nraj5s","631b4849c2daec6a4966605c","infreq_resp","","","img/blue_2bandit_a.png","70","img/blue_2bandit_a.png","68","test","","","","","","","","","","","4","","","","","","","","",""
"null","337786","SARL_v6","SARL_v606nraj5s","631b4849c2daec6a4966605c","fixation","","","img/fixation.png","null","","","test","","","","","","","","","","","","","","","","","","","",""
"442.3999999910593","338230","SARL_v6","SARL_v606nraj5s","631b4849c2daec6a4966605c","freq","","","img/orange_2bandit_a2.png","70","","70","test","1","","75","","","","square","circle","72","8","4","0.9305555555555556","","","","","","","",""
"null","338591","SARL_v6","SARL_v606nraj5s","631b4849c2daec6a4966605c","freq_resp","","","img/orange_2bandit_a.png","70","img/orange_2bandit_a.png","70","test","","","","","","","","","","","4","","","","","","","","",""
"null","338746","SARL_v6","SARL_v606nraj5s","631b4849c2daec6a4966605c","fixation","","","img/fixation.png","null","","","test","","","","","","","","","","","","","","","","","","","",""
"340","339088","SARL_v6","SARL_v606nraj5s","631b4849c2daec6a4966605c","freq","","","img/orange_2bandit_a2.png","70","","70","test","1","","76","","","","square","circle","73","9","4","0.9315068493150684","","","","","","","",""
"null","339568","SARL_v6","SARL_v606nraj5s","631b4849c2daec6a4966605c","freq_resp","","","img/orange_2bandit_a.png","70","img/orange_2bandit_a.png","70","test","","","","","","","","","","","4","","","","","","","","",""
"null","339735","SARL_v6","SARL_v606nraj5s","631b4849c2daec6a4966605c","fixation","","","img/fixation.png","null","","","test","","","","","","","","","","","","","","","","","","","",""
"405.80000001192093","340143","SARL_v6","SARL_v606nraj5s","631b4849c2daec6a4966605c","freq","","","img/orange_2bandit_a2.png","70","","70","test","1","","77","","","","square","circle","74","10","4","0.9324324324324325","","","","","","","",""
"null","340541","SARL_v6","SARL_v606nraj5s","631b4849c2daec6a4966605c","freq_resp","","","img/orange_2bandit_a.png","70","img/orange_2bandit_a.png","70","test","","","","","","","","","","","4","","","","","","","","",""
"null","340695","SARL_v6","SARL_v606nraj5s","631b4849c2daec6a4966605c","fixation","","","img/fixation.png","null","","","test","","","","","","","","","","","","","","","","","","","",""
"389.80000001192093","341087","SARL_v6","SARL_v606nraj5s","631b4849c2daec6a4966605c","freq","","","img/orange_2bandit_a2.png","70","","70","test","1","","78","","","","square","circle","75","11","4","0.9333333333333333","","","","","","","",""
"null","341499","SARL_v6","SARL_v606nraj5s","631b4849c2daec6a4966605c","freq_resp","","","img/orange_2bandit_a.png","70","img/orange_2bandit_a.png","70","test","","","","","","","","","","","4","","","","","","","","",""
"null","341653","SARL_v6","SARL_v606nraj5s","631b4849c2daec6a4966605c","fixation","","","img/fixation.png","null","","","test","","","","","","","","","","","","","","","","","","","",""
"335.6000000089407","341990","SARL_v6","SARL_v606nraj5s","631b4849c2daec6a4966605c","freq","","","img/orange_2bandit_a2.png","70","","70","test","1","","79","","","","square","circle","76","12","4","0.9342105263157895","","","","","","","",""
"null","342458","SARL_v6","SARL_v606nraj5s","631b4849c2daec6a4966605c","freq_resp","","","img/orange_2bandit_a.png","70","img/orange_2bandit_a.png","70","test","","","","","","","","","","","4","","","","","","","","",""
"null","342613","SARL_v6","SARL_v606nraj5s","631b4849c2daec6a4966605c","fixation","","","img/fixation.png","null","","","test","","","","","","","","","","","","","","","","","","","",""
"358.6000000089407","342974","SARL_v6","SARL_v606nraj5s","631b4849c2daec6a4966605c","freq","","","img/orange_2bandit_a2.png","70","","70","test","1","","80","","","","square","circle","77","13","4","0.935064935064935","","","","","","","",""
"null","343431","SARL_v6","SARL_v606nraj5s","631b4849c2daec6a4966605c","freq_resp","","","img/orange_2bandit_a.png","70","img/orange_2bandit_a.png","70","test","","","","","","","","","","","4","","","","","","","","",""
"null","343585","SARL_v6","SARL_v606nraj5s","631b4849c2daec6a4966605c","fixation","","","img/fixation.png","null","","","test","","","","","","","","","","","","","","","","","","","",""
"292","343879","SARL_v6","SARL_v606nraj5s","631b4849c2daec6a4966605c","freq","","","img/orange_2bandit_a2.png","70","","70","test","1","","81","","","","square","circle","78","14","4","0.9358974358974359","","","","","","","",""
"null","344403","SARL_v6","SARL_v606nraj5s","631b4849c2daec6a4966605c","freq_resp","","","img/orange_2bandit_a.png","70","img/orange_2bandit_a.png","70","test","","","","","","","","","","","4","","","","","","","","",""
"null","344558","SARL_v6","SARL_v606nraj5s","631b4849c2daec6a4966605c","fixation","","","img/fixation.png","null","","","test","","","","","","","","","","","","","","","","","","","",""
"390.90000000596046","344950","SARL_v6","SARL_v606nraj5s","631b4849c2daec6a4966605c","freq","","","img/orange_2bandit_a2.png","70","","70","test","1","","82","","","","square","circle","79","15","4","0.9367088607594937","","","","","","","",""
"null","345363","SARL_v6","SARL_v606nraj5s","631b4849c2daec6a4966605c","freq_resp","","","img/orange_2bandit_a.png","70","img/orange_2bandit_a.png","70","test","","","","","","","","","","","4","","","","","","","","",""
"null","345517","SARL_v6","SARL_v606nraj5s","631b4849c2daec6a4966605c","fixation","","","img/fixation.png","null","","","test","","","","","","","","","","","","","","","","","","","",""
"398.59999999403954","345918","SARL_v6","SARL_v606nraj5s","631b4849c2daec6a4966605c","freq","","","img/orange_2bandit_a2.png","70","","70","test","1","","83","","","","square","circle","80","16","4","0.9375","","","","","","","",""
"null","346336","SARL_v6","SARL_v606nraj5s","631b4849c2daec6a4966605c","freq_resp","","","img/orange_2bandit_a.png","70","img/orange_2bandit_a.png","70","test","","","","","","","","","","","4","","","","","","","","",""
"null","346491","SARL_v6","SARL_v606nraj5s","631b4849c2daec6a4966605c","fixation","","","img/fixation.png","null","","","test","","","","","","","","","","","","","","","","","","","",""
"361.59999999403954","346854","SARL_v6","SARL_v606nraj5s","631b4849c2daec6a4966605c","freq","","","img/orange_2bandit_a2.png","70","","70","test","1","","84","","","","square","circle","81","17","4","0.9382716049382716","","","","","","","",""
"null","347296","SARL_v6","SARL_v606nraj5s","631b4849c2daec6a4966605c","freq_resp","","","img/orange_2bandit_a.png","70","img/orange_2bandit_a.png","70","test","","","","","","","","","","","4","","","","","","","","",""
"null","347450","SARL_v6","SARL_v606nraj5s","631b4849c2daec6a4966605c","fixation","","","img/fixation.png","null","","","test","","","","","","","","","","","","","","","","","","","",""
"459.09999999403954","347911","SARL_v6","SARL_v606nraj5s","631b4849c2daec6a4966605c","infreq","","","img/blue_2bandit_a2.png","68","","68","test","1","","85","","","","square","circle","82","18","4","0.9390243902439024","","","","","","","",""
"null","348255","SARL_v6","SARL_v606nraj5s","631b4849c2daec6a4966605c","infreq_resp","","","img/blue_2bandit_a.png","68","img/blue_2bandit_a.png","68","test","","","","","","","","","","","4","","","","","","","","",""
"null","348410","SARL_v6","SARL_v606nraj5s","631b4849c2daec6a4966605c","fixation","","","img/fixation.png","null","","","test","","","","","","","","","","","","","","","","","","","",""
"482.79999999701977","348894","SARL_v6","SARL_v606nraj5s","631b4849c2daec6a4966605c","freq","","","img/orange_2bandit_a2.png","70","","70","test","1","","86","","","","square","circle","83","19","4","0.9397590361445783","","","","","","","",""
"null","349216","SARL_v6","SARL_v606nraj5s","631b4849c2daec6a4966605c","freq_resp","","","img/orange_2bandit_a.png","70","img/orange_2bandit_a.png","70","test","","","","","","","","","","","4","","","","","","","","",""
"null","349369","SARL_v6","SARL_v606nraj5s","631b4849c2daec6a4966605c","fixation","","","img/fixation.png","null","","","test","","","","","","","","","","","","","","","","","","","",""
"563","349934","SARL_v6","SARL_v606nraj5s","631b4849c2daec6a4966605c","rl","","","img/black_2bandit_a2.png","75","","0","test","","","87","","","-12","square","circle","","0","4","","75","-12","0","0","-12","circle","4","0"
"null","350701","SARL_v6","SARL_v606nraj5s","631b4849c2daec6a4966605c","feedback","","","<div class=""verylowPoints""> -12 </div>","null","","na","test","","","NaN","","","","","","","","4","","75","","","","","","4",""
"null","351506","SARL_v6","SARL_v606nraj5s","631b4849c2daec6a4966605c","freq","","","img/orange_2bandit_a2.png","null","","70","test","0","","88","","","","square","circle","84","1","5","0.9285714285714286","","","","","","","",""
"null","351660","SARL_v6","SARL_v606nraj5s","631b4849c2daec6a4966605c","fixation","","","img/fixation.png","null","","","test","","","","","","","","","","","","","","","","","","","",""
"168.29999999701977","351829","SARL_v6","SARL_v606nraj5s","631b4849c2daec6a4966605c","freq","","","img/orange_2bandit_a2.png","70","","70","test","1","","89","","","","square","circle","85","2","5","0.9294117647058824","","","","","","","",""
"null","352465","SARL_v6","SARL_v606nraj5s","631b4849c2daec6a4966605c","freq_resp","","","img/orange_2bandit_a.png","70","img/orange_2bandit_a.png","70","test","","","","","","","","","","","5","","","","","","","","",""
"null","352621","SARL_v6","SARL_v606nraj5s","631b4849c2daec6a4966605c","fixation","","","img/fixation.png","null","","","test","","","","","","","","","","","","","","","","","","","",""
"375.40000000596046","352998","SARL_v6","SARL_v606nraj5s","631b4849c2daec6a4966605c","freq","","","img/orange_2bandit_a2.png","70","","70","test","1","","90","","","","square","circle","86","3","5","0.9302325581395349","","","","","","","",""
"null","353426","SARL_v6","SARL_v606nraj5s","631b4849c2daec6a4966605c","freq_resp","","","img/orange_2bandit_a.png","70","img/orange_2bandit_a.png","70","test","","","","","","","","","","","5","","","","","","","","",""
"null","353580","SARL_v6","SARL_v606nraj5s","631b4849c2daec6a4966605c","fixation","","","img/fixation.png","null","","","test","","","","","","","","","","","","","","","","","","","",""
"297.79999999701977","353880","SARL_v6","SARL_v606nraj5s","631b4849c2daec6a4966605c","infreq","","","img/blue_2bandit_a2.png","70","","68","test","0","","91","","","","square","circle","87","4","5","0.9195402298850575","","","","","","","",""
"null","354398","SARL_v6","SARL_v606nraj5s","631b4849c2daec6a4966605c","infreq_resp","","","img/blue_2bandit_a.png","70","img/blue_2bandit_a.png","68","test","","","","","","","","","","","5","","","","","","","","",""
"null","354553","SARL_v6","SARL_v606nraj5s","631b4849c2daec6a4966605c","fixation","","","img/fixation.png","null","","","test","","","","","","","","","","","","","","","","","","","",""
"435.3999999910593","354989","SARL_v6","SARL_v606nraj5s","631b4849c2daec6a4966605c","freq","","","img/orange_2bandit_a2.png","70","","70","test","1","","92","","","","square","circle","88","5","5","0.9204545454545454","","","","","","","",""
"null","355358","SARL_v6","SARL_v606nraj5s","631b4849c2daec6a4966605c","freq_resp","","","img/orange_2bandit_a.png","70","img/orange_2bandit_a.png","70","test","","","","","","","","","","","5","","","","","","","","",""
"null","355512","SARL_v6","SARL_v606nraj5s","631b4849c2daec6a4966605c","fixation","","","img/fixation.png","null","","","test","","","","","","","","","","","","","","","","","","","",""
"556.5","356071","SARL_v6","SARL_v606nraj5s","631b4849c2daec6a4966605c","infreq","","","img/blue_2bandit_a2.png","68","","68","test","1","","93","","","","square","circle","89","6","5","0.9213483146067416","","","","","","","",""
"null","356332","SARL_v6","SARL_v606nraj5s","631b4849c2daec6a4966605c","infreq_resp","","","img/blue_2bandit_a.png","68","img/blue_2bandit_a.png","68","test","","","","","","","","","","","5","","","","","","","","",""
"null","356487","SARL_v6","SARL_v606nraj5s","631b4849c2daec6a4966605c","fixation","","","img/fixation.png","null","","","test","","","","","","","","","","","","","","","","","","","",""
"605.1000000089407","357095","SARL_v6","SARL_v606nraj5s","631b4849c2daec6a4966605c","freq","","","img/orange_2bandit_a2.png","70","","70","test","1","","94","","","","square","circle","90","7","5","0.9222222222222223","","","","","","","",""
"null","357293","SARL_v6","SARL_v606nraj5s","631b4849c2daec6a4966605c","freq_resp","","","img/orange_2bandit_a.png","70","img/orange_2bandit_a.png","70","test","","","","","","","","","","","5","","","","","","","","",""
"null","357447","SARL_v6","SARL_v606nraj5s","631b4849c2daec6a4966605c","fixation","","","img/fixation.png","null","","","test","","","","","","","","","","","","","","","","","","","",""
"495.1000000089407","357944","SARL_v6","SARL_v606nraj5s","631b4849c2daec6a4966605c","freq","","","img/orange_2bandit_a2.png","70","","70","test","1","","95","","","","square","circle","91","8","5","0.9230769230769231","","","","","","","",""
"null","358251","SARL_v6","SARL_v606nraj5s","631b4849c2daec6a4966605c","freq_resp","","","img/orange_2bandit_a.png","70","img/orange_2bandit_a.png","70","test","","","","","","","","","","","5","","","","","","","","",""
"null","358406","SARL_v6","SARL_v606nraj5s","631b4849c2daec6a4966605c","fixation","","","img/fixation.png","null","","","test","","","","","","","","","","","","","","","","","","","",""
"487","358894","SARL_v6","SARL_v606nraj5s","631b4849c2daec6a4966605c","freq","","","img/orange_2bandit_a2.png","70","","70","test","1","","96","","","","square","circle","92","9","5","0.9239130434782609","","","","","","","",""
"null","359209","SARL_v6","SARL_v606nraj5s","631b4849c2daec6a4966605c","freq_resp","","","img/orange_2bandit_a.png","70","img/orange_2bandit_a.png","70","test","","","","","","","","","","","5","","","","","","","","",""
"null","359365","SARL_v6","SARL_v606nraj5s","631b4849c2daec6a4966605c","fixation","","","img/fixation.png","null","","","test","","","","","","","","","","","","","","","","","","","",""
"423.30000001192093","359790","SARL_v6","SARL_v606nraj5s","631b4849c2daec6a4966605c","freq","","","img/orange_2bandit_a2.png","70","","70","test","1","","97","","","","square","circle","93","10","5","0.9247311827956989","","","","","","","",""
"null","360183","SARL_v6","SARL_v606nraj5s","631b4849c2daec6a4966605c","freq_resp","","","img/orange_2bandit_a.png","70","img/orange_2bandit_a.png","70","test","","","","","","","","","","","5","","","","","","","","",""
"null","360339","SARL_v6","SARL_v606nraj5s","631b4849c2daec6a4966605c","fixation","","","img/fixation.png","null","","","test","","","","","","","","","","","","","","","","","","","",""
"378","360720","SARL_v6","SARL_v606nraj5s","631b4849c2daec6a4966605c","freq","","","img/orange_2bandit_a2.png","70","","70","test","1","","98","","","","square","circle","94","11","5","0.925531914893617","","","","","","","",""
"null","361160","SARL_v6","SARL_v606nraj5s","631b4849c2daec6a4966605c","freq_resp","","","img/orange_2bandit_a.png","70","img/orange_2bandit_a.png","70","test","","","","","","","","","","","5","","","","","","","","",""
"null","361313","SARL_v6","SARL_v606nraj5s","631b4849c2daec6a4966605c","fixation","","","img/fixation.png","null","","","test","","","","","","","","","","","","","","","","","","","",""
"308.40000000596046","361623","SARL_v6","SARL_v606nraj5s","631b4849c2daec6a4966605c","freq","","","img/orange_2bandit_a2.png","70","","70","test","1","","99","","","","square","circle","95","12","5","0.9263157894736842","","","","","","","",""
"null","362117","SARL_v6","SARL_v606nraj5s","631b4849c2daec6a4966605c","freq_resp","","","img/orange_2bandit_a.png","70","img/orange_2bandit_a.png","70","test","","","","","","","","","","","5","","","","","","","","",""
"null","362273","SARL_v6","SARL_v606nraj5s","631b4849c2daec6a4966605c","fixation","","","img/fixation.png","null","","","test","","","","","","","","","","","","","","","","","","","",""
"300.40000000596046","362576","SARL_v6","SARL_v606nraj5s","631b4849c2daec6a4966605c","freq","","","img/orange_2bandit_a2.png","70","","70","test","1","","100","","","","square","circle","96","13","5","0.9270833333333334","","","","","","","",""
"null","363091","SARL_v6","SARL_v606nraj5s","631b4849c2daec6a4966605c","freq_resp","","","img/orange_2bandit_a.png","70","img/orange_2bandit_a.png","70","test","","","","","","","","","","","5","","","","","","","","",""
"null","363247","SARL_v6","SARL_v606nraj5s","631b4849c2daec6a4966605c","fixation","","","img/fixation.png","null","","","test","","","","","","","","","","","","","","","","","","","",""
"309.6000000089407","363558","SARL_v6","SARL_v606nraj5s","631b4849c2daec6a4966605c","freq","","","img/orange_2bandit_a2.png","70","","70","test","1","","101","","","","square","circle","97","14","5","0.9278350515463918","","","","","","","",""
"null","364066","SARL_v6","SARL_v606nraj5s","631b4849c2daec6a4966605c","freq_resp","","","img/orange_2bandit_a.png","70","img/orange_2bandit_a.png","70","test","","","","","","","","","","","5","","","","","","","","",""
"null","364218","SARL_v6","SARL_v606nraj5s","631b4849c2daec6a4966605c","fixation","","","img/fixation.png","null","","","test","","","","","","","","","","","","","","","","","","","",""
"306.5","364527","SARL_v6","SARL_v606nraj5s","631b4849c2daec6a4966605c","freq","","","img/orange_2bandit_a2.png","70","","70","test","1","","102","","","","square","circle","98","15","5","0.9285714285714286","","","","","","","",""
"null","365026","SARL_v6","SARL_v606nraj5s","631b4849c2daec6a4966605c","freq_resp","","","img/orange_2bandit_a.png","70","img/orange_2bandit_a.png","70","test","","","","","","","","","","","5","","","","","","","","",""
"null","365180","SARL_v6","SARL_v606nraj5s","631b4849c2daec6a4966605c","fixation","","","img/fixation.png","null","","","test","","","","","","","","","","","","","","","","","","","",""
"504.6000000089407","365686","SARL_v6","SARL_v606nraj5s","631b4849c2daec6a4966605c","infreq","","","img/blue_2bandit_a2.png","68","","68","test","1","","103","","","","square","circle","99","16","5","0.9292929292929293","","","","","","","",""
"null","365999","SARL_v6","SARL_v606nraj5s","631b4849c2daec6a4966605c","infreq_resp","","","img/blue_2bandit_a.png","68","img/blue_2bandit_a.png","68","test","","","","","","","","","","","5","","","","","","","","",""
"null","366155","SARL_v6","SARL_v606nraj5s","631b4849c2daec6a4966605c","fixation","","","img/fixation.png","null","","","test","","","","","","","","","","","","","","","","","","","",""
"427.8999999910593","366584","SARL_v6","SARL_v606nraj5s","631b4849c2daec6a4966605c","freq","","","img/orange_2bandit_a2.png","70","","70","test","1","","104","","","","square","circle","100","17","5","0.93","","","","","","","",""
"null","366959","SARL_v6","SARL_v606nraj5s","631b4849c2daec6a4966605c","freq_resp","","","img/orange_2bandit_a.png","70","img/orange_2bandit_a.png","70","test","","","","","","","","","","","5","","","","","","","","",""
"null","367115","SARL_v6","SARL_v606nraj5s","631b4849c2daec6a4966605c","fixation","","","img/fixation.png","null","","","test","","","","","","","","","","","","","","","","","","","",""
"361.29999999701977","367478","SARL_v6","SARL_v606nraj5s","631b4849c2daec6a4966605c","freq","","","img/orange_2bandit_a2.png","70","","70","test","1","","105","","","","square","circle","101","18","5","0.9306930693069307","","","","","","","",""
"null","367933","SARL_v6","SARL_v606nraj5s","631b4849c2daec6a4966605c","freq_resp","","","img/orange_2bandit_a.png","70","img/orange_2bandit_a.png","70","test","","","","","","","","","","","5","","","","","","","","",""
"null","368088","SARL_v6","SARL_v606nraj5s","631b4849c2daec6a4966605c","fixation","","","img/fixation.png","null","","","test","","","","","","","","","","","","","","","","","","","",""
"294","368384","SARL_v6","SARL_v606nraj5s","631b4849c2daec6a4966605c","freq","","","img/orange_2bandit_a2.png","70","","70","test","1","","106","","","","square","circle","102","19","5","0.9313725490196079","","","","","","","",""
"null","368906","SARL_v6","SARL_v606nraj5s","631b4849c2daec6a4966605c","freq_resp","","","img/orange_2bandit_a.png","70","img/orange_2bandit_a.png","70","test","","","","","","","","","","","5","","","","","","","","",""
"null","369060","SARL_v6","SARL_v606nraj5s","631b4849c2daec6a4966605c","fixation","","","img/fixation.png","null","","","test","","","","","","","","","","","","","","","","","","","",""
"289","369351","SARL_v6","SARL_v606nraj5s","631b4849c2daec6a4966605c","freq","","","img/orange_2bandit_a2.png","70","","70","test","1","","107","","","","square","circle","103","20","5","0.9320388349514563","","","","","","","",""
"null","369867","SARL_v6","SARL_v606nraj5s","631b4849c2daec6a4966605c","freq_resp","","","img/orange_2bandit_a.png","70","img/orange_2bandit_a.png","70","test","","","","","","","","","","","5","","","","","","","","",""
"null","370021","SARL_v6","SARL_v606nraj5s","631b4849c2daec6a4966605c","fixation","","","img/fixation.png","null","","","test","","","","","","","","","","","","","","","","","","","",""
"359.20000000298023","370381","SARL_v6","SARL_v606nraj5s","631b4849c2daec6a4966605c","freq","","","img/orange_2bandit_a2.png","70","","70","test","1","","108","","","","square","circle","104","21","5","0.9326923076923077","","","","","","","",""
"null","370825","SARL_v6","SARL_v606nraj5s","631b4849c2daec6a4966605c","freq_resp","","","img/orange_2bandit_a.png","70","img/orange_2bandit_a.png","70","test","","","","","","","","","","","5","","","","","","","","",""
"null","370981","SARL_v6","SARL_v606nraj5s","631b4849c2daec6a4966605c","fixation","","","img/fixation.png","null","","","test","","","","","","","","","","","","","","","","","","","",""
"399.5","371383","SARL_v6","SARL_v606nraj5s","631b4849c2daec6a4966605c","freq","","","img/orange_2bandit_a2.png","70","","70","test","1","","109","","","","square","circle","105","22","5","0.9333333333333333","","","","","","","",""
"null","371799","SARL_v6","SARL_v606nraj5s","631b4849c2daec6a4966605c","freq_resp","","","img/orange_2bandit_a.png","70","img/orange_2bandit_a.png","70","test","","","","","","","","","","","5","","","","","","","","",""
"null","371955","SARL_v6","SARL_v606nraj5s","631b4849c2daec6a4966605c","fixation","","","img/fixation.png","null","","","test","","","","","","","","","","","","","","","","","","","",""
"394","372351","SARL_v6","SARL_v606nraj5s","631b4849c2daec6a4966605c","freq","","","img/orange_2bandit_a2.png","70","","70","test","1","","110","","","","square","circle","106","23","5","0.9339622641509434","","","","","","","",""
"null","372775","SARL_v6","SARL_v606nraj5s","631b4849c2daec6a4966605c","freq_resp","","","img/orange_2bandit_a.png","70","img/orange_2bandit_a.png","70","test","","","","","","","","","","","5","","","","","","","","",""
"null","372928","SARL_v6","SARL_v606nraj5s","631b4849c2daec6a4966605c","fixation","","","img/fixation.png","null","","","test","","","","","","","","","","","","","","","","","","","",""
"364.5","373294","SARL_v6","SARL_v606nraj5s","631b4849c2daec6a4966605c","freq","","","img/orange_2bandit_a2.png","70","","70","test","1","","111","","","","square","circle","107","24","5","0.9345794392523364","","","","","","","",""
"null","373735","SARL_v6","SARL_v606nraj5s","631b4849c2daec6a4966605c","freq_resp","","","img/orange_2bandit_a.png","70","img/orange_2bandit_a.png","70","test","","","","","","","","","","","5","","","","","","","","",""
"null","373889","SARL_v6","SARL_v606nraj5s","631b4849c2daec6a4966605c","fixation","","","img/fixation.png","null","","","test","","","","","","","","","","","","","","","","","","","",""
"331.20000000298023","374223","SARL_v6","SARL_v606nraj5s","631b4849c2daec6a4966605c","freq","","","img/orange_2bandit_a2.png","70","","70","test","1","","112","","","","square","circle","108","25","5","0.9351851851851852","","","","","","","",""
"null","374709","SARL_v6","SARL_v606nraj5s","631b4849c2daec6a4966605c","freq_resp","","","img/orange_2bandit_a.png","70","img/orange_2bandit_a.png","70","test","","","","","","","","","","","5","","","","","","","","",""
"null","374861","SARL_v6","SARL_v606nraj5s","631b4849c2daec6a4966605c","fixation","","","img/fixation.png","null","","","test","","","","","","","","","","","","","","","","","","","",""
"623","375486","SARL_v6","SARL_v606nraj5s","631b4849c2daec6a4966605c","rl","","","img/black_2bandit_a2.png","74","","0","test","","","113","","","4","square","circle","","0","5","","74","-7","4","4","-7","square","5","0"
"null","376238","SARL_v6","SARL_v606nraj5s","631b4849c2daec6a4966605c","feedback","","","<div class=""veryhighPoints_sq""> 4 </div>","null","","na","test","","","NaN","","","","","","","","5","","74","","","","","","5",""
"null","377043","SARL_v6","SARL_v606nraj5s","631b4849c2daec6a4966605c","freq","","","img/orange_2bandit_a2.png","null","","70","test","0","","114","","","","square","circle","109","1","6","0.926605504587156","","","","","","","",""
"null","377197","SARL_v6","SARL_v606nraj5s","631b4849c2daec6a4966605c","fixation","","","img/fixation.png","null","","","test","","","","","","","","","","","","","","","","","","","",""
"687.4000000059605","377887","SARL_v6","SARL_v606nraj5s","631b4849c2daec6a4966605c","infreq","","","img/blue_2bandit_a2.png","68","","68","test","1","","115","","","","square","circle","110","2","6","0.9272727272727272","","","","","","","",""
"null","378015","SARL_v6","SARL_v606nraj5s","631b4849c2daec6a4966605c","infreq_resp","","","img/blue_2bandit_a.png","68","img/blue_2bandit_a.png","68","test","","","","","","","","","","","6","","","","","","","","",""
"null","378170","SARL_v6","SARL_v606nraj5s","631b4849c2daec6a4966605c","fixation","","","img/fixation.png","null","","","test","","","","","","","","","","","","","","","","","","","",""
"682.5","378854","SARL_v6","SARL_v606nraj5s","631b4849c2daec6a4966605c","infreq","","","img/blue_2bandit_a2.png","68","","68","test","1","","116","","","","square","circle","111","3","6","0.9279279279279279","","","","","","","",""
"null","378974","SARL_v6","SARL_v606nraj5s","631b4849c2daec6a4966605c","infreq_resp","","","img/blue_2bandit_a.png","68","img/blue_2bandit_a.png","68","test","","","","","","","","","","","6","","","","","","","","",""
"null","379129","SARL_v6","SARL_v606nraj5s","631b4849c2daec6a4966605c","fixation","","","img/fixation.png","null","","","test","","","","","","","","","","","","","","","","","","","",""
"491.79999999701977","379623","SARL_v6","SARL_v606nraj5s","631b4849c2daec6a4966605c","freq","","","img/orange_2bandit_a2.png","70","","70","test","1","","117","","","","square","circle","112","4","6","0.9285714285714286","","","","","","","",""
"null","379936","SARL_v6","SARL_v606nraj5s","631b4849c2daec6a4966605c","freq_resp","","","img/orange_2bandit_a.png","70","img/orange_2bandit_a.png","70","test","","","","","","","","","","","6","","","","","","","","",""
"null","380090","SARL_v6","SARL_v606nraj5s","631b4849c2daec6a4966605c","fixation","","","img/fixation.png","null","","","test","","","","","","","","","","","","","","","","","","","",""
"408.90000000596046","380502","SARL_v6","SARL_v606nraj5s","631b4849c2daec6a4966605c","freq","","","img/orange_2bandit_a2.png","70","","70","test","1","","118","","","","square","circle","113","5","6","0.9292035398230089","","","","","","","",""
"null","380909","SARL_v6","SARL_v606nraj5s","631b4849c2daec6a4966605c","freq_resp","","","img/orange_2bandit_a.png","70","img/orange_2bandit_a.png","70","test","","","","","","","","","","","6","","","","","","","","",""
"null","381064","SARL_v6","SARL_v606nraj5s","631b4849c2daec6a4966605c","fixation","","","img/fixation.png","null","","","test","","","","","","","","","","","","","","","","","","","",""
"475.8999999910593","381543","SARL_v6","SARL_v606nraj5s","631b4849c2daec6a4966605c","freq","","","img/orange_2bandit_a2.png","70","","70","test","1","","119","","","","square","circle","114","6","6","0.9298245614035088","","","","","","","",""
"null","381883","SARL_v6","SARL_v606nraj5s","631b4849c2daec6a4966605c","freq_resp","","","img/orange_2bandit_a.png","70","img/orange_2bandit_a.png","70","test","","","","","","","","","","","6","","","","","","","","",""
"null","382036","SARL_v6","SARL_v606nraj5s","631b4849c2daec6a4966605c","fixation","","","img/fixation.png","null","","","test","","","","","","","","","","","","","","","","","","","",""
"401","382439","SARL_v6","SARL_v606nraj5s","631b4849c2daec6a4966605c","freq","","","img/orange_2bandit_a2.png","70","","70","test","1","","120","","","","square","circle","115","7","6","0.9304347826086956","","","","","","","",""
"null","382841","SARL_v6","SARL_v606nraj5s","631b4849c2daec6a4966605c","freq_resp","","","img/orange_2bandit_a.png","70","img/orange_2bandit_a.png","70","test","","","","","","","","","","","6","","","","","","","","",""
"null","382995","SARL_v6","SARL_v606nraj5s","631b4849c2daec6a4966605c","fixation","","","img/fixation.png","null","","","test","","","","","","","","","","","","","","","","","","","",""
"384.79999999701977","383381","SARL_v6","SARL_v606nraj5s","631b4849c2daec6a4966605c","freq","","","img/orange_2bandit_a2.png","70","","70","test","1","","121","","","","square","circle","116","8","6","0.9310344827586207","","","","","","","",""
"null","383804","SARL_v6","SARL_v606nraj5s","631b4849c2daec6a4966605c","freq_resp","","","img/orange_2bandit_a.png","70","img/orange_2bandit_a.png","70","test","","","","","","","","","","","6","","","","","","","","",""
"null","383971","SARL_v6","SARL_v606nraj5s","631b4849c2daec6a4966605c","fixation","","","img/fixation.png","null","","","test","","","","","","","","","","","","","","","","","","","",""
"497.29999999701977","384470","SARL_v6","SARL_v606nraj5s","631b4849c2daec6a4966605c","freq","","","img/orange_2bandit_a2.png","70","","70","test","1","","122","","","","square","circle","117","9","6","0.9316239316239316","","","","","","","",""
"null","384776","SARL_v6","SARL_v606nraj5s","631b4849c2daec6a4966605c","freq_resp","","","img/orange_2bandit_a.png","70","img/orange_2bandit_a.png","70","test","","","","","","","","","","","6","","","","","","","","",""
"null","384929","SARL_v6","SARL_v606nraj5s","631b4849c2daec6a4966605c","fixation","","","img/fixation.png","null","","","test","","","","","","","","","","","","","","","","","","","",""
"507.6000000089407","385438","SARL_v6","SARL_v606nraj5s","631b4849c2daec6a4966605c","freq","","","img/orange_2bandit_a2.png","70","","70","test","1","","123","","","","square","circle","118","10","6","0.9322033898305084","","","","","","","",""
"null","385735","SARL_v6","SARL_v606nraj5s","631b4849c2daec6a4966605c","freq_resp","","","img/orange_2bandit_a.png","70","img/orange_2bandit_a.png","70","test","","","","","","","","","","","6","","","","","","","","",""
"null","385890","SARL_v6","SARL_v606nraj5s","631b4849c2daec6a4966605c","fixation","","","img/fixation.png","null","","","test","","","","","","","","","","","","","","","","","","","",""
"491.59999999403954","386383","SARL_v6","SARL_v606nraj5s","631b4849c2daec6a4966605c","freq","","","img/orange_2bandit_a2.png","70","","70","test","1","","124","","","","square","circle","119","11","6","0.9327731092436975","","","","","","","",""
"null","386699","SARL_v6","SARL_v606nraj5s","631b4849c2daec6a4966605c","freq_resp","","","img/orange_2bandit_a.png","70","img/orange_2bandit_a.png","70","test","","","","","","","","","","","6","","","","","","","","",""
"null","386854","SARL_v6","SARL_v606nraj5s","631b4849c2daec6a4966605c","fixation","","","img/fixation.png","null","","","test","","","","","","","","","","","","","","","","","","","",""
"569","387425","SARL_v6","SARL_v606nraj5s","631b4849c2daec6a4966605c","freq","","","img/orange_2bandit_a2.png","70","","70","test","1","","125","","","","square","circle","120","12","6","0.9333333333333333","","","","","","","",""
"null","387659","SARL_v6","SARL_v606nraj5s","631b4849c2daec6a4966605c","freq_resp","","","img/orange_2bandit_a.png","70","img/orange_2bandit_a.png","70","test","","","","","","","","","","","6","","","","","","","","",""
"null","387815","SARL_v6","SARL_v606nraj5s","631b4849c2daec6a4966605c","fixation","","","img/fixation.png","null","","","test","","","","","","","","","","","","","","","","","","","",""
"469.69999998807907","388287","SARL_v6","SARL_v606nraj5s","631b4849c2daec6a4966605c","freq","","","img/orange_2bandit_a2.png","70","","70","test","1","","126","","","","square","circle","121","13","6","0.9338842975206612","","","","","","","",""
"null","388635","SARL_v6","SARL_v606nraj5s","631b4849c2daec6a4966605c","freq_resp","","","img/orange_2bandit_a.png","70","img/orange_2bandit_a.png","70","test","","","","","","","","","","","6","","","","","","","","",""
"null","388789","SARL_v6","SARL_v606nraj5s","631b4849c2daec6a4966605c","fixation","","","img/fixation.png","null","","","test","","","","","","","","","","","","","","","","","","","",""
"465.1000000089407","389257","SARL_v6","SARL_v606nraj5s","631b4849c2daec6a4966605c","freq","","","img/orange_2bandit_a2.png","70","","70","test","1","","127","","","","square","circle","122","14","6","0.9344262295081968","","","","","","","",""
"null","389595","SARL_v6","SARL_v606nraj5s","631b4849c2daec6a4966605c","freq_resp","","","img/orange_2bandit_a.png","70","img/orange_2bandit_a.png","70","test","","","","","","","","","","","6","","","","","","","","",""
"null","389750","SARL_v6","SARL_v606nraj5s","631b4849c2daec6a4966605c","fixation","","","img/fixation.png","null","","","test","","","","","","","","","","","","","","","","","","","",""
"407.8999999910593","390159","SARL_v6","SARL_v606nraj5s","631b4849c2daec6a4966605c","freq","","","img/orange_2bandit_a2.png","70","","70","test","1","","128","","","","square","circle","123","15","6","0.9349593495934959","","","","","","","",""
"null","390555","SARL_v6","SARL_v606nraj5s","631b4849c2daec6a4966605c","freq_resp","","","img/orange_2bandit_a.png","70","img/orange_2bandit_a.png","70","test","","","","","","","","","","","6","","","","","","","","",""
"null","390711","SARL_v6","SARL_v606nraj5s","631b4849c2daec6a4966605c","fixation","","","img/fixation.png","null","","","test","","","","","","","","","","","","","","","","","","","",""
"413","391126","SARL_v6","SARL_v606nraj5s","631b4849c2daec6a4966605c","freq","","","img/orange_2bandit_a2.png","70","","70","test","1","","129","","","","square","circle","124","16","6","0.9354838709677419","","","","","","","",""
"null","391531","SARL_v6","SARL_v606nraj5s","631b4849c2daec6a4966605c","freq_resp","","","img/orange_2bandit_a.png","70","img/orange_2bandit_a.png","70","test","","","","","","","","","","","6","","","","","","","","",""
"null","391684","SARL_v6","SARL_v606nraj5s","631b4849c2daec6a4966605c","fixation","","","img/fixation.png","null","","","test","","","","","","","","","","","","","","","","","","","",""
"313.90000000596046","391999","SARL_v6","SARL_v606nraj5s","631b4849c2daec6a4966605c","freq","","","img/orange_2bandit_a2.png","70","","70","test","1","","130","","","","square","circle","125","17","6","0.936","","","","","","","",""
"null","392488","SARL_v6","SARL_v606nraj5s","631b4849c2daec6a4966605c","freq_resp","","","img/orange_2bandit_a.png","70","img/orange_2bandit_a.png","70","test","","","","","","","","","","","6","","","","","","","","",""
"null","392644","SARL_v6","SARL_v606nraj5s","631b4849c2daec6a4966605c","fixation","","","img/fixation.png","null","","","test","","","","","","","","","","","","","","","","","","","",""
