"rt","time_elapsed","expId","subject","prolificID","trialType","rlType","attType","stimulus","key_press","stim","corrresp","phase","corr","pracCounter","trialNum","rewardOne","rewardTwo","reward","bandOne","bandTwo","attentionNum","attentionRunNum","blockNum","performance","bandChosen","circleVal","squareVal","bandOneVal","bandTwoVal","shapeChosen","rlNum","badFlag"
"2073.899999976158","2078","SARL_v6","SARL_v6981wa4m1","590208c89571f50001c666e3","","","","","","","","","","","","","","","","","","","","","","","","","","","",""
"","3918","SARL_v6","SARL_v6981wa4m1","590208c89571f50001c666e3","fullscreen","fullscreen","fullscreen","","","","","","","","","","","","","","","","","","","","","","","","",""
"24588.299999952316","28508","SARL_v6","SARL_v6981wa4m1","590208c89571f50001c666e3","","","","","","","","","","","","","","","","","","","","","","","","","","","",""
"null","29312","SARL_v6","SARL_v6981wa4m1","590208c89571f50001c666e3","freqPrac","","","img/orange_2bandit_b2.png","null","img/orange_2bandit_b2.png","70","prac","0","1","","","","","","","","","","","","","","","","","",""
"null","30317","SARL_v6","SARL_v6981wa4m1","590208c89571f50001c666e3","feedback","","","img/tooSlow.png","null","","na","prac","","","","","","","","","","","","","","","","","","","",""
"null","30469","SARL_v6","SARL_v6981wa4m1","590208c89571f50001c666e3","fixation","","","img/fixation.png","null","","","prac","","","","","","","","","","","","","","","","","","","",""
"653.8999999761581","31124","SARL_v6","SARL_v6981wa4m1","590208c89571f50001c666e3","infreqPrac","","","img/blue_2bandit_b2.png","68","img/blue_2bandit_b2.png","68","prac","1","1","","","","","","","","","","","","","","","","","",""
"653.8999999761581","31273","SARL_v6","SARL_v6981wa4m1","590208c89571f50001c666e3","infreqPrac_resp","","","img/blue_2bandit_b.png","68","img/blue_2bandit_b.png","68","prac","","","","","","","","","","","","","","","","","","","",""
"null","31426","SARL_v6","SARL_v6981wa4m1","590208c89571f50001c666e3","fixation","","","img/fixation.png","null","","","prac","","","","","","","","","","","","","","","","","","","",""
"408.7000000476837","31836","SARL_v6","SARL_v6981wa4m1","590208c89571f50001c666e3","freqPrac","","","img/orange_2bandit_b2.png","70","img/orange_2bandit_b2.png","70","prac","1","1","","","","","","","","","","","","","","","","","",""
"408.7000000476837","32229","SARL_v6","SARL_v6981wa4m1","590208c89571f50001c666e3","freqPrac_resp","","","img/orange_2bandit_b.png","70","img/orange_2bandit_b.png","70","prac","","","","","","","","","","","","","","","","","","","",""
"null","32383","SARL_v6","SARL_v6981wa4m1","590208c89571f50001c666e3","fixation","","","img/fixation.png","null","","","prac","","","","","","","","","","","","","","","","","","","",""
"459.5","32844","SARL_v6","SARL_v6981wa4m1","590208c89571f50001c666e3","infreqPrac","","","img/blue_2bandit_b2.png","68","img/blue_2bandit_b2.png","68","prac","1","1","","","","","","","","","","","","","","","","","",""
"459.5","33187","SARL_v6","SARL_v6981wa4m1","590208c89571f50001c666e3","infreqPrac_resp","","","img/blue_2bandit_b.png","68","img/blue_2bandit_b.png","68","prac","","","","","","","","","","","","","","","","","","","",""
"null","33339","SARL_v6","SARL_v6981wa4m1","590208c89571f50001c666e3","fixation","","","img/fixation.png","null","","","prac","","","","","","","","","","","","","","","","","","","",""
"382.89999997615814","33724","SARL_v6","SARL_v6981wa4m1","590208c89571f50001c666e3","infreqPrac","","","img/blue_2bandit_b2.png","68","img/blue_2bandit_b2.png","68","prac","1","1","","","","","","","","","","","","","","","","","",""
"382.89999997615814","34144","SARL_v6","SARL_v6981wa4m1","590208c89571f50001c666e3","infreqPrac_resp","","","img/blue_2bandit_b.png","68","img/blue_2bandit_b.png","68","prac","","","","","","","","","","","","","","","","","","","",""
"null","34296","SARL_v6","SARL_v6981wa4m1","590208c89571f50001c666e3","fixation","","","img/fixation.png","null","","","prac","","","","","","","","","","","","","","","","","","","",""
"330.1999999284744","34628","SARL_v6","SARL_v6981wa4m1","590208c89571f50001c666e3","infreqPrac","","","img/blue_2bandit_b2.png","68","img/blue_2bandit_b2.png","68","prac","1","1","","","","","","","","","","","","","","","","","",""
"330.1999999284744","35099","SARL_v6","SARL_v6981wa4m1","590208c89571f50001c666e3","infreqPrac_resp","","","img/blue_2bandit_b.png","68","img/blue_2bandit_b.png","68","prac","","","","","","","","","","","","","","","","","","","",""
"null","35252","SARL_v6","SARL_v6981wa4m1","590208c89571f50001c666e3","fixation","","","img/fixation.png","null","","","prac","","","","","","","","","","","","","","","","","","","",""
"366.39999997615814","35620","SARL_v6","SARL_v6981wa4m1","590208c89571f50001c666e3","freqPrac","","","img/orange_2bandit_b2.png","70","img/orange_2bandit_b2.png","70","prac","1","1","","","","","","","","","","","","","","","","","",""
"366.39999997615814","36056","SARL_v6","SARL_v6981wa4m1","590208c89571f50001c666e3","freqPrac_resp","","","img/orange_2bandit_b.png","70","img/orange_2bandit_b.png","70","prac","","","","","","","","","","","","","","","","","","","",""
"null","36210","SARL_v6","SARL_v6981wa4m1","590208c89571f50001c666e3","fixation","","","img/fixation.png","null","","","prac","","","","","","","","","","","","","","","","","","","",""
"408.6999999284744","36620","SARL_v6","SARL_v6981wa4m1","590208c89571f50001c666e3","infreqPrac","","","img/blue_2bandit_b2.png","68","img/blue_2bandit_b2.png","68","prac","1","1","","","","","","","","","","","","","","","","","",""
"408.6999999284744","37013","SARL_v6","SARL_v6981wa4m1","590208c89571f50001c666e3","infreqPrac_resp","","","img/blue_2bandit_b.png","68","img/blue_2bandit_b.png","68","prac","","","","","","","","","","","","","","","","","","","",""
"null","37166","SARL_v6","SARL_v6981wa4m1","590208c89571f50001c666e3","fixation","","","img/fixation.png","null","","","prac","","","","","","","","","","","","","","","","","","","",""
"420.10000002384186","37588","SARL_v6","SARL_v6981wa4m1","590208c89571f50001c666e3","freqPrac","","","img/orange_2bandit_b2.png","70","img/orange_2bandit_b2.png","70","prac","1","1","","","","","","","","","","","","","","","","","",""
"420.10000002384186","37969","SARL_v6","SARL_v6981wa4m1","590208c89571f50001c666e3","freqPrac_resp","","","img/orange_2bandit_b.png","70","img/orange_2bandit_b.png","70","prac","","","","","","","","","","","","","","","","","","","",""
"null","38122","SARL_v6","SARL_v6981wa4m1","590208c89571f50001c666e3","fixation","","","img/fixation.png","null","","","prac","","","","","","","","","","","","","","","","","","","",""
"296.39999997615814","38420","SARL_v6","SARL_v6981wa4m1","590208c89571f50001c666e3","freqPrac","","","img/orange_2bandit_b2.png","70","img/orange_2bandit_b2.png","70","prac","1","1","","","","","","","","","","","","","","","","","",""
"296.39999997615814","38926","SARL_v6","SARL_v6981wa4m1","590208c89571f50001c666e3","freqPrac_resp","","","img/orange_2bandit_b.png","70","img/orange_2bandit_b.png","70","prac","","","","","","","","","","","","","","","","","","","",""
"null","39079","SARL_v6","SARL_v6981wa4m1","590208c89571f50001c666e3","fixation","","","img/fixation.png","null","","","prac","","","","","","","","","","","","","","","","","","","",""
"20835.700000047684","59916","SARL_v6","SARL_v6981wa4m1","590208c89571f50001c666e3","","","","","","","","prac","","","","","","","","","","","","","","","","","","","",""
"934.1000000238419","60852","SARL_v6","SARL_v6981wa4m1","590208c89571f50001c666e3","rlPractice","","","img/black_2bandit_b2.png","75","img/black_2bandit_b2.png","","prac","","","0","","","","","","","","","","","","","","","","",""
"null","61606","SARL_v6","SARL_v6981wa4m1","590208c89571f50001c666e3","feedback","","","<div class=""verylowPoints_sq""> -14 </div>","null","","na","prac","","","1","10","-14","10","","","","","","","","","","","","","",""
"null","61759","SARL_v6","SARL_v6981wa4m1","590208c89571f50001c666e3","fixation","","","img/fixation.png","null","","","prac","","","","","","","","","","","","","","","","","","","",""
"531.8000000715256","62292","SARL_v6","SARL_v6981wa4m1","590208c89571f50001c666e3","rlPractice","","","img/black_2bandit_b2.png","74","img/black_2bandit_b2.png","","prac","","","1","","","","","","","","","","","","","","","","",""
"null","63044","SARL_v6","SARL_v6981wa4m1","590208c89571f50001c666e3","feedback","","","<div class=""veryhighPoints""> 5 </div>","null","","na","prac","","","2","5","-5","5","","","","","","","","","","","","","",""
"null","63197","SARL_v6","SARL_v6981wa4m1","590208c89571f50001c666e3","fixation","","","img/fixation.png","null","","","prac","","","","","","","","","","","","","","","","","","","",""
"397.5","63596","SARL_v6","SARL_v6981wa4m1","590208c89571f50001c666e3","rlPractice","","","img/black_2bandit_b2.png","74","img/black_2bandit_b2.png","","prac","","","2","","","","","","","","","","","","","","","","",""
"null","64348","SARL_v6","SARL_v6981wa4m1","590208c89571f50001c666e3","feedback","","","<div class=""veryhighPoints""> 30 </div>","null","","na","prac","","","3","30","2","30","","","","","","","","","","","","","",""
"null","64501","SARL_v6","SARL_v6981wa4m1","590208c89571f50001c666e3","fixation","","","img/fixation.png","null","","","prac","","","","","","","","","","","","","","","","","","","",""
"326.2000000476837","64828","SARL_v6","SARL_v6981wa4m1","590208c89571f50001c666e3","rlPractice","","","img/black_2bandit_b2.png","74","img/black_2bandit_b2.png","","prac","","","3","","","","","","","","","","","","","","","","",""
"null","65581","SARL_v6","SARL_v6981wa4m1","590208c89571f50001c666e3","feedback","","","<div class=""verylowPoints""> -2 </div>","null","","na","prac","","","4","-2","20","-2","","","","","","","","","","","","","",""
"null","65734","SARL_v6","SARL_v6981wa4m1","590208c89571f50001c666e3","fixation","","","img/fixation.png","null","","","prac","","","","","","","","","","","","","","","","","","","",""
"6708.399999976158","72444","SARL_v6","SARL_v6981wa4m1","590208c89571f50001c666e3","","","","","","","","prac","","","","","","","","","","","","","","","","","","","",""
"null","73247","SARL_v6","SARL_v6981wa4m1","590208c89571f50001c666e3","mixAttFreqPrac","","","img/orange_2bandit_b2.png","null","img/orange_2bandit_b2.png","70","prac","","","1","","","","","","","","","","","","","","","","",""
"null","73399","SARL_v6","SARL_v6981wa4m1","590208c89571f50001c666e3","fixation","","","img/fixation.png","null","","","prac","","","","","","","","","","","","","","","","","","","",""
"179.5","73580","SARL_v6","SARL_v6981wa4m1","590208c89571f50001c666e3","mixAttInfreqPrac","","","img/blue_2bandit_b2.png","70","img/blue_2bandit_b2.png","68","prac","","","2","","","","","","","","","","","","","","","","",""
"179.5","74202","SARL_v6","SARL_v6981wa4m1","590208c89571f50001c666e3","infreqPrac_resp","","","img/blue_2bandit_b.png","70","img/orange_2bandit_b.png","68","prac","","","2","","","","","","","","","","","","","","","","",""
"null","74355","SARL_v6","SARL_v6981wa4m1","590208c89571f50001c666e3","fixation","","","img/fixation.png","null","","","prac","","","","","","","","","","","","","","","","","","","",""
"455.60000002384186","74812","SARL_v6","SARL_v6981wa4m1","590208c89571f50001c666e3","mixAttInfreqPrac","","","img/blue_2bandit_b2.png","68","img/blue_2bandit_b2.png","68","prac","","","3","","","","","","","","","","","","","","","","",""
"455.60000002384186","75159","SARL_v6","SARL_v6981wa4m1","590208c89571f50001c666e3","infreqPrac_resp","","","img/blue_2bandit_b.png","68","img/orange_2bandit_b.png","68","prac","","","3","","","","","","","","","","","","","","","","",""
"null","75312","SARL_v6","SARL_v6981wa4m1","590208c89571f50001c666e3","fixation","","","img/fixation.png","null","","","prac","","","","","","","","","","","","","","","","","","","",""
"387.10000002384186","75700","SARL_v6","SARL_v6981wa4m1","590208c89571f50001c666e3","mixAttInfreqPrac","","","img/blue_2bandit_b2.png","68","img/blue_2bandit_b2.png","68","prac","","","4","","","","","","","","","","","","","","","","",""
"387.10000002384186","76115","SARL_v6","SARL_v6981wa4m1","590208c89571f50001c666e3","infreqPrac_resp","","","img/blue_2bandit_b.png","68","img/orange_2bandit_b.png","68","prac","","","4","","","","","","","","","","","","","","","","",""
"null","76267","SARL_v6","SARL_v6981wa4m1","590208c89571f50001c666e3","fixation","","","img/fixation.png","null","","","prac","","","","","","","","","","","","","","","","","","","",""
"375.10000002384186","76644","SARL_v6","SARL_v6981wa4m1","590208c89571f50001c666e3","mixAttFreqPrac","","","img/orange_2bandit_b2.png","70","img/orange_2bandit_b2.png","70","prac","","","5","","","","","","","","","","","","","","","","",""
"375.10000002384186","77070","SARL_v6","SARL_v6981wa4m1","590208c89571f50001c666e3","freqPrac_resp","","","img/orange_2bandit_b.png","70","img/orange_2bandit_b.png","70","prac","","","5","","","","","","","","","","","","","","","","",""
"null","77222","SARL_v6","SARL_v6981wa4m1","590208c89571f50001c666e3","fixation","","","img/fixation.png","null","","","prac","","","","","","","","","","","","","","","","","","","",""
"1100.3999999761581","78324","SARL_v6","SARL_v6981wa4m1","590208c89571f50001c666e3","mixRLPractice","","","img/black_2bandit_b2.png","74","img/black_2bandit_b2.png","","prac","","","5","","","","","","","","","","","","","","","","",""
"null","79076","SARL_v6","SARL_v6981wa4m1","590208c89571f50001c666e3","feedback","","","<div class=""verylowPoints""> -14 </div>","null","","na","prac","","","6","-14","10","-14","","","","","","","","","","","","","",""
"null","79230","SARL_v6","SARL_v6981wa4m1","590208c89571f50001c666e3","fixation","","","img/fixation.png","null","","","prac","","","","","","","","","","","","","","","","","","","",""
"669.1000000238419","79900","SARL_v6","SARL_v6981wa4m1","590208c89571f50001c666e3","mixAttFreqPrac","","","img/orange_2bandit_b2.png","70","img/orange_2bandit_b2.png","70","prac","","","7","","","","","","","","","","","","","","","","",""
"669.1000000238419","80033","SARL_v6","SARL_v6981wa4m1","590208c89571f50001c666e3","freqPrac_resp","","","img/orange_2bandit_b.png","70","img/orange_2bandit_b.png","70","prac","","","7","","","","","","","","","","","","","","","","",""
"null","80184","SARL_v6","SARL_v6981wa4m1","590208c89571f50001c666e3","fixation","","","img/fixation.png","null","","","prac","","","","","","","","","","","","","","","","","","","",""
"634.2000000476837","80820","SARL_v6","SARL_v6981wa4m1","590208c89571f50001c666e3","mixAttInfreqPrac","","","img/blue_2bandit_b2.png","68","img/blue_2bandit_b2.png","68","prac","","","8","","","","","","","","","","","","","","","","",""
"634.2000000476837","80989","SARL_v6","SARL_v6981wa4m1","590208c89571f50001c666e3","infreqPrac_resp","","","img/blue_2bandit_b.png","68","img/orange_2bandit_b.png","68","prac","","","8","","","","","","","","","","","","","","","","",""
"null","81141","SARL_v6","SARL_v6981wa4m1","590208c89571f50001c666e3","fixation","","","img/fixation.png","null","","","prac","","","","","","","","","","","","","","","","","","","",""
"645.7000000476837","81788","SARL_v6","SARL_v6981wa4m1","590208c89571f50001c666e3","mixAttFreqPrac","","","img/orange_2bandit_b2.png","70","img/orange_2bandit_b2.png","70","prac","","","9","","","","","","","","","","","","","","","","",""
"645.7000000476837","81945","SARL_v6","SARL_v6981wa4m1","590208c89571f50001c666e3","freqPrac_resp","","","img/orange_2bandit_b.png","70","img/orange_2bandit_b.png","70","prac","","","9","","","","","","","","","","","","","","","","",""
"null","82098","SARL_v6","SARL_v6981wa4m1","590208c89571f50001c666e3","fixation","","","img/fixation.png","null","","","prac","","","","","","","","","","","","","","","","","","","",""
"320.5","82420","SARL_v6","SARL_v6981wa4m1","590208c89571f50001c666e3","mixAttFreqPrac","","","img/orange_2bandit_b2.png","70","img/orange_2bandit_b2.png","70","prac","","","10","","","","","","","","","","","","","","","","",""
"320.5","82903","SARL_v6","SARL_v6981wa4m1","590208c89571f50001c666e3","freqPrac_resp","","","img/orange_2bandit_b.png","70","img/orange_2bandit_b.png","70","prac","","","10","","","","","","","","","","","","","","","","",""
"null","83056","SARL_v6","SARL_v6981wa4m1","590208c89571f50001c666e3","fixation","","","img/fixation.png","null","","","prac","","","","","","","","","","","","","","","","","","","",""
"490.1999999284744","83548","SARL_v6","SARL_v6981wa4m1","590208c89571f50001c666e3","mixAttInfreqPrac","","","img/blue_2bandit_b2.png","68","img/blue_2bandit_b2.png","68","prac","","","11","","","","","","","","","","","","","","","","",""
"490.1999999284744","83860","SARL_v6","SARL_v6981wa4m1","590208c89571f50001c666e3","infreqPrac_resp","","","img/blue_2bandit_b.png","68","img/orange_2bandit_b.png","68","prac","","","11","","","","","","","","","","","","","","","","",""
"null","84013","SARL_v6","SARL_v6981wa4m1","590208c89571f50001c666e3","fixation","","","img/fixation.png","null","","","prac","","","","","","","","","","","","","","","","","","","",""
"813.7000000476837","84828","SARL_v6","SARL_v6981wa4m1","590208c89571f50001c666e3","mixRLPractice","","","img/black_2bandit_b2.png","75","img/black_2bandit_b2.png","","prac","","","11","","","","","","","","","","","","","","","","",""
"null","85581","SARL_v6","SARL_v6981wa4m1","590208c89571f50001c666e3","feedback","","","<div class=""verylowPoints_sq""> -5 </div>","null","","na","prac","","","12","5","-5","5","","","","","","","","","","","","","",""
"null","85734","SARL_v6","SARL_v6981wa4m1","590208c89571f50001c666e3","fixation","","","img/fixation.png","null","","","prac","","","","","","","","","","","","","","","","","","","",""
"5469.700000047684","91204","SARL_v6","SARL_v6981wa4m1","590208c89571f50001c666e3","","","","","","","","prac","","","","","","","","","","","","","","","","","","","",""
"null","92007","SARL_v6","SARL_v6981wa4m1","590208c89571f50001c666e3","freq","","","img/orange_2bandit_b2.png","null","","70","test","0","","1","","","","circle","square","1","1","1","0","","","","","","","",""
"null","92161","SARL_v6","SARL_v6981wa4m1","590208c89571f50001c666e3","fixation","","","img/fixation.png","null","","","test","","","","","","","","","","","","","","","","","","","",""
"425.6999999284744","92589","SARL_v6","SARL_v6981wa4m1","590208c89571f50001c666e3","freq","","","img/orange_2bandit_b2.png","70","","70","test","1","","2","","","","circle","square","2","2","1","0.5","","","","","","","",""
"null","92965","SARL_v6","SARL_v6981wa4m1","590208c89571f50001c666e3","freq_resp","","","img/orange_2bandit_b.png","70","img/orange_2bandit_b.png","70","test","","","","","","","","","","","1","","","","","","","","",""
"null","93117","SARL_v6","SARL_v6981wa4m1","590208c89571f50001c666e3","fixation","","","img/fixation.png","null","","","test","","","","","","","","","","","","","","","","","","","",""
"309.7999999523163","93428","SARL_v6","SARL_v6981wa4m1","590208c89571f50001c666e3","freq","","","img/orange_2bandit_b2.png","70","","70","test","1","","3","","","","circle","square","3","3","1","0.6666666666666666","","","","","","","",""
"null","93921","SARL_v6","SARL_v6981wa4m1","590208c89571f50001c666e3","freq_resp","","","img/orange_2bandit_b.png","70","img/orange_2bandit_b.png","70","test","","","","","","","","","","","1","","","","","","","","",""
"null","94074","SARL_v6","SARL_v6981wa4m1","590208c89571f50001c666e3","fixation","","","img/fixation.png","null","","","test","","","","","","","","","","","","","","","","","","","",""
"327.89999997615814","94404","SARL_v6","SARL_v6981wa4m1","590208c89571f50001c666e3","freq","","","img/orange_2bandit_b2.png","70","","70","test","1","","4","","","","circle","square","4","4","1","0.75","","","","","","","",""
"null","94879","SARL_v6","SARL_v6981wa4m1","590208c89571f50001c666e3","freq_resp","","","img/orange_2bandit_b.png","70","img/orange_2bandit_b.png","70","test","","","","","","","","","","","1","","","","","","","","",""
"null","95032","SARL_v6","SARL_v6981wa4m1","590208c89571f50001c666e3","fixation","","","img/fixation.png","null","","","test","","","","","","","","","","","","","","","","","","","",""
"306.2999999523163","95340","SARL_v6","SARL_v6981wa4m1","590208c89571f50001c666e3","freq","","","img/orange_2bandit_b2.png","70","","70","test","1","","5","","","","circle","square","5","5","1","0.8","","","","","","","",""
"null","95836","SARL_v6","SARL_v6981wa4m1","590208c89571f50001c666e3","freq_resp","","","img/orange_2bandit_b.png","70","img/orange_2bandit_b.png","70","test","","","","","","","","","","","1","","","","","","","","",""
"null","95989","SARL_v6","SARL_v6981wa4m1","590208c89571f50001c666e3","fixation","","","img/fixation.png","null","","","test","","","","","","","","","","","","","","","","","","","",""
"381.5","96372","SARL_v6","SARL_v6981wa4m1","590208c89571f50001c666e3","infreq","","","img/blue_2bandit_b2.png","68","","68","test","1","","6","","","","circle","square","6","6","1","0.8333333333333334","","","","","","","",""
"null","96793","SARL_v6","SARL_v6981wa4m1","590208c89571f50001c666e3","infreq_resp","","","img/blue_2bandit_b.png","68","img/blue_2bandit_b.png","68","test","","","","","","","","","","","1","","","","","","","","",""
"null","96945","SARL_v6","SARL_v6981wa4m1","590208c89571f50001c666e3","fixation","","","img/fixation.png","null","","","test","","","","","","","","","","","","","","","","","","","",""
"369.1999999284744","97316","SARL_v6","SARL_v6981wa4m1","590208c89571f50001c666e3","freq","","","img/orange_2bandit_b2.png","70","","70","test","1","","7","","","","circle","square","7","7","1","0.8571428571428571","","","","","","","",""
"null","97749","SARL_v6","SARL_v6981wa4m1","590208c89571f50001c666e3","freq_resp","","","img/orange_2bandit_b.png","70","img/orange_2bandit_b.png","70","test","","","","","","","","","","","1","","","","","","","","",""
"null","97902","SARL_v6","SARL_v6981wa4m1","590208c89571f50001c666e3","fixation","","","img/fixation.png","null","","","test","","","","","","","","","","","","","","","","","","","",""
"284.5","98188","SARL_v6","SARL_v6981wa4m1","590208c89571f50001c666e3","freq","","","img/orange_2bandit_b2.png","70","","70","test","1","","8","","","","circle","square","8","8","1","0.875","","","","","","","",""
"null","98706","SARL_v6","SARL_v6981wa4m1","590208c89571f50001c666e3","freq_resp","","","img/orange_2bandit_b.png","70","img/orange_2bandit_b.png","70","test","","","","","","","","","","","1","","","","","","","","",""
"null","98859","SARL_v6","SARL_v6981wa4m1","590208c89571f50001c666e3","fixation","","","img/fixation.png","null","","","test","","","","","","","","","","","","","","","","","","","",""
"271.6999999284744","99132","SARL_v6","SARL_v6981wa4m1","590208c89571f50001c666e3","freq","","","img/orange_2bandit_b2.png","70","","70","test","1","","9","","","","circle","square","9","9","1","0.8888888888888888","","","","","","","",""
"null","99663","SARL_v6","SARL_v6981wa4m1","590208c89571f50001c666e3","freq_resp","","","img/orange_2bandit_b.png","70","img/orange_2bandit_b.png","70","test","","","","","","","","","","","1","","","","","","","","",""
"null","99816","SARL_v6","SARL_v6981wa4m1","590208c89571f50001c666e3","fixation","","","img/fixation.png","null","","","test","","","","","","","","","","","","","","","","","","","",""
"282.5","100100","SARL_v6","SARL_v6981wa4m1","590208c89571f50001c666e3","freq","","","img/orange_2bandit_b2.png","70","","70","test","1","","10","","","","circle","square","10","10","1","0.9","","","","","","","",""
"null","100620","SARL_v6","SARL_v6981wa4m1","590208c89571f50001c666e3","freq_resp","","","img/orange_2bandit_b.png","70","img/orange_2bandit_b.png","70","test","","","","","","","","","","","1","","","","","","","","",""
"null","100773","SARL_v6","SARL_v6981wa4m1","590208c89571f50001c666e3","fixation","","","img/fixation.png","null","","","test","","","","","","","","","","","","","","","","","","","",""
"269.39999997615814","101044","SARL_v6","SARL_v6981wa4m1","590208c89571f50001c666e3","freq","","","img/orange_2bandit_b2.png","70","","70","test","1","","11","","","","circle","square","11","11","1","0.9090909090909091","","","","","","","",""
"null","101577","SARL_v6","SARL_v6981wa4m1","590208c89571f50001c666e3","freq_resp","","","img/orange_2bandit_b.png","70","img/orange_2bandit_b.png","70","test","","","","","","","","","","","1","","","","","","","","",""
"null","101729","SARL_v6","SARL_v6981wa4m1","590208c89571f50001c666e3","fixation","","","img/fixation.png","null","","","test","","","","","","","","","","","","","","","","","","","",""
"305.39999997615814","102036","SARL_v6","SARL_v6981wa4m1","590208c89571f50001c666e3","freq","","","img/orange_2bandit_b2.png","70","","70","test","1","","12","","","","circle","square","12","12","1","0.9166666666666666","","","","","","","",""
"null","102534","SARL_v6","SARL_v6981wa4m1","590208c89571f50001c666e3","freq_resp","","","img/orange_2bandit_b.png","70","img/orange_2bandit_b.png","70","test","","","","","","","","","","","1","","","","","","","","",""
"null","102686","SARL_v6","SARL_v6981wa4m1","590208c89571f50001c666e3","fixation","","","img/fixation.png","null","","","test","","","","","","","","","","","","","","","","","","","",""
"284.60000002384186","102972","SARL_v6","SARL_v6981wa4m1","590208c89571f50001c666e3","freq","","","img/orange_2bandit_b2.png","70","","70","test","1","","13","","","","circle","square","13","13","1","0.9230769230769231","","","","","","","",""
"null","103490","SARL_v6","SARL_v6981wa4m1","590208c89571f50001c666e3","freq_resp","","","img/orange_2bandit_b.png","70","img/orange_2bandit_b.png","70","test","","","","","","","","","","","1","","","","","","","","",""
"null","103642","SARL_v6","SARL_v6981wa4m1","590208c89571f50001c666e3","fixation","","","img/fixation.png","null","","","test","","","","","","","","","","","","","","","","","","","",""
"288.7000000476837","103932","SARL_v6","SARL_v6981wa4m1","590208c89571f50001c666e3","freq","","","img/orange_2bandit_b2.png","70","","70","test","1","","14","","","","circle","square","14","14","1","0.9285714285714286","","","","","","","",""
"null","104445","SARL_v6","SARL_v6981wa4m1","590208c89571f50001c666e3","freq_resp","","","img/orange_2bandit_b.png","70","img/orange_2bandit_b.png","70","test","","","","","","","","","","","1","","","","","","","","",""
"null","104599","SARL_v6","SARL_v6981wa4m1","590208c89571f50001c666e3","fixation","","","img/fixation.png","null","","","test","","","","","","","","","","","","","","","","","","","",""
"308","104908","SARL_v6","SARL_v6981wa4m1","590208c89571f50001c666e3","freq","","","img/orange_2bandit_b2.png","70","","70","test","1","","15","","","","circle","square","15","15","1","0.9333333333333333","","","","","","","",""
"null","105402","SARL_v6","SARL_v6981wa4m1","590208c89571f50001c666e3","freq_resp","","","img/orange_2bandit_b.png","70","img/orange_2bandit_b.png","70","test","","","","","","","","","","","1","","","","","","","","",""
"null","105555","SARL_v6","SARL_v6981wa4m1","590208c89571f50001c666e3","fixation","","","img/fixation.png","null","","","test","","","","","","","","","","","","","","","","","","","",""
"287.2999999523163","105844","SARL_v6","SARL_v6981wa4m1","590208c89571f50001c666e3","freq","","","img/orange_2bandit_b2.png","70","","70","test","1","","16","","","","circle","square","16","16","1","0.9375","","","","","","","",""
"null","106359","SARL_v6","SARL_v6981wa4m1","590208c89571f50001c666e3","freq_resp","","","img/orange_2bandit_b.png","70","img/orange_2bandit_b.png","70","test","","","","","","","","","","","1","","","","","","","","",""
"null","106512","SARL_v6","SARL_v6981wa4m1","590208c89571f50001c666e3","fixation","","","img/fixation.png","null","","","test","","","","","","","","","","","","","","","","","","","",""
"290.89999997615814","106804","SARL_v6","SARL_v6981wa4m1","590208c89571f50001c666e3","freq","","","img/orange_2bandit_b2.png","70","","70","test","1","","17","","","","circle","square","17","17","1","0.9411764705882353","","","","","","","",""
"null","107316","SARL_v6","SARL_v6981wa4m1","590208c89571f50001c666e3","freq_resp","","","img/orange_2bandit_b.png","70","img/orange_2bandit_b.png","70","test","","","","","","","","","","","1","","","","","","","","",""
"null","107469","SARL_v6","SARL_v6981wa4m1","590208c89571f50001c666e3","fixation","","","img/fixation.png","null","","","test","","","","","","","","","","","","","","","","","","","",""
"285.39999997615814","107756","SARL_v6","SARL_v6981wa4m1","590208c89571f50001c666e3","freq","","","img/orange_2bandit_b2.png","70","","70","test","1","","18","","","","circle","square","18","18","1","0.9444444444444444","","","","","","","",""
"null","108273","SARL_v6","SARL_v6981wa4m1","590208c89571f50001c666e3","freq_resp","","","img/orange_2bandit_b.png","70","img/orange_2bandit_b.png","70","test","","","","","","","","","","","1","","","","","","","","",""
"null","108427","SARL_v6","SARL_v6981wa4m1","590208c89571f50001c666e3","fixation","","","img/fixation.png","null","","","test","","","","","","","","","","","","","","","","","","","",""
"368","108796","SARL_v6","SARL_v6981wa4m1","590208c89571f50001c666e3","infreq","","","img/blue_2bandit_b2.png","68","","68","test","1","","19","","","","circle","square","19","19","1","0.9473684210526315","","","","","","","",""
"null","109231","SARL_v6","SARL_v6981wa4m1","590208c89571f50001c666e3","infreq_resp","","","img/blue_2bandit_b.png","68","img/blue_2bandit_b.png","68","test","","","","","","","","","","","1","","","","","","","","",""
"null","109384","SARL_v6","SARL_v6981wa4m1","590208c89571f50001c666e3","fixation","","","img/fixation.png","null","","","test","","","","","","","","","","","","","","","","","","","",""
"378.60000002384186","109764","SARL_v6","SARL_v6981wa4m1","590208c89571f50001c666e3","freq","","","img/orange_2bandit_b2.png","70","","70","test","1","","20","","","","circle","square","20","20","1","0.95","","","","","","","",""
"null","110188","SARL_v6","SARL_v6981wa4m1","590208c89571f50001c666e3","freq_resp","","","img/orange_2bandit_b.png","70","img/orange_2bandit_b.png","70","test","","","","","","","","","","","1","","","","","","","","",""
"null","110340","SARL_v6","SARL_v6981wa4m1","590208c89571f50001c666e3","fixation","","","img/fixation.png","null","","","test","","","","","","","","","","","","","","","","","","","",""
"278.60000002384186","110620","SARL_v6","SARL_v6981wa4m1","590208c89571f50001c666e3","freq","","","img/orange_2bandit_b2.png","70","","70","test","1","","21","","","","circle","square","21","21","1","0.9523809523809523","","","","","","","",""
"null","111144","SARL_v6","SARL_v6981wa4m1","590208c89571f50001c666e3","freq_resp","","","img/orange_2bandit_b.png","70","img/orange_2bandit_b.png","70","test","","","","","","","","","","","1","","","","","","","","",""
"null","111297","SARL_v6","SARL_v6981wa4m1","590208c89571f50001c666e3","fixation","","","img/fixation.png","null","","","test","","","","","","","","","","","","","","","","","","","",""
"265.89999997615814","111564","SARL_v6","SARL_v6981wa4m1","590208c89571f50001c666e3","freq","","","img/orange_2bandit_b2.png","70","","70","test","1","","22","","","","circle","square","22","22","1","0.9545454545454546","","","","","","","",""
"null","112101","SARL_v6","SARL_v6981wa4m1","590208c89571f50001c666e3","freq_resp","","","img/orange_2bandit_b.png","70","img/orange_2bandit_b.png","70","test","","","","","","","","","","","1","","","","","","","","",""
"null","112254","SARL_v6","SARL_v6981wa4m1","590208c89571f50001c666e3","fixation","","","img/fixation.png","null","","","test","","","","","","","","","","","","","","","","","","","",""
"308.5","112564","SARL_v6","SARL_v6981wa4m1","590208c89571f50001c666e3","freq","","","img/orange_2bandit_b2.png","70","","70","test","1","","23","","","","circle","square","23","23","1","0.9565217391304348","","","","","","","",""
"null","113057","SARL_v6","SARL_v6981wa4m1","590208c89571f50001c666e3","freq_resp","","","img/orange_2bandit_b.png","70","img/orange_2bandit_b.png","70","test","","","","","","","","","","","1","","","","","","","","",""
"null","113210","SARL_v6","SARL_v6981wa4m1","590208c89571f50001c666e3","fixation","","","img/fixation.png","null","","","test","","","","","","","","","","","","","","","","","","","",""
"328.5","113540","SARL_v6","SARL_v6981wa4m1","590208c89571f50001c666e3","freq","","","img/orange_2bandit_b2.png","70","","70","test","1","","24","","","","circle","square","24","24","1","0.9583333333333334","","","","","","","",""
"null","114013","SARL_v6","SARL_v6981wa4m1","590208c89571f50001c666e3","freq_resp","","","img/orange_2bandit_b.png","70","img/orange_2bandit_b.png","70","test","","","","","","","","","","","1","","","","","","","","",""
"null","114165","SARL_v6","SARL_v6981wa4m1","590208c89571f50001c666e3","fixation","","","img/fixation.png","null","","","test","","","","","","","","","","","","","","","","","","","",""
"405.2000000476837","114572","SARL_v6","SARL_v6981wa4m1","590208c89571f50001c666e3","freq","","","img/orange_2bandit_b2.png","70","","70","test","1","","25","","","","circle","square","25","25","1","0.96","","","","","","","",""
"null","114967","SARL_v6","SARL_v6981wa4m1","590208c89571f50001c666e3","freq_resp","","","img/orange_2bandit_b.png","70","img/orange_2bandit_b.png","70","test","","","","","","","","","","","1","","","","","","","","",""
"null","115120","SARL_v6","SARL_v6981wa4m1","590208c89571f50001c666e3","fixation","","","img/fixation.png","null","","","test","","","","","","","","","","","","","","","","","","","",""
"322.10000002384186","115444","SARL_v6","SARL_v6981wa4m1","590208c89571f50001c666e3","freq","","","img/orange_2bandit_b2.png","70","","70","test","1","","26","","","","circle","square","26","26","1","0.9615384615384616","","","","","","","",""
"null","115924","SARL_v6","SARL_v6981wa4m1","590208c89571f50001c666e3","freq_resp","","","img/orange_2bandit_b.png","70","img/orange_2bandit_b.png","70","test","","","","","","","","","","","1","","","","","","","","",""
"null","116078","SARL_v6","SARL_v6981wa4m1","590208c89571f50001c666e3","fixation","","","img/fixation.png","null","","","test","","","","","","","","","","","","","","","","","","","",""
"668.3000000715256","116748","SARL_v6","SARL_v6981wa4m1","590208c89571f50001c666e3","rl","","","img/black_2bandit_b2.png","74","","0","test","","","27","","","-3","circle","square","","0","1","","74","-3","-3","-3","-3","circle","1","0"
"null","117500","SARL_v6","SARL_v6981wa4m1","590208c89571f50001c666e3","feedback","","","<div class=""verylowPoints""> -3 </div>","null","","na","test","","","NaN","","","","","","","","1","","74","","","","","","1",""
"405.5","117908","SARL_v6","SARL_v6981wa4m1","590208c89571f50001c666e3","freq","","","img/orange_2bandit_b2.png","70","","70","test","1","","28","","","","circle","square","27","1","2","0.9629629629629629","","","","","","","",""
"null","118304","SARL_v6","SARL_v6981wa4m1","590208c89571f50001c666e3","freq_resp","","","img/orange_2bandit_b.png","70","img/orange_2bandit_b.png","70","test","","","","","","","","","","","2","","","","","","","","",""
"null","118457","SARL_v6","SARL_v6981wa4m1","590208c89571f50001c666e3","fixation","","","img/fixation.png","null","","","test","","","","","","","","","","","","","","","","","","","",""
"257.2999999523163","118716","SARL_v6","SARL_v6981wa4m1","590208c89571f50001c666e3","freq","","","img/orange_2bandit_b2.png","70","","70","test","1","","29","","","","circle","square","28","2","2","0.9642857142857143","","","","","","","",""
"null","119261","SARL_v6","SARL_v6981wa4m1","590208c89571f50001c666e3","freq_resp","","","img/orange_2bandit_b.png","70","img/orange_2bandit_b.png","70","test","","","","","","","","","","","2","","","","","","","","",""
"null","119413","SARL_v6","SARL_v6981wa4m1","590208c89571f50001c666e3","fixation","","","img/fixation.png","null","","","test","","","","","","","","","","","","","","","","","","","",""
"292.89999997615814","119708","SARL_v6","SARL_v6981wa4m1","590208c89571f50001c666e3","freq","","","img/orange_2bandit_b2.png","70","","70","test","1","","30","","","","circle","square","29","3","2","0.9655172413793104","","","","","","","",""
"null","120218","SARL_v6","SARL_v6981wa4m1","590208c89571f50001c666e3","freq_resp","","","img/orange_2bandit_b.png","70","img/orange_2bandit_b.png","70","test","","","","","","","","","","","2","","","","","","","","",""
"null","120371","SARL_v6","SARL_v6981wa4m1","590208c89571f50001c666e3","fixation","","","img/fixation.png","null","","","test","","","","","","","","","","","","","","","","","","","",""
"271.10000002384186","120644","SARL_v6","SARL_v6981wa4m1","590208c89571f50001c666e3","freq","","","img/orange_2bandit_b2.png","70","","70","test","1","","31","","","","circle","square","30","4","2","0.9666666666666667","","","","","","","",""
"null","121174","SARL_v6","SARL_v6981wa4m1","590208c89571f50001c666e3","freq_resp","","","img/orange_2bandit_b.png","70","img/orange_2bandit_b.png","70","test","","","","","","","","","","","2","","","","","","","","",""
"null","121327","SARL_v6","SARL_v6981wa4m1","590208c89571f50001c666e3","fixation","","","img/fixation.png","null","","","test","","","","","","","","","","","","","","","","","","","",""
"243.39999997615814","121572","SARL_v6","SARL_v6981wa4m1","590208c89571f50001c666e3","freq","","","img/orange_2bandit_b2.png","70","","70","test","1","","32","","","","circle","square","31","5","2","0.967741935483871","","","","","","","",""
"null","122130","SARL_v6","SARL_v6981wa4m1","590208c89571f50001c666e3","freq_resp","","","img/orange_2bandit_b.png","70","img/orange_2bandit_b.png","70","test","","","","","","","","","","","2","","","","","","","","",""
"null","122283","SARL_v6","SARL_v6981wa4m1","590208c89571f50001c666e3","fixation","","","img/fixation.png","null","","","test","","","","","","","","","","","","","","","","","","","",""
"143.39999997615814","122428","SARL_v6","SARL_v6981wa4m1","590208c89571f50001c666e3","freq","","","img/orange_2bandit_b2.png","70","","70","test","1","","33","","","","circle","square","32","6","2","0.96875","","","","","","","",""
"null","123087","SARL_v6","SARL_v6981wa4m1","590208c89571f50001c666e3","freq_resp","","","img/orange_2bandit_b.png","70","img/orange_2bandit_b.png","70","test","","","","","","","","","","","2","","","","","","","","",""
"null","123240","SARL_v6","SARL_v6981wa4m1","590208c89571f50001c666e3","fixation","","","img/fixation.png","null","","","test","","","","","","","","","","","","","","","","","","","",""
"226.39999997615814","123468","SARL_v6","SARL_v6981wa4m1","590208c89571f50001c666e3","freq","","","img/orange_2bandit_b2.png","70","","70","test","1","","34","","","","circle","square","33","7","2","0.9696969696969697","","","","","","","",""
"null","124044","SARL_v6","SARL_v6981wa4m1","590208c89571f50001c666e3","freq_resp","","","img/orange_2bandit_b.png","70","img/orange_2bandit_b.png","70","test","","","","","","","","","","","2","","","","","","","","",""
"null","124197","SARL_v6","SARL_v6981wa4m1","590208c89571f50001c666e3","fixation","","","img/fixation.png","null","","","test","","","","","","","","","","","","","","","","","","","",""
"213.10000002384186","124412","SARL_v6","SARL_v6981wa4m1","590208c89571f50001c666e3","freq","","","img/orange_2bandit_b2.png","70","","70","test","1","","35","","","","circle","square","34","8","2","0.9705882352941176","","","","","","","",""
"null","125001","SARL_v6","SARL_v6981wa4m1","590208c89571f50001c666e3","freq_resp","","","img/orange_2bandit_b.png","70","img/orange_2bandit_b.png","70","test","","","","","","","","","","","2","","","","","","","","",""
"null","125153","SARL_v6","SARL_v6981wa4m1","590208c89571f50001c666e3","fixation","","","img/fixation.png","null","","","test","","","","","","","","","","","","","","","","","","","",""
"489.2999999523163","125644","SARL_v6","SARL_v6981wa4m1","590208c89571f50001c666e3","infreq","","","img/blue_2bandit_b2.png","68","","68","test","1","","36","","","","circle","square","35","9","2","0.9714285714285714","","","","","","","",""
"null","125957","SARL_v6","SARL_v6981wa4m1","590208c89571f50001c666e3","infreq_resp","","","img/blue_2bandit_b.png","68","img/blue_2bandit_b.png","68","test","","","","","","","","","","","2","","","","","","","","",""
"null","126111","SARL_v6","SARL_v6981wa4m1","590208c89571f50001c666e3","fixation","","","img/fixation.png","null","","","test","","","","","","","","","","","","","","","","","","","",""
"43.60000002384186","126156","SARL_v6","SARL_v6981wa4m1","590208c89571f50001c666e3","freq","","","img/orange_2bandit_b2.png","68","","70","test","0","","37","","","","circle","square","36","10","2","0.9444444444444444","","","","","","","",""
"null","126914","SARL_v6","SARL_v6981wa4m1","590208c89571f50001c666e3","freq_resp","","","img/orange_2bandit_b.png","68","img/orange_2bandit_b.png","70","test","","","","","","","","","","","2","","","","","","","","",""
"null","127068","SARL_v6","SARL_v6981wa4m1","590208c89571f50001c666e3","fixation","","","img/fixation.png","null","","","test","","","","","","","","","","","","","","","","","","","",""
"350.39999997615814","127420","SARL_v6","SARL_v6981wa4m1","590208c89571f50001c666e3","freq","","","img/orange_2bandit_b2.png","70","","70","test","1","","38","","","","circle","square","37","11","2","0.9459459459459459","","","","","","","",""
"null","127871","SARL_v6","SARL_v6981wa4m1","590208c89571f50001c666e3","freq_resp","","","img/orange_2bandit_b.png","70","img/orange_2bandit_b.png","70","test","","","","","","","","","","","2","","","","","","","","",""
"null","128024","SARL_v6","SARL_v6981wa4m1","590208c89571f50001c666e3","fixation","","","img/fixation.png","null","","","test","","","","","","","","","","","","","","","","","","","",""
"282.2999999523163","128308","SARL_v6","SARL_v6981wa4m1","590208c89571f50001c666e3","freq","","","img/orange_2bandit_b2.png","70","","70","test","1","","39","","","","circle","square","38","12","2","0.9473684210526315","","","","","","","",""
"null","128827","SARL_v6","SARL_v6981wa4m1","590208c89571f50001c666e3","freq_resp","","","img/orange_2bandit_b.png","70","img/orange_2bandit_b.png","70","test","","","","","","","","","","","2","","","","","","","","",""
"null","128980","SARL_v6","SARL_v6981wa4m1","590208c89571f50001c666e3","fixation","","","img/fixation.png","null","","","test","","","","","","","","","","","","","","","","","","","",""
"261.7999999523163","129244","SARL_v6","SARL_v6981wa4m1","590208c89571f50001c666e3","freq","","","img/orange_2bandit_b2.png","70","","70","test","1","","40","","","","circle","square","39","13","2","0.9487179487179487","","","","","","","",""
"null","129784","SARL_v6","SARL_v6981wa4m1","590208c89571f50001c666e3","freq_resp","","","img/orange_2bandit_b.png","70","img/orange_2bandit_b.png","70","test","","","","","","","","","","","2","","","","","","","","",""
"null","129936","SARL_v6","SARL_v6981wa4m1","590208c89571f50001c666e3","fixation","","","img/fixation.png","null","","","test","","","","","","","","","","","","","","","","","","","",""
"282.10000002384186","130220","SARL_v6","SARL_v6981wa4m1","590208c89571f50001c666e3","freq","","","img/orange_2bandit_b2.png","70","","70","test","1","","41","","","","circle","square","40","14","2","0.95","","","","","","","",""
"null","130740","SARL_v6","SARL_v6981wa4m1","590208c89571f50001c666e3","freq_resp","","","img/orange_2bandit_b.png","70","img/orange_2bandit_b.png","70","test","","","","","","","","","","","2","","","","","","","","",""
"null","130893","SARL_v6","SARL_v6981wa4m1","590208c89571f50001c666e3","fixation","","","img/fixation.png","null","","","test","","","","","","","","","","","","","","","","","","","",""
"197.20000004768372","131092","SARL_v6","SARL_v6981wa4m1","590208c89571f50001c666e3","freq","","","img/orange_2bandit_b2.png","70","","70","test","1","","42","","","","circle","square","41","15","2","0.9512195121951219","","","","","","","",""
"null","131697","SARL_v6","SARL_v6981wa4m1","590208c89571f50001c666e3","freq_resp","","","img/orange_2bandit_b.png","70","img/orange_2bandit_b.png","70","test","","","","","","","","","","","2","","","","","","","","",""
"null","131849","SARL_v6","SARL_v6981wa4m1","590208c89571f50001c666e3","fixation","","","img/fixation.png","null","","","test","","","","","","","","","","","","","","","","","","","",""
"241.60000002384186","132092","SARL_v6","SARL_v6981wa4m1","590208c89571f50001c666e3","freq","","","img/orange_2bandit_b2.png","70","","70","test","1","","43","","","","circle","square","42","16","2","0.9523809523809523","","","","","","","",""
"null","132653","SARL_v6","SARL_v6981wa4m1","590208c89571f50001c666e3","freq_resp","","","img/orange_2bandit_b.png","70","img/orange_2bandit_b.png","70","test","","","","","","","","","","","2","","","","","","","","",""
"null","132805","SARL_v6","SARL_v6981wa4m1","590208c89571f50001c666e3","fixation","","","img/fixation.png","null","","","test","","","","","","","","","","","","","","","","","","","",""
"469.2999999523163","133276","SARL_v6","SARL_v6981wa4m1","590208c89571f50001c666e3","infreq","","","img/blue_2bandit_b2.png","68","","68","test","1","","44","","","","circle","square","43","17","2","0.9534883720930233","","","","","","","",""
"null","133608","SARL_v6","SARL_v6981wa4m1","590208c89571f50001c666e3","infreq_resp","","","img/blue_2bandit_b.png","68","img/blue_2bandit_b.png","68","test","","","","","","","","","","","2","","","","","","","","",""
"null","133760","SARL_v6","SARL_v6981wa4m1","590208c89571f50001c666e3","fixation","","","img/fixation.png","null","","","test","","","","","","","","","","","","","","","","","","","",""
"337.89999997615814","134100","SARL_v6","SARL_v6981wa4m1","590208c89571f50001c666e3","infreq","","","img/blue_2bandit_b2.png","68","","68","test","1","","45","","","","circle","square","44","18","2","0.9545454545454546","","","","","","","",""
"null","134563","SARL_v6","SARL_v6981wa4m1","590208c89571f50001c666e3","infreq_resp","","","img/blue_2bandit_b.png","68","img/blue_2bandit_b.png","68","test","","","","","","","","","","","2","","","","","","","","",""
"null","134716","SARL_v6","SARL_v6981wa4m1","590208c89571f50001c666e3","fixation","","","img/fixation.png","null","","","test","","","","","","","","","","","","","","","","","","","",""
"350.3000000715256","135068","SARL_v6","SARL_v6981wa4m1","590208c89571f50001c666e3","freq","","","img/orange_2bandit_b2.png","70","","70","test","1","","46","","","","circle","square","45","19","2","0.9555555555555556","","","","","","","",""
"null","135519","SARL_v6","SARL_v6981wa4m1","590208c89571f50001c666e3","freq_resp","","","img/orange_2bandit_b.png","70","img/orange_2bandit_b.png","70","test","","","","","","","","","","","2","","","","","","","","",""
"null","135671","SARL_v6","SARL_v6981wa4m1","590208c89571f50001c666e3","fixation","","","img/fixation.png","null","","","test","","","","","","","","","","","","","","","","","","","",""
"282.89999997615814","135956","SARL_v6","SARL_v6981wa4m1","590208c89571f50001c666e3","freq","","","img/orange_2bandit_b2.png","70","","70","test","1","","47","","","","circle","square","46","20","2","0.9565217391304348","","","","","","","",""
"null","136475","SARL_v6","SARL_v6981wa4m1","590208c89571f50001c666e3","freq_resp","","","img/orange_2bandit_b.png","70","img/orange_2bandit_b.png","70","test","","","","","","","","","","","2","","","","","","","","",""
"null","136628","SARL_v6","SARL_v6981wa4m1","590208c89571f50001c666e3","fixation","","","img/fixation.png","null","","","test","","","","","","","","","","","","","","","","","","","",""
"286.2999999523163","136916","SARL_v6","SARL_v6981wa4m1","590208c89571f50001c666e3","freq","","","img/orange_2bandit_b2.png","70","","70","test","1","","48","","","","circle","square","47","21","2","0.9574468085106383","","","","","","","",""
"null","137431","SARL_v6","SARL_v6981wa4m1","590208c89571f50001c666e3","freq_resp","","","img/orange_2bandit_b.png","70","img/orange_2bandit_b.png","70","test","","","","","","","","","","","2","","","","","","","","",""
"null","137585","SARL_v6","SARL_v6981wa4m1","590208c89571f50001c666e3","fixation","","","img/fixation.png","null","","","test","","","","","","","","","","","","","","","","","","","",""
"521.5","138108","SARL_v6","SARL_v6981wa4m1","590208c89571f50001c666e3","rl","","","img/black_2bandit_b2.png","74","","0","test","","","49","","","-8","circle","square","","0","2","","74","-8","-5","-8","-5","circle","2","0"
"null","138860","SARL_v6","SARL_v6981wa4m1","590208c89571f50001c666e3","feedback","","","<div class=""verylowPoints""> -8 </div>","null","","na","test","","","NaN","","","","","","","","2","","74","","","","","","2",""
"357.7000000476837","139220","SARL_v6","SARL_v6981wa4m1","590208c89571f50001c666e3","freq","","","img/orange_2bandit_b2.png","70","","70","test","1","","50","","","","circle","square","48","1","3","0.9583333333333334","","","","","","","",""
"null","139665","SARL_v6","SARL_v6981wa4m1","590208c89571f50001c666e3","freq_resp","","","img/orange_2bandit_b.png","70","img/orange_2bandit_b.png","70","test","","","","","","","","","","","3","","","","","","","","",""
"null","139817","SARL_v6","SARL_v6981wa4m1","590208c89571f50001c666e3","fixation","","","img/fixation.png","null","","","test","","","","","","","","","","","","","","","","","","","",""
"256.89999997615814","140076","SARL_v6","SARL_v6981wa4m1","590208c89571f50001c666e3","freq","","","img/orange_2bandit_b2.png","70","","70","test","1","","51","","","","circle","square","49","2","3","0.9591836734693877","","","","","","","",""
"null","140622","SARL_v6","SARL_v6981wa4m1","590208c89571f50001c666e3","freq_resp","","","img/orange_2bandit_b.png","70","img/orange_2bandit_b.png","70","test","","","","","","","","","","","3","","","","","","","","",""
"null","140775","SARL_v6","SARL_v6981wa4m1","590208c89571f50001c666e3","fixation","","","img/fixation.png","null","","","test","","","","","","","","","","","","","","","","","","","",""
"267.10000002384186","141044","SARL_v6","SARL_v6981wa4m1","590208c89571f50001c666e3","freq","","","img/orange_2bandit_b2.png","70","","70","test","1","","52","","","","circle","square","50","3","3","0.96","","","","","","","",""
"null","141578","SARL_v6","SARL_v6981wa4m1","590208c89571f50001c666e3","freq_resp","","","img/orange_2bandit_b.png","70","img/orange_2bandit_b.png","70","test","","","","","","","","","","","3","","","","","","","","",""
"null","141731","SARL_v6","SARL_v6981wa4m1","590208c89571f50001c666e3","fixation","","","img/fixation.png","null","","","test","","","","","","","","","","","","","","","","","","","",""
"295.60000002384186","142028","SARL_v6","SARL_v6981wa4m1","590208c89571f50001c666e3","freq","","","img/orange_2bandit_b2.png","70","","70","test","1","","53","","","","circle","square","51","4","3","0.9607843137254902","","","","","","","",""
"null","142536","SARL_v6","SARL_v6981wa4m1","590208c89571f50001c666e3","freq_resp","","","img/orange_2bandit_b.png","70","img/orange_2bandit_b.png","70","test","","","","","","","","","","","3","","","","","","","","",""
"null","142691","SARL_v6","SARL_v6981wa4m1","590208c89571f50001c666e3","fixation","","","img/fixation.png","null","","","test","","","","","","","","","","","","","","","","","","","",""
"270.7999999523163","142964","SARL_v6","SARL_v6981wa4m1","590208c89571f50001c666e3","freq","","","img/orange_2bandit_b2.png","70","","70","test","1","","54","","","","circle","square","52","5","3","0.9615384615384616","","","","","","","",""
"null","143496","SARL_v6","SARL_v6981wa4m1","590208c89571f50001c666e3","freq_resp","","","img/orange_2bandit_b.png","70","img/orange_2bandit_b.png","70","test","","","","","","","","","","","3","","","","","","","","",""
"null","143649","SARL_v6","SARL_v6981wa4m1","590208c89571f50001c666e3","fixation","","","img/fixation.png","null","","","test","","","","","","","","","","","","","","","","","","","",""
"233.60000002384186","143884","SARL_v6","SARL_v6981wa4m1","590208c89571f50001c666e3","freq","","","img/orange_2bandit_b2.png","70","","70","test","1","","55","","","","circle","square","53","6","3","0.9622641509433962","","","","","","","",""
"null","144453","SARL_v6","SARL_v6981wa4m1","590208c89571f50001c666e3","freq_resp","","","img/orange_2bandit_b.png","70","img/orange_2bandit_b.png","70","test","","","","","","","","","","","3","","","","","","","","",""
"null","144606","SARL_v6","SARL_v6981wa4m1","590208c89571f50001c666e3","fixation","","","img/fixation.png","null","","","test","","","","","","","","","","","","","","","","","","","",""
"252.30000007152557","144860","SARL_v6","SARL_v6981wa4m1","590208c89571f50001c666e3","freq","","","img/orange_2bandit_b2.png","70","","70","test","1","","56","","","","circle","square","54","7","3","0.9629629629629629","","","","","","","",""
"null","145411","SARL_v6","SARL_v6981wa4m1","590208c89571f50001c666e3","freq_resp","","","img/orange_2bandit_b.png","70","img/orange_2bandit_b.png","70","test","","","","","","","","","","","3","","","","","","","","",""
"null","145564","SARL_v6","SARL_v6981wa4m1","590208c89571f50001c666e3","fixation","","","img/fixation.png","null","","","test","","","","","","","","","","","","","","","","","","","",""
"246.69999992847443","145812","SARL_v6","SARL_v6981wa4m1","590208c89571f50001c666e3","freq","","","img/orange_2bandit_b2.png","70","","70","test","1","","57","","","","circle","square","55","8","3","0.9636363636363636","","","","","","","",""
"null","146368","SARL_v6","SARL_v6981wa4m1","590208c89571f50001c666e3","freq_resp","","","img/orange_2bandit_b.png","70","img/orange_2bandit_b.png","70","test","","","","","","","","","","","3","","","","","","","","",""
"null","146521","SARL_v6","SARL_v6981wa4m1","590208c89571f50001c666e3","fixation","","","img/fixation.png","null","","","test","","","","","","","","","","","","","","","","","","","",""
"281","146804","SARL_v6","SARL_v6981wa4m1","590208c89571f50001c666e3","freq","","","img/orange_2bandit_b2.png","70","","70","test","1","","58","","","","circle","square","56","9","3","0.9642857142857143","","","","","","","",""
"null","147325","SARL_v6","SARL_v6981wa4m1","590208c89571f50001c666e3","freq_resp","","","img/orange_2bandit_b.png","70","img/orange_2bandit_b.png","70","test","","","","","","","","","","","3","","","","","","","","",""
"null","147479","SARL_v6","SARL_v6981wa4m1","590208c89571f50001c666e3","fixation","","","img/fixation.png","null","","","test","","","","","","","","","","","","","","","","","","","",""
"371.39999997615814","147852","SARL_v6","SARL_v6981wa4m1","590208c89571f50001c666e3","infreq","","","img/blue_2bandit_b2.png","68","","68","test","1","","59","","","","circle","square","57","10","3","0.9649122807017544","","","","","","","",""
"null","148283","SARL_v6","SARL_v6981wa4m1","590208c89571f50001c666e3","infreq_resp","","","img/blue_2bandit_b.png","68","img/blue_2bandit_b.png","68","test","","","","","","","","","","","3","","","","","","","","",""
"null","148435","SARL_v6","SARL_v6981wa4m1","590208c89571f50001c666e3","fixation","","","img/fixation.png","null","","","test","","","","","","","","","","","","","","","","","","","",""
"294.8000000715256","148732","SARL_v6","SARL_v6981wa4m1","590208c89571f50001c666e3","infreq","","","img/blue_2bandit_b2.png","68","","68","test","1","","60","","","","circle","square","58","11","3","0.9655172413793104","","","","","","","",""
"null","149240","SARL_v6","SARL_v6981wa4m1","590208c89571f50001c666e3","infreq_resp","","","img/blue_2bandit_b.png","68","img/blue_2bandit_b.png","68","test","","","","","","","","","","","3","","","","","","","","",""
"null","149393","SARL_v6","SARL_v6981wa4m1","590208c89571f50001c666e3","fixation","","","img/fixation.png","null","","","test","","","","","","","","","","","","","","","","","","","",""
"353","149748","SARL_v6","SARL_v6981wa4m1","590208c89571f50001c666e3","freq","","","img/orange_2bandit_b2.png","70","","70","test","1","","61","","","","circle","square","59","12","3","0.9661016949152542","","","","","","","",""
"null","150197","SARL_v6","SARL_v6981wa4m1","590208c89571f50001c666e3","freq_resp","","","img/orange_2bandit_b.png","70","img/orange_2bandit_b.png","70","test","","","","","","","","","","","3","","","","","","","","",""
"null","150349","SARL_v6","SARL_v6981wa4m1","590208c89571f50001c666e3","fixation","","","img/fixation.png","null","","","test","","","","","","","","","","","","","","","","","","","",""
"260.60000002384186","150612","SARL_v6","SARL_v6981wa4m1","590208c89571f50001c666e3","freq","","","img/orange_2bandit_b2.png","70","","70","test","1","","62","","","","circle","square","60","13","3","0.9666666666666667","","","","","","","",""
"null","151153","SARL_v6","SARL_v6981wa4m1","590208c89571f50001c666e3","freq_resp","","","img/orange_2bandit_b.png","70","img/orange_2bandit_b.png","70","test","","","","","","","","","","","3","","","","","","","","",""
"null","151305","SARL_v6","SARL_v6981wa4m1","590208c89571f50001c666e3","fixation","","","img/fixation.png","null","","","test","","","","","","","","","","","","","","","","","","","",""
"297.1999999284744","151605","SARL_v6","SARL_v6981wa4m1","590208c89571f50001c666e3","freq","","","img/orange_2bandit_b2.png","70","","70","test","1","","63","","","","circle","square","61","14","3","0.9672131147540983","","","","","","","",""
"null","152110","SARL_v6","SARL_v6981wa4m1","590208c89571f50001c666e3","freq_resp","","","img/orange_2bandit_b.png","70","img/orange_2bandit_b.png","70","test","","","","","","","","","","","3","","","","","","","","",""
"null","152262","SARL_v6","SARL_v6981wa4m1","590208c89571f50001c666e3","fixation","","","img/fixation.png","null","","","test","","","","","","","","","","","","","","","","","","","",""
"283.8000000715256","152548","SARL_v6","SARL_v6981wa4m1","590208c89571f50001c666e3","freq","","","img/orange_2bandit_b2.png","70","","70","test","1","","64","","","","circle","square","62","15","3","0.967741935483871","","","","","","","",""
"null","153067","SARL_v6","SARL_v6981wa4m1","590208c89571f50001c666e3","freq_resp","","","img/orange_2bandit_b.png","70","img/orange_2bandit_b.png","70","test","","","","","","","","","","","3","","","","","","","","",""
"null","153220","SARL_v6","SARL_v6981wa4m1","590208c89571f50001c666e3","fixation","","","img/fixation.png","null","","","test","","","","","","","","","","","","","","","","","","","",""
"261.89999997615814","153484","SARL_v6","SARL_v6981wa4m1","590208c89571f50001c666e3","freq","","","img/orange_2bandit_b2.png","70","","70","test","1","","65","","","","circle","square","63","16","3","0.9682539682539683","","","","","","","",""
"null","154025","SARL_v6","SARL_v6981wa4m1","590208c89571f50001c666e3","freq_resp","","","img/orange_2bandit_b.png","70","img/orange_2bandit_b.png","70","test","","","","","","","","","","","3","","","","","","","","",""
"null","154178","SARL_v6","SARL_v6981wa4m1","590208c89571f50001c666e3","fixation","","","img/fixation.png","null","","","test","","","","","","","","","","","","","","","","","","","",""
"264.5","154444","SARL_v6","SARL_v6981wa4m1","590208c89571f50001c666e3","freq","","","img/orange_2bandit_b2.png","70","","70","test","1","","66","","","","circle","square","64","17","3","0.96875","","","","","","","",""
"null","154981","SARL_v6","SARL_v6981wa4m1","590208c89571f50001c666e3","freq_resp","","","img/orange_2bandit_b.png","70","img/orange_2bandit_b.png","70","test","","","","","","","","","","","3","","","","","","","","",""
"null","155133","SARL_v6","SARL_v6981wa4m1","590208c89571f50001c666e3","fixation","","","img/fixation.png","null","","","test","","","","","","","","","","","","","","","","","","","",""
"284.8000000715256","155420","SARL_v6","SARL_v6981wa4m1","590208c89571f50001c666e3","freq","","","img/orange_2bandit_b2.png","70","","70","test","1","","67","","","","circle","square","65","18","3","0.9692307692307692","","","","","","","",""
"null","155938","SARL_v6","SARL_v6981wa4m1","590208c89571f50001c666e3","freq_resp","","","img/orange_2bandit_b.png","70","img/orange_2bandit_b.png","70","test","","","","","","","","","","","3","","","","","","","","",""
"null","156090","SARL_v6","SARL_v6981wa4m1","590208c89571f50001c666e3","fixation","","","img/fixation.png","null","","","test","","","","","","","","","","","","","","","","","","","",""
"240.29999995231628","156332","SARL_v6","SARL_v6981wa4m1","590208c89571f50001c666e3","freq","","","img/orange_2bandit_b2.png","70","","70","test","1","","68","","","","circle","square","66","19","3","0.9696969696969697","","","","","","","",""
"null","156894","SARL_v6","SARL_v6981wa4m1","590208c89571f50001c666e3","freq_resp","","","img/orange_2bandit_b.png","70","img/orange_2bandit_b.png","70","test","","","","","","","","","","","3","","","","","","","","",""
"null","157048","SARL_v6","SARL_v6981wa4m1","590208c89571f50001c666e3","fixation","","","img/fixation.png","null","","","test","","","","","","","","","","","","","","","","","","","",""
"250","157300","SARL_v6","SARL_v6981wa4m1","590208c89571f50001c666e3","freq","","","img/orange_2bandit_b2.png","70","","70","test","1","","69","","","","circle","square","67","20","3","0.9701492537313433","","","","","","","",""
"null","157853","SARL_v6","SARL_v6981wa4m1","590208c89571f50001c666e3","freq_resp","","","img/orange_2bandit_b.png","70","img/orange_2bandit_b.png","70","test","","","","","","","","","","","3","","","","","","","","",""
"null","158006","SARL_v6","SARL_v6981wa4m1","590208c89571f50001c666e3","fixation","","","img/fixation.png","null","","","test","","","","","","","","","","","","","","","","","","","",""
"276.39999997615814","158284","SARL_v6","SARL_v6981wa4m1","590208c89571f50001c666e3","freq","","","img/orange_2bandit_b2.png","70","","70","test","1","","70","","","","circle","square","68","21","3","0.9705882352941176","","","","","","","",""
"null","158809","SARL_v6","SARL_v6981wa4m1","590208c89571f50001c666e3","freq_resp","","","img/orange_2bandit_b.png","70","img/orange_2bandit_b.png","70","test","","","","","","","","","","","3","","","","","","","","",""
"null","158963","SARL_v6","SARL_v6981wa4m1","590208c89571f50001c666e3","fixation","","","img/fixation.png","null","","","test","","","","","","","","","","","","","","","","","","","",""
"591.3999999761581","159556","SARL_v6","SARL_v6981wa4m1","590208c89571f50001c666e3","rl","","","img/black_2bandit_b2.png","75","","0","test","","","71","","","-4","circle","square","","0","3","","75","-8","-4","-8","-4","square","3","0"
"null","160308","SARL_v6","SARL_v6981wa4m1","590208c89571f50001c666e3","feedback","","","<div class=""verylowPoints_sq""> -4 </div>","null","","na","test","","","NaN","","","","","","","","3","","75","","","","","","3",""
"557.8000000715256","160868","SARL_v6","SARL_v6981wa4m1","590208c89571f50001c666e3","freq","","","img/orange_2bandit_b2.png","70","","70","test","1","","72","","","","circle","square","69","1","4","0.9710144927536232","","","","","","","",""
"null","161112","SARL_v6","SARL_v6981wa4m1","590208c89571f50001c666e3","freq_resp","","","img/orange_2bandit_b.png","70","img/orange_2bandit_b.png","70","test","","","","","","","","","","","4","","","","","","","","",""
"null","161264","SARL_v6","SARL_v6981wa4m1","590208c89571f50001c666e3","fixation","","","img/fixation.png","null","","","test","","","","","","","","","","","","","","","","","","","",""
"322.5","161588","SARL_v6","SARL_v6981wa4m1","590208c89571f50001c666e3","freq","","","img/orange_2bandit_b2.png","70","","70","test","1","","73","","","","circle","square","70","2","4","0.9714285714285714","","","","","","","",""
"null","162067","SARL_v6","SARL_v6981wa4m1","590208c89571f50001c666e3","freq_resp","","","img/orange_2bandit_b.png","70","img/orange_2bandit_b.png","70","test","","","","","","","","","","","4","","","","","","","","",""
"null","162220","SARL_v6","SARL_v6981wa4m1","590208c89571f50001c666e3","fixation","","","img/fixation.png","null","","","test","","","","","","","","","","","","","","","","","","","",""
"278","162500","SARL_v6","SARL_v6981wa4m1","590208c89571f50001c666e3","freq","","","img/orange_2bandit_b2.png","70","","70","test","1","","74","","","","circle","square","71","3","4","0.971830985915493","","","","","","","",""
"null","163024","SARL_v6","SARL_v6981wa4m1","590208c89571f50001c666e3","freq_resp","","","img/orange_2bandit_b.png","70","img/orange_2bandit_b.png","70","test","","","","","","","","","","","4","","","","","","","","",""
"null","163178","SARL_v6","SARL_v6981wa4m1","590208c89571f50001c666e3","fixation","","","img/fixation.png","null","","","test","","","","","","","","","","","","","","","","","","","",""
"288.5","163468","SARL_v6","SARL_v6981wa4m1","590208c89571f50001c666e3","freq","","","img/orange_2bandit_b2.png","70","","70","test","1","","75","","","","circle","square","72","4","4","0.9722222222222222","","","","","","","",""
"null","163982","SARL_v6","SARL_v6981wa4m1","590208c89571f50001c666e3","freq_resp","","","img/orange_2bandit_b.png","70","img/orange_2bandit_b.png","70","test","","","","","","","","","","","4","","","","","","","","",""
"null","164135","SARL_v6","SARL_v6981wa4m1","590208c89571f50001c666e3","fixation","","","img/fixation.png","null","","","test","","","","","","","","","","","","","","","","","","","",""
"283","164420","SARL_v6","SARL_v6981wa4m1","590208c89571f50001c666e3","freq","","","img/orange_2bandit_b2.png","70","","70","test","1","","76","","","","circle","square","73","5","4","0.9726027397260274","","","","","","","",""
"null","164939","SARL_v6","SARL_v6981wa4m1","590208c89571f50001c666e3","freq_resp","","","img/orange_2bandit_b.png","70","img/orange_2bandit_b.png","70","test","","","","","","","","","","","4","","","","","","","","",""
"null","165093","SARL_v6","SARL_v6981wa4m1","590208c89571f50001c666e3","fixation","","","img/fixation.png","null","","","test","","","","","","","","","","","","","","","","","","","",""
"325.10000002384186","165420","SARL_v6","SARL_v6981wa4m1","590208c89571f50001c666e3","freq","","","img/orange_2bandit_b2.png","70","","70","test","1","","77","","","","circle","square","74","6","4","0.972972972972973","","","","","","","",""
"null","165896","SARL_v6","SARL_v6981wa4m1","590208c89571f50001c666e3","freq_resp","","","img/orange_2bandit_b.png","70","img/orange_2bandit_b.png","70","test","","","","","","","","","","","4","","","","","","","","",""
"null","166050","SARL_v6","SARL_v6981wa4m1","590208c89571f50001c666e3","fixation","","","img/fixation.png","null","","","test","","","","","","","","","","","","","","","","","","","",""
"409.2000000476837","166460","SARL_v6","SARL_v6981wa4m1","590208c89571f50001c666e3","infreq","","","img/blue_2bandit_b2.png","68","","68","test","1","","78","","","","circle","square","75","7","4","0.9733333333333334","","","","","","","",""
"null","166853","SARL_v6","SARL_v6981wa4m1","590208c89571f50001c666e3","infreq_resp","","","img/blue_2bandit_b.png","68","img/blue_2bandit_b.png","68","test","","","","","","","","","","","4","","","","","","","","",""
"null","167006","SARL_v6","SARL_v6981wa4m1","590208c89571f50001c666e3","fixation","","","img/fixation.png","null","","","test","","","","","","","","","","","","","","","","","","","",""
"379.89999997615814","167388","SARL_v6","SARL_v6981wa4m1","590208c89571f50001c666e3","freq","","","img/orange_2bandit_b2.png","70","","70","test","1","","79","","","","circle","square","76","8","4","0.9736842105263158","","","","","","","",""
"null","167810","SARL_v6","SARL_v6981wa4m1","590208c89571f50001c666e3","freq_resp","","","img/orange_2bandit_b.png","70","img/orange_2bandit_b.png","70","test","","","","","","","","","","","4","","","","","","","","",""
"null","167963","SARL_v6","SARL_v6981wa4m1","590208c89571f50001c666e3","fixation","","","img/fixation.png","null","","","test","","","","","","","","","","","","","","","","","","","",""
"303.2999999523163","168268","SARL_v6","SARL_v6981wa4m1","590208c89571f50001c666e3","freq","","","img/orange_2bandit_b2.png","70","","70","test","1","","80","","","","circle","square","77","9","4","0.974025974025974","","","","","","","",""
"null","168767","SARL_v6","SARL_v6981wa4m1","590208c89571f50001c666e3","freq_resp","","","img/orange_2bandit_b.png","70","img/orange_2bandit_b.png","70","test","","","","","","","","","","","4","","","","","","","","",""
"null","168918","SARL_v6","SARL_v6981wa4m1","590208c89571f50001c666e3","fixation","","","img/fixation.png","null","","","test","","","","","","","","","","","","","","","","","","","",""
"283.7000000476837","169204","SARL_v6","SARL_v6981wa4m1","590208c89571f50001c666e3","freq","","","img/orange_2bandit_b2.png","70","","70","test","1","","81","","","","circle","square","78","10","4","0.9743589743589743","","","","","","","",""
"null","169723","SARL_v6","SARL_v6981wa4m1","590208c89571f50001c666e3","freq_resp","","","img/orange_2bandit_b.png","70","img/orange_2bandit_b.png","70","test","","","","","","","","","","","4","","","","","","","","",""
"null","169876","SARL_v6","SARL_v6981wa4m1","590208c89571f50001c666e3","fixation","","","img/fixation.png","null","","","test","","","","","","","","","","","","","","","","","","","",""
"334","170213","SARL_v6","SARL_v6981wa4m1","590208c89571f50001c666e3","freq","","","img/orange_2bandit_b2.png","70","","70","test","1","","82","","","","circle","square","79","11","4","0.9746835443037974","","","","","","","",""
"null","170681","SARL_v6","SARL_v6981wa4m1","590208c89571f50001c666e3","freq_resp","","","img/orange_2bandit_b.png","70","img/orange_2bandit_b.png","70","test","","","","","","","","","","","4","","","","","","","","",""
"null","170834","SARL_v6","SARL_v6981wa4m1","590208c89571f50001c666e3","fixation","","","img/fixation.png","null","","","test","","","","","","","","","","","","","","","","","","","",""
"280.5","171116","SARL_v6","SARL_v6981wa4m1","590208c89571f50001c666e3","freq","","","img/orange_2bandit_b2.png","70","","70","test","1","","83","","","","circle","square","80","12","4","0.975","","","","","","","",""
"null","171637","SARL_v6","SARL_v6981wa4m1","590208c89571f50001c666e3","freq_resp","","","img/orange_2bandit_b.png","70","img/orange_2bandit_b.png","70","test","","","","","","","","","","","4","","","","","","","","",""
"null","171791","SARL_v6","SARL_v6981wa4m1","590208c89571f50001c666e3","fixation","","","img/fixation.png","null","","","test","","","","","","","","","","","","","","","","","","","",""
"274.89999997615814","172068","SARL_v6","SARL_v6981wa4m1","590208c89571f50001c666e3","freq","","","img/orange_2bandit_b2.png","70","","70","test","1","","84","","","","circle","square","81","13","4","0.9753086419753086","","","","","","","",""
"null","172596","SARL_v6","SARL_v6981wa4m1","590208c89571f50001c666e3","freq_resp","","","img/orange_2bandit_b.png","70","img/orange_2bandit_b.png","70","test","","","","","","","","","","","4","","","","","","","","",""
"null","172748","SARL_v6","SARL_v6981wa4m1","590208c89571f50001c666e3","fixation","","","img/fixation.png","null","","","test","","","","","","","","","","","","","","","","","","","",""
"478.39999997615814","173229","SARL_v6","SARL_v6981wa4m1","590208c89571f50001c666e3","infreq","","","img/blue_2bandit_b2.png","68","","68","test","1","","85","","","","circle","square","82","14","4","0.975609756097561","","","","","","","",""
"null","173552","SARL_v6","SARL_v6981wa4m1","590208c89571f50001c666e3","infreq_resp","","","img/blue_2bandit_b.png","68","img/blue_2bandit_b.png","68","test","","","","","","","","","","","4","","","","","","","","",""
"null","173705","SARL_v6","SARL_v6981wa4m1","590208c89571f50001c666e3","fixation","","","img/fixation.png","null","","","test","","","","","","","","","","","","","","","","","","","",""
"417.60000002384186","174124","SARL_v6","SARL_v6981wa4m1","590208c89571f50001c666e3","freq","","","img/orange_2bandit_b2.png","70","","70","test","1","","86","","","","circle","square","83","15","4","0.9759036144578314","","","","","","","",""
"null","174509","SARL_v6","SARL_v6981wa4m1","590208c89571f50001c666e3","freq_resp","","","img/orange_2bandit_b.png","70","img/orange_2bandit_b.png","70","test","","","","","","","","","","","4","","","","","","","","",""
"null","174662","SARL_v6","SARL_v6981wa4m1","590208c89571f50001c666e3","fixation","","","img/fixation.png","null","","","test","","","","","","","","","","","","","","","","","","","",""
"268.3000000715256","174932","SARL_v6","SARL_v6981wa4m1","590208c89571f50001c666e3","freq","","","img/orange_2bandit_b2.png","70","","70","test","1","","87","","","","circle","square","84","16","4","0.9761904761904762","","","","","","","",""
"null","175465","SARL_v6","SARL_v6981wa4m1","590208c89571f50001c666e3","freq_resp","","","img/orange_2bandit_b.png","70","img/orange_2bandit_b.png","70","test","","","","","","","","","","","4","","","","","","","","",""
"null","175619","SARL_v6","SARL_v6981wa4m1","590208c89571f50001c666e3","fixation","","","img/fixation.png","null","","","test","","","","","","","","","","","","","","","","","","","",""
"320.10000002384186","175940","SARL_v6","SARL_v6981wa4m1","590208c89571f50001c666e3","freq","","","img/orange_2bandit_b2.png","70","","70","test","1","","88","","","","circle","square","85","17","4","0.9764705882352941","","","","","","","",""
"null","176421","SARL_v6","SARL_v6981wa4m1","590208c89571f50001c666e3","freq_resp","","","img/orange_2bandit_b.png","70","img/orange_2bandit_b.png","70","test","","","","","","","","","","","4","","","","","","","","",""
"null","176575","SARL_v6","SARL_v6981wa4m1","590208c89571f50001c666e3","fixation","","","img/fixation.png","null","","","test","","","","","","","","","","","","","","","","","","","",""
"268.10000002384186","176845","SARL_v6","SARL_v6981wa4m1","590208c89571f50001c666e3","freq","","","img/orange_2bandit_b2.png","70","","70","test","1","","89","","","","circle","square","86","18","4","0.9767441860465116","","","","","","","",""
"null","177378","SARL_v6","SARL_v6981wa4m1","590208c89571f50001c666e3","freq_resp","","","img/orange_2bandit_b.png","70","img/orange_2bandit_b.png","70","test","","","","","","","","","","","4","","","","","","","","",""
"null","177531","SARL_v6","SARL_v6981wa4m1","590208c89571f50001c666e3","fixation","","","img/fixation.png","null","","","test","","","","","","","","","","","","","","","","","","","",""
"239.89999997615814","177772","SARL_v6","SARL_v6981wa4m1","590208c89571f50001c666e3","freq","","","img/orange_2bandit_b2.png","70","","70","test","1","","90","","","","circle","square","87","19","4","0.9770114942528736","","","","","","","",""
"null","178334","SARL_v6","SARL_v6981wa4m1","590208c89571f50001c666e3","freq_resp","","","img/orange_2bandit_b.png","70","img/orange_2bandit_b.png","70","test","","","","","","","","","","","4","","","","","","","","",""
"null","178488","SARL_v6","SARL_v6981wa4m1","590208c89571f50001c666e3","fixation","","","img/fixation.png","null","","","test","","","","","","","","","","","","","","","","","","","",""
"258.8000000715256","178748","SARL_v6","SARL_v6981wa4m1","590208c89571f50001c666e3","freq","","","img/orange_2bandit_b2.png","70","","70","test","1","","91","","","","circle","square","88","20","4","0.9772727272727273","","","","","","","",""
"null","179291","SARL_v6","SARL_v6981wa4m1","590208c89571f50001c666e3","freq_resp","","","img/orange_2bandit_b.png","70","img/orange_2bandit_b.png","70","test","","","","","","","","","","","4","","","","","","","","",""
"null","179443","SARL_v6","SARL_v6981wa4m1","590208c89571f50001c666e3","fixation","","","img/fixation.png","null","","","test","","","","","","","","","","","","","","","","","","","",""
"287.39999997615814","179732","SARL_v6","SARL_v6981wa4m1","590208c89571f50001c666e3","freq","","","img/orange_2bandit_b2.png","70","","70","test","1","","92","","","","circle","square","89","21","4","0.9775280898876404","","","","","","","",""
"null","180247","SARL_v6","SARL_v6981wa4m1","590208c89571f50001c666e3","freq_resp","","","img/orange_2bandit_b.png","70","img/orange_2bandit_b.png","70","test","","","","","","","","","","","4","","","","","","","","",""
"null","180399","SARL_v6","SARL_v6981wa4m1","590208c89571f50001c666e3","fixation","","","img/fixation.png","null","","","test","","","","","","","","","","","","","","","","","","","",""
"547.2999999523163","180948","SARL_v6","SARL_v6981wa4m1","590208c89571f50001c666e3","rl","","","img/black_2bandit_b2.png","75","","0","test","","","93","","","0","circle","square","","0","4","","75","-12","0","-12","0","square","4","0"
"null","181701","SARL_v6","SARL_v6981wa4m1","590208c89571f50001c666e3","feedback","","","<div class=""verylowPoints_sq""> 0 </div>","null","","na","test","","","NaN","","","","","","","","4","","75","","","","","","4",""
"469.3000000715256","182172","SARL_v6","SARL_v6981wa4m1","590208c89571f50001c666e3","freq","","","img/orange_2bandit_b2.png","70","","70","test","1","","94","","","","circle","square","90","1","5","0.9777777777777777","","","","","","","",""
"null","182505","SARL_v6","SARL_v6981wa4m1","590208c89571f50001c666e3","freq_resp","","","img/orange_2bandit_b.png","70","img/orange_2bandit_b.png","70","test","","","","","","","","","","","5","","","","","","","","",""
"null","182658","SARL_v6","SARL_v6981wa4m1","590208c89571f50001c666e3","fixation","","","img/fixation.png","null","","","test","","","","","","","","","","","","","","","","","","","",""
"256.5","182916","SARL_v6","SARL_v6981wa4m1","590208c89571f50001c666e3","freq","","","img/orange_2bandit_b2.png","70","","70","test","1","","95","","","","circle","square","91","2","5","0.978021978021978","","","","","","","",""
"null","183462","SARL_v6","SARL_v6981wa4m1","590208c89571f50001c666e3","freq_resp","","","img/orange_2bandit_b.png","70","img/orange_2bandit_b.png","70","test","","","","","","","","","","","5","","","","","","","","",""
"null","183615","SARL_v6","SARL_v6981wa4m1","590208c89571f50001c666e3","fixation","","","img/fixation.png","null","","","test","","","","","","","","","","","","","","","","","","","",""
"315.8000000715256","183932","SARL_v6","SARL_v6981wa4m1","590208c89571f50001c666e3","freq","","","img/orange_2bandit_b2.png","70","","70","test","1","","96","","","","circle","square","92","3","5","0.9782608695652174","","","","","","","",""
"null","184419","SARL_v6","SARL_v6981wa4m1","590208c89571f50001c666e3","freq_resp","","","img/orange_2bandit_b.png","70","img/orange_2bandit_b.png","70","test","","","","","","","","","","","5","","","","","","","","",""
"null","184572","SARL_v6","SARL_v6981wa4m1","590208c89571f50001c666e3","fixation","","","img/fixation.png","null","","","test","","","","","","","","","","","","","","","","","","","",""
"334.60000002384186","184908","SARL_v6","SARL_v6981wa4m1","590208c89571f50001c666e3","freq","","","img/orange_2bandit_b2.png","70","","70","test","1","","97","","","","circle","square","93","4","5","0.978494623655914","","","","","","","",""
"null","185376","SARL_v6","SARL_v6981wa4m1","590208c89571f50001c666e3","freq_resp","","","img/orange_2bandit_b.png","70","img/orange_2bandit_b.png","70","test","","","","","","","","","","","5","","","","","","","","",""
"null","185529","SARL_v6","SARL_v6981wa4m1","590208c89571f50001c666e3","fixation","","","img/fixation.png","null","","","test","","","","","","","","","","","","","","","","","","","",""
"457.5","185988","SARL_v6","SARL_v6981wa4m1","590208c89571f50001c666e3","infreq","","","img/blue_2bandit_b2.png","68","","68","test","1","","98","","","","circle","square","94","5","5","0.9787234042553191","","","","","","","",""
"null","186333","SARL_v6","SARL_v6981wa4m1","590208c89571f50001c666e3","infreq_resp","","","img/blue_2bandit_b.png","68","img/blue_2bandit_b.png","68","test","","","","","","","","","","","5","","","","","","","","",""
"null","186487","SARL_v6","SARL_v6981wa4m1","590208c89571f50001c666e3","fixation","","","img/fixation.png","null","","","test","","","","","","","","","","","","","","","","","","","",""
"348.10000002384186","186836","SARL_v6","SARL_v6981wa4m1","590208c89571f50001c666e3","infreq","","","img/blue_2bandit_b2.png","68","","68","test","1","","99","","","","circle","square","95","6","5","0.9789473684210527","","","","","","","",""
"null","187290","SARL_v6","SARL_v6981wa4m1","590208c89571f50001c666e3","infreq_resp","","","img/blue_2bandit_b.png","68","img/blue_2bandit_b.png","68","test","","","","","","","","","","","5","","","","","","","","",""
"null","187443","SARL_v6","SARL_v6981wa4m1","590208c89571f50001c666e3","fixation","","","img/fixation.png","null","","","test","","","","","","","","","","","","","","","","","","","",""
"351.89999997615814","187797","SARL_v6","SARL_v6981wa4m1","590208c89571f50001c666e3","freq","","","img/orange_2bandit_b2.png","70","","70","test","1","","100","","","","circle","square","96","7","5","0.9791666666666666","","","","","","","",""
"null","188249","SARL_v6","SARL_v6981wa4m1","590208c89571f50001c666e3","freq_resp","","","img/orange_2bandit_b.png","70","img/orange_2bandit_b.png","70","test","","","","","","","","","","","5","","","","","","","","",""
"null","188401","SARL_v6","SARL_v6981wa4m1","590208c89571f50001c666e3","fixation","","","img/fixation.png","null","","","test","","","","","","","","","","","","","","","","","","","",""
"273.7000000476837","188676","SARL_v6","SARL_v6981wa4m1","590208c89571f50001c666e3","freq","","","img/orange_2bandit_b2.png","70","","70","test","1","","101","","","","circle","square","97","8","5","0.979381443298969","","","","","","","",""
"null","189205","SARL_v6","SARL_v6981wa4m1","590208c89571f50001c666e3","freq_resp","","","img/orange_2bandit_b.png","70","img/orange_2bandit_b.png","70","test","","","","","","","","","","","5","","","","","","","","",""
"null","189358","SARL_v6","SARL_v6981wa4m1","590208c89571f50001c666e3","fixation","","","img/fixation.png","null","","","test","","","","","","","","","","","","","","","","","","","",""
"268.59999990463257","189628","SARL_v6","SARL_v6981wa4m1","590208c89571f50001c666e3","freq","","","img/orange_2bandit_b2.png","70","","70","test","1","","102","","","","circle","square","98","9","5","0.9795918367346939","","","","","","","",""
"null","190162","SARL_v6","SARL_v6981wa4m1","590208c89571f50001c666e3","freq_resp","","","img/orange_2bandit_b.png","70","img/orange_2bandit_b.png","70","test","","","","","","","","","","","5","","","","","","","","",""
"null","190316","SARL_v6","SARL_v6981wa4m1","590208c89571f50001c666e3","fixation","","","img/fixation.png","null","","","test","","","","","","","","","","","","","","","","","","","",""
"294.7000000476837","190612","SARL_v6","SARL_v6981wa4m1","590208c89571f50001c666e3","freq","","","img/orange_2bandit_b2.png","70","","70","test","1","","103","","","","circle","square","99","10","5","0.9797979797979798","","","","","","","",""
"null","191120","SARL_v6","SARL_v6981wa4m1","590208c89571f50001c666e3","freq_resp","","","img/orange_2bandit_b.png","70","img/orange_2bandit_b.png","70","test","","","","","","","","","","","5","","","","","","","","",""
"null","191273","SARL_v6","SARL_v6981wa4m1","590208c89571f50001c666e3","fixation","","","img/fixation.png","null","","","test","","","","","","","","","","","","","","","","","","","",""
"305.5","191580","SARL_v6","SARL_v6981wa4m1","590208c89571f50001c666e3","freq","","","img/orange_2bandit_b2.png","70","","70","test","1","","104","","","","circle","square","100","11","5","0.98","","","","","","","",""
"null","192076","SARL_v6","SARL_v6981wa4m1","590208c89571f50001c666e3","freq_resp","","","img/orange_2bandit_b.png","70","img/orange_2bandit_b.png","70","test","","","","","","","","","","","5","","","","","","","","",""
"null","192229","SARL_v6","SARL_v6981wa4m1","590208c89571f50001c666e3","fixation","","","img/fixation.png","null","","","test","","","","","","","","","","","","","","","","","","","",""
"293.7000000476837","192525","SARL_v6","SARL_v6981wa4m1","590208c89571f50001c666e3","freq","","","img/orange_2bandit_b2.png","70","","70","test","1","","105","","","","circle","square","101","12","5","0.9801980198019802","","","","","","","",""
"null","193034","SARL_v6","SARL_v6981wa4m1","590208c89571f50001c666e3","freq_resp","","","img/orange_2bandit_b.png","70","img/orange_2bandit_b.png","70","test","","","","","","","","","","","5","","","","","","","","",""
"null","193187","SARL_v6","SARL_v6981wa4m1","590208c89571f50001c666e3","fixation","","","img/fixation.png","null","","","test","","","","","","","","","","","","","","","","","","","",""
"272.10000002384186","193460","SARL_v6","SARL_v6981wa4m1","590208c89571f50001c666e3","freq","","","img/orange_2bandit_b2.png","70","","70","test","1","","106","","","","circle","square","102","13","5","0.9803921568627451","","","","","","","",""
"null","193990","SARL_v6","SARL_v6981wa4m1","590208c89571f50001c666e3","freq_resp","","","img/orange_2bandit_b.png","70","img/orange_2bandit_b.png","70","test","","","","","","","","","","","5","","","","","","","","",""
"null","194142","SARL_v6","SARL_v6981wa4m1","590208c89571f50001c666e3","fixation","","","img/fixation.png","null","","","test","","","","","","","","","","","","","","","","","","","",""
"269","194412","SARL_v6","SARL_v6981wa4m1","590208c89571f50001c666e3","freq","","","img/orange_2bandit_b2.png","70","","70","test","1","","107","","","","circle","square","103","14","5","0.9805825242718447","","","","","","","",""
"null","194946","SARL_v6","SARL_v6981wa4m1","590208c89571f50001c666e3","freq_resp","","","img/orange_2bandit_b.png","70","img/orange_2bandit_b.png","70","test","","","","","","","","","","","5","","","","","","","","",""
"null","195098","SARL_v6","SARL_v6981wa4m1","590208c89571f50001c666e3","fixation","","","img/fixation.png","null","","","test","","","","","","","","","","","","","","","","","","","",""
"288.10000002384186","195388","SARL_v6","SARL_v6981wa4m1","590208c89571f50001c666e3","freq","","","img/orange_2bandit_b2.png","70","","70","test","1","","108","","","","circle","square","104","15","5","0.9807692307692307","","","","","","","",""
"null","195902","SARL_v6","SARL_v6981wa4m1","590208c89571f50001c666e3","freq_resp","","","img/orange_2bandit_b.png","70","img/orange_2bandit_b.png","70","test","","","","","","","","","","","5","","","","","","","","",""
"null","196054","SARL_v6","SARL_v6981wa4m1","590208c89571f50001c666e3","fixation","","","img/fixation.png","null","","","test","","","","","","","","","","","","","","","","","","","",""
"292.5","196348","SARL_v6","SARL_v6981wa4m1","590208c89571f50001c666e3","freq","","","img/orange_2bandit_b2.png","70","","70","test","1","","109","","","","circle","square","105","16","5","0.9809523809523809","","","","","","","",""
"null","196858","SARL_v6","SARL_v6981wa4m1","590208c89571f50001c666e3","freq_resp","","","img/orange_2bandit_b.png","70","img/orange_2bandit_b.png","70","test","","","","","","","","","","","5","","","","","","","","",""
"null","197011","SARL_v6","SARL_v6981wa4m1","590208c89571f50001c666e3","fixation","","","img/fixation.png","null","","","test","","","","","","","","","","","","","","","","","","","",""
"295.40000009536743","197309","SARL_v6","SARL_v6981wa4m1","590208c89571f50001c666e3","freq","","","img/orange_2bandit_b2.png","70","","70","test","1","","110","","","","circle","square","106","17","5","0.9811320754716981","","","","","","","",""
"null","197816","SARL_v6","SARL_v6981wa4m1","590208c89571f50001c666e3","freq_resp","","","img/orange_2bandit_b.png","70","img/orange_2bandit_b.png","70","test","","","","","","","","","","","5","","","","","","","","",""
"null","197968","SARL_v6","SARL_v6981wa4m1","590208c89571f50001c666e3","fixation","","","img/fixation.png","null","","","test","","","","","","","","","","","","","","","","","","","",""
"291","198261","SARL_v6","SARL_v6981wa4m1","590208c89571f50001c666e3","freq","","","img/orange_2bandit_b2.png","70","","70","test","1","","111","","","","circle","square","107","18","5","0.9813084112149533","","","","","","","",""
"null","198773","SARL_v6","SARL_v6981wa4m1","590208c89571f50001c666e3","freq_resp","","","img/orange_2bandit_b.png","70","img/orange_2bandit_b.png","70","test","","","","","","","","","","","5","","","","","","","","",""
"null","198926","SARL_v6","SARL_v6981wa4m1","590208c89571f50001c666e3","fixation","","","img/fixation.png","null","","","test","","","","","","","","","","","","","","","","","","","",""
"268.6999999284744","199196","SARL_v6","SARL_v6981wa4m1","590208c89571f50001c666e3","freq","","","img/orange_2bandit_b2.png","70","","70","test","1","","112","","","","circle","square","108","19","5","0.9814814814814815","","","","","","","",""
"null","199730","SARL_v6","SARL_v6981wa4m1","590208c89571f50001c666e3","freq_resp","","","img/orange_2bandit_b.png","70","img/orange_2bandit_b.png","70","test","","","","","","","","","","","5","","","","","","","","",""
"null","199882","SARL_v6","SARL_v6981wa4m1","590208c89571f50001c666e3","fixation","","","img/fixation.png","null","","","test","","","","","","","","","","","","","","","","","","","",""
"312.3000000715256","200196","SARL_v6","SARL_v6981wa4m1","590208c89571f50001c666e3","freq","","","img/orange_2bandit_b2.png","70","","70","test","1","","113","","","","circle","square","109","20","5","0.981651376146789","","","","","","","",""
"null","200686","SARL_v6","SARL_v6981wa4m1","590208c89571f50001c666e3","freq_resp","","","img/orange_2bandit_b.png","70","img/orange_2bandit_b.png","70","test","","","","","","","","","","","5","","","","","","","","",""
"null","200838","SARL_v6","SARL_v6981wa4m1","590208c89571f50001c666e3","fixation","","","img/fixation.png","null","","","test","","","","","","","","","","","","","","","","","","","",""
"308.8000000715256","201148","SARL_v6","SARL_v6981wa4m1","590208c89571f50001c666e3","freq","","","img/orange_2bandit_b2.png","70","","70","test","1","","114","","","","circle","square","110","21","5","0.9818181818181818","","","","","","","",""
"null","201641","SARL_v6","SARL_v6981wa4m1","590208c89571f50001c666e3","freq_resp","","","img/orange_2bandit_b.png","70","img/orange_2bandit_b.png","70","test","","","","","","","","","","","5","","","","","","","","",""
"null","201793","SARL_v6","SARL_v6981wa4m1","590208c89571f50001c666e3","fixation","","","img/fixation.png","null","","","test","","","","","","","","","","","","","","","","","","","",""
"297.89999997615814","202092","SARL_v6","SARL_v6981wa4m1","590208c89571f50001c666e3","freq","","","img/orange_2bandit_b2.png","70","","70","test","1","","115","","","","circle","square","111","22","5","0.9819819819819819","","","","","","","",""
"null","202598","SARL_v6","SARL_v6981wa4m1","590208c89571f50001c666e3","freq_resp","","","img/orange_2bandit_b.png","70","img/orange_2bandit_b.png","70","test","","","","","","","","","","","5","","","","","","","","",""
"null","202751","SARL_v6","SARL_v6981wa4m1","590208c89571f50001c666e3","fixation","","","img/fixation.png","null","","","test","","","","","","","","","","","","","","","","","","","",""
"355.7000000476837","203108","SARL_v6","SARL_v6981wa4m1","590208c89571f50001c666e3","freq","","","img/orange_2bandit_b2.png","70","","70","test","1","","116","","","","circle","square","112","23","5","0.9821428571428571","","","","","","","",""
"null","203556","SARL_v6","SARL_v6981wa4m1","590208c89571f50001c666e3","freq_resp","","","img/orange_2bandit_b.png","70","img/orange_2bandit_b.png","70","test","","","","","","","","","","","5","","","","","","","","",""
"null","203709","SARL_v6","SARL_v6981wa4m1","590208c89571f50001c666e3","fixation","","","img/fixation.png","null","","","test","","","","","","","","","","","","","","","","","","","",""
"null","204511","SARL_v6","SARL_v6981wa4m1","590208c89571f50001c666e3","infreq","","","img/blue_2bandit_b2.png","null","","68","test","0","","117","","","","circle","square","113","24","5","0.9734513274336283","","","","","","","",""
"null","204663","SARL_v6","SARL_v6981wa4m1","590208c89571f50001c666e3","fixation","","","img/fixation.png","null","","","test","","","","","","","","","","","","","","","","","","","",""
"419.60000002384186","205084","SARL_v6","SARL_v6981wa4m1","590208c89571f50001c666e3","freq","","","img/orange_2bandit_b2.png","70","","70","test","1","","118","","","","circle","square","114","25","5","0.9736842105263158","","","","","","","",""
"null","205467","SARL_v6","SARL_v6981wa4m1","590208c89571f50001c666e3","freq_resp","","","img/orange_2bandit_b.png","70","img/orange_2bandit_b.png","70","test","","","","","","","","","","","5","","","","","","","","",""
"null","205620","SARL_v6","SARL_v6981wa4m1","590208c89571f50001c666e3","fixation","","","img/fixation.png","null","","","test","","","","","","","","","","","","","","","","","","","",""
"751","206372","SARL_v6","SARL_v6981wa4m1","590208c89571f50001c666e3","rl","","","img/black_2bandit_b2.png","75","","0","test","","","119","","","4","circle","square","","0","5","","75","-7","4","-7","4","square","5","0"
"null","207125","SARL_v6","SARL_v6981wa4m1","590208c89571f50001c666e3","feedback","","","<div class=""veryhighPoints_sq""> 4 </div>","null","","na","test","","","NaN","","","","","","","","5","","75","","","","","","5",""
"765.8999999761581","207892","SARL_v6","SARL_v6981wa4m1","590208c89571f50001c666e3","freq","","","img/orange_2bandit_b2.png","70","","70","test","1","","120","","","","circle","square","115","1","6","0.9739130434782609","","","","","","","",""
"null","207929","SARL_v6","SARL_v6981wa4m1","590208c89571f50001c666e3","freq_resp","","","img/orange_2bandit_b.png","70","img/orange_2bandit_b.png","70","test","","","","","","","","","","","6","","","","","","","","",""
"null","208081","SARL_v6","SARL_v6981wa4m1","590208c89571f50001c666e3","fixation","","","img/fixation.png","null","","","test","","","","","","","","","","","","","","","","","","","",""
"426","208508","SARL_v6","SARL_v6981wa4m1","590208c89571f50001c666e3","freq","","","img/orange_2bandit_b2.png","70","","70","test","1","","121","","","","circle","square","116","2","6","0.9741379310344828","","","","","","","",""
"null","208885","SARL_v6","SARL_v6981wa4m1","590208c89571f50001c666e3","freq_resp","","","img/orange_2bandit_b.png","70","img/orange_2bandit_b.png","70","test","","","","","","","","","","","6","","","","","","","","",""
"null","209037","SARL_v6","SARL_v6981wa4m1","590208c89571f50001c666e3","fixation","","","img/fixation.png","null","","","test","","","","","","","","","","","","","","","","","","","",""
"325.3000000715256","209364","SARL_v6","SARL_v6981wa4m1","590208c89571f50001c666e3","freq","","","img/orange_2bandit_b2.png","70","","70","test","1","","122","","","","circle","square","117","3","6","0.9743589743589743","","","","","","","",""
"null","209841","SARL_v6","SARL_v6981wa4m1","590208c89571f50001c666e3","freq_resp","","","img/orange_2bandit_b.png","70","img/orange_2bandit_b.png","70","test","","","","","","","","","","","6","","","","","","","","",""
"null","209994","SARL_v6","SARL_v6981wa4m1","590208c89571f50001c666e3","fixation","","","img/fixation.png","null","","","test","","","","","","","","","","","","","","","","","","","",""
"305.10000002384186","210300","SARL_v6","SARL_v6981wa4m1","590208c89571f50001c666e3","freq","","","img/orange_2bandit_b2.png","70","","70","test","1","","123","","","","circle","square","118","4","6","0.9745762711864406","","","","","","","",""
"null","210797","SARL_v6","SARL_v6981wa4m1","590208c89571f50001c666e3","freq_resp","","","img/orange_2bandit_b.png","70","img/orange_2bandit_b.png","70","test","","","","","","","","","","","6","","","","","","","","",""
"null","210951","SARL_v6","SARL_v6981wa4m1","590208c89571f50001c666e3","fixation","","","img/fixation.png","null","","","test","","","","","","","","","","","","","","","","","","","",""
"259.90000009536743","211213","SARL_v6","SARL_v6981wa4m1","590208c89571f50001c666e3","freq","","","img/orange_2bandit_b2.png","70","","70","test","1","","124","","","","circle","square","119","5","6","0.9747899159663865","","","","","","","",""
"null","211755","SARL_v6","SARL_v6981wa4m1","590208c89571f50001c666e3","freq_resp","","","img/orange_2bandit_b.png","70","img/orange_2bandit_b.png","70","test","","","","","","","","","","","6","","","","","","","","",""
"null","211907","SARL_v6","SARL_v6981wa4m1","590208c89571f50001c666e3","fixation","","","img/fixation.png","null","","","test","","","","","","","","","","","","","","","","","","","",""
"295.60000002384186","212204","SARL_v6","SARL_v6981wa4m1","590208c89571f50001c666e3","freq","","","img/orange_2bandit_b2.png","70","","70","test","1","","125","","","","circle","square","120","6","6","0.975","","","","","","","",""
"null","212711","SARL_v6","SARL_v6981wa4m1","590208c89571f50001c666e3","freq_resp","","","img/orange_2bandit_b.png","70","img/orange_2bandit_b.png","70","test","","","","","","","","","","","6","","","","","","","","",""
"null","212865","SARL_v6","SARL_v6981wa4m1","590208c89571f50001c666e3","fixation","","","img/fixation.png","null","","","test","","","","","","","","","","","","","","","","","","","",""
"274","213140","SARL_v6","SARL_v6981wa4m1","590208c89571f50001c666e3","freq","","","img/orange_2bandit_b2.png","70","","70","test","1","","126","","","","circle","square","121","7","6","0.9752066115702479","","","","","","","",""
"null","213669","SARL_v6","SARL_v6981wa4m1","590208c89571f50001c666e3","freq_resp","","","img/orange_2bandit_b.png","70","img/orange_2bandit_b.png","70","test","","","","","","","","","","","6","","","","","","","","",""
"null","213821","SARL_v6","SARL_v6981wa4m1","590208c89571f50001c666e3","fixation","","","img/fixation.png","null","","","test","","","","","","","","","","","","","","","","","","","",""
"269.39999997615814","214092","SARL_v6","SARL_v6981wa4m1","590208c89571f50001c666e3","freq","","","img/orange_2bandit_b2.png","70","","70","test","1","","127","","","","circle","square","122","8","6","0.9754098360655737","","","","","","","",""
"null","214625","SARL_v6","SARL_v6981wa4m1","590208c89571f50001c666e3","freq_resp","","","img/orange_2bandit_b.png","70","img/orange_2bandit_b.png","70","test","","","","","","","","","","","6","","","","","","","","",""
"null","214777","SARL_v6","SARL_v6981wa4m1","590208c89571f50001c666e3","fixation","","","img/fixation.png","null","","","test","","","","","","","","","","","","","","","","","","","",""
"385.7000000476837","215165","SARL_v6","SARL_v6981wa4m1","590208c89571f50001c666e3","infreq","","","img/blue_2bandit_b2.png","68","","68","test","1","","128","","","","circle","square","123","9","6","0.975609756097561","","","","","","","",""
"null","215580","SARL_v6","SARL_v6981wa4m1","590208c89571f50001c666e3","infreq_resp","","","img/blue_2bandit_b.png","68","img/blue_2bandit_b.png","68","test","","","","","","","","","","","6","","","","","","","","",""
"null","215733","SARL_v6","SARL_v6981wa4m1","590208c89571f50001c666e3","fixation","","","img/fixation.png","null","","","test","","","","","","","","","","","","","","","","","","","",""
"430.2000000476837","216165","SARL_v6","SARL_v6981wa4m1","590208c89571f50001c666e3","freq","","","img/orange_2bandit_b2.png","70","","70","test","1","","129","","","","circle","square","124","10","6","0.9758064516129032","","","","","","","",""
"null","216536","SARL_v6","SARL_v6981wa4m1","590208c89571f50001c666e3","freq_resp","","","img/orange_2bandit_b.png","70","img/orange_2bandit_b.png","70","test","","","","","","","","","","","6","","","","","","","","",""
"null","216688","SARL_v6","SARL_v6981wa4m1","590208c89571f50001c666e3","fixation","","","img/fixation.png","null","","","test","","","","","","","","","","","","","","","","","","","",""
