"rt","time_elapsed","expId","subject","prolificID","trialType","rlType","attType","stimulus","key_press","stim","corrresp","phase","corr","pracCounter","trialNum","rewardOne","rewardTwo","reward","bandOne","bandTwo","attentionNum","attentionRunNum","blockNum","performance","bandChosen","circleVal","squareVal","bandOneVal","bandTwoVal","shapeChosen","rlNum","badFlag"
"16688.5","16691","SARL_v6","SARL_v6z3c8of0j","631a68ee10ec68377cb03457","","","","","","","","","","","","","","","","","","","","","","","","","","","",""
"","20368","SARL_v6","SARL_v6z3c8of0j","631a68ee10ec68377cb03457","fullscreen","fullscreen","fullscreen","","","","","","","","","","","","","","","","","","","","","","","","",""
"119750.29999998212","140120","SARL_v6","SARL_v6z3c8of0j","631a68ee10ec68377cb03457","","","","","","","","","","","","","","","","","","","","","","","","","","","",""
"534","140658","SARL_v6","SARL_v6z3c8of0j","631a68ee10ec68377cb03457","freqPrac","","","img/orange_2bandit_b2.png","70","img/orange_2bandit_b2.png","70","prac","1","0","","","","","","","","","","","","","","","","","",""
"534","140932","SARL_v6","SARL_v6z3c8of0j","631a68ee10ec68377cb03457","freqPrac_resp","","","img/orange_2bandit_b.png","70","img/orange_2bandit_b.png","70","prac","","","","","","","","","","","","","","","","","","","",""
"null","141093","SARL_v6","SARL_v6z3c8of0j","631a68ee10ec68377cb03457","fixation","","","img/fixation.png","null","","","prac","","","","","","","","","","","","","","","","","","","",""
"533.7999999821186","141629","SARL_v6","SARL_v6z3c8of0j","631a68ee10ec68377cb03457","infreqPrac","","","img/blue_2bandit_b2.png","68","img/blue_2bandit_b2.png","68","prac","1","0","","","","","","","","","","","","","","","","","",""
"533.7999999821186","141900","SARL_v6","SARL_v6z3c8of0j","631a68ee10ec68377cb03457","infreqPrac_resp","","","img/blue_2bandit_b.png","68","img/blue_2bandit_b.png","68","prac","","","","","","","","","","","","","","","","","","","",""
"null","142059","SARL_v6","SARL_v6z3c8of0j","631a68ee10ec68377cb03457","fixation","","","img/fixation.png","null","","","prac","","","","","","","","","","","","","","","","","","","",""
"368.09999999403954","142429","SARL_v6","SARL_v6z3c8of0j","631a68ee10ec68377cb03457","freqPrac","","","img/orange_2bandit_b2.png","70","img/orange_2bandit_b2.png","70","prac","1","0","","","","","","","","","","","","","","","","","",""
"368.09999999403954","142867","SARL_v6","SARL_v6z3c8of0j","631a68ee10ec68377cb03457","freqPrac_resp","","","img/orange_2bandit_b.png","70","img/orange_2bandit_b.png","70","prac","","","","","","","","","","","","","","","","","","","",""
"null","143028","SARL_v6","SARL_v6z3c8of0j","631a68ee10ec68377cb03457","fixation","","","img/fixation.png","null","","","prac","","","","","","","","","","","","","","","","","","","",""
"614.6999999880791","143645","SARL_v6","SARL_v6z3c8of0j","631a68ee10ec68377cb03457","infreqPrac","","","img/blue_2bandit_b2.png","68","img/blue_2bandit_b2.png","68","prac","1","0","","","","","","","","","","","","","","","","","",""
"614.6999999880791","143841","SARL_v6","SARL_v6z3c8of0j","631a68ee10ec68377cb03457","infreqPrac_resp","","","img/blue_2bandit_b.png","68","img/blue_2bandit_b.png","68","prac","","","","","","","","","","","","","","","","","","","",""
"null","144005","SARL_v6","SARL_v6z3c8of0j","631a68ee10ec68377cb03457","fixation","","","img/fixation.png","null","","","prac","","","","","","","","","","","","","","","","","","","",""
"437.69999998807907","144445","SARL_v6","SARL_v6z3c8of0j","631a68ee10ec68377cb03457","infreqPrac","","","img/blue_2bandit_b2.png","68","img/blue_2bandit_b2.png","68","prac","1","0","","","","","","","","","","","","","","","","","",""
"437.69999998807907","144817","SARL_v6","SARL_v6z3c8of0j","631a68ee10ec68377cb03457","infreqPrac_resp","","","img/blue_2bandit_b.png","68","img/blue_2bandit_b.png","68","prac","","","","","","","","","","","","","","","","","","","",""
"null","144980","SARL_v6","SARL_v6z3c8of0j","631a68ee10ec68377cb03457","fixation","","","img/fixation.png","null","","","prac","","","","","","","","","","","","","","","","","","","",""
"423.09999999403954","145405","SARL_v6","SARL_v6z3c8of0j","631a68ee10ec68377cb03457","infreqPrac","","","img/blue_2bandit_b2.png","68","img/blue_2bandit_b2.png","68","prac","1","0","","","","","","","","","","","","","","","","","",""
"423.09999999403954","145788","SARL_v6","SARL_v6z3c8of0j","631a68ee10ec68377cb03457","infreqPrac_resp","","","img/blue_2bandit_b.png","68","img/blue_2bandit_b.png","68","prac","","","","","","","","","","","","","","","","","","","",""
"null","145945","SARL_v6","SARL_v6z3c8of0j","631a68ee10ec68377cb03457","fixation","","","img/fixation.png","null","","","prac","","","","","","","","","","","","","","","","","","","",""
"402.19999998807907","146349","SARL_v6","SARL_v6z3c8of0j","631a68ee10ec68377cb03457","freqPrac","","","img/orange_2bandit_b2.png","70","img/orange_2bandit_b2.png","70","prac","1","0","","","","","","","","","","","","","","","","","",""
"402.19999998807907","146754","SARL_v6","SARL_v6z3c8of0j","631a68ee10ec68377cb03457","freqPrac_resp","","","img/orange_2bandit_b.png","70","img/orange_2bandit_b.png","70","prac","","","","","","","","","","","","","","","","","","","",""
"null","146917","SARL_v6","SARL_v6z3c8of0j","631a68ee10ec68377cb03457","fixation","","","img/fixation.png","null","","","prac","","","","","","","","","","","","","","","","","","","",""
"null","147726","SARL_v6","SARL_v6z3c8of0j","631a68ee10ec68377cb03457","infreqPrac","","","img/blue_2bandit_b2.png","null","img/blue_2bandit_b2.png","68","prac","0","1","","","","","","","","","","","","","","","","","",""
"null","148742","SARL_v6","SARL_v6z3c8of0j","631a68ee10ec68377cb03457","feedback","","","img/tooSlow.png","null","","na","prac","","","","","","","","","","","","","","","","","","","",""
"null","148902","SARL_v6","SARL_v6z3c8of0j","631a68ee10ec68377cb03457","fixation","","","img/fixation.png","null","","","prac","","","","","","","","","","","","","","","","","","","",""
"437.90000000596046","149343","SARL_v6","SARL_v6z3c8of0j","631a68ee10ec68377cb03457","freqPrac","","","img/orange_2bandit_b2.png","70","img/orange_2bandit_b2.png","70","prac","1","1","","","","","","","","","","","","","","","","","",""
"437.90000000596046","149714","SARL_v6","SARL_v6z3c8of0j","631a68ee10ec68377cb03457","freqPrac_resp","","","img/orange_2bandit_b.png","70","img/orange_2bandit_b.png","70","prac","","","","","","","","","","","","","","","","","","","",""
"null","149873","SARL_v6","SARL_v6z3c8of0j","631a68ee10ec68377cb03457","fixation","","","img/fixation.png","null","","","prac","","","","","","","","","","","","","","","","","","","",""
"322.30000001192093","150198","SARL_v6","SARL_v6z3c8of0j","631a68ee10ec68377cb03457","freqPrac","","","img/orange_2bandit_b2.png","70","img/orange_2bandit_b2.png","70","prac","1","1","","","","","","","","","","","","","","","","","",""
"322.30000001192093","150685","SARL_v6","SARL_v6z3c8of0j","631a68ee10ec68377cb03457","freqPrac_resp","","","img/orange_2bandit_b.png","70","img/orange_2bandit_b.png","70","prac","","","","","","","","","","","","","","","","","","","",""
"null","150843","SARL_v6","SARL_v6z3c8of0j","631a68ee10ec68377cb03457","fixation","","","img/fixation.png","null","","","prac","","","","","","","","","","","","","","","","","","","",""
"23873.30000001192","174718","SARL_v6","SARL_v6z3c8of0j","631a68ee10ec68377cb03457","","","","","","","","prac","","","","","","","","","","","","","","","","","","","",""
"589.7999999821186","175311","SARL_v6","SARL_v6z3c8of0j","631a68ee10ec68377cb03457","rlPractice","","","img/black_2bandit_b2.png","74","img/black_2bandit_b2.png","","prac","","","0","","","","","","","","","","","","","","","","",""
"null","176064","SARL_v6","SARL_v6z3c8of0j","631a68ee10ec68377cb03457","feedback","","","<div class=""veryhighPoints""> 10 </div>","null","","na","prac","","","1","10","-14","10","","","","","","","","","","","","","",""
"null","176228","SARL_v6","SARL_v6z3c8of0j","631a68ee10ec68377cb03457","fixation","","","img/fixation.png","null","","","prac","","","","","","","","","","","","","","","","","","","",""
"407.90000000596046","176638","SARL_v6","SARL_v6z3c8of0j","631a68ee10ec68377cb03457","rlPractice","","","img/black_2bandit_b2.png","75","img/black_2bandit_b2.png","","prac","","","1","","","","","","","","","","","","","","","","",""
"null","177395","SARL_v6","SARL_v6z3c8of0j","631a68ee10ec68377cb03457","feedback","","","<div class=""verylowPoints_sq""> -5 </div>","null","","na","prac","","","2","5","-5","5","","","","","","","","","","","","","",""
"null","177556","SARL_v6","SARL_v6z3c8of0j","631a68ee10ec68377cb03457","fixation","","","img/fixation.png","null","","","prac","","","","","","","","","","","","","","","","","","","",""
"352.59999999403954","177911","SARL_v6","SARL_v6z3c8of0j","631a68ee10ec68377cb03457","rlPractice","","","img/black_2bandit_b2.png","74","img/black_2bandit_b2.png","","prac","","","2","","","","","","","","","","","","","","","","",""
"null","178677","SARL_v6","SARL_v6z3c8of0j","631a68ee10ec68377cb03457","feedback","","","<div class=""veryhighPoints""> 30 </div>","null","","na","prac","","","3","30","2","30","","","","","","","","","","","","","",""
"null","178834","SARL_v6","SARL_v6z3c8of0j","631a68ee10ec68377cb03457","fixation","","","img/fixation.png","null","","","prac","","","","","","","","","","","","","","","","","","","",""
"259","179096","SARL_v6","SARL_v6z3c8of0j","631a68ee10ec68377cb03457","rlPractice","","","img/black_2bandit_b2.png","74","img/black_2bandit_b2.png","","prac","","","3","","","","","","","","","","","","","","","","",""
"null","179856","SARL_v6","SARL_v6z3c8of0j","631a68ee10ec68377cb03457","feedback","","","<div class=""verylowPoints""> -2 </div>","null","","na","prac","","","4","-2","20","-2","","","","","","","","","","","","","",""
"null","180017","SARL_v6","SARL_v6z3c8of0j","631a68ee10ec68377cb03457","fixation","","","img/fixation.png","null","","","prac","","","","","","","","","","","","","","","","","","","",""
"11100.299999982119","191119","SARL_v6","SARL_v6z3c8of0j","631a68ee10ec68377cb03457","","","","","","","","prac","","","","","","","","","","","","","","","","","","","",""
"688.9000000059605","191811","SARL_v6","SARL_v6z3c8of0j","631a68ee10ec68377cb03457","mixAttFreqPrac","","","img/orange_2bandit_b2.png","70","img/orange_2bandit_b2.png","70","prac","","","1","","","","","","","","","","","","","","","","",""
"688.9000000059605","191929","SARL_v6","SARL_v6z3c8of0j","631a68ee10ec68377cb03457","freqPrac_resp","","","img/orange_2bandit_b.png","70","img/orange_2bandit_b.png","70","prac","","","1","","","","","","","","","","","","","","","","",""
"null","192092","SARL_v6","SARL_v6z3c8of0j","631a68ee10ec68377cb03457","fixation","","","img/fixation.png","null","","","prac","","","","","","","","","","","","","","","","","","","",""
"420.09999999403954","192515","SARL_v6","SARL_v6z3c8of0j","631a68ee10ec68377cb03457","mixAttInfreqPrac","","","img/blue_2bandit_b2.png","68","img/blue_2bandit_b2.png","68","prac","","","2","","","","","","","","","","","","","","","","",""
"420.09999999403954","192905","SARL_v6","SARL_v6z3c8of0j","631a68ee10ec68377cb03457","infreqPrac_resp","","","img/blue_2bandit_b.png","68","img/orange_2bandit_b.png","68","prac","","","2","","","","","","","","","","","","","","","","",""
"null","193067","SARL_v6","SARL_v6z3c8of0j","631a68ee10ec68377cb03457","fixation","","","img/fixation.png","null","","","prac","","","","","","","","","","","","","","","","","","","",""
"533","193603","SARL_v6","SARL_v6z3c8of0j","631a68ee10ec68377cb03457","mixAttInfreqPrac","","","img/blue_2bandit_b2.png","68","img/blue_2bandit_b2.png","68","prac","","","3","","","","","","","","","","","","","","","","",""
"533","193879","SARL_v6","SARL_v6z3c8of0j","631a68ee10ec68377cb03457","infreqPrac_resp","","","img/blue_2bandit_b.png","68","img/orange_2bandit_b.png","68","prac","","","3","","","","","","","","","","","","","","","","",""
"null","194041","SARL_v6","SARL_v6z3c8of0j","631a68ee10ec68377cb03457","fixation","","","img/fixation.png","null","","","prac","","","","","","","","","","","","","","","","","","","",""
"391.09999999403954","194434","SARL_v6","SARL_v6z3c8of0j","631a68ee10ec68377cb03457","mixAttInfreqPrac","","","img/blue_2bandit_b2.png","68","img/blue_2bandit_b2.png","68","prac","","","4","","","","","","","","","","","","","","","","",""
"391.09999999403954","194847","SARL_v6","SARL_v6z3c8of0j","631a68ee10ec68377cb03457","infreqPrac_resp","","","img/blue_2bandit_b.png","68","img/orange_2bandit_b.png","68","prac","","","4","","","","","","","","","","","","","","","","",""
"null","195011","SARL_v6","SARL_v6z3c8of0j","631a68ee10ec68377cb03457","fixation","","","img/fixation.png","null","","","prac","","","","","","","","","","","","","","","","","","","",""
"420.90000000596046","195434","SARL_v6","SARL_v6z3c8of0j","631a68ee10ec68377cb03457","mixAttFreqPrac","","","img/orange_2bandit_b2.png","70","img/orange_2bandit_b2.png","70","prac","","","5","","","","","","","","","","","","","","","","",""
"420.90000000596046","195817","SARL_v6","SARL_v6z3c8of0j","631a68ee10ec68377cb03457","freqPrac_resp","","","img/orange_2bandit_b.png","70","img/orange_2bandit_b.png","70","prac","","","5","","","","","","","","","","","","","","","","",""
"null","195976","SARL_v6","SARL_v6z3c8of0j","631a68ee10ec68377cb03457","fixation","","","img/fixation.png","null","","","prac","","","","","","","","","","","","","","","","","","","",""
"638.5999999940395","196617","SARL_v6","SARL_v6z3c8of0j","631a68ee10ec68377cb03457","mixRLPractice","","","img/black_2bandit_b2.png","74","img/black_2bandit_b2.png","","prac","","","5","","","","","","","","","","","","","","","","",""
"null","197377","SARL_v6","SARL_v6z3c8of0j","631a68ee10ec68377cb03457","feedback","","","<div class=""verylowPoints""> -14 </div>","null","","na","prac","","","6","-14","10","-14","","","","","","","","","","","","","",""
"null","197537","SARL_v6","SARL_v6z3c8of0j","631a68ee10ec68377cb03457","fixation","","","img/fixation.png","null","","","prac","","","","","","","","","","","","","","","","","","","",""
"598.0999999940395","198137","SARL_v6","SARL_v6z3c8of0j","631a68ee10ec68377cb03457","mixAttFreqPrac","","","img/orange_2bandit_b2.png","70","img/orange_2bandit_b2.png","70","prac","","","7","","","","","","","","","","","","","","","","",""
"598.0999999940395","198349","SARL_v6","SARL_v6z3c8of0j","631a68ee10ec68377cb03457","freqPrac_resp","","","img/orange_2bandit_b.png","70","img/orange_2bandit_b.png","70","prac","","","7","","","","","","","","","","","","","","","","",""
"null","198508","SARL_v6","SARL_v6z3c8of0j","631a68ee10ec68377cb03457","fixation","","","img/fixation.png","null","","","prac","","","","","","","","","","","","","","","","","","","",""
"466.80000001192093","198977","SARL_v6","SARL_v6z3c8of0j","631a68ee10ec68377cb03457","mixAttInfreqPrac","","","img/blue_2bandit_b2.png","68","img/blue_2bandit_b2.png","68","prac","","","8","","","","","","","","","","","","","","","","",""
"466.80000001192093","199320","SARL_v6","SARL_v6z3c8of0j","631a68ee10ec68377cb03457","infreqPrac_resp","","","img/blue_2bandit_b.png","68","img/orange_2bandit_b.png","68","prac","","","8","","","","","","","","","","","","","","","","",""
"null","199481","SARL_v6","SARL_v6z3c8of0j","631a68ee10ec68377cb03457","fixation","","","img/fixation.png","null","","","prac","","","","","","","","","","","","","","","","","","","",""
"390.69999998807907","199873","SARL_v6","SARL_v6z3c8of0j","631a68ee10ec68377cb03457","mixAttFreqPrac","","","img/orange_2bandit_b2.png","70","img/orange_2bandit_b2.png","70","prac","","","9","","","","","","","","","","","","","","","","",""
"390.69999998807907","200293","SARL_v6","SARL_v6z3c8of0j","631a68ee10ec68377cb03457","freqPrac_resp","","","img/orange_2bandit_b.png","70","img/orange_2bandit_b.png","70","prac","","","9","","","","","","","","","","","","","","","","",""
"null","200452","SARL_v6","SARL_v6z3c8of0j","631a68ee10ec68377cb03457","fixation","","","img/fixation.png","null","","","prac","","","","","","","","","","","","","","","","","","","",""
"355.90000000596046","200811","SARL_v6","SARL_v6z3c8of0j","631a68ee10ec68377cb03457","mixAttFreqPrac","","","img/orange_2bandit_b2.png","70","img/orange_2bandit_b2.png","70","prac","","","10","","","","","","","","","","","","","","","","",""
"355.90000000596046","201269","SARL_v6","SARL_v6z3c8of0j","631a68ee10ec68377cb03457","freqPrac_resp","","","img/orange_2bandit_b.png","70","img/orange_2bandit_b.png","70","prac","","","10","","","","","","","","","","","","","","","","",""
"null","201425","SARL_v6","SARL_v6z3c8of0j","631a68ee10ec68377cb03457","fixation","","","img/fixation.png","null","","","prac","","","","","","","","","","","","","","","","","","","",""
"471.2000000178814","201898","SARL_v6","SARL_v6z3c8of0j","631a68ee10ec68377cb03457","mixAttInfreqPrac","","","img/blue_2bandit_b2.png","68","img/blue_2bandit_b2.png","68","prac","","","11","","","","","","","","","","","","","","","","",""
"471.2000000178814","202231","SARL_v6","SARL_v6z3c8of0j","631a68ee10ec68377cb03457","infreqPrac_resp","","","img/blue_2bandit_b.png","68","img/orange_2bandit_b.png","68","prac","","","11","","","","","","","","","","","","","","","","",""
"null","202397","SARL_v6","SARL_v6z3c8of0j","631a68ee10ec68377cb03457","fixation","","","img/fixation.png","null","","","prac","","","","","","","","","","","","","","","","","","","",""
"763.0999999940395","203163","SARL_v6","SARL_v6z3c8of0j","631a68ee10ec68377cb03457","mixRLPractice","","","img/black_2bandit_b2.png","74","img/black_2bandit_b2.png","","prac","","","11","","","","","","","","","","","","","","","","",""
"null","203923","SARL_v6","SARL_v6z3c8of0j","631a68ee10ec68377cb03457","feedback","","","<div class=""veryhighPoints""> 5 </div>","null","","na","prac","","","12","5","-5","5","","","","","","","","","","","","","",""
"null","204082","SARL_v6","SARL_v6z3c8of0j","631a68ee10ec68377cb03457","fixation","","","img/fixation.png","null","","","prac","","","","","","","","","","","","","","","","","","","",""
"52048.89999997616","256132","SARL_v6","SARL_v6z3c8of0j","631a68ee10ec68377cb03457","","","","","","","","prac","","","","","","","","","","","","","","","","","","","",""
"508.30000001192093","256643","SARL_v6","SARL_v6z3c8of0j","631a68ee10ec68377cb03457","freq","","","img/orange_2bandit_b2.png","68","","70","test","0","","1","","","","circle","square","1","1","1","0","","","","","","","",""
"null","256944","SARL_v6","SARL_v6z3c8of0j","631a68ee10ec68377cb03457","freq_resp","","","img/orange_2bandit_b.png","68","img/orange_2bandit_b.png","70","test","","","","","","","","","","","1","","","","","","","","",""
"null","257103","SARL_v6","SARL_v6z3c8of0j","631a68ee10ec68377cb03457","fixation","","","img/fixation.png","null","","","test","","","","","","","","","","","","","","","","","","","",""
"465.2000000178814","257571","SARL_v6","SARL_v6z3c8of0j","631a68ee10ec68377cb03457","freq","","","img/orange_2bandit_b2.png","70","","70","test","1","","2","","","","circle","square","2","2","1","0.5","","","","","","","",""
"null","257909","SARL_v6","SARL_v6z3c8of0j","631a68ee10ec68377cb03457","freq_resp","","","img/orange_2bandit_b.png","70","img/orange_2bandit_b.png","70","test","","","","","","","","","","","1","","","","","","","","",""
"null","258067","SARL_v6","SARL_v6z3c8of0j","631a68ee10ec68377cb03457","fixation","","","img/fixation.png","null","","","test","","","","","","","","","","","","","","","","","","","",""
"493.60000002384186","258563","SARL_v6","SARL_v6z3c8of0j","631a68ee10ec68377cb03457","infreq","","","img/blue_2bandit_b2.png","68","","68","test","1","","3","","","","circle","square","3","3","1","0.6666666666666666","","","","","","","",""
"null","258879","SARL_v6","SARL_v6z3c8of0j","631a68ee10ec68377cb03457","infreq_resp","","","img/blue_2bandit_b.png","68","img/blue_2bandit_b.png","68","test","","","","","","","","","","","1","","","","","","","","",""
"null","259039","SARL_v6","SARL_v6z3c8of0j","631a68ee10ec68377cb03457","fixation","","","img/fixation.png","null","","","test","","","","","","","","","","","","","","","","","","","",""
"432.59999999403954","259474","SARL_v6","SARL_v6z3c8of0j","631a68ee10ec68377cb03457","freq","","","img/orange_2bandit_b2.png","70","","70","test","1","","4","","","","circle","square","4","4","1","0.75","","","","","","","",""
"null","259846","SARL_v6","SARL_v6z3c8of0j","631a68ee10ec68377cb03457","freq_resp","","","img/orange_2bandit_b.png","70","img/orange_2bandit_b.png","70","test","","","","","","","","","","","1","","","","","","","","",""
"null","260007","SARL_v6","SARL_v6z3c8of0j","631a68ee10ec68377cb03457","fixation","","","img/fixation.png","null","","","test","","","","","","","","","","","","","","","","","","","",""
"401.59999999403954","260410","SARL_v6","SARL_v6z3c8of0j","631a68ee10ec68377cb03457","freq","","","img/orange_2bandit_b2.png","70","","70","test","1","","5","","","","circle","square","5","5","1","0.8","","","","","","","",""
"null","260817","SARL_v6","SARL_v6z3c8of0j","631a68ee10ec68377cb03457","freq_resp","","","img/orange_2bandit_b.png","70","img/orange_2bandit_b.png","70","test","","","","","","","","","","","1","","","","","","","","",""
"null","260975","SARL_v6","SARL_v6z3c8of0j","631a68ee10ec68377cb03457","fixation","","","img/fixation.png","null","","","test","","","","","","","","","","","","","","","","","","","",""
"337.59999999403954","261315","SARL_v6","SARL_v6z3c8of0j","631a68ee10ec68377cb03457","freq","","","img/orange_2bandit_b2.png","70","","70","test","1","","6","","","","circle","square","6","6","1","0.8333333333333334","","","","","","","",""
"null","261784","SARL_v6","SARL_v6z3c8of0j","631a68ee10ec68377cb03457","freq_resp","","","img/orange_2bandit_b.png","70","img/orange_2bandit_b.png","70","test","","","","","","","","","","","1","","","","","","","","",""
"null","261942","SARL_v6","SARL_v6z3c8of0j","631a68ee10ec68377cb03457","fixation","","","img/fixation.png","null","","","test","","","","","","","","","","","","","","","","","","","",""
"322.69999998807907","262266","SARL_v6","SARL_v6z3c8of0j","631a68ee10ec68377cb03457","freq","","","img/orange_2bandit_b2.png","70","","70","test","1","","7","","","","circle","square","7","7","1","0.8571428571428571","","","","","","","",""
"null","262755","SARL_v6","SARL_v6z3c8of0j","631a68ee10ec68377cb03457","freq_resp","","","img/orange_2bandit_b.png","70","img/orange_2bandit_b.png","70","test","","","","","","","","","","","1","","","","","","","","",""
"null","262912","SARL_v6","SARL_v6z3c8of0j","631a68ee10ec68377cb03457","fixation","","","img/fixation.png","null","","","test","","","","","","","","","","","","","","","","","","","",""
"330.19999998807907","263244","SARL_v6","SARL_v6z3c8of0j","631a68ee10ec68377cb03457","freq","","","img/orange_2bandit_b2.png","70","","70","test","1","","8","","","","circle","square","8","8","1","0.875","","","","","","","",""
"null","263720","SARL_v6","SARL_v6z3c8of0j","631a68ee10ec68377cb03457","freq_resp","","","img/orange_2bandit_b.png","70","img/orange_2bandit_b.png","70","test","","","","","","","","","","","1","","","","","","","","",""
"null","263878","SARL_v6","SARL_v6z3c8of0j","631a68ee10ec68377cb03457","fixation","","","img/fixation.png","null","","","test","","","","","","","","","","","","","","","","","","","",""
"306.5","264189","SARL_v6","SARL_v6z3c8of0j","631a68ee10ec68377cb03457","freq","","","img/orange_2bandit_b2.png","70","","70","test","1","","9","","","","circle","square","9","9","1","0.8888888888888888","","","","","","","",""
"null","264687","SARL_v6","SARL_v6z3c8of0j","631a68ee10ec68377cb03457","freq_resp","","","img/orange_2bandit_b.png","70","img/orange_2bandit_b.png","70","test","","","","","","","","","","","1","","","","","","","","",""
"null","264851","SARL_v6","SARL_v6z3c8of0j","631a68ee10ec68377cb03457","fixation","","","img/fixation.png","null","","","test","","","","","","","","","","","","","","","","","","","",""
"302.30000001192093","265155","SARL_v6","SARL_v6z3c8of0j","631a68ee10ec68377cb03457","freq","","","img/orange_2bandit_b2.png","70","","70","test","1","","10","","","","circle","square","10","10","1","0.9","","","","","","","",""
"null","265662","SARL_v6","SARL_v6z3c8of0j","631a68ee10ec68377cb03457","freq_resp","","","img/orange_2bandit_b.png","70","img/orange_2bandit_b.png","70","test","","","","","","","","","","","1","","","","","","","","",""
"null","265826","SARL_v6","SARL_v6z3c8of0j","631a68ee10ec68377cb03457","fixation","","","img/fixation.png","null","","","test","","","","","","","","","","","","","","","","","","","",""
"286.7999999821186","266116","SARL_v6","SARL_v6z3c8of0j","631a68ee10ec68377cb03457","freq","","","img/orange_2bandit_b2.png","70","","70","test","1","","11","","","","circle","square","11","11","1","0.9090909090909091","","","","","","","",""
"null","266638","SARL_v6","SARL_v6z3c8of0j","631a68ee10ec68377cb03457","freq_resp","","","img/orange_2bandit_b.png","70","img/orange_2bandit_b.png","70","test","","","","","","","","","","","1","","","","","","","","",""
"null","266801","SARL_v6","SARL_v6z3c8of0j","631a68ee10ec68377cb03457","fixation","","","img/fixation.png","null","","","test","","","","","","","","","","","","","","","","","","","",""
"303.59999999403954","267106","SARL_v6","SARL_v6z3c8of0j","631a68ee10ec68377cb03457","freq","","","img/orange_2bandit_b2.png","70","","70","test","1","","12","","","","circle","square","12","12","1","0.9166666666666666","","","","","","","",""
"null","267608","SARL_v6","SARL_v6z3c8of0j","631a68ee10ec68377cb03457","freq_resp","","","img/orange_2bandit_b.png","70","img/orange_2bandit_b.png","70","test","","","","","","","","","","","1","","","","","","","","",""
"null","267769","SARL_v6","SARL_v6z3c8of0j","631a68ee10ec68377cb03457","fixation","","","img/fixation.png","null","","","test","","","","","","","","","","","","","","","","","","","",""
"318.80000001192093","268090","SARL_v6","SARL_v6z3c8of0j","631a68ee10ec68377cb03457","freq","","","img/orange_2bandit_b2.png","70","","70","test","1","","13","","","","circle","square","13","13","1","0.9230769230769231","","","","","","","",""
"null","268585","SARL_v6","SARL_v6z3c8of0j","631a68ee10ec68377cb03457","freq_resp","","","img/orange_2bandit_b.png","70","img/orange_2bandit_b.png","70","test","","","","","","","","","","","1","","","","","","","","",""
"null","268745","SARL_v6","SARL_v6z3c8of0j","631a68ee10ec68377cb03457","fixation","","","img/fixation.png","null","","","test","","","","","","","","","","","","","","","","","","","",""
"303","269050","SARL_v6","SARL_v6z3c8of0j","631a68ee10ec68377cb03457","freq","","","img/orange_2bandit_b2.png","70","","70","test","1","","14","","","","circle","square","14","14","1","0.9285714285714286","","","","","","","",""
"null","269552","SARL_v6","SARL_v6z3c8of0j","631a68ee10ec68377cb03457","freq_resp","","","img/orange_2bandit_b.png","70","img/orange_2bandit_b.png","70","test","","","","","","","","","","","1","","","","","","","","",""
"null","269711","SARL_v6","SARL_v6z3c8of0j","631a68ee10ec68377cb03457","fixation","","","img/fixation.png","null","","","test","","","","","","","","","","","","","","","","","","","",""
"401.40000000596046","270114","SARL_v6","SARL_v6z3c8of0j","631a68ee10ec68377cb03457","freq","","","img/orange_2bandit_b2.png","70","","70","test","1","","15","","","","circle","square","15","15","1","0.9333333333333333","","","","","","","",""
"null","270519","SARL_v6","SARL_v6z3c8of0j","631a68ee10ec68377cb03457","freq_resp","","","img/orange_2bandit_b.png","70","img/orange_2bandit_b.png","70","test","","","","","","","","","","","1","","","","","","","","",""
"null","270678","SARL_v6","SARL_v6z3c8of0j","631a68ee10ec68377cb03457","fixation","","","img/fixation.png","null","","","test","","","","","","","","","","","","","","","","","","","",""
"338","271018","SARL_v6","SARL_v6z3c8of0j","631a68ee10ec68377cb03457","freq","","","img/orange_2bandit_b2.png","70","","70","test","1","","16","","","","circle","square","16","16","1","0.9375","","","","","","","",""
"null","271487","SARL_v6","SARL_v6z3c8of0j","631a68ee10ec68377cb03457","freq_resp","","","img/orange_2bandit_b.png","70","img/orange_2bandit_b.png","70","test","","","","","","","","","","","1","","","","","","","","",""
"null","271648","SARL_v6","SARL_v6z3c8of0j","631a68ee10ec68377cb03457","fixation","","","img/fixation.png","null","","","test","","","","","","","","","","","","","","","","","","","",""
"376.5","272026","SARL_v6","SARL_v6z3c8of0j","631a68ee10ec68377cb03457","freq","","","img/orange_2bandit_b2.png","70","","70","test","1","","17","","","","circle","square","17","17","1","0.9411764705882353","","","","","","","",""
"null","272454","SARL_v6","SARL_v6z3c8of0j","631a68ee10ec68377cb03457","freq_resp","","","img/orange_2bandit_b.png","70","img/orange_2bandit_b.png","70","test","","","","","","","","","","","1","","","","","","","","",""
"null","272618","SARL_v6","SARL_v6z3c8of0j","631a68ee10ec68377cb03457","fixation","","","img/fixation.png","null","","","test","","","","","","","","","","","","","","","","","","","",""
"470.90000000596046","273091","SARL_v6","SARL_v6z3c8of0j","631a68ee10ec68377cb03457","infreq","","","img/blue_2bandit_b2.png","68","","68","test","1","","18","","","","circle","square","18","18","1","0.9444444444444444","","","","","","","",""
"null","273430","SARL_v6","SARL_v6z3c8of0j","631a68ee10ec68377cb03457","infreq_resp","","","img/blue_2bandit_b.png","68","img/blue_2bandit_b.png","68","test","","","","","","","","","","","1","","","","","","","","",""
"null","273597","SARL_v6","SARL_v6z3c8of0j","631a68ee10ec68377cb03457","fixation","","","img/fixation.png","null","","","test","","","","","","","","","","","","","","","","","","","",""
"403","274004","SARL_v6","SARL_v6z3c8of0j","631a68ee10ec68377cb03457","freq","","","img/orange_2bandit_b2.png","70","","70","test","1","","19","","","","circle","square","19","19","1","0.9473684210526315","","","","","","","",""
"null","274406","SARL_v6","SARL_v6z3c8of0j","631a68ee10ec68377cb03457","freq_resp","","","img/orange_2bandit_b.png","70","img/orange_2bandit_b.png","70","test","","","","","","","","","","","1","","","","","","","","",""
"null","274568","SARL_v6","SARL_v6z3c8of0j","631a68ee10ec68377cb03457","fixation","","","img/fixation.png","null","","","test","","","","","","","","","","","","","","","","","","","",""
"312.2999999821186","274883","SARL_v6","SARL_v6z3c8of0j","631a68ee10ec68377cb03457","freq","","","img/orange_2bandit_b2.png","70","","70","test","1","","20","","","","circle","square","20","20","1","0.95","","","","","","","",""
"null","275375","SARL_v6","SARL_v6z3c8of0j","631a68ee10ec68377cb03457","freq_resp","","","img/orange_2bandit_b.png","70","img/orange_2bandit_b.png","70","test","","","","","","","","","","","1","","","","","","","","",""
"null","275536","SARL_v6","SARL_v6z3c8of0j","631a68ee10ec68377cb03457","fixation","","","img/fixation.png","null","","","test","","","","","","","","","","","","","","","","","","","",""
"297.10000002384186","275835","SARL_v6","SARL_v6z3c8of0j","631a68ee10ec68377cb03457","freq","","","img/orange_2bandit_b2.png","70","","70","test","1","","21","","","","circle","square","21","21","1","0.9523809523809523","","","","","","","",""
"null","276345","SARL_v6","SARL_v6z3c8of0j","631a68ee10ec68377cb03457","freq_resp","","","img/orange_2bandit_b.png","70","img/orange_2bandit_b.png","70","test","","","","","","","","","","","1","","","","","","","","",""
"null","276503","SARL_v6","SARL_v6z3c8of0j","631a68ee10ec68377cb03457","fixation","","","img/fixation.png","null","","","test","","","","","","","","","","","","","","","","","","","",""
"305","276810","SARL_v6","SARL_v6z3c8of0j","631a68ee10ec68377cb03457","freq","","","img/orange_2bandit_b2.png","70","","70","test","1","","22","","","","circle","square","22","22","1","0.9545454545454546","","","","","","","",""
"null","277310","SARL_v6","SARL_v6z3c8of0j","631a68ee10ec68377cb03457","freq_resp","","","img/orange_2bandit_b.png","70","img/orange_2bandit_b.png","70","test","","","","","","","","","","","1","","","","","","","","",""
"null","277470","SARL_v6","SARL_v6z3c8of0j","631a68ee10ec68377cb03457","fixation","","","img/fixation.png","null","","","test","","","","","","","","","","","","","","","","","","","",""
"370.40000000596046","277842","SARL_v6","SARL_v6z3c8of0j","631a68ee10ec68377cb03457","freq","","","img/orange_2bandit_b2.png","70","","70","test","1","","23","","","","circle","square","23","23","1","0.9565217391304348","","","","","","","",""
"null","278278","SARL_v6","SARL_v6z3c8of0j","631a68ee10ec68377cb03457","freq_resp","","","img/orange_2bandit_b.png","70","img/orange_2bandit_b.png","70","test","","","","","","","","","","","1","","","","","","","","",""
"null","278439","SARL_v6","SARL_v6z3c8of0j","631a68ee10ec68377cb03457","fixation","","","img/fixation.png","null","","","test","","","","","","","","","","","","","","","","","","","",""
"736.9000000059605","279178","SARL_v6","SARL_v6z3c8of0j","631a68ee10ec68377cb03457","rl","","","img/black_2bandit_b2.png","74","","0","test","","","24","","","-3","circle","square","","0","1","","74","-3","-3","-3","-3","circle","1","0"
"null","279935","SARL_v6","SARL_v6z3c8of0j","631a68ee10ec68377cb03457","feedback","","","<div class=""verylowPoints""> -3 </div>","null","","na","test","","","NaN","","","","","","","","1","","74","","","","","","1",""
"632.7000000178814","280570","SARL_v6","SARL_v6z3c8of0j","631a68ee10ec68377cb03457","freq","","","img/orange_2bandit_b2.png","70","","70","test","1","","25","","","","circle","square","24","1","2","0.9583333333333334","","","","","","","",""
"null","280743","SARL_v6","SARL_v6z3c8of0j","631a68ee10ec68377cb03457","freq_resp","","","img/orange_2bandit_b.png","70","img/orange_2bandit_b.png","70","test","","","","","","","","","","","2","","","","","","","","",""
"null","280904","SARL_v6","SARL_v6z3c8of0j","631a68ee10ec68377cb03457","fixation","","","img/fixation.png","null","","","test","","","","","","","","","","","","","","","","","","","",""
"343.90000000596046","281250","SARL_v6","SARL_v6z3c8of0j","631a68ee10ec68377cb03457","freq","","","img/orange_2bandit_b2.png","70","","70","test","1","","26","","","","circle","square","25","2","2","0.96","","","","","","","",""
"null","281710","SARL_v6","SARL_v6z3c8of0j","631a68ee10ec68377cb03457","freq_resp","","","img/orange_2bandit_b.png","70","img/orange_2bandit_b.png","70","test","","","","","","","","","","","2","","","","","","","","",""
"null","281870","SARL_v6","SARL_v6z3c8of0j","631a68ee10ec68377cb03457","fixation","","","img/fixation.png","null","","","test","","","","","","","","","","","","","","","","","","","",""
"321.80000001192093","282194","SARL_v6","SARL_v6z3c8of0j","631a68ee10ec68377cb03457","freq","","","img/orange_2bandit_b2.png","70","","70","test","1","","27","","","","circle","square","26","3","2","0.9615384615384616","","","","","","","",""
"null","282683","SARL_v6","SARL_v6z3c8of0j","631a68ee10ec68377cb03457","freq_resp","","","img/orange_2bandit_b.png","70","img/orange_2bandit_b.png","70","test","","","","","","","","","","","2","","","","","","","","",""
"null","282840","SARL_v6","SARL_v6z3c8of0j","631a68ee10ec68377cb03457","fixation","","","img/fixation.png","null","","","test","","","","","","","","","","","","","","","","","","","",""
"273","283115","SARL_v6","SARL_v6z3c8of0j","631a68ee10ec68377cb03457","freq","","","img/orange_2bandit_b2.png","70","","70","test","1","","28","","","","circle","square","27","4","2","0.9629629629629629","","","","","","","",""
"null","283647","SARL_v6","SARL_v6z3c8of0j","631a68ee10ec68377cb03457","freq_resp","","","img/orange_2bandit_b.png","70","img/orange_2bandit_b.png","70","test","","","","","","","","","","","2","","","","","","","","",""
"null","283810","SARL_v6","SARL_v6z3c8of0j","631a68ee10ec68377cb03457","fixation","","","img/fixation.png","null","","","test","","","","","","","","","","","","","","","","","","","",""
"470.90000000596046","284284","SARL_v6","SARL_v6z3c8of0j","631a68ee10ec68377cb03457","infreq","","","img/blue_2bandit_b2.png","68","","68","test","1","","29","","","","circle","square","28","5","2","0.9642857142857143","","","","","","","",""
"null","284622","SARL_v6","SARL_v6z3c8of0j","631a68ee10ec68377cb03457","infreq_resp","","","img/blue_2bandit_b.png","68","img/blue_2bandit_b.png","68","test","","","","","","","","","","","2","","","","","","","","",""
"null","284785","SARL_v6","SARL_v6z3c8of0j","631a68ee10ec68377cb03457","fixation","","","img/fixation.png","null","","","test","","","","","","","","","","","","","","","","","","","",""
"431.19999998807907","285219","SARL_v6","SARL_v6z3c8of0j","631a68ee10ec68377cb03457","freq","","","img/orange_2bandit_b2.png","70","","70","test","1","","30","","","","circle","square","29","6","2","0.9655172413793104","","","","","","","",""
"null","285599","SARL_v6","SARL_v6z3c8of0j","631a68ee10ec68377cb03457","freq_resp","","","img/orange_2bandit_b.png","70","img/orange_2bandit_b.png","70","test","","","","","","","","","","","2","","","","","","","","",""
"null","285760","SARL_v6","SARL_v6z3c8of0j","631a68ee10ec68377cb03457","fixation","","","img/fixation.png","null","","","test","","","","","","","","","","","","","","","","","","","",""
"360","286123","SARL_v6","SARL_v6z3c8of0j","631a68ee10ec68377cb03457","freq","","","img/orange_2bandit_b2.png","70","","70","test","1","","31","","","","circle","square","30","7","2","0.9666666666666667","","","","","","","",""
"null","286577","SARL_v6","SARL_v6z3c8of0j","631a68ee10ec68377cb03457","freq_resp","","","img/orange_2bandit_b.png","70","img/orange_2bandit_b.png","70","test","","","","","","","","","","","2","","","","","","","","",""
"null","286735","SARL_v6","SARL_v6z3c8of0j","631a68ee10ec68377cb03457","fixation","","","img/fixation.png","null","","","test","","","","","","","","","","","","","","","","","","","",""
"336.19999998807907","287074","SARL_v6","SARL_v6z3c8of0j","631a68ee10ec68377cb03457","freq","","","img/orange_2bandit_b2.png","70","","70","test","1","","32","","","","circle","square","31","8","2","0.967741935483871","","","","","","","",""
"null","287547","SARL_v6","SARL_v6z3c8of0j","631a68ee10ec68377cb03457","freq_resp","","","img/orange_2bandit_b.png","70","img/orange_2bandit_b.png","70","test","","","","","","","","","","","2","","","","","","","","",""
"null","287705","SARL_v6","SARL_v6z3c8of0j","631a68ee10ec68377cb03457","fixation","","","img/fixation.png","null","","","test","","","","","","","","","","","","","","","","","","","",""
"334.90000000596046","288042","SARL_v6","SARL_v6z3c8of0j","631a68ee10ec68377cb03457","freq","","","img/orange_2bandit_b2.png","70","","70","test","1","","33","","","","circle","square","32","9","2","0.96875","","","","","","","",""
"null","288522","SARL_v6","SARL_v6z3c8of0j","631a68ee10ec68377cb03457","freq_resp","","","img/orange_2bandit_b.png","70","img/orange_2bandit_b.png","70","test","","","","","","","","","","","2","","","","","","","","",""
"null","288679","SARL_v6","SARL_v6z3c8of0j","631a68ee10ec68377cb03457","fixation","","","img/fixation.png","null","","","test","","","","","","","","","","","","","","","","","","","",""
"304.89999997615814","288986","SARL_v6","SARL_v6z3c8of0j","631a68ee10ec68377cb03457","freq","","","img/orange_2bandit_b2.png","70","","70","test","1","","34","","","","circle","square","33","10","2","0.9696969696969697","","","","","","","",""
"null","289486","SARL_v6","SARL_v6z3c8of0j","631a68ee10ec68377cb03457","freq_resp","","","img/orange_2bandit_b.png","70","img/orange_2bandit_b.png","70","test","","","","","","","","","","","2","","","","","","","","",""
"null","289646","SARL_v6","SARL_v6z3c8of0j","631a68ee10ec68377cb03457","fixation","","","img/fixation.png","null","","","test","","","","","","","","","","","","","","","","","","","",""
"305.60000002384186","289954","SARL_v6","SARL_v6z3c8of0j","631a68ee10ec68377cb03457","freq","","","img/orange_2bandit_b2.png","70","","70","test","1","","35","","","","circle","square","34","11","2","0.9705882352941176","","","","","","","",""
"null","290454","SARL_v6","SARL_v6z3c8of0j","631a68ee10ec68377cb03457","freq_resp","","","img/orange_2bandit_b.png","70","img/orange_2bandit_b.png","70","test","","","","","","","","","","","2","","","","","","","","",""
"null","290615","SARL_v6","SARL_v6z3c8of0j","631a68ee10ec68377cb03457","fixation","","","img/fixation.png","null","","","test","","","","","","","","","","","","","","","","","","","",""
"553","291170","SARL_v6","SARL_v6z3c8of0j","631a68ee10ec68377cb03457","freq","","","img/orange_2bandit_b2.png","70","","70","test","1","","36","","","","circle","square","35","12","2","0.9714285714285714","","","","","","","",""
"null","291425","SARL_v6","SARL_v6z3c8of0j","631a68ee10ec68377cb03457","freq_resp","","","img/orange_2bandit_b.png","70","img/orange_2bandit_b.png","70","test","","","","","","","","","","","2","","","","","","","","",""
"null","291587","SARL_v6","SARL_v6z3c8of0j","631a68ee10ec68377cb03457","fixation","","","img/fixation.png","null","","","test","","","","","","","","","","","","","","","","","","","",""
"348.59999999403954","291938","SARL_v6","SARL_v6z3c8of0j","631a68ee10ec68377cb03457","freq","","","img/orange_2bandit_b2.png","70","","70","test","1","","37","","","","circle","square","36","13","2","0.9722222222222222","","","","","","","",""
"null","292402","SARL_v6","SARL_v6z3c8of0j","631a68ee10ec68377cb03457","freq_resp","","","img/orange_2bandit_b.png","70","img/orange_2bandit_b.png","70","test","","","","","","","","","","","2","","","","","","","","",""
"null","292562","SARL_v6","SARL_v6z3c8of0j","631a68ee10ec68377cb03457","fixation","","","img/fixation.png","null","","","test","","","","","","","","","","","","","","","","","","","",""
"309.60000002384186","292874","SARL_v6","SARL_v6z3c8of0j","631a68ee10ec68377cb03457","freq","","","img/orange_2bandit_b2.png","70","","70","test","1","","38","","","","circle","square","37","14","2","0.972972972972973","","","","","","","",""
"null","293378","SARL_v6","SARL_v6z3c8of0j","631a68ee10ec68377cb03457","freq_resp","","","img/orange_2bandit_b.png","70","img/orange_2bandit_b.png","70","test","","","","","","","","","","","2","","","","","","","","",""
"null","293540","SARL_v6","SARL_v6z3c8of0j","631a68ee10ec68377cb03457","fixation","","","img/fixation.png","null","","","test","","","","","","","","","","","","","","","","","","","",""
"555.9000000059605","294103","SARL_v6","SARL_v6z3c8of0j","631a68ee10ec68377cb03457","infreq","","","img/blue_2bandit_b2.png","68","","68","test","1","","39","","","","circle","square","38","15","2","0.9736842105263158","","","","","","","",""
"null","294363","SARL_v6","SARL_v6z3c8of0j","631a68ee10ec68377cb03457","infreq_resp","","","img/blue_2bandit_b.png","68","img/blue_2bandit_b.png","68","test","","","","","","","","","","","2","","","","","","","","",""
"null","294519","SARL_v6","SARL_v6z3c8of0j","631a68ee10ec68377cb03457","fixation","","","img/fixation.png","null","","","test","","","","","","","","","","","","","","","","","","","",""
"417","294939","SARL_v6","SARL_v6z3c8of0j","631a68ee10ec68377cb03457","freq","","","img/orange_2bandit_b2.png","70","","70","test","1","","40","","","","circle","square","39","16","2","0.9743589743589743","","","","","","","",""
"null","295326","SARL_v6","SARL_v6z3c8of0j","631a68ee10ec68377cb03457","freq_resp","","","img/orange_2bandit_b.png","70","img/orange_2bandit_b.png","70","test","","","","","","","","","","","2","","","","","","","","",""
"null","295489","SARL_v6","SARL_v6z3c8of0j","631a68ee10ec68377cb03457","fixation","","","img/fixation.png","null","","","test","","","","","","","","","","","","","","","","","","","",""
"431","295923","SARL_v6","SARL_v6z3c8of0j","631a68ee10ec68377cb03457","freq","","","img/orange_2bandit_b2.png","70","","70","test","1","","41","","","","circle","square","40","17","2","0.975","","","","","","","",""
"null","296301","SARL_v6","SARL_v6z3c8of0j","631a68ee10ec68377cb03457","freq_resp","","","img/orange_2bandit_b.png","70","img/orange_2bandit_b.png","70","test","","","","","","","","","","","2","","","","","","","","",""
"null","296463","SARL_v6","SARL_v6z3c8of0j","631a68ee10ec68377cb03457","fixation","","","img/fixation.png","null","","","test","","","","","","","","","","","","","","","","","","","",""
"416.59999999403954","296882","SARL_v6","SARL_v6z3c8of0j","631a68ee10ec68377cb03457","freq","","","img/orange_2bandit_b2.png","70","","70","test","1","","42","","","","circle","square","41","18","2","0.975609756097561","","","","","","","",""
"null","297275","SARL_v6","SARL_v6z3c8of0j","631a68ee10ec68377cb03457","freq_resp","","","img/orange_2bandit_b.png","70","img/orange_2bandit_b.png","70","test","","","","","","","","","","","2","","","","","","","","",""
"null","297434","SARL_v6","SARL_v6z3c8of0j","631a68ee10ec68377cb03457","fixation","","","img/fixation.png","null","","","test","","","","","","","","","","","","","","","","","","","",""
"341.89999997615814","297778","SARL_v6","SARL_v6z3c8of0j","631a68ee10ec68377cb03457","freq","","","img/orange_2bandit_b2.png","70","","70","test","1","","43","","","","circle","square","42","19","2","0.9761904761904762","","","","","","","",""
"null","298245","SARL_v6","SARL_v6z3c8of0j","631a68ee10ec68377cb03457","freq_resp","","","img/orange_2bandit_b.png","70","img/orange_2bandit_b.png","70","test","","","","","","","","","","","2","","","","","","","","",""
"null","298405","SARL_v6","SARL_v6z3c8of0j","631a68ee10ec68377cb03457","fixation","","","img/fixation.png","null","","","test","","","","","","","","","","","","","","","","","","","",""
"322.19999998807907","298729","SARL_v6","SARL_v6z3c8of0j","631a68ee10ec68377cb03457","freq","","","img/orange_2bandit_b2.png","70","","70","test","1","","44","","","","circle","square","43","20","2","0.9767441860465116","","","","","","","",""
"null","299214","SARL_v6","SARL_v6z3c8of0j","631a68ee10ec68377cb03457","freq_resp","","","img/orange_2bandit_b.png","70","img/orange_2bandit_b.png","70","test","","","","","","","","","","","2","","","","","","","","",""
"null","299376","SARL_v6","SARL_v6z3c8of0j","631a68ee10ec68377cb03457","fixation","","","img/fixation.png","null","","","test","","","","","","","","","","","","","","","","","","","",""
"262.90000000596046","299642","SARL_v6","SARL_v6z3c8of0j","631a68ee10ec68377cb03457","freq","","","img/orange_2bandit_b2.png","70","","70","test","1","","45","","","","circle","square","44","21","2","0.9772727272727273","","","","","","","",""
"null","300191","SARL_v6","SARL_v6z3c8of0j","631a68ee10ec68377cb03457","freq_resp","","","img/orange_2bandit_b.png","70","img/orange_2bandit_b.png","70","test","","","","","","","","","","","2","","","","","","","","",""
"null","300353","SARL_v6","SARL_v6z3c8of0j","631a68ee10ec68377cb03457","fixation","","","img/fixation.png","null","","","test","","","","","","","","","","","","","","","","","","","",""
"302.40000000596046","300657","SARL_v6","SARL_v6z3c8of0j","631a68ee10ec68377cb03457","freq","","","img/orange_2bandit_b2.png","70","","70","test","1","","46","","","","circle","square","45","22","2","0.9777777777777777","","","","","","","",""
"null","301157","SARL_v6","SARL_v6z3c8of0j","631a68ee10ec68377cb03457","freq_resp","","","img/orange_2bandit_b.png","70","img/orange_2bandit_b.png","70","test","","","","","","","","","","","2","","","","","","","","",""
"null","301322","SARL_v6","SARL_v6z3c8of0j","631a68ee10ec68377cb03457","fixation","","","img/fixation.png","null","","","test","","","","","","","","","","","","","","","","","","","",""
"253.30000001192093","301578","SARL_v6","SARL_v6z3c8of0j","631a68ee10ec68377cb03457","freq","","","img/orange_2bandit_b2.png","70","","70","test","1","","47","","","","circle","square","46","23","2","0.9782608695652174","","","","","","","",""
"null","302134","SARL_v6","SARL_v6z3c8of0j","631a68ee10ec68377cb03457","freq_resp","","","img/orange_2bandit_b.png","70","img/orange_2bandit_b.png","70","test","","","","","","","","","","","2","","","","","","","","",""
"null","302294","SARL_v6","SARL_v6z3c8of0j","631a68ee10ec68377cb03457","fixation","","","img/fixation.png","null","","","test","","","","","","","","","","","","","","","","","","","",""
"313.80000001192093","302610","SARL_v6","SARL_v6z3c8of0j","631a68ee10ec68377cb03457","freq","","","img/orange_2bandit_b2.png","70","","70","test","1","","48","","","","circle","square","47","24","2","0.9787234042553191","","","","","","","",""
"null","303104","SARL_v6","SARL_v6z3c8of0j","631a68ee10ec68377cb03457","freq_resp","","","img/orange_2bandit_b.png","70","img/orange_2bandit_b.png","70","test","","","","","","","","","","","2","","","","","","","","",""
"null","303261","SARL_v6","SARL_v6z3c8of0j","631a68ee10ec68377cb03457","fixation","","","img/fixation.png","null","","","test","","","","","","","","","","","","","","","","","","","",""
"506.89999997615814","303771","SARL_v6","SARL_v6z3c8of0j","631a68ee10ec68377cb03457","rl","","","img/black_2bandit_b2.png","74","","0","test","","","49","","","-8","circle","square","","0","2","","74","-8","-5","-8","-5","circle","2","0"
"null","304529","SARL_v6","SARL_v6z3c8of0j","631a68ee10ec68377cb03457","feedback","","","<div class=""verylowPoints""> -8 </div>","null","","na","test","","","NaN","","","","","","","","2","","74","","","","","","2",""
"408.69999998807907","304942","SARL_v6","SARL_v6z3c8of0j","631a68ee10ec68377cb03457","freq","","","img/orange_2bandit_b2.png","70","","70","test","1","","50","","","","circle","square","48","1","3","0.9791666666666666","","","","","","","",""
"null","305341","SARL_v6","SARL_v6z3c8of0j","631a68ee10ec68377cb03457","freq_resp","","","img/orange_2bandit_b.png","70","img/orange_2bandit_b.png","70","test","","","","","","","","","","","3","","","","","","","","",""
"null","305496","SARL_v6","SARL_v6z3c8of0j","631a68ee10ec68377cb03457","fixation","","","img/fixation.png","null","","","test","","","","","","","","","","","","","","","","","","","",""
"343.59999999403954","305843","SARL_v6","SARL_v6z3c8of0j","631a68ee10ec68377cb03457","freq","","","img/orange_2bandit_b2.png","70","","70","test","1","","51","","","","circle","square","49","2","3","0.9795918367346939","","","","","","","",""
"null","306315","SARL_v6","SARL_v6z3c8of0j","631a68ee10ec68377cb03457","freq_resp","","","img/orange_2bandit_b.png","70","img/orange_2bandit_b.png","70","test","","","","","","","","","","","3","","","","","","","","",""
"null","306471","SARL_v6","SARL_v6z3c8of0j","631a68ee10ec68377cb03457","fixation","","","img/fixation.png","null","","","test","","","","","","","","","","","","","","","","","","","",""
"312.59999999403954","306787","SARL_v6","SARL_v6z3c8of0j","631a68ee10ec68377cb03457","freq","","","img/orange_2bandit_b2.png","70","","70","test","1","","52","","","","circle","square","50","3","3","0.98","","","","","","","",""
"null","307283","SARL_v6","SARL_v6z3c8of0j","631a68ee10ec68377cb03457","freq_resp","","","img/orange_2bandit_b.png","70","img/orange_2bandit_b.png","70","test","","","","","","","","","","","3","","","","","","","","",""
"null","307440","SARL_v6","SARL_v6z3c8of0j","631a68ee10ec68377cb03457","fixation","","","img/fixation.png","null","","","test","","","","","","","","","","","","","","","","","","","",""
"310.80000001192093","307753","SARL_v6","SARL_v6z3c8of0j","631a68ee10ec68377cb03457","freq","","","img/orange_2bandit_b2.png","70","","70","test","1","","53","","","","circle","square","51","4","3","0.9803921568627451","","","","","","","",""
"null","308246","SARL_v6","SARL_v6z3c8of0j","631a68ee10ec68377cb03457","freq_resp","","","img/orange_2bandit_b.png","70","img/orange_2bandit_b.png","70","test","","","","","","","","","","","3","","","","","","","","",""
"null","308406","SARL_v6","SARL_v6z3c8of0j","631a68ee10ec68377cb03457","fixation","","","img/fixation.png","null","","","test","","","","","","","","","","","","","","","","","","","",""
"337.90000000596046","308746","SARL_v6","SARL_v6z3c8of0j","631a68ee10ec68377cb03457","freq","","","img/orange_2bandit_b2.png","70","","70","test","1","","54","","","","circle","square","52","5","3","0.9807692307692307","","","","","","","",""
"null","309214","SARL_v6","SARL_v6z3c8of0j","631a68ee10ec68377cb03457","freq_resp","","","img/orange_2bandit_b.png","70","img/orange_2bandit_b.png","70","test","","","","","","","","","","","3","","","","","","","","",""
"null","309374","SARL_v6","SARL_v6z3c8of0j","631a68ee10ec68377cb03457","fixation","","","img/fixation.png","null","","","test","","","","","","","","","","","","","","","","","","","",""
"281.09999999403954","309657","SARL_v6","SARL_v6z3c8of0j","631a68ee10ec68377cb03457","freq","","","img/orange_2bandit_b2.png","70","","70","test","1","","55","","","","circle","square","53","6","3","0.9811320754716981","","","","","","","",""
"null","310182","SARL_v6","SARL_v6z3c8of0j","631a68ee10ec68377cb03457","freq_resp","","","img/orange_2bandit_b.png","70","img/orange_2bandit_b.png","70","test","","","","","","","","","","","3","","","","","","","","",""
"null","310341","SARL_v6","SARL_v6z3c8of0j","631a68ee10ec68377cb03457","fixation","","","img/fixation.png","null","","","test","","","","","","","","","","","","","","","","","","","",""
"314.40000000596046","310657","SARL_v6","SARL_v6z3c8of0j","631a68ee10ec68377cb03457","freq","","","img/orange_2bandit_b2.png","70","","70","test","1","","56","","","","circle","square","54","7","3","0.9814814814814815","","","","","","","",""
"null","311150","SARL_v6","SARL_v6z3c8of0j","631a68ee10ec68377cb03457","freq_resp","","","img/orange_2bandit_b.png","70","img/orange_2bandit_b.png","70","test","","","","","","","","","","","3","","","","","","","","",""
"null","311312","SARL_v6","SARL_v6z3c8of0j","631a68ee10ec68377cb03457","fixation","","","img/fixation.png","null","","","test","","","","","","","","","","","","","","","","","","","",""
"286.7000000178814","311602","SARL_v6","SARL_v6z3c8of0j","631a68ee10ec68377cb03457","freq","","","img/orange_2bandit_b2.png","70","","70","test","1","","57","","","","circle","square","55","8","3","0.9818181818181818","","","","","","","",""
"null","312125","SARL_v6","SARL_v6z3c8of0j","631a68ee10ec68377cb03457","freq_resp","","","img/orange_2bandit_b.png","70","img/orange_2bandit_b.png","70","test","","","","","","","","","","","3","","","","","","","","",""
"null","312288","SARL_v6","SARL_v6z3c8of0j","631a68ee10ec68377cb03457","fixation","","","img/fixation.png","null","","","test","","","","","","","","","","","","","","","","","","","",""
"342.80000001192093","312633","SARL_v6","SARL_v6z3c8of0j","631a68ee10ec68377cb03457","freq","","","img/orange_2bandit_b2.png","70","","70","test","1","","58","","","","circle","square","56","9","3","0.9821428571428571","","","","","","","",""
"null","313092","SARL_v6","SARL_v6z3c8of0j","631a68ee10ec68377cb03457","freq_resp","","","img/orange_2bandit_b.png","70","img/orange_2bandit_b.png","70","test","","","","","","","","","","","3","","","","","","","","",""
"null","313254","SARL_v6","SARL_v6z3c8of0j","631a68ee10ec68377cb03457","fixation","","","img/fixation.png","null","","","test","","","","","","","","","","","","","","","","","","","",""
"329.09999999403954","313586","SARL_v6","SARL_v6z3c8of0j","631a68ee10ec68377cb03457","freq","","","img/orange_2bandit_b2.png","70","","70","test","1","","59","","","","circle","square","57","10","3","0.9824561403508771","","","","","","","",""
"null","314064","SARL_v6","SARL_v6z3c8of0j","631a68ee10ec68377cb03457","freq_resp","","","img/orange_2bandit_b.png","70","img/orange_2bandit_b.png","70","test","","","","","","","","","","","3","","","","","","","","",""
"null","314222","SARL_v6","SARL_v6z3c8of0j","631a68ee10ec68377cb03457","fixation","","","img/fixation.png","null","","","test","","","","","","","","","","","","","","","","","","","",""
"313.59999999403954","314542","SARL_v6","SARL_v6z3c8of0j","631a68ee10ec68377cb03457","freq","","","img/orange_2bandit_b2.png","70","","70","test","1","","60","","","","circle","square","58","11","3","0.9827586206896551","","","","","","","",""
"null","315039","SARL_v6","SARL_v6z3c8of0j","631a68ee10ec68377cb03457","freq_resp","","","img/orange_2bandit_b.png","70","img/orange_2bandit_b.png","70","test","","","","","","","","","","","3","","","","","","","","",""
"null","315198","SARL_v6","SARL_v6z3c8of0j","631a68ee10ec68377cb03457","fixation","","","img/fixation.png","null","","","test","","","","","","","","","","","","","","","","","","","",""
"241.2999999821186","315442","SARL_v6","SARL_v6z3c8of0j","631a68ee10ec68377cb03457","freq","","","img/orange_2bandit_b2.png","70","","70","test","1","","61","","","","circle","square","59","12","3","0.9830508474576272","","","","","","","",""
"null","316011","SARL_v6","SARL_v6z3c8of0j","631a68ee10ec68377cb03457","freq_resp","","","img/orange_2bandit_b.png","70","img/orange_2bandit_b.png","70","test","","","","","","","","","","","3","","","","","","","","",""
"null","316166","SARL_v6","SARL_v6z3c8of0j","631a68ee10ec68377cb03457","fixation","","","img/fixation.png","null","","","test","","","","","","","","","","","","","","","","","","","",""
"200.40000000596046","316370","SARL_v6","SARL_v6z3c8of0j","631a68ee10ec68377cb03457","freq","","","img/orange_2bandit_b2.png","70","","70","test","1","","62","","","","circle","square","60","13","3","0.9833333333333333","","","","","","","",""
"null","316978","SARL_v6","SARL_v6z3c8of0j","631a68ee10ec68377cb03457","freq_resp","","","img/orange_2bandit_b.png","70","img/orange_2bandit_b.png","70","test","","","","","","","","","","","3","","","","","","","","",""
"null","317133","SARL_v6","SARL_v6z3c8of0j","631a68ee10ec68377cb03457","fixation","","","img/fixation.png","null","","","test","","","","","","","","","","","","","","","","","","","",""
"210.5","317346","SARL_v6","SARL_v6z3c8of0j","631a68ee10ec68377cb03457","freq","","","img/orange_2bandit_b2.png","70","","70","test","1","","63","","","","circle","square","61","14","3","0.9836065573770492","","","","","","","",""
"null","317942","SARL_v6","SARL_v6z3c8of0j","631a68ee10ec68377cb03457","freq_resp","","","img/orange_2bandit_b.png","70","img/orange_2bandit_b.png","70","test","","","","","","","","","","","3","","","","","","","","",""
"null","318104","SARL_v6","SARL_v6z3c8of0j","631a68ee10ec68377cb03457","fixation","","","img/fixation.png","null","","","test","","","","","","","","","","","","","","","","","","","",""
"327","318433","SARL_v6","SARL_v6z3c8of0j","631a68ee10ec68377cb03457","freq","","","img/orange_2bandit_b2.png","70","","70","test","1","","64","","","","circle","square","62","15","3","0.9838709677419355","","","","","","","",""
"null","318914","SARL_v6","SARL_v6z3c8of0j","631a68ee10ec68377cb03457","freq_resp","","","img/orange_2bandit_b.png","70","img/orange_2bandit_b.png","70","test","","","","","","","","","","","3","","","","","","","","",""
"null","319069","SARL_v6","SARL_v6z3c8of0j","631a68ee10ec68377cb03457","fixation","","","img/fixation.png","null","","","test","","","","","","","","","","","","","","","","","","","",""
"250","319321","SARL_v6","SARL_v6z3c8of0j","631a68ee10ec68377cb03457","infreq","","","img/blue_2bandit_b2.png","70","","68","test","0","","65","","","","circle","square","63","16","3","0.9682539682539683","","","","","","","",""
"null","319879","SARL_v6","SARL_v6z3c8of0j","631a68ee10ec68377cb03457","infreq_resp","","","img/blue_2bandit_b.png","70","img/blue_2bandit_b.png","68","test","","","","","","","","","","","3","","","","","","","","",""
"null","320038","SARL_v6","SARL_v6z3c8of0j","631a68ee10ec68377cb03457","fixation","","","img/fixation.png","null","","","test","","","","","","","","","","","","","","","","","","","",""
"17.299999982118607","320057","SARL_v6","SARL_v6z3c8of0j","631a68ee10ec68377cb03457","freq","","","img/orange_2bandit_b2.png","68","","70","test","0","","66","","","","circle","square","64","17","3","0.953125","","","","","","","",""
"null","320849","SARL_v6","SARL_v6z3c8of0j","631a68ee10ec68377cb03457","freq_resp","","","img/orange_2bandit_b.png","68","img/orange_2bandit_b.png","70","test","","","","","","","","","","","3","","","","","","","","",""
"null","321009","SARL_v6","SARL_v6z3c8of0j","631a68ee10ec68377cb03457","fixation","","","img/fixation.png","null","","","test","","","","","","","","","","","","","","","","","","","",""
"606.2999999821186","321617","SARL_v6","SARL_v6z3c8of0j","631a68ee10ec68377cb03457","infreq","","","img/blue_2bandit_b2.png","68","","68","test","1","","67","","","","circle","square","65","18","3","0.9538461538461539","","","","","","","",""
"null","321818","SARL_v6","SARL_v6z3c8of0j","631a68ee10ec68377cb03457","infreq_resp","","","img/blue_2bandit_b.png","68","img/blue_2bandit_b.png","68","test","","","","","","","","","","","3","","","","","","","","",""
"null","321978","SARL_v6","SARL_v6z3c8of0j","631a68ee10ec68377cb03457","fixation","","","img/fixation.png","null","","","test","","","","","","","","","","","","","","","","","","","",""
"428.90000000596046","322409","SARL_v6","SARL_v6z3c8of0j","631a68ee10ec68377cb03457","freq","","","img/orange_2bandit_b2.png","70","","70","test","1","","68","","","","circle","square","66","19","3","0.9545454545454546","","","","","","","",""
"null","322793","SARL_v6","SARL_v6z3c8of0j","631a68ee10ec68377cb03457","freq_resp","","","img/orange_2bandit_b.png","70","img/orange_2bandit_b.png","70","test","","","","","","","","","","","3","","","","","","","","",""
"null","322949","SARL_v6","SARL_v6z3c8of0j","631a68ee10ec68377cb03457","fixation","","","img/fixation.png","null","","","test","","","","","","","","","","","","","","","","","","","",""
"274.19999998807907","323225","SARL_v6","SARL_v6z3c8of0j","631a68ee10ec68377cb03457","freq","","","img/orange_2bandit_b2.png","70","","70","test","1","","69","","","","circle","square","67","20","3","0.9552238805970149","","","","","","","",""
"null","323758","SARL_v6","SARL_v6z3c8of0j","631a68ee10ec68377cb03457","freq_resp","","","img/orange_2bandit_b.png","70","img/orange_2bandit_b.png","70","test","","","","","","","","","","","3","","","","","","","","",""
"null","323918","SARL_v6","SARL_v6z3c8of0j","631a68ee10ec68377cb03457","fixation","","","img/fixation.png","null","","","test","","","","","","","","","","","","","","","","","","","",""
"275.2999999821186","324195","SARL_v6","SARL_v6z3c8of0j","631a68ee10ec68377cb03457","freq","","","img/orange_2bandit_b2.png","70","","70","test","1","","70","","","","circle","square","68","21","3","0.9558823529411765","","","","","","","",""
"null","324729","SARL_v6","SARL_v6z3c8of0j","631a68ee10ec68377cb03457","freq_resp","","","img/orange_2bandit_b.png","70","img/orange_2bandit_b.png","70","test","","","","","","","","","","","3","","","","","","","","",""
"null","324890","SARL_v6","SARL_v6z3c8of0j","631a68ee10ec68377cb03457","fixation","","","img/fixation.png","null","","","test","","","","","","","","","","","","","","","","","","","",""
"525.5999999940395","325418","SARL_v6","SARL_v6z3c8of0j","631a68ee10ec68377cb03457","rl","","","img/black_2bandit_b2.png","74","","0","test","","","71","","","-8","circle","square","","0","3","","74","-8","-4","-8","-4","circle","3","0"
"null","326177","SARL_v6","SARL_v6z3c8of0j","631a68ee10ec68377cb03457","feedback","","","<div class=""verylowPoints""> -8 </div>","null","","na","test","","","NaN","","","","","","","","3","","74","","","","","","3",""
"462.7999999821186","326642","SARL_v6","SARL_v6z3c8of0j","631a68ee10ec68377cb03457","freq","","","img/orange_2bandit_b2.png","70","","70","test","1","","72","","","","circle","square","69","1","4","0.9565217391304348","","","","","","","",""
"null","326989","SARL_v6","SARL_v6z3c8of0j","631a68ee10ec68377cb03457","freq_resp","","","img/orange_2bandit_b.png","70","img/orange_2bandit_b.png","70","test","","","","","","","","","","","4","","","","","","","","",""
"null","327150","SARL_v6","SARL_v6z3c8of0j","631a68ee10ec68377cb03457","fixation","","","img/fixation.png","null","","","test","","","","","","","","","","","","","","","","","","","",""
"377.09999999403954","327530","SARL_v6","SARL_v6z3c8of0j","631a68ee10ec68377cb03457","freq","","","img/orange_2bandit_b2.png","70","","70","test","1","","73","","","","circle","square","70","2","4","0.9571428571428572","","","","","","","",""
"null","327962","SARL_v6","SARL_v6z3c8of0j","631a68ee10ec68377cb03457","freq_resp","","","img/orange_2bandit_b.png","70","img/orange_2bandit_b.png","70","test","","","","","","","","","","","4","","","","","","","","",""
"null","328117","SARL_v6","SARL_v6z3c8of0j","631a68ee10ec68377cb03457","fixation","","","img/fixation.png","null","","","test","","","","","","","","","","","","","","","","","","","",""
"322.09999999403954","328441","SARL_v6","SARL_v6z3c8of0j","631a68ee10ec68377cb03457","freq","","","img/orange_2bandit_b2.png","70","","70","test","1","","74","","","","circle","square","71","3","4","0.9577464788732394","","","","","","","",""
"null","328927","SARL_v6","SARL_v6z3c8of0j","631a68ee10ec68377cb03457","freq_resp","","","img/orange_2bandit_b.png","70","img/orange_2bandit_b.png","70","test","","","","","","","","","","","4","","","","","","","","",""
"null","329086","SARL_v6","SARL_v6z3c8of0j","631a68ee10ec68377cb03457","fixation","","","img/fixation.png","null","","","test","","","","","","","","","","","","","","","","","","","",""
"513","329601","SARL_v6","SARL_v6z3c8of0j","631a68ee10ec68377cb03457","infreq","","","img/blue_2bandit_b2.png","68","","68","test","1","","75","","","","circle","square","72","4","4","0.9583333333333334","","","","","","","",""
"null","329894","SARL_v6","SARL_v6z3c8of0j","631a68ee10ec68377cb03457","infreq_resp","","","img/blue_2bandit_b.png","68","img/blue_2bandit_b.png","68","test","","","","","","","","","","","4","","","","","","","","",""
"null","330053","SARL_v6","SARL_v6z3c8of0j","631a68ee10ec68377cb03457","fixation","","","img/fixation.png","null","","","test","","","","","","","","","","","","","","","","","","","",""
"465.90000000596046","330521","SARL_v6","SARL_v6z3c8of0j","631a68ee10ec68377cb03457","freq","","","img/orange_2bandit_b2.png","70","","70","test","1","","76","","","","circle","square","73","5","4","0.958904109589041","","","","","","","",""
"null","330862","SARL_v6","SARL_v6z3c8of0j","631a68ee10ec68377cb03457","freq_resp","","","img/orange_2bandit_b.png","70","img/orange_2bandit_b.png","70","test","","","","","","","","","","","4","","","","","","","","",""
"null","331024","SARL_v6","SARL_v6z3c8of0j","631a68ee10ec68377cb03457","fixation","","","img/fixation.png","null","","","test","","","","","","","","","","","","","","","","","","","",""
"358.59999999403954","331385","SARL_v6","SARL_v6z3c8of0j","631a68ee10ec68377cb03457","freq","","","img/orange_2bandit_b2.png","70","","70","test","1","","77","","","","circle","square","74","6","4","0.9594594594594594","","","","","","","",""
"null","331842","SARL_v6","SARL_v6z3c8of0j","631a68ee10ec68377cb03457","freq_resp","","","img/orange_2bandit_b.png","70","img/orange_2bandit_b.png","70","test","","","","","","","","","","","4","","","","","","","","",""
"null","332001","SARL_v6","SARL_v6z3c8of0j","631a68ee10ec68377cb03457","fixation","","","img/fixation.png","null","","","test","","","","","","","","","","","","","","","","","","","",""
"318.09999999403954","332321","SARL_v6","SARL_v6z3c8of0j","631a68ee10ec68377cb03457","freq","","","img/orange_2bandit_b2.png","70","","70","test","1","","78","","","","circle","square","75","7","4","0.96","","","","","","","",""
"null","332814","SARL_v6","SARL_v6z3c8of0j","631a68ee10ec68377cb03457","freq_resp","","","img/orange_2bandit_b.png","70","img/orange_2bandit_b.png","70","test","","","","","","","","","","","4","","","","","","","","",""
"null","332973","SARL_v6","SARL_v6z3c8of0j","631a68ee10ec68377cb03457","fixation","","","img/fixation.png","null","","","test","","","","","","","","","","","","","","","","","","","",""
"401.5","333377","SARL_v6","SARL_v6z3c8of0j","631a68ee10ec68377cb03457","freq","","","img/orange_2bandit_b2.png","70","","70","test","1","","79","","","","circle","square","76","8","4","0.9605263157894737","","","","","","","",""
"null","333781","SARL_v6","SARL_v6z3c8of0j","631a68ee10ec68377cb03457","freq_resp","","","img/orange_2bandit_b.png","70","img/orange_2bandit_b.png","70","test","","","","","","","","","","","4","","","","","","","","",""
"null","333944","SARL_v6","SARL_v6z3c8of0j","631a68ee10ec68377cb03457","fixation","","","img/fixation.png","null","","","test","","","","","","","","","","","","","","","","","","","",""
"351.09999999403954","334298","SARL_v6","SARL_v6z3c8of0j","631a68ee10ec68377cb03457","freq","","","img/orange_2bandit_b2.png","70","","70","test","1","","80","","","","circle","square","77","9","4","0.961038961038961","","","","","","","",""
"null","334762","SARL_v6","SARL_v6z3c8of0j","631a68ee10ec68377cb03457","freq_resp","","","img/orange_2bandit_b.png","70","img/orange_2bandit_b.png","70","test","","","","","","","","","","","4","","","","","","","","",""
"null","334922","SARL_v6","SARL_v6z3c8of0j","631a68ee10ec68377cb03457","fixation","","","img/fixation.png","null","","","test","","","","","","","","","","","","","","","","","","","",""
"365.40000000596046","335290","SARL_v6","SARL_v6z3c8of0j","631a68ee10ec68377cb03457","freq","","","img/orange_2bandit_b2.png","70","","70","test","1","","81","","","","circle","square","78","10","4","0.9615384615384616","","","","","","","",""
"null","335734","SARL_v6","SARL_v6z3c8of0j","631a68ee10ec68377cb03457","freq_resp","","","img/orange_2bandit_b.png","70","img/orange_2bandit_b.png","70","test","","","","","","","","","","","4","","","","","","","","",""
"null","335894","SARL_v6","SARL_v6z3c8of0j","631a68ee10ec68377cb03457","fixation","","","img/fixation.png","null","","","test","","","","","","","","","","","","","","","","","","","",""
"353.5","336250","SARL_v6","SARL_v6z3c8of0j","631a68ee10ec68377cb03457","freq","","","img/orange_2bandit_b2.png","70","","70","test","1","","82","","","","circle","square","79","11","4","0.9620253164556962","","","","","","","",""
"null","336705","SARL_v6","SARL_v6z3c8of0j","631a68ee10ec68377cb03457","freq_resp","","","img/orange_2bandit_b.png","70","img/orange_2bandit_b.png","70","test","","","","","","","","","","","4","","","","","","","","",""
"null","336862","SARL_v6","SARL_v6z3c8of0j","631a68ee10ec68377cb03457","fixation","","","img/fixation.png","null","","","test","","","","","","","","","","","","","","","","","","","",""
"585.2000000178814","337450","SARL_v6","SARL_v6z3c8of0j","631a68ee10ec68377cb03457","infreq","","","img/blue_2bandit_b2.png","68","","68","test","1","","83","","","","circle","square","80","12","4","0.9625","","","","","","","",""
"null","337673","SARL_v6","SARL_v6z3c8of0j","631a68ee10ec68377cb03457","infreq_resp","","","img/blue_2bandit_b.png","68","img/blue_2bandit_b.png","68","test","","","","","","","","","","","4","","","","","","","","",""
"null","337830","SARL_v6","SARL_v6z3c8of0j","631a68ee10ec68377cb03457","fixation","","","img/fixation.png","null","","","test","","","","","","","","","","","","","","","","","","","",""
"433","338266","SARL_v6","SARL_v6z3c8of0j","631a68ee10ec68377cb03457","freq","","","img/orange_2bandit_b2.png","70","","70","test","1","","84","","","","circle","square","81","13","4","0.9629629629629629","","","","","","","",""
"null","338640","SARL_v6","SARL_v6z3c8of0j","631a68ee10ec68377cb03457","freq_resp","","","img/orange_2bandit_b.png","70","img/orange_2bandit_b.png","70","test","","","","","","","","","","","4","","","","","","","","",""
"null","338798","SARL_v6","SARL_v6z3c8of0j","631a68ee10ec68377cb03457","fixation","","","img/fixation.png","null","","","test","","","","","","","","","","","","","","","","","","","",""
"504.40000000596046","339304","SARL_v6","SARL_v6z3c8of0j","631a68ee10ec68377cb03457","freq","","","img/orange_2bandit_b2.png","70","","70","test","1","","85","","","","circle","square","82","14","4","0.9634146341463414","","","","","","","",""
"null","339605","SARL_v6","SARL_v6z3c8of0j","631a68ee10ec68377cb03457","freq_resp","","","img/orange_2bandit_b.png","70","img/orange_2bandit_b.png","70","test","","","","","","","","","","","4","","","","","","","","",""
"null","339768","SARL_v6","SARL_v6z3c8of0j","631a68ee10ec68377cb03457","fixation","","","img/fixation.png","null","","","test","","","","","","","","","","","","","","","","","","","",""
"446.90000000596046","340217","SARL_v6","SARL_v6z3c8of0j","631a68ee10ec68377cb03457","freq","","","img/orange_2bandit_b2.png","70","","70","test","1","","86","","","","circle","square","83","15","4","0.963855421686747","","","","","","","",""
"null","340583","SARL_v6","SARL_v6z3c8of0j","631a68ee10ec68377cb03457","freq_resp","","","img/orange_2bandit_b.png","70","img/orange_2bandit_b.png","70","test","","","","","","","","","","","4","","","","","","","","",""
"null","340743","SARL_v6","SARL_v6z3c8of0j","631a68ee10ec68377cb03457","fixation","","","img/fixation.png","null","","","test","","","","","","","","","","","","","","","","","","","",""
"639.8000000119209","341385","SARL_v6","SARL_v6z3c8of0j","631a68ee10ec68377cb03457","freq","","","img/orange_2bandit_b2.png","70","","70","test","1","","87","","","","circle","square","84","16","4","0.9642857142857143","","","","","","","",""
"null","341554","SARL_v6","SARL_v6z3c8of0j","631a68ee10ec68377cb03457","freq_resp","","","img/orange_2bandit_b.png","70","img/orange_2bandit_b.png","70","test","","","","","","","","","","","4","","","","","","","","",""
"null","341708","SARL_v6","SARL_v6z3c8of0j","631a68ee10ec68377cb03457","fixation","","","img/fixation.png","null","","","test","","","","","","","","","","","","","","","","","","","",""
"410.39999997615814","342120","SARL_v6","SARL_v6z3c8of0j","631a68ee10ec68377cb03457","freq","","","img/orange_2bandit_b2.png","70","","70","test","1","","88","","","","circle","square","85","17","4","0.9647058823529412","","","","","","","",""
"null","342520","SARL_v6","SARL_v6z3c8of0j","631a68ee10ec68377cb03457","freq_resp","","","img/orange_2bandit_b.png","70","img/orange_2bandit_b.png","70","test","","","","","","","","","","","4","","","","","","","","",""
"null","342679","SARL_v6","SARL_v6z3c8of0j","631a68ee10ec68377cb03457","fixation","","","img/fixation.png","null","","","test","","","","","","","","","","","","","","","","","","","",""
"423.10000002384186","343105","SARL_v6","SARL_v6z3c8of0j","631a68ee10ec68377cb03457","freq","","","img/orange_2bandit_b2.png","70","","70","test","1","","89","","","","circle","square","86","18","4","0.9651162790697675","","","","","","","",""
"null","343489","SARL_v6","SARL_v6z3c8of0j","631a68ee10ec68377cb03457","freq_resp","","","img/orange_2bandit_b.png","70","img/orange_2bandit_b.png","70","test","","","","","","","","","","","4","","","","","","","","",""
"null","343645","SARL_v6","SARL_v6z3c8of0j","631a68ee10ec68377cb03457","fixation","","","img/fixation.png","null","","","test","","","","","","","","","","","","","","","","","","","",""
"393.90000000596046","344041","SARL_v6","SARL_v6z3c8of0j","631a68ee10ec68377cb03457","freq","","","img/orange_2bandit_b2.png","70","","70","test","1","","90","","","","circle","square","87","19","4","0.9655172413793104","","","","","","","",""
"null","344454","SARL_v6","SARL_v6z3c8of0j","631a68ee10ec68377cb03457","freq_resp","","","img/orange_2bandit_b.png","70","img/orange_2bandit_b.png","70","test","","","","","","","","","","","4","","","","","","","","",""
"null","344613","SARL_v6","SARL_v6z3c8of0j","631a68ee10ec68377cb03457","fixation","","","img/fixation.png","null","","","test","","","","","","","","","","","","","","","","","","","",""
"321.89999997615814","344938","SARL_v6","SARL_v6z3c8of0j","631a68ee10ec68377cb03457","freq","","","img/orange_2bandit_b2.png","70","","70","test","1","","91","","","","circle","square","88","20","4","0.9659090909090909","","","","","","","",""
"null","345423","SARL_v6","SARL_v6z3c8of0j","631a68ee10ec68377cb03457","freq_resp","","","img/orange_2bandit_b.png","70","img/orange_2bandit_b.png","70","test","","","","","","","","","","","4","","","","","","","","",""
"null","345582","SARL_v6","SARL_v6z3c8of0j","631a68ee10ec68377cb03457","fixation","","","img/fixation.png","null","","","test","","","","","","","","","","","","","","","","","","","",""
"361.30000001192093","345946","SARL_v6","SARL_v6z3c8of0j","631a68ee10ec68377cb03457","freq","","","img/orange_2bandit_b2.png","70","","70","test","1","","92","","","","circle","square","89","21","4","0.9662921348314607","","","","","","","",""
"null","346394","SARL_v6","SARL_v6z3c8of0j","631a68ee10ec68377cb03457","freq_resp","","","img/orange_2bandit_b.png","70","img/orange_2bandit_b.png","70","test","","","","","","","","","","","4","","","","","","","","",""
"null","346549","SARL_v6","SARL_v6z3c8of0j","631a68ee10ec68377cb03457","fixation","","","img/fixation.png","null","","","test","","","","","","","","","","","","","","","","","","","",""
"513.7000000178814","347066","SARL_v6","SARL_v6z3c8of0j","631a68ee10ec68377cb03457","freq","","","img/orange_2bandit_b2.png","70","","70","test","1","","93","","","","circle","square","90","22","4","0.9666666666666667","","","","","","","",""
"null","347361","SARL_v6","SARL_v6z3c8of0j","631a68ee10ec68377cb03457","freq_resp","","","img/orange_2bandit_b.png","70","img/orange_2bandit_b.png","70","test","","","","","","","","","","","4","","","","","","","","",""
"null","347522","SARL_v6","SARL_v6z3c8of0j","631a68ee10ec68377cb03457","fixation","","","img/fixation.png","null","","","test","","","","","","","","","","","","","","","","","","","",""
"397.19999998807907","347921","SARL_v6","SARL_v6z3c8of0j","631a68ee10ec68377cb03457","freq","","","img/orange_2bandit_b2.png","70","","70","test","1","","94","","","","circle","square","91","23","4","0.967032967032967","","","","","","","",""
"null","348336","SARL_v6","SARL_v6z3c8of0j","631a68ee10ec68377cb03457","freq_resp","","","img/orange_2bandit_b.png","70","img/orange_2bandit_b.png","70","test","","","","","","","","","","","4","","","","","","","","",""
"null","348493","SARL_v6","SARL_v6z3c8of0j","631a68ee10ec68377cb03457","fixation","","","img/fixation.png","null","","","test","","","","","","","","","","","","","","","","","","","",""
"601.1000000238419","349097","SARL_v6","SARL_v6z3c8of0j","631a68ee10ec68377cb03457","freq","","","img/orange_2bandit_b2.png","70","","70","test","1","","95","","","","circle","square","92","24","4","0.967391304347826","","","","","","","",""
"null","349300","SARL_v6","SARL_v6z3c8of0j","631a68ee10ec68377cb03457","freq_resp","","","img/orange_2bandit_b.png","70","img/orange_2bandit_b.png","70","test","","","","","","","","","","","4","","","","","","","","",""
"null","349462","SARL_v6","SARL_v6z3c8of0j","631a68ee10ec68377cb03457","fixation","","","img/fixation.png","null","","","test","","","","","","","","","","","","","","","","","","","",""
"416","349880","SARL_v6","SARL_v6z3c8of0j","631a68ee10ec68377cb03457","freq","","","img/orange_2bandit_b2.png","70","","70","test","1","","96","","","","circle","square","93","25","4","0.967741935483871","","","","","","","",""
"null","350268","SARL_v6","SARL_v6z3c8of0j","631a68ee10ec68377cb03457","freq_resp","","","img/orange_2bandit_b.png","70","img/orange_2bandit_b.png","70","test","","","","","","","","","","","4","","","","","","","","",""
"null","350428","SARL_v6","SARL_v6z3c8of0j","631a68ee10ec68377cb03457","fixation","","","img/fixation.png","null","","","test","","","","","","","","","","","","","","","","","","","",""
"522.1999999880791","350952","SARL_v6","SARL_v6z3c8of0j","631a68ee10ec68377cb03457","rl","","","img/black_2bandit_b2.png","75","","0","test","","","97","","","0","circle","square","","0","4","","75","-12","0","-12","0","square","4","0"
"null","351713","SARL_v6","SARL_v6z3c8of0j","631a68ee10ec68377cb03457","feedback","","","<div class=""verylowPoints_sq""> 0 </div>","null","","na","test","","","NaN","","","","","","","","4","","75","","","","","","4",""
"525.3000000119209","352240","SARL_v6","SARL_v6z3c8of0j","631a68ee10ec68377cb03457","freq","","","img/orange_2bandit_b2.png","70","","70","test","1","","98","","","","circle","square","94","1","5","0.9680851063829787","","","","","","","",""
"null","352525","SARL_v6","SARL_v6z3c8of0j","631a68ee10ec68377cb03457","freq_resp","","","img/orange_2bandit_b.png","70","img/orange_2bandit_b.png","70","test","","","","","","","","","","","5","","","","","","","","",""
"null","352688","SARL_v6","SARL_v6z3c8of0j","631a68ee10ec68377cb03457","fixation","","","img/fixation.png","null","","","test","","","","","","","","","","","","","","","","","","","",""
"502.69999998807907","353192","SARL_v6","SARL_v6z3c8of0j","631a68ee10ec68377cb03457","infreq","","","img/blue_2bandit_b2.png","68","","68","test","1","","99","","","","circle","square","95","2","5","0.968421052631579","","","","","","","",""
"null","353502","SARL_v6","SARL_v6z3c8of0j","631a68ee10ec68377cb03457","infreq_resp","","","img/blue_2bandit_b.png","68","img/blue_2bandit_b.png","68","test","","","","","","","","","","","5","","","","","","","","",""
"null","353665","SARL_v6","SARL_v6z3c8of0j","631a68ee10ec68377cb03457","fixation","","","img/fixation.png","null","","","test","","","","","","","","","","","","","","","","","","","",""
"492.2999999821186","354160","SARL_v6","SARL_v6z3c8of0j","631a68ee10ec68377cb03457","freq","","","img/orange_2bandit_b2.png","70","","70","test","1","","100","","","","circle","square","96","3","5","0.96875","","","","","","","",""
"null","354481","SARL_v6","SARL_v6z3c8of0j","631a68ee10ec68377cb03457","freq_resp","","","img/orange_2bandit_b.png","70","img/orange_2bandit_b.png","70","test","","","","","","","","","","","5","","","","","","","","",""
"null","354641","SARL_v6","SARL_v6z3c8of0j","631a68ee10ec68377cb03457","fixation","","","img/fixation.png","null","","","test","","","","","","","","","","","","","","","","","","","",""
"376.09999999403954","355021","SARL_v6","SARL_v6z3c8of0j","631a68ee10ec68377cb03457","freq","","","img/orange_2bandit_b2.png","70","","70","test","1","","101","","","","circle","square","97","4","5","0.9690721649484536","","","","","","","",""
"null","355454","SARL_v6","SARL_v6z3c8of0j","631a68ee10ec68377cb03457","freq_resp","","","img/orange_2bandit_b.png","70","img/orange_2bandit_b.png","70","test","","","","","","","","","","","5","","","","","","","","",""
"null","355616","SARL_v6","SARL_v6z3c8of0j","631a68ee10ec68377cb03457","fixation","","","img/fixation.png","null","","","test","","","","","","","","","","","","","","","","","","","",""
"367.19999998807907","355985","SARL_v6","SARL_v6z3c8of0j","631a68ee10ec68377cb03457","freq","","","img/orange_2bandit_b2.png","70","","70","test","1","","102","","","","circle","square","98","5","5","0.9693877551020408","","","","","","","",""
"null","356431","SARL_v6","SARL_v6z3c8of0j","631a68ee10ec68377cb03457","freq_resp","","","img/orange_2bandit_b.png","70","img/orange_2bandit_b.png","70","test","","","","","","","","","","","5","","","","","","","","",""
"null","356594","SARL_v6","SARL_v6z3c8of0j","631a68ee10ec68377cb03457","fixation","","","img/fixation.png","null","","","test","","","","","","","","","","","","","","","","","","","",""
"476.7999999821186","357075","SARL_v6","SARL_v6z3c8of0j","631a68ee10ec68377cb03457","freq","","","img/orange_2bandit_b2.png","70","","70","test","1","","103","","","","circle","square","99","6","5","0.9696969696969697","","","","","","","",""
"null","357410","SARL_v6","SARL_v6z3c8of0j","631a68ee10ec68377cb03457","freq_resp","","","img/orange_2bandit_b.png","70","img/orange_2bandit_b.png","70","test","","","","","","","","","","","5","","","","","","","","",""
"null","357565","SARL_v6","SARL_v6z3c8of0j","631a68ee10ec68377cb03457","fixation","","","img/fixation.png","null","","","test","","","","","","","","","","","","","","","","","","","",""
"353.59999999403954","357921","SARL_v6","SARL_v6z3c8of0j","631a68ee10ec68377cb03457","freq","","","img/orange_2bandit_b2.png","70","","70","test","1","","104","","","","circle","square","100","7","5","0.97","","","","","","","",""
"null","358374","SARL_v6","SARL_v6z3c8of0j","631a68ee10ec68377cb03457","freq_resp","","","img/orange_2bandit_b.png","70","img/orange_2bandit_b.png","70","test","","","","","","","","","","","5","","","","","","","","",""
"null","358534","SARL_v6","SARL_v6z3c8of0j","631a68ee10ec68377cb03457","fixation","","","img/fixation.png","null","","","test","","","","","","","","","","","","","","","","","","","",""
"368.40000000596046","358904","SARL_v6","SARL_v6z3c8of0j","631a68ee10ec68377cb03457","freq","","","img/orange_2bandit_b2.png","70","","70","test","1","","105","","","","circle","square","101","8","5","0.9702970297029703","","","","","","","",""
"null","359342","SARL_v6","SARL_v6z3c8of0j","631a68ee10ec68377cb03457","freq_resp","","","img/orange_2bandit_b.png","70","img/orange_2bandit_b.png","70","test","","","","","","","","","","","5","","","","","","","","",""
"null","359504","SARL_v6","SARL_v6z3c8of0j","631a68ee10ec68377cb03457","fixation","","","img/fixation.png","null","","","test","","","","","","","","","","","","","","","","","","","",""
"358.09999999403954","359864","SARL_v6","SARL_v6z3c8of0j","631a68ee10ec68377cb03457","freq","","","img/orange_2bandit_b2.png","70","","70","test","1","","106","","","","circle","square","102","9","5","0.9705882352941176","","","","","","","",""
"null","360317","SARL_v6","SARL_v6z3c8of0j","631a68ee10ec68377cb03457","freq_resp","","","img/orange_2bandit_b.png","70","img/orange_2bandit_b.png","70","test","","","","","","","","","","","5","","","","","","","","",""
"null","360479","SARL_v6","SARL_v6z3c8of0j","631a68ee10ec68377cb03457","fixation","","","img/fixation.png","null","","","test","","","","","","","","","","","","","","","","","","","",""
"359.59999999403954","360841","SARL_v6","SARL_v6z3c8of0j","631a68ee10ec68377cb03457","freq","","","img/orange_2bandit_b2.png","70","","70","test","1","","107","","","","circle","square","103","10","5","0.970873786407767","","","","","","","",""
"null","361289","SARL_v6","SARL_v6z3c8of0j","631a68ee10ec68377cb03457","freq_resp","","","img/orange_2bandit_b.png","70","img/orange_2bandit_b.png","70","test","","","","","","","","","","","5","","","","","","","","",""
"null","361447","SARL_v6","SARL_v6z3c8of0j","631a68ee10ec68377cb03457","fixation","","","img/fixation.png","null","","","test","","","","","","","","","","","","","","","","","","","",""
"343.7999999821186","361793","SARL_v6","SARL_v6z3c8of0j","631a68ee10ec68377cb03457","freq","","","img/orange_2bandit_b2.png","70","","70","test","1","","108","","","","circle","square","104","11","5","0.9711538461538461","","","","","","","",""
"null","362256","SARL_v6","SARL_v6z3c8of0j","631a68ee10ec68377cb03457","freq_resp","","","img/orange_2bandit_b.png","70","img/orange_2bandit_b.png","70","test","","","","","","","","","","","5","","","","","","","","",""
"null","362417","SARL_v6","SARL_v6z3c8of0j","631a68ee10ec68377cb03457","fixation","","","img/fixation.png","null","","","test","","","","","","","","","","","","","","","","","","","",""
"668.5999999940395","363088","SARL_v6","SARL_v6z3c8of0j","631a68ee10ec68377cb03457","infreq","","","img/blue_2bandit_b2.png","68","","68","test","1","","109","","","","circle","square","105","12","5","0.9714285714285714","","","","","","","",""
"null","363224","SARL_v6","SARL_v6z3c8of0j","631a68ee10ec68377cb03457","infreq_resp","","","img/blue_2bandit_b.png","68","img/blue_2bandit_b.png","68","test","","","","","","","","","","","5","","","","","","","","",""
"null","363384","SARL_v6","SARL_v6z3c8of0j","631a68ee10ec68377cb03457","fixation","","","img/fixation.png","null","","","test","","","","","","","","","","","","","","","","","","","",""
"502.30000001192093","363888","SARL_v6","SARL_v6z3c8of0j","631a68ee10ec68377cb03457","freq","","","img/orange_2bandit_b2.png","70","","70","test","1","","110","","","","circle","square","106","13","5","0.9716981132075472","","","","","","","",""
"null","364189","SARL_v6","SARL_v6z3c8of0j","631a68ee10ec68377cb03457","freq_resp","","","img/orange_2bandit_b.png","70","img/orange_2bandit_b.png","70","test","","","","","","","","","","","5","","","","","","","","",""
"null","364349","SARL_v6","SARL_v6z3c8of0j","631a68ee10ec68377cb03457","fixation","","","img/fixation.png","null","","","test","","","","","","","","","","","","","","","","","","","",""
"329.7999999821186","364681","SARL_v6","SARL_v6z3c8of0j","631a68ee10ec68377cb03457","freq","","","img/orange_2bandit_b2.png","70","","70","test","1","","111","","","","circle","square","107","14","5","0.9719626168224299","","","","","","","",""
"null","365158","SARL_v6","SARL_v6z3c8of0j","631a68ee10ec68377cb03457","freq_resp","","","img/orange_2bandit_b.png","70","img/orange_2bandit_b.png","70","test","","","","","","","","","","","5","","","","","","","","",""
"null","365321","SARL_v6","SARL_v6z3c8of0j","631a68ee10ec68377cb03457","fixation","","","img/fixation.png","null","","","test","","","","","","","","","","","","","","","","","","","",""
"349.39999997615814","365673","SARL_v6","SARL_v6z3c8of0j","631a68ee10ec68377cb03457","freq","","","img/orange_2bandit_b2.png","70","","70","test","1","","112","","","","circle","square","108","15","5","0.9722222222222222","","","","","","","",""
"null","366132","SARL_v6","SARL_v6z3c8of0j","631a68ee10ec68377cb03457","freq_resp","","","img/orange_2bandit_b.png","70","img/orange_2bandit_b.png","70","test","","","","","","","","","","","5","","","","","","","","",""
"null","366297","SARL_v6","SARL_v6z3c8of0j","631a68ee10ec68377cb03457","fixation","","","img/fixation.png","null","","","test","","","","","","","","","","","","","","","","","","","",""
"382","366681","SARL_v6","SARL_v6z3c8of0j","631a68ee10ec68377cb03457","freq","","","img/orange_2bandit_b2.png","70","","70","test","1","","113","","","","circle","square","109","16","5","0.9724770642201835","","","","","","","",""
"null","367109","SARL_v6","SARL_v6z3c8of0j","631a68ee10ec68377cb03457","freq_resp","","","img/orange_2bandit_b.png","70","img/orange_2bandit_b.png","70","test","","","","","","","","","","","5","","","","","","","","",""
"null","367272","SARL_v6","SARL_v6z3c8of0j","631a68ee10ec68377cb03457","fixation","","","img/fixation.png","null","","","test","","","","","","","","","","","","","","","","","","","",""
"350.90000000596046","367629","SARL_v6","SARL_v6z3c8of0j","631a68ee10ec68377cb03457","freq","","","img/orange_2bandit_b2.png","70","","70","test","1","","114","","","","circle","square","110","17","5","0.9727272727272728","","","","","","","",""
"null","368085","SARL_v6","SARL_v6z3c8of0j","631a68ee10ec68377cb03457","freq_resp","","","img/orange_2bandit_b.png","70","img/orange_2bandit_b.png","70","test","","","","","","","","","","","5","","","","","","","","",""
"null","368247","SARL_v6","SARL_v6z3c8of0j","631a68ee10ec68377cb03457","fixation","","","img/fixation.png","null","","","test","","","","","","","","","","","","","","","","","","","",""
"374.80000001192093","368624","SARL_v6","SARL_v6z3c8of0j","631a68ee10ec68377cb03457","freq","","","img/orange_2bandit_b2.png","70","","70","test","1","","115","","","","circle","square","111","18","5","0.972972972972973","","","","","","","",""
"null","369055","SARL_v6","SARL_v6z3c8of0j","631a68ee10ec68377cb03457","freq_resp","","","img/orange_2bandit_b.png","70","img/orange_2bandit_b.png","70","test","","","","","","","","","","","5","","","","","","","","",""
"null","369215","SARL_v6","SARL_v6z3c8of0j","631a68ee10ec68377cb03457","fixation","","","img/fixation.png","null","","","test","","","","","","","","","","","","","","","","","","","",""
"326.19999998807907","369544","SARL_v6","SARL_v6z3c8of0j","631a68ee10ec68377cb03457","freq","","","img/orange_2bandit_b2.png","70","","70","test","1","","116","","","","circle","square","112","19","5","0.9732142857142857","","","","","","","",""
"null","370020","SARL_v6","SARL_v6z3c8of0j","631a68ee10ec68377cb03457","freq_resp","","","img/orange_2bandit_b.png","70","img/orange_2bandit_b.png","70","test","","","","","","","","","","","5","","","","","","","","",""
"null","370185","SARL_v6","SARL_v6z3c8of0j","631a68ee10ec68377cb03457","fixation","","","img/fixation.png","null","","","test","","","","","","","","","","","","","","","","","","","",""
"349","370536","SARL_v6","SARL_v6z3c8of0j","631a68ee10ec68377cb03457","freq","","","img/orange_2bandit_b2.png","70","","70","test","1","","117","","","","circle","square","113","20","5","0.9734513274336283","","","","","","","",""
"null","370996","SARL_v6","SARL_v6z3c8of0j","631a68ee10ec68377cb03457","freq_resp","","","img/orange_2bandit_b.png","70","img/orange_2bandit_b.png","70","test","","","","","","","","","","","5","","","","","","","","",""
"null","371158","SARL_v6","SARL_v6z3c8of0j","631a68ee10ec68377cb03457","fixation","","","img/fixation.png","null","","","test","","","","","","","","","","","","","","","","","","","",""
"288","371449","SARL_v6","SARL_v6z3c8of0j","631a68ee10ec68377cb03457","freq","","","img/orange_2bandit_b2.png","70","","70","test","1","","118","","","","circle","square","114","21","5","0.9736842105263158","","","","","","","",""
"null","371965","SARL_v6","SARL_v6z3c8of0j","631a68ee10ec68377cb03457","freq_resp","","","img/orange_2bandit_b.png","70","img/orange_2bandit_b.png","70","test","","","","","","","","","","","5","","","","","","","","",""
"null","372125","SARL_v6","SARL_v6z3c8of0j","631a68ee10ec68377cb03457","fixation","","","img/fixation.png","null","","","test","","","","","","","","","","","","","","","","","","","",""
"872.8000000119209","373000","SARL_v6","SARL_v6z3c8of0j","631a68ee10ec68377cb03457","rl","","","img/black_2bandit_b2.png","75","","0","test","","","119","","","4","circle","square","","0","5","","75","-7","4","-7","4","square","5","0"
"null","373760","SARL_v6","SARL_v6z3c8of0j","631a68ee10ec68377cb03457","feedback","","","<div class=""veryhighPoints_sq""> 4 </div>","null","","na","test","","","NaN","","","","","","","","5","","75","","","","","","5",""
"765.9000000059605","374528","SARL_v6","SARL_v6z3c8of0j","631a68ee10ec68377cb03457","freq","","","img/orange_2bandit_b2.png","70","","70","test","1","","120","","","","circle","square","115","1","6","0.9739130434782609","","","","","","","",""
"null","374569","SARL_v6","SARL_v6z3c8of0j","631a68ee10ec68377cb03457","freq_resp","","","img/orange_2bandit_b.png","70","img/orange_2bandit_b.png","70","test","","","","","","","","","","","6","","","","","","","","",""
"null","374725","SARL_v6","SARL_v6z3c8of0j","631a68ee10ec68377cb03457","fixation","","","img/fixation.png","null","","","test","","","","","","","","","","","","","","","","","","","",""
"409.09999999403954","375137","SARL_v6","SARL_v6z3c8of0j","631a68ee10ec68377cb03457","freq","","","img/orange_2bandit_b2.png","70","","70","test","1","","121","","","","circle","square","116","2","6","0.9741379310344828","","","","","","","",""
"null","375539","SARL_v6","SARL_v6z3c8of0j","631a68ee10ec68377cb03457","freq_resp","","","img/orange_2bandit_b.png","70","img/orange_2bandit_b.png","70","test","","","","","","","","","","","6","","","","","","","","",""
"null","375700","SARL_v6","SARL_v6z3c8of0j","631a68ee10ec68377cb03457","fixation","","","img/fixation.png","null","","","test","","","","","","","","","","","","","","","","","","","",""
"346.09999999403954","376049","SARL_v6","SARL_v6z3c8of0j","631a68ee10ec68377cb03457","freq","","","img/orange_2bandit_b2.png","70","","70","test","1","","122","","","","circle","square","117","3","6","0.9743589743589743","","","","","","","",""
"null","376513","SARL_v6","SARL_v6z3c8of0j","631a68ee10ec68377cb03457","freq_resp","","","img/orange_2bandit_b.png","70","img/orange_2bandit_b.png","70","test","","","","","","","","","","","6","","","","","","","","",""
"null","376672","SARL_v6","SARL_v6z3c8of0j","631a68ee10ec68377cb03457","fixation","","","img/fixation.png","null","","","test","","","","","","","","","","","","","","","","","","","",""
"350.5","377025","SARL_v6","SARL_v6z3c8of0j","631a68ee10ec68377cb03457","freq","","","img/orange_2bandit_b2.png","70","","70","test","1","","123","","","","circle","square","118","4","6","0.9745762711864406","","","","","","","",""
"null","377488","SARL_v6","SARL_v6z3c8of0j","631a68ee10ec68377cb03457","freq_resp","","","img/orange_2bandit_b.png","70","img/orange_2bandit_b.png","70","test","","","","","","","","","","","6","","","","","","","","",""
"null","377649","SARL_v6","SARL_v6z3c8of0j","631a68ee10ec68377cb03457","fixation","","","img/fixation.png","null","","","test","","","","","","","","","","","","","","","","","","","",""
"301.09999999403954","377953","SARL_v6","SARL_v6z3c8of0j","631a68ee10ec68377cb03457","freq","","","img/orange_2bandit_b2.png","70","","70","test","1","","124","","","","circle","square","119","5","6","0.9747899159663865","","","","","","","",""
"null","378464","SARL_v6","SARL_v6z3c8of0j","631a68ee10ec68377cb03457","freq_resp","","","img/orange_2bandit_b.png","70","img/orange_2bandit_b.png","70","test","","","","","","","","","","","6","","","","","","","","",""
"null","378625","SARL_v6","SARL_v6z3c8of0j","631a68ee10ec68377cb03457","fixation","","","img/fixation.png","null","","","test","","","","","","","","","","","","","","","","","","","",""
"324.5","378952","SARL_v6","SARL_v6z3c8of0j","631a68ee10ec68377cb03457","freq","","","img/orange_2bandit_b2.png","70","","70","test","1","","125","","","","circle","square","120","6","6","0.975","","","","","","","",""
"null","379438","SARL_v6","SARL_v6z3c8of0j","631a68ee10ec68377cb03457","freq_resp","","","img/orange_2bandit_b.png","70","img/orange_2bandit_b.png","70","test","","","","","","","","","","","6","","","","","","","","",""
"null","379596","SARL_v6","SARL_v6z3c8of0j","631a68ee10ec68377cb03457","fixation","","","img/fixation.png","null","","","test","","","","","","","","","","","","","","","","","","","",""
"313.80000001192093","379912","SARL_v6","SARL_v6z3c8of0j","631a68ee10ec68377cb03457","freq","","","img/orange_2bandit_b2.png","70","","70","test","1","","126","","","","circle","square","121","7","6","0.9752066115702479","","","","","","","",""
"null","380404","SARL_v6","SARL_v6z3c8of0j","631a68ee10ec68377cb03457","freq_resp","","","img/orange_2bandit_b.png","70","img/orange_2bandit_b.png","70","test","","","","","","","","","","","6","","","","","","","","",""
"null","380564","SARL_v6","SARL_v6z3c8of0j","631a68ee10ec68377cb03457","fixation","","","img/fixation.png","null","","","test","","","","","","","","","","","","","","","","","","","",""
"265.69999998807907","380831","SARL_v6","SARL_v6z3c8of0j","631a68ee10ec68377cb03457","freq","","","img/orange_2bandit_b2.png","70","","70","test","1","","127","","","","circle","square","122","8","6","0.9754098360655737","","","","","","","",""
"null","381375","SARL_v6","SARL_v6z3c8of0j","631a68ee10ec68377cb03457","freq_resp","","","img/orange_2bandit_b.png","70","img/orange_2bandit_b.png","70","test","","","","","","","","","","","6","","","","","","","","",""
"null","381535","SARL_v6","SARL_v6z3c8of0j","631a68ee10ec68377cb03457","fixation","","","img/fixation.png","null","","","test","","","","","","","","","","","","","","","","","","","",""
"318.40000000596046","381856","SARL_v6","SARL_v6z3c8of0j","631a68ee10ec68377cb03457","freq","","","img/orange_2bandit_b2.png","70","","70","test","1","","128","","","","circle","square","123","9","6","0.975609756097561","","","","","","","",""
