"rt","time_elapsed","expId","subject","prolificID","trialType","rlType","attType","stimulus","key_press","stim","corrresp","phase","corr","pracCounter","trialNum","rewardOne","rewardTwo","reward","bandOne","bandTwo","attentionNum","attentionRunNum","blockNum","performance","bandChosen","circleVal","squareVal","bandOneVal","bandTwoVal","shapeChosen","rlNum","badFlag"
"2914.800000011921","2918","SARL_v6","SARL_v64qguscgj","63d92dacc885e6167a4a486c","","","","","","","","","","","","","","","","","","","","","","","","","","","",""
"","5747","SARL_v6","SARL_v64qguscgj","63d92dacc885e6167a4a486c","fullscreen","fullscreen","fullscreen","","","","","","","","","","","","","","","","","","","","","","","","",""
"53841","59590","SARL_v6","SARL_v64qguscgj","63d92dacc885e6167a4a486c","","","","","","","","","","","","","","","","","","","","","","","","","","","",""
"null","60408","SARL_v6","SARL_v64qguscgj","63d92dacc885e6167a4a486c","freqPrac","","","img/blue_2bandit_a2.png","null","img/blue_2bandit_a2.png","70","prac","0","1","","","","","","","","","","","","","","","","","",""
"null","61428","SARL_v6","SARL_v64qguscgj","63d92dacc885e6167a4a486c","feedback","","","img/tooSlow.png","null","","na","prac","","","","","","","","","","","","","","","","","","","",""
"null","61597","SARL_v6","SARL_v64qguscgj","63d92dacc885e6167a4a486c","fixation","","","img/fixation.png","null","","","prac","","","","","","","","","","","","","","","","","","","",""
"332.10000002384186","61932","SARL_v6","SARL_v64qguscgj","63d92dacc885e6167a4a486c","infreqPrac","","","img/orange_2bandit_a2.png","70","img/orange_2bandit_a2.png","68","prac","0","2","","","","","","","","","","","","","","","","","",""
"332.10000002384186","62411","SARL_v6","SARL_v64qguscgj","63d92dacc885e6167a4a486c","infreqPrac_resp","","","img/orange_2bandit_a.png","70","img/orange_2bandit_a.png","68","prac","","","","","","","","","","","","","","","","","","","",""
"null","63421","SARL_v6","SARL_v64qguscgj","63d92dacc885e6167a4a486c","feedback","","","img/wrongKey.png","null","","na","prac","","","","","","","","","","","","","","","","","","","",""
"null","63584","SARL_v6","SARL_v64qguscgj","63d92dacc885e6167a4a486c","fixation","","","img/fixation.png","null","","","prac","","","","","","","","","","","","","","","","","","","",""
"647.3999999761581","64233","SARL_v6","SARL_v64qguscgj","63d92dacc885e6167a4a486c","freqPrac","","","img/blue_2bandit_a2.png","68","img/blue_2bandit_a2.png","70","prac","0","3","","","","","","","","","","","","","","","","","",""
"647.3999999761581","64395","SARL_v6","SARL_v64qguscgj","63d92dacc885e6167a4a486c","freqPrac_resp","","","img/blue_2bandit_a.png","68","img/blue_2bandit_a.png","70","prac","","","","","","","","","","","","","","","","","","","",""
"null","65410","SARL_v6","SARL_v64qguscgj","63d92dacc885e6167a4a486c","feedback","","","img/wrongKey.png","null","","na","prac","","","","","","","","","","","","","","","","","","","",""
"null","65577","SARL_v6","SARL_v64qguscgj","63d92dacc885e6167a4a486c","fixation","","","img/fixation.png","null","","","prac","","","","","","","","","","","","","","","","","","","",""
"766.3000000119209","66345","SARL_v6","SARL_v64qguscgj","63d92dacc885e6167a4a486c","infreqPrac","","","img/orange_2bandit_a2.png","68","img/orange_2bandit_a2.png","68","prac","1","3","","","","","","","","","","","","","","","","","",""
"766.3000000119209","66395","SARL_v6","SARL_v64qguscgj","63d92dacc885e6167a4a486c","infreqPrac_resp","","","img/orange_2bandit_a.png","68","img/orange_2bandit_a.png","68","prac","","","","","","","","","","","","","","","","","","","",""
"null","66562","SARL_v6","SARL_v64qguscgj","63d92dacc885e6167a4a486c","fixation","","","img/fixation.png","null","","","prac","","","","","","","","","","","","","","","","","","","",""
"717.5","67282","SARL_v6","SARL_v64qguscgj","63d92dacc885e6167a4a486c","infreqPrac","","","img/orange_2bandit_a2.png","68","img/orange_2bandit_a2.png","68","prac","1","3","","","","","","","","","","","","","","","","","",""
"717.5","67380","SARL_v6","SARL_v64qguscgj","63d92dacc885e6167a4a486c","infreqPrac_resp","","","img/orange_2bandit_a.png","68","img/orange_2bandit_a.png","68","prac","","","","","","","","","","","","","","","","","","","",""
"null","67548","SARL_v6","SARL_v64qguscgj","63d92dacc885e6167a4a486c","fixation","","","img/fixation.png","null","","","prac","","","","","","","","","","","","","","","","","","","",""
"553.1000000238419","68103","SARL_v6","SARL_v64qguscgj","63d92dacc885e6167a4a486c","infreqPrac","","","img/orange_2bandit_a2.png","68","img/orange_2bandit_a2.png","68","prac","1","3","","","","","","","","","","","","","","","","","",""
"553.1000000238419","68358","SARL_v6","SARL_v64qguscgj","63d92dacc885e6167a4a486c","infreqPrac_resp","","","img/orange_2bandit_a.png","68","img/orange_2bandit_a.png","68","prac","","","","","","","","","","","","","","","","","","","",""
"null","68526","SARL_v6","SARL_v64qguscgj","63d92dacc885e6167a4a486c","fixation","","","img/fixation.png","null","","","prac","","","","","","","","","","","","","","","","","","","",""
"547.1000000238419","69077","SARL_v6","SARL_v64qguscgj","63d92dacc885e6167a4a486c","freqPrac","","","img/blue_2bandit_a2.png","70","img/blue_2bandit_a2.png","70","prac","1","3","","","","","","","","","","","","","","","","","",""
"547.1000000238419","69336","SARL_v6","SARL_v64qguscgj","63d92dacc885e6167a4a486c","freqPrac_resp","","","img/blue_2bandit_a.png","70","img/blue_2bandit_a.png","70","prac","","","","","","","","","","","","","","","","","","","",""
"null","69497","SARL_v6","SARL_v64qguscgj","63d92dacc885e6167a4a486c","fixation","","","img/fixation.png","null","","","prac","","","","","","","","","","","","","","","","","","","",""
"531.8999999761581","70030","SARL_v6","SARL_v64qguscgj","63d92dacc885e6167a4a486c","infreqPrac","","","img/orange_2bandit_a2.png","68","img/orange_2bandit_a2.png","68","prac","1","3","","","","","","","","","","","","","","","","","",""
"531.8999999761581","70301","SARL_v6","SARL_v64qguscgj","63d92dacc885e6167a4a486c","infreqPrac_resp","","","img/orange_2bandit_a.png","68","img/orange_2bandit_a.png","68","prac","","","","","","","","","","","","","","","","","","","",""
"null","70462","SARL_v6","SARL_v64qguscgj","63d92dacc885e6167a4a486c","fixation","","","img/fixation.png","null","","","prac","","","","","","","","","","","","","","","","","","","",""
"426.80000001192093","70892","SARL_v6","SARL_v64qguscgj","63d92dacc885e6167a4a486c","freqPrac","","","img/blue_2bandit_a2.png","70","img/blue_2bandit_a2.png","70","prac","1","3","","","","","","","","","","","","","","","","","",""
"426.80000001192093","71272","SARL_v6","SARL_v64qguscgj","63d92dacc885e6167a4a486c","freqPrac_resp","","","img/blue_2bandit_a.png","70","img/blue_2bandit_a.png","70","prac","","","","","","","","","","","","","","","","","","","",""
"null","71435","SARL_v6","SARL_v64qguscgj","63d92dacc885e6167a4a486c","fixation","","","img/fixation.png","null","","","prac","","","","","","","","","","","","","","","","","","","",""
"373.5999999642372","71811","SARL_v6","SARL_v64qguscgj","63d92dacc885e6167a4a486c","freqPrac","","","img/blue_2bandit_a2.png","70","img/blue_2bandit_a2.png","70","prac","1","3","","","","","","","","","","","","","","","","","",""
"373.5999999642372","72247","SARL_v6","SARL_v64qguscgj","63d92dacc885e6167a4a486c","freqPrac_resp","","","img/blue_2bandit_a.png","70","img/blue_2bandit_a.png","70","prac","","","","","","","","","","","","","","","","","","","",""
"null","72414","SARL_v6","SARL_v64qguscgj","63d92dacc885e6167a4a486c","fixation","","","img/fixation.png","null","","","prac","","","","","","","","","","","","","","","","","","","",""
"26642","99057","SARL_v6","SARL_v64qguscgj","63d92dacc885e6167a4a486c","","","","","","","","prac","","","","","","","","","","","","","","","","","","","",""
"624","99683","SARL_v6","SARL_v64qguscgj","63d92dacc885e6167a4a486c","rlPractice","","","img/black_2bandit_a2.png","74","img/black_2bandit_a2.png","","prac","","","0","","","","","","","","","","","","","","","","",""
"null","100449","SARL_v6","SARL_v64qguscgj","63d92dacc885e6167a4a486c","feedback","","","<div class=""verylowPoints_sq""> -14 </div>","null","","na","prac","","","1","10","-14","10","","","","","","","","","","","","","",""
"null","100602","SARL_v6","SARL_v64qguscgj","63d92dacc885e6167a4a486c","fixation","","","img/fixation.png","null","","","prac","","","","","","","","","","","","","","","","","","","",""
"399.10000002384186","101003","SARL_v6","SARL_v64qguscgj","63d92dacc885e6167a4a486c","rlPractice","","","img/black_2bandit_a2.png","75","img/black_2bandit_a2.png","","prac","","","1","","","","","","","","","","","","","","","","",""
"null","101762","SARL_v6","SARL_v64qguscgj","63d92dacc885e6167a4a486c","feedback","","","<div class=""veryhighPoints""> 5 </div>","null","","na","prac","","","2","5","-5","5","","","","","","","","","","","","","",""
"null","101930","SARL_v6","SARL_v64qguscgj","63d92dacc885e6167a4a486c","fixation","","","img/fixation.png","null","","","prac","","","","","","","","","","","","","","","","","","","",""
"340.5","102273","SARL_v6","SARL_v64qguscgj","63d92dacc885e6167a4a486c","rlPractice","","","img/black_2bandit_a2.png","75","img/black_2bandit_a2.png","","prac","","","2","","","","","","","","","","","","","","","","",""
"null","103040","SARL_v6","SARL_v64qguscgj","63d92dacc885e6167a4a486c","feedback","","","<div class=""veryhighPoints""> 30 </div>","null","","na","prac","","","3","30","2","30","","","","","","","","","","","","","",""
"null","103206","SARL_v6","SARL_v64qguscgj","63d92dacc885e6167a4a486c","fixation","","","img/fixation.png","null","","","prac","","","","","","","","","","","","","","","","","","","",""
"251.30000001192093","103460","SARL_v6","SARL_v64qguscgj","63d92dacc885e6167a4a486c","rlPractice","","","img/black_2bandit_a2.png","75","img/black_2bandit_a2.png","","prac","","","3","","","","","","","","","","","","","","","","",""
"null","104221","SARL_v6","SARL_v64qguscgj","63d92dacc885e6167a4a486c","feedback","","","<div class=""verylowPoints""> -2 </div>","null","","na","prac","","","4","-2","20","-2","","","","","","","","","","","","","",""
"null","104389","SARL_v6","SARL_v64qguscgj","63d92dacc885e6167a4a486c","fixation","","","img/fixation.png","null","","","prac","","","","","","","","","","","","","","","","","","","",""
"19826.899999976158","124217","SARL_v6","SARL_v64qguscgj","63d92dacc885e6167a4a486c","","","","","","","","prac","","","","","","","","","","","","","","","","","","","",""
"null","125032","SARL_v6","SARL_v64qguscgj","63d92dacc885e6167a4a486c","mixAttFreqPrac","","","img/blue_2bandit_a2.png","null","img/blue_2bandit_a2.png","70","prac","","","1","","","","","","","","","","","","","","","","",""
"null","125188","SARL_v6","SARL_v64qguscgj","63d92dacc885e6167a4a486c","fixation","","","img/fixation.png","null","","","prac","","","","","","","","","","","","","","","","","","","",""
"382.19999998807907","125572","SARL_v6","SARL_v64qguscgj","63d92dacc885e6167a4a486c","mixAttInfreqPrac","","","img/orange_2bandit_a2.png","68","img/orange_2bandit_a2.png","68","prac","","","2","","","","","","","","","","","","","","","","",""
"382.19999998807907","126005","SARL_v6","SARL_v64qguscgj","63d92dacc885e6167a4a486c","infreqPrac_resp","","","img/orange_2bandit_a.png","68","img/blue_2bandit_a.png","68","prac","","","2","","","","","","","","","","","","","","","","",""
"null","126170","SARL_v6","SARL_v64qguscgj","63d92dacc885e6167a4a486c","fixation","","","img/fixation.png","null","","","prac","","","","","","","","","","","","","","","","","","","",""
"431.30000001192093","126604","SARL_v6","SARL_v64qguscgj","63d92dacc885e6167a4a486c","mixAttInfreqPrac","","","img/orange_2bandit_a2.png","70","img/orange_2bandit_a2.png","68","prac","","","3","","","","","","","","","","","","","","","","",""
"431.30000001192093","126985","SARL_v6","SARL_v64qguscgj","63d92dacc885e6167a4a486c","infreqPrac_resp","","","img/orange_2bandit_a.png","70","img/blue_2bandit_a.png","68","prac","","","3","","","","","","","","","","","","","","","","",""
"null","127147","SARL_v6","SARL_v64qguscgj","63d92dacc885e6167a4a486c","fixation","","","img/fixation.png","null","","","prac","","","","","","","","","","","","","","","","","","","",""
"346.5999999642372","127496","SARL_v6","SARL_v64qguscgj","63d92dacc885e6167a4a486c","mixAttInfreqPrac","","","img/orange_2bandit_a2.png","68","img/orange_2bandit_a2.png","68","prac","","","4","","","","","","","","","","","","","","","","",""
"346.5999999642372","127959","SARL_v6","SARL_v64qguscgj","63d92dacc885e6167a4a486c","infreqPrac_resp","","","img/orange_2bandit_a.png","68","img/blue_2bandit_a.png","68","prac","","","4","","","","","","","","","","","","","","","","",""
"null","128127","SARL_v6","SARL_v64qguscgj","63d92dacc885e6167a4a486c","fixation","","","img/fixation.png","null","","","prac","","","","","","","","","","","","","","","","","","","",""
"null","128932","SARL_v6","SARL_v64qguscgj","63d92dacc885e6167a4a486c","mixAttFreqPrac","","","img/blue_2bandit_a2.png","null","img/blue_2bandit_a2.png","70","prac","","","5","","","","","","","","","","","","","","","","",""
"null","129098","SARL_v6","SARL_v64qguscgj","63d92dacc885e6167a4a486c","fixation","","","img/fixation.png","null","","","prac","","","","","","","","","","","","","","","","","","","",""
"900.5","130001","SARL_v6","SARL_v64qguscgj","63d92dacc885e6167a4a486c","mixRLPractice","","","img/black_2bandit_a2.png","74","img/black_2bandit_a2.png","","prac","","","5","","","","","","","","","","","","","","","","",""
"null","130767","SARL_v6","SARL_v64qguscgj","63d92dacc885e6167a4a486c","feedback","","","<div class=""veryhighPoints_sq""> 10 </div>","null","","na","prac","","","6","-14","10","-14","","","","","","","","","","","","","",""
"null","130931","SARL_v6","SARL_v64qguscgj","63d92dacc885e6167a4a486c","fixation","","","img/fixation.png","null","","","prac","","","","","","","","","","","","","","","","","","","",""
"394.80000001192093","131328","SARL_v6","SARL_v64qguscgj","63d92dacc885e6167a4a486c","mixAttFreqPrac","","","img/blue_2bandit_a2.png","68","img/blue_2bandit_a2.png","70","prac","","","7","","","","","","","","","","","","","","","","",""
"394.80000001192093","131739","SARL_v6","SARL_v64qguscgj","63d92dacc885e6167a4a486c","freqPrac_resp","","","img/blue_2bandit_a.png","68","img/blue_2bandit_a.png","70","prac","","","7","","","","","","","","","","","","","","","","",""
"null","131895","SARL_v6","SARL_v64qguscgj","63d92dacc885e6167a4a486c","fixation","","","img/fixation.png","null","","","prac","","","","","","","","","","","","","","","","","","","",""
"547.1000000238419","132444","SARL_v6","SARL_v64qguscgj","63d92dacc885e6167a4a486c","mixAttInfreqPrac","","","img/orange_2bandit_a2.png","70","img/orange_2bandit_a2.png","68","prac","","","8","","","","","","","","","","","","","","","","",""
"547.1000000238419","132714","SARL_v6","SARL_v64qguscgj","63d92dacc885e6167a4a486c","infreqPrac_resp","","","img/orange_2bandit_a.png","70","img/blue_2bandit_a.png","68","prac","","","8","","","","","","","","","","","","","","","","",""
"null","132875","SARL_v6","SARL_v64qguscgj","63d92dacc885e6167a4a486c","fixation","","","img/fixation.png","null","","","prac","","","","","","","","","","","","","","","","","","","",""
"688.3999999761581","133565","SARL_v6","SARL_v64qguscgj","63d92dacc885e6167a4a486c","mixAttFreqPrac","","","img/blue_2bandit_a2.png","68","img/blue_2bandit_a2.png","70","prac","","","9","","","","","","","","","","","","","","","","",""
"688.3999999761581","133689","SARL_v6","SARL_v64qguscgj","63d92dacc885e6167a4a486c","freqPrac_resp","","","img/blue_2bandit_a.png","68","img/blue_2bandit_a.png","70","prac","","","9","","","","","","","","","","","","","","","","",""
"null","133855","SARL_v6","SARL_v64qguscgj","63d92dacc885e6167a4a486c","fixation","","","img/fixation.png","null","","","prac","","","","","","","","","","","","","","","","","","","",""
"null","134660","SARL_v6","SARL_v64qguscgj","63d92dacc885e6167a4a486c","mixAttFreqPrac","","","img/blue_2bandit_a2.png","null","img/blue_2bandit_a2.png","70","prac","","","10","","","","","","","","","","","","","","","","",""
"null","134818","SARL_v6","SARL_v64qguscgj","63d92dacc885e6167a4a486c","fixation","","","img/fixation.png","null","","","prac","","","","","","","","","","","","","","","","","","","",""
"115.5","134935","SARL_v6","SARL_v64qguscgj","63d92dacc885e6167a4a486c","mixAttInfreqPrac","","","img/orange_2bandit_a2.png","68","img/orange_2bandit_a2.png","68","prac","","","11","","","","","","","","","","","","","","","","",""
"115.5","135632","SARL_v6","SARL_v64qguscgj","63d92dacc885e6167a4a486c","infreqPrac_resp","","","img/orange_2bandit_a.png","68","img/blue_2bandit_a.png","68","prac","","","11","","","","","","","","","","","","","","","","",""
"null","135800","SARL_v6","SARL_v64qguscgj","63d92dacc885e6167a4a486c","fixation","","","img/fixation.png","null","","","prac","","","","","","","","","","","","","","","","","","","",""
"899.6999999880791","136701","SARL_v6","SARL_v64qguscgj","63d92dacc885e6167a4a486c","mixRLPractice","","","img/black_2bandit_a2.png","75","img/black_2bandit_a2.png","","prac","","","11","","","","","","","","","","","","","","","","",""
"null","137456","SARL_v6","SARL_v64qguscgj","63d92dacc885e6167a4a486c","feedback","","","<div class=""veryhighPoints""> 5 </div>","null","","na","prac","","","12","5","-5","5","","","","","","","","","","","","","",""
"null","137617","SARL_v6","SARL_v64qguscgj","63d92dacc885e6167a4a486c","fixation","","","img/fixation.png","null","","","prac","","","","","","","","","","","","","","","","","","","",""
"7910.800000011921","145529","SARL_v6","SARL_v64qguscgj","63d92dacc885e6167a4a486c","","","","","","","","prac","","","","","","","","","","","","","","","","","","","",""
"688.6999999880791","146220","SARL_v6","SARL_v64qguscgj","63d92dacc885e6167a4a486c","freq","","","img/blue_2bandit_a2.png","70","","70","test","1","","1","","","","square","circle","1","1","1","1","","","","","","","",""
"null","146348","SARL_v6","SARL_v64qguscgj","63d92dacc885e6167a4a486c","freq_resp","","","img/blue_2bandit_a.png","70","img/blue_2bandit_a.png","70","test","","","","","","","","","","","1","","","","","","","","",""
"null","146511","SARL_v6","SARL_v64qguscgj","63d92dacc885e6167a4a486c","fixation","","","img/fixation.png","null","","","test","","","","","","","","","","","","","","","","","","","",""
"667.6000000238419","147181","SARL_v6","SARL_v64qguscgj","63d92dacc885e6167a4a486c","freq","","","img/blue_2bandit_a2.png","70","","70","test","1","","2","","","","square","circle","2","2","1","1","","","","","","","",""
"null","147320","SARL_v6","SARL_v64qguscgj","63d92dacc885e6167a4a486c","freq_resp","","","img/blue_2bandit_a.png","70","img/blue_2bandit_a.png","70","test","","","","","","","","","","","1","","","","","","","","",""
"null","147484","SARL_v6","SARL_v64qguscgj","63d92dacc885e6167a4a486c","fixation","","","img/fixation.png","null","","","test","","","","","","","","","","","","","","","","","","","",""
"570","148055","SARL_v6","SARL_v64qguscgj","63d92dacc885e6167a4a486c","freq","","","img/blue_2bandit_a2.png","70","","70","test","1","","3","","","","square","circle","3","3","1","1","","","","","","","",""
"null","148290","SARL_v6","SARL_v64qguscgj","63d92dacc885e6167a4a486c","freq_resp","","","img/blue_2bandit_a.png","70","img/blue_2bandit_a.png","70","test","","","","","","","","","","","1","","","","","","","","",""
"null","148460","SARL_v6","SARL_v64qguscgj","63d92dacc885e6167a4a486c","fixation","","","img/fixation.png","null","","","test","","","","","","","","","","","","","","","","","","","",""
"491.5","148954","SARL_v6","SARL_v64qguscgj","63d92dacc885e6167a4a486c","freq","","","img/blue_2bandit_a2.png","70","","70","test","1","","4","","","","square","circle","4","4","1","1","","","","","","","",""
"null","149273","SARL_v6","SARL_v64qguscgj","63d92dacc885e6167a4a486c","freq_resp","","","img/blue_2bandit_a.png","70","img/blue_2bandit_a.png","70","test","","","","","","","","","","","1","","","","","","","","",""
"null","149426","SARL_v6","SARL_v64qguscgj","63d92dacc885e6167a4a486c","fixation","","","img/fixation.png","null","","","test","","","","","","","","","","","","","","","","","","","",""
"403.30000001192093","149833","SARL_v6","SARL_v64qguscgj","63d92dacc885e6167a4a486c","freq","","","img/blue_2bandit_a2.png","70","","70","test","1","","5","","","","square","circle","5","5","1","1","","","","","","","",""
"null","150237","SARL_v6","SARL_v64qguscgj","63d92dacc885e6167a4a486c","freq_resp","","","img/blue_2bandit_a.png","70","img/blue_2bandit_a.png","70","test","","","","","","","","","","","1","","","","","","","","",""
"null","150400","SARL_v6","SARL_v64qguscgj","63d92dacc885e6167a4a486c","fixation","","","img/fixation.png","null","","","test","","","","","","","","","","","","","","","","","","","",""
"372.2999999523163","150774","SARL_v6","SARL_v64qguscgj","63d92dacc885e6167a4a486c","freq","","","img/blue_2bandit_a2.png","70","","70","test","1","","6","","","","square","circle","6","6","1","1","","","","","","","",""
"null","151218","SARL_v6","SARL_v64qguscgj","63d92dacc885e6167a4a486c","freq_resp","","","img/blue_2bandit_a.png","70","img/blue_2bandit_a.png","70","test","","","","","","","","","","","1","","","","","","","","",""
"null","151381","SARL_v6","SARL_v64qguscgj","63d92dacc885e6167a4a486c","fixation","","","img/fixation.png","null","","","test","","","","","","","","","","","","","","","","","","","",""
"394.80000001192093","151779","SARL_v6","SARL_v64qguscgj","63d92dacc885e6167a4a486c","freq","","","img/blue_2bandit_a2.png","70","","70","test","1","","7","","","","square","circle","7","7","1","1","","","","","","","",""
"null","152193","SARL_v6","SARL_v64qguscgj","63d92dacc885e6167a4a486c","freq_resp","","","img/blue_2bandit_a.png","70","img/blue_2bandit_a.png","70","test","","","","","","","","","","","1","","","","","","","","",""
"null","152358","SARL_v6","SARL_v64qguscgj","63d92dacc885e6167a4a486c","fixation","","","img/fixation.png","null","","","test","","","","","","","","","","","","","","","","","","","",""
"675","153037","SARL_v6","SARL_v64qguscgj","63d92dacc885e6167a4a486c","infreq","","","img/orange_2bandit_a2.png","68","","68","test","1","","8","","","","square","circle","8","8","1","1","","","","","","","",""
"null","153166","SARL_v6","SARL_v64qguscgj","63d92dacc885e6167a4a486c","infreq_resp","","","img/orange_2bandit_a.png","68","img/orange_2bandit_a.png","68","test","","","","","","","","","","","1","","","","","","","","",""
"null","153322","SARL_v6","SARL_v64qguscgj","63d92dacc885e6167a4a486c","fixation","","","img/fixation.png","null","","","test","","","","","","","","","","","","","","","","","","","",""
"485.80000001192093","153810","SARL_v6","SARL_v64qguscgj","63d92dacc885e6167a4a486c","freq","","","img/blue_2bandit_a2.png","70","","70","test","1","","9","","","","square","circle","9","9","1","1","","","","","","","",""
"null","154129","SARL_v6","SARL_v64qguscgj","63d92dacc885e6167a4a486c","freq_resp","","","img/blue_2bandit_a.png","70","img/blue_2bandit_a.png","70","test","","","","","","","","","","","1","","","","","","","","",""
"null","154295","SARL_v6","SARL_v64qguscgj","63d92dacc885e6167a4a486c","fixation","","","img/fixation.png","null","","","test","","","","","","","","","","","","","","","","","","","",""
"342.69999998807907","154640","SARL_v6","SARL_v64qguscgj","63d92dacc885e6167a4a486c","freq","","","img/blue_2bandit_a2.png","70","","70","test","1","","10","","","","square","circle","10","10","1","1","","","","","","","",""
"null","155104","SARL_v6","SARL_v64qguscgj","63d92dacc885e6167a4a486c","freq_resp","","","img/blue_2bandit_a.png","70","img/blue_2bandit_a.png","70","test","","","","","","","","","","","1","","","","","","","","",""
"null","155258","SARL_v6","SARL_v64qguscgj","63d92dacc885e6167a4a486c","fixation","","","img/fixation.png","null","","","test","","","","","","","","","","","","","","","","","","","",""
"378.80000001192093","155639","SARL_v6","SARL_v64qguscgj","63d92dacc885e6167a4a486c","freq","","","img/blue_2bandit_a2.png","70","","70","test","1","","11","","","","square","circle","11","11","1","1","","","","","","","",""
"null","156068","SARL_v6","SARL_v64qguscgj","63d92dacc885e6167a4a486c","freq_resp","","","img/blue_2bandit_a.png","70","img/blue_2bandit_a.png","70","test","","","","","","","","","","","1","","","","","","","","",""
"null","156224","SARL_v6","SARL_v64qguscgj","63d92dacc885e6167a4a486c","fixation","","","img/fixation.png","null","","","test","","","","","","","","","","","","","","","","","","","",""
"322.5","156548","SARL_v6","SARL_v64qguscgj","63d92dacc885e6167a4a486c","freq","","","img/blue_2bandit_a2.png","70","","70","test","1","","12","","","","square","circle","12","12","1","1","","","","","","","",""
"null","157037","SARL_v6","SARL_v64qguscgj","63d92dacc885e6167a4a486c","freq_resp","","","img/blue_2bandit_a.png","70","img/blue_2bandit_a.png","70","test","","","","","","","","","","","1","","","","","","","","",""
"null","157204","SARL_v6","SARL_v64qguscgj","63d92dacc885e6167a4a486c","fixation","","","img/fixation.png","null","","","test","","","","","","","","","","","","","","","","","","","",""
"335.60000002384186","157542","SARL_v6","SARL_v64qguscgj","63d92dacc885e6167a4a486c","freq","","","img/blue_2bandit_a2.png","70","","70","test","1","","13","","","","square","circle","13","13","1","1","","","","","","","",""
"null","158018","SARL_v6","SARL_v64qguscgj","63d92dacc885e6167a4a486c","freq_resp","","","img/blue_2bandit_a.png","70","img/blue_2bandit_a.png","70","test","","","","","","","","","","","1","","","","","","","","",""
"null","158183","SARL_v6","SARL_v64qguscgj","63d92dacc885e6167a4a486c","fixation","","","img/fixation.png","null","","","test","","","","","","","","","","","","","","","","","","","",""
"349","158536","SARL_v6","SARL_v64qguscgj","63d92dacc885e6167a4a486c","freq","","","img/blue_2bandit_a2.png","70","","70","test","1","","14","","","","square","circle","14","14","1","1","","","","","","","",""
"null","158995","SARL_v6","SARL_v64qguscgj","63d92dacc885e6167a4a486c","freq_resp","","","img/blue_2bandit_a.png","70","img/blue_2bandit_a.png","70","test","","","","","","","","","","","1","","","","","","","","",""
"null","159154","SARL_v6","SARL_v64qguscgj","63d92dacc885e6167a4a486c","fixation","","","img/fixation.png","null","","","test","","","","","","","","","","","","","","","","","","","",""
"393.0999999642372","159549","SARL_v6","SARL_v64qguscgj","63d92dacc885e6167a4a486c","infreq","","","img/orange_2bandit_a2.png","68","","68","test","1","","15","","","","square","circle","15","15","1","1","","","","","","","",""
"null","159973","SARL_v6","SARL_v64qguscgj","63d92dacc885e6167a4a486c","infreq_resp","","","img/orange_2bandit_a.png","68","img/orange_2bandit_a.png","68","test","","","","","","","","","","","1","","","","","","","","",""
"null","160140","SARL_v6","SARL_v64qguscgj","63d92dacc885e6167a4a486c","fixation","","","img/fixation.png","null","","","test","","","","","","","","","","","","","","","","","","","",""
"354.30000001192093","160496","SARL_v6","SARL_v64qguscgj","63d92dacc885e6167a4a486c","freq","","","img/blue_2bandit_a2.png","70","","70","test","1","","16","","","","square","circle","16","16","1","1","","","","","","","",""
"null","160946","SARL_v6","SARL_v64qguscgj","63d92dacc885e6167a4a486c","freq_resp","","","img/blue_2bandit_a.png","70","img/blue_2bandit_a.png","70","test","","","","","","","","","","","1","","","","","","","","",""
"null","161108","SARL_v6","SARL_v64qguscgj","63d92dacc885e6167a4a486c","fixation","","","img/fixation.png","null","","","test","","","","","","","","","","","","","","","","","","","",""
"253","161364","SARL_v6","SARL_v64qguscgj","63d92dacc885e6167a4a486c","freq","","","img/blue_2bandit_a2.png","70","","70","test","1","","17","","","","square","circle","17","17","1","1","","","","","","","",""
"null","161923","SARL_v6","SARL_v64qguscgj","63d92dacc885e6167a4a486c","freq_resp","","","img/blue_2bandit_a.png","70","img/blue_2bandit_a.png","70","test","","","","","","","","","","","1","","","","","","","","",""
"null","162077","SARL_v6","SARL_v64qguscgj","63d92dacc885e6167a4a486c","fixation","","","img/fixation.png","null","","","test","","","","","","","","","","","","","","","","","","","",""
"303.60000002384186","162383","SARL_v6","SARL_v64qguscgj","63d92dacc885e6167a4a486c","freq","","","img/blue_2bandit_a2.png","70","","70","test","1","","18","","","","square","circle","18","18","1","1","","","","","","","",""
"null","162883","SARL_v6","SARL_v64qguscgj","63d92dacc885e6167a4a486c","freq_resp","","","img/blue_2bandit_a.png","70","img/blue_2bandit_a.png","70","test","","","","","","","","","","","1","","","","","","","","",""
"null","163050","SARL_v6","SARL_v64qguscgj","63d92dacc885e6167a4a486c","fixation","","","img/fixation.png","null","","","test","","","","","","","","","","","","","","","","","","","",""
"276.30000001192093","163329","SARL_v6","SARL_v64qguscgj","63d92dacc885e6167a4a486c","freq","","","img/blue_2bandit_a2.png","70","","70","test","1","","19","","","","square","circle","19","19","1","1","","","","","","","",""
"null","163855","SARL_v6","SARL_v64qguscgj","63d92dacc885e6167a4a486c","freq_resp","","","img/blue_2bandit_a.png","70","img/blue_2bandit_a.png","70","test","","","","","","","","","","","1","","","","","","","","",""
"null","164022","SARL_v6","SARL_v64qguscgj","63d92dacc885e6167a4a486c","fixation","","","img/fixation.png","null","","","test","","","","","","","","","","","","","","","","","","","",""
"290.89999997615814","164315","SARL_v6","SARL_v64qguscgj","63d92dacc885e6167a4a486c","freq","","","img/blue_2bandit_a2.png","70","","70","test","1","","20","","","","square","circle","20","20","1","1","","","","","","","",""
"null","164842","SARL_v6","SARL_v64qguscgj","63d92dacc885e6167a4a486c","freq_resp","","","img/blue_2bandit_a.png","70","img/blue_2bandit_a.png","70","test","","","","","","","","","","","1","","","","","","","","",""
"null","165008","SARL_v6","SARL_v64qguscgj","63d92dacc885e6167a4a486c","fixation","","","img/fixation.png","null","","","test","","","","","","","","","","","","","","","","","","","",""
"387.39999997615814","165397","SARL_v6","SARL_v64qguscgj","63d92dacc885e6167a4a486c","freq","","","img/blue_2bandit_a2.png","70","","70","test","1","","21","","","","square","circle","21","21","1","1","","","","","","","",""
"null","165824","SARL_v6","SARL_v64qguscgj","63d92dacc885e6167a4a486c","freq_resp","","","img/blue_2bandit_a.png","70","img/blue_2bandit_a.png","70","test","","","","","","","","","","","1","","","","","","","","",""
"null","165978","SARL_v6","SARL_v64qguscgj","63d92dacc885e6167a4a486c","fixation","","","img/fixation.png","null","","","test","","","","","","","","","","","","","","","","","","","",""
"375.10000002384186","166356","SARL_v6","SARL_v64qguscgj","63d92dacc885e6167a4a486c","freq","","","img/blue_2bandit_a2.png","70","","70","test","1","","22","","","","square","circle","22","22","1","1","","","","","","","",""
"null","166784","SARL_v6","SARL_v64qguscgj","63d92dacc885e6167a4a486c","freq_resp","","","img/blue_2bandit_a.png","70","img/blue_2bandit_a.png","70","test","","","","","","","","","","","1","","","","","","","","",""
"null","166952","SARL_v6","SARL_v64qguscgj","63d92dacc885e6167a4a486c","fixation","","","img/fixation.png","null","","","test","","","","","","","","","","","","","","","","","","","",""
"552.7000000476837","167508","SARL_v6","SARL_v64qguscgj","63d92dacc885e6167a4a486c","rl","","","img/black_2bandit_a2.png","74","","0","test","","","23","","","-3","square","circle","","0","1","","74","-3","-3","-3","-3","square","1","0"
"null","168275","SARL_v6","SARL_v64qguscgj","63d92dacc885e6167a4a486c","feedback","","","<div class=""verylowPoints_sq""> -3 </div>","null","","na","test","","","NaN","","","","","","","","1","","74","","","","","","1",""
"514.6999999880791","168793","SARL_v6","SARL_v64qguscgj","63d92dacc885e6167a4a486c","freq","","","img/blue_2bandit_a2.png","70","","70","test","1","","24","","","","square","circle","23","1","2","1","","","","","","","",""
"null","169092","SARL_v6","SARL_v64qguscgj","63d92dacc885e6167a4a486c","freq_resp","","","img/blue_2bandit_a.png","70","img/blue_2bandit_a.png","70","test","","","","","","","","","","","2","","","","","","","","",""
"null","169250","SARL_v6","SARL_v64qguscgj","63d92dacc885e6167a4a486c","fixation","","","img/fixation.png","null","","","test","","","","","","","","","","","","","","","","","","","",""
"198.0999999642372","169450","SARL_v6","SARL_v64qguscgj","63d92dacc885e6167a4a486c","freq","","","img/blue_2bandit_a2.png","70","","70","test","1","","25","","","","square","circle","24","2","2","1","","","","","","","",""
"null","170056","SARL_v6","SARL_v64qguscgj","63d92dacc885e6167a4a486c","freq_resp","","","img/blue_2bandit_a.png","70","img/blue_2bandit_a.png","70","test","","","","","","","","","","","2","","","","","","","","",""
"null","170214","SARL_v6","SARL_v64qguscgj","63d92dacc885e6167a4a486c","fixation","","","img/fixation.png","null","","","test","","","","","","","","","","","","","","","","","","","",""
"172","170387","SARL_v6","SARL_v64qguscgj","63d92dacc885e6167a4a486c","freq","","","img/blue_2bandit_a2.png","70","","70","test","1","","26","","","","square","circle","25","3","2","1","","","","","","","",""
"null","171032","SARL_v6","SARL_v64qguscgj","63d92dacc885e6167a4a486c","freq_resp","","","img/blue_2bandit_a.png","70","img/blue_2bandit_a.png","70","test","","","","","","","","","","","2","","","","","","","","",""
"null","171186","SARL_v6","SARL_v64qguscgj","63d92dacc885e6167a4a486c","fixation","","","img/fixation.png","null","","","test","","","","","","","","","","","","","","","","","","","",""
"164.30000001192093","171353","SARL_v6","SARL_v64qguscgj","63d92dacc885e6167a4a486c","freq","","","img/blue_2bandit_a2.png","70","","70","test","1","","27","","","","square","circle","26","4","2","1","","","","","","","",""
"null","172002","SARL_v6","SARL_v64qguscgj","63d92dacc885e6167a4a486c","freq_resp","","","img/blue_2bandit_a.png","70","img/blue_2bandit_a.png","70","test","","","","","","","","","","","2","","","","","","","","",""
"null","172166","SARL_v6","SARL_v64qguscgj","63d92dacc885e6167a4a486c","fixation","","","img/fixation.png","null","","","test","","","","","","","","","","","","","","","","","","","",""
"151.19999998807907","172320","SARL_v6","SARL_v64qguscgj","63d92dacc885e6167a4a486c","freq","","","img/blue_2bandit_a2.png","70","","70","test","1","","28","","","","square","circle","27","5","2","1","","","","","","","",""
"null","172982","SARL_v6","SARL_v64qguscgj","63d92dacc885e6167a4a486c","freq_resp","","","img/blue_2bandit_a.png","70","img/blue_2bandit_a.png","70","test","","","","","","","","","","","2","","","","","","","","",""
"null","173137","SARL_v6","SARL_v64qguscgj","63d92dacc885e6167a4a486c","fixation","","","img/fixation.png","null","","","test","","","","","","","","","","","","","","","","","","","",""
"219.30000001192093","173358","SARL_v6","SARL_v64qguscgj","63d92dacc885e6167a4a486c","freq","","","img/blue_2bandit_a2.png","70","","70","test","1","","29","","","","square","circle","28","6","2","1","","","","","","","",""
"null","173955","SARL_v6","SARL_v64qguscgj","63d92dacc885e6167a4a486c","freq_resp","","","img/blue_2bandit_a.png","70","img/blue_2bandit_a.png","70","test","","","","","","","","","","","2","","","","","","","","",""
"null","174117","SARL_v6","SARL_v64qguscgj","63d92dacc885e6167a4a486c","fixation","","","img/fixation.png","null","","","test","","","","","","","","","","","","","","","","","","","",""
"204.19999998807907","174324","SARL_v6","SARL_v64qguscgj","63d92dacc885e6167a4a486c","freq","","","img/blue_2bandit_a2.png","70","","70","test","1","","30","","","","square","circle","29","7","2","1","","","","","","","",""
"null","174926","SARL_v6","SARL_v64qguscgj","63d92dacc885e6167a4a486c","freq_resp","","","img/blue_2bandit_a.png","70","img/blue_2bandit_a.png","70","test","","","","","","","","","","","2","","","","","","","","",""
"null","175086","SARL_v6","SARL_v64qguscgj","63d92dacc885e6167a4a486c","fixation","","","img/fixation.png","null","","","test","","","","","","","","","","","","","","","","","","","",""
"161.80000001192093","175250","SARL_v6","SARL_v64qguscgj","63d92dacc885e6167a4a486c","freq","","","img/blue_2bandit_a2.png","70","","70","test","1","","31","","","","square","circle","30","8","2","1","","","","","","","",""
"null","175905","SARL_v6","SARL_v64qguscgj","63d92dacc885e6167a4a486c","freq_resp","","","img/blue_2bandit_a.png","70","img/blue_2bandit_a.png","70","test","","","","","","","","","","","2","","","","","","","","",""
"null","176060","SARL_v6","SARL_v64qguscgj","63d92dacc885e6167a4a486c","fixation","","","img/fixation.png","null","","","test","","","","","","","","","","","","","","","","","","","",""
"161","176224","SARL_v6","SARL_v64qguscgj","63d92dacc885e6167a4a486c","freq","","","img/blue_2bandit_a2.png","70","","70","test","1","","32","","","","square","circle","31","9","2","1","","","","","","","",""
"null","176877","SARL_v6","SARL_v64qguscgj","63d92dacc885e6167a4a486c","freq_resp","","","img/blue_2bandit_a.png","70","img/blue_2bandit_a.png","70","test","","","","","","","","","","","2","","","","","","","","",""
"null","177032","SARL_v6","SARL_v64qguscgj","63d92dacc885e6167a4a486c","fixation","","","img/fixation.png","null","","","test","","","","","","","","","","","","","","","","","","","",""
"309.9000000357628","177344","SARL_v6","SARL_v64qguscgj","63d92dacc885e6167a4a486c","freq","","","img/blue_2bandit_a2.png","70","","70","test","1","","33","","","","square","circle","32","10","2","1","","","","","","","",""
"null","177852","SARL_v6","SARL_v64qguscgj","63d92dacc885e6167a4a486c","freq_resp","","","img/blue_2bandit_a.png","70","img/blue_2bandit_a.png","70","test","","","","","","","","","","","2","","","","","","","","",""
"null","178019","SARL_v6","SARL_v64qguscgj","63d92dacc885e6167a4a486c","fixation","","","img/fixation.png","null","","","test","","","","","","","","","","","","","","","","","","","",""
"256","178277","SARL_v6","SARL_v64qguscgj","63d92dacc885e6167a4a486c","freq","","","img/blue_2bandit_a2.png","70","","70","test","1","","34","","","","square","circle","33","11","2","1","","","","","","","",""
"null","178837","SARL_v6","SARL_v64qguscgj","63d92dacc885e6167a4a486c","freq_resp","","","img/blue_2bandit_a.png","70","img/blue_2bandit_a.png","70","test","","","","","","","","","","","2","","","","","","","","",""
"null","179000","SARL_v6","SARL_v64qguscgj","63d92dacc885e6167a4a486c","fixation","","","img/fixation.png","null","","","test","","","","","","","","","","","","","","","","","","","",""
"142.20000004768372","179144","SARL_v6","SARL_v64qguscgj","63d92dacc885e6167a4a486c","infreq","","","img/orange_2bandit_a2.png","70","","68","test","0","","35","","","","square","circle","34","12","2","0.9705882352941176","","","","","","","",""
"null","179817","SARL_v6","SARL_v64qguscgj","63d92dacc885e6167a4a486c","infreq_resp","","","img/orange_2bandit_a.png","70","img/orange_2bandit_a.png","68","test","","","","","","","","","","","2","","","","","","","","",""
"null","179984","SARL_v6","SARL_v64qguscgj","63d92dacc885e6167a4a486c","fixation","","","img/fixation.png","null","","","test","","","","","","","","","","","","","","","","","","","",""
"443.19999998807907","180430","SARL_v6","SARL_v64qguscgj","63d92dacc885e6167a4a486c","freq","","","img/blue_2bandit_a2.png","70","","70","test","1","","36","","","","square","circle","35","13","2","0.9714285714285714","","","","","","","",""
"null","180794","SARL_v6","SARL_v64qguscgj","63d92dacc885e6167a4a486c","freq_resp","","","img/blue_2bandit_a.png","70","img/blue_2bandit_a.png","70","test","","","","","","","","","","","2","","","","","","","","",""
"null","180956","SARL_v6","SARL_v64qguscgj","63d92dacc885e6167a4a486c","fixation","","","img/fixation.png","null","","","test","","","","","","","","","","","","","","","","","","","",""
"307.4000000357628","181266","SARL_v6","SARL_v64qguscgj","63d92dacc885e6167a4a486c","freq","","","img/blue_2bandit_a2.png","70","","70","test","1","","37","","","","square","circle","36","14","2","0.9722222222222222","","","","","","","",""
"null","181774","SARL_v6","SARL_v64qguscgj","63d92dacc885e6167a4a486c","freq_resp","","","img/blue_2bandit_a.png","70","img/blue_2bandit_a.png","70","test","","","","","","","","","","","2","","","","","","","","",""
"null","181934","SARL_v6","SARL_v64qguscgj","63d92dacc885e6167a4a486c","fixation","","","img/fixation.png","null","","","test","","","","","","","","","","","","","","","","","","","",""
"207.9000000357628","182146","SARL_v6","SARL_v64qguscgj","63d92dacc885e6167a4a486c","freq","","","img/blue_2bandit_a2.png","70","","70","test","1","","38","","","","square","circle","37","15","2","0.972972972972973","","","","","","","",""
"null","182748","SARL_v6","SARL_v64qguscgj","63d92dacc885e6167a4a486c","freq_resp","","","img/blue_2bandit_a.png","70","img/blue_2bandit_a.png","70","test","","","","","","","","","","","2","","","","","","","","",""
"null","182916","SARL_v6","SARL_v64qguscgj","63d92dacc885e6167a4a486c","fixation","","","img/fixation.png","null","","","test","","","","","","","","","","","","","","","","","","","",""
"232.89999997615814","183151","SARL_v6","SARL_v64qguscgj","63d92dacc885e6167a4a486c","freq","","","img/blue_2bandit_a2.png","70","","70","test","1","","39","","","","square","circle","38","16","2","0.9736842105263158","","","","","","","",""
"null","183722","SARL_v6","SARL_v64qguscgj","63d92dacc885e6167a4a486c","freq_resp","","","img/blue_2bandit_a.png","70","img/blue_2bandit_a.png","70","test","","","","","","","","","","","2","","","","","","","","",""
"null","183886","SARL_v6","SARL_v64qguscgj","63d92dacc885e6167a4a486c","fixation","","","img/fixation.png","null","","","test","","","","","","","","","","","","","","","","","","","",""
"284.5","184173","SARL_v6","SARL_v64qguscgj","63d92dacc885e6167a4a486c","infreq","","","img/orange_2bandit_a2.png","70","","68","test","0","","40","","","","square","circle","39","17","2","0.9487179487179487","","","","","","","",""
"null","184707","SARL_v6","SARL_v64qguscgj","63d92dacc885e6167a4a486c","infreq_resp","","","img/orange_2bandit_a.png","70","img/orange_2bandit_a.png","68","test","","","","","","","","","","","2","","","","","","","","",""
"null","184861","SARL_v6","SARL_v64qguscgj","63d92dacc885e6167a4a486c","fixation","","","img/fixation.png","null","","","test","","","","","","","","","","","","","","","","","","","",""
"436.10000002384186","185300","SARL_v6","SARL_v64qguscgj","63d92dacc885e6167a4a486c","freq","","","img/blue_2bandit_a2.png","70","","70","test","1","","41","","","","square","circle","40","18","2","0.95","","","","","","","",""
"null","185667","SARL_v6","SARL_v64qguscgj","63d92dacc885e6167a4a486c","freq_resp","","","img/blue_2bandit_a.png","70","img/blue_2bandit_a.png","70","test","","","","","","","","","","","2","","","","","","","","",""
"null","185827","SARL_v6","SARL_v64qguscgj","63d92dacc885e6167a4a486c","fixation","","","img/fixation.png","null","","","test","","","","","","","","","","","","","","","","","","","",""
"306.80000001192093","186136","SARL_v6","SARL_v64qguscgj","63d92dacc885e6167a4a486c","freq","","","img/blue_2bandit_a2.png","70","","70","test","1","","42","","","","square","circle","41","19","2","0.9512195121951219","","","","","","","",""
"null","186636","SARL_v6","SARL_v64qguscgj","63d92dacc885e6167a4a486c","freq_resp","","","img/blue_2bandit_a.png","70","img/blue_2bandit_a.png","70","test","","","","","","","","","","","2","","","","","","","","",""
"null","186788","SARL_v6","SARL_v64qguscgj","63d92dacc885e6167a4a486c","fixation","","","img/fixation.png","null","","","test","","","","","","","","","","","","","","","","","","","",""
"327.80000001192093","187118","SARL_v6","SARL_v64qguscgj","63d92dacc885e6167a4a486c","freq","","","img/blue_2bandit_a2.png","70","","70","test","1","","43","","","","square","circle","42","20","2","0.9523809523809523","","","","","","","",""
"null","187596","SARL_v6","SARL_v64qguscgj","63d92dacc885e6167a4a486c","freq_resp","","","img/blue_2bandit_a.png","70","img/blue_2bandit_a.png","70","test","","","","","","","","","","","2","","","","","","","","",""
"null","187763","SARL_v6","SARL_v64qguscgj","63d92dacc885e6167a4a486c","fixation","","","img/fixation.png","null","","","test","","","","","","","","","","","","","","","","","","","",""
"483.39999997615814","188249","SARL_v6","SARL_v64qguscgj","63d92dacc885e6167a4a486c","rl","","","img/black_2bandit_a2.png","75","","0","test","","","44","","","-8","square","circle","","0","2","","75","-8","-5","-5","-8","circle","2","0"
"null","189016","SARL_v6","SARL_v64qguscgj","63d92dacc885e6167a4a486c","feedback","","","<div class=""verylowPoints""> -8 </div>","null","","na","test","","","NaN","","","","","","","","2","","75","","","","","","2",""
"434.0999999642372","189453","SARL_v6","SARL_v64qguscgj","63d92dacc885e6167a4a486c","freq","","","img/blue_2bandit_a2.png","70","","70","test","1","","45","","","","square","circle","43","1","3","0.9534883720930233","","","","","","","",""
"null","189835","SARL_v6","SARL_v64qguscgj","63d92dacc885e6167a4a486c","freq_resp","","","img/blue_2bandit_a.png","70","img/blue_2bandit_a.png","70","test","","","","","","","","","","","3","","","","","","","","",""
"null","189997","SARL_v6","SARL_v64qguscgj","63d92dacc885e6167a4a486c","fixation","","","img/fixation.png","null","","","test","","","","","","","","","","","","","","","","","","","",""
"178.5999999642372","190177","SARL_v6","SARL_v64qguscgj","63d92dacc885e6167a4a486c","freq","","","img/blue_2bandit_a2.png","70","","70","test","1","","46","","","","square","circle","44","2","3","0.9545454545454546","","","","","","","",""
"null","190809","SARL_v6","SARL_v64qguscgj","63d92dacc885e6167a4a486c","freq_resp","","","img/blue_2bandit_a.png","70","img/blue_2bandit_a.png","70","test","","","","","","","","","","","3","","","","","","","","",""
"null","190975","SARL_v6","SARL_v64qguscgj","63d92dacc885e6167a4a486c","fixation","","","img/fixation.png","null","","","test","","","","","","","","","","","","","","","","","","","",""
"152.80000001192093","191130","SARL_v6","SARL_v64qguscgj","63d92dacc885e6167a4a486c","freq","","","img/blue_2bandit_a2.png","70","","70","test","1","","47","","","","square","circle","45","3","3","0.9555555555555556","","","","","","","",""
"null","191796","SARL_v6","SARL_v64qguscgj","63d92dacc885e6167a4a486c","freq_resp","","","img/blue_2bandit_a.png","70","img/blue_2bandit_a.png","70","test","","","","","","","","","","","3","","","","","","","","",""
"null","191958","SARL_v6","SARL_v64qguscgj","63d92dacc885e6167a4a486c","fixation","","","img/fixation.png","null","","","test","","","","","","","","","","","","","","","","","","","",""
"130.39999997615814","192092","SARL_v6","SARL_v64qguscgj","63d92dacc885e6167a4a486c","freq","","","img/blue_2bandit_a2.png","70","","70","test","1","","48","","","","square","circle","46","4","3","0.9565217391304348","","","","","","","",""
"null","192770","SARL_v6","SARL_v64qguscgj","63d92dacc885e6167a4a486c","freq_resp","","","img/blue_2bandit_a.png","70","img/blue_2bandit_a.png","70","test","","","","","","","","","","","3","","","","","","","","",""
"null","192932","SARL_v6","SARL_v64qguscgj","63d92dacc885e6167a4a486c","fixation","","","img/fixation.png","null","","","test","","","","","","","","","","","","","","","","","","","",""
"185","193119","SARL_v6","SARL_v64qguscgj","63d92dacc885e6167a4a486c","freq","","","img/blue_2bandit_a2.png","70","","70","test","1","","49","","","","square","circle","47","5","3","0.9574468085106383","","","","","","","",""
"null","193747","SARL_v6","SARL_v64qguscgj","63d92dacc885e6167a4a486c","freq_resp","","","img/blue_2bandit_a.png","70","img/blue_2bandit_a.png","70","test","","","","","","","","","","","3","","","","","","","","",""
"null","193912","SARL_v6","SARL_v64qguscgj","63d92dacc885e6167a4a486c","fixation","","","img/fixation.png","null","","","test","","","","","","","","","","","","","","","","","","","",""
"261","194175","SARL_v6","SARL_v64qguscgj","63d92dacc885e6167a4a486c","freq","","","img/blue_2bandit_a2.png","70","","70","test","1","","50","","","","square","circle","48","6","3","0.9583333333333334","","","","","","","",""
"null","194724","SARL_v6","SARL_v64qguscgj","63d92dacc885e6167a4a486c","freq_resp","","","img/blue_2bandit_a.png","70","img/blue_2bandit_a.png","70","test","","","","","","","","","","","3","","","","","","","","",""
"null","194892","SARL_v6","SARL_v64qguscgj","63d92dacc885e6167a4a486c","fixation","","","img/fixation.png","null","","","test","","","","","","","","","","","","","","","","","","","",""
"268","195163","SARL_v6","SARL_v64qguscgj","63d92dacc885e6167a4a486c","freq","","","img/blue_2bandit_a2.png","70","","70","test","1","","51","","","","square","circle","49","7","3","0.9591836734693877","","","","","","","",""
"null","195706","SARL_v6","SARL_v64qguscgj","63d92dacc885e6167a4a486c","freq_resp","","","img/blue_2bandit_a.png","70","img/blue_2bandit_a.png","70","test","","","","","","","","","","","3","","","","","","","","",""
"null","195861","SARL_v6","SARL_v64qguscgj","63d92dacc885e6167a4a486c","fixation","","","img/fixation.png","null","","","test","","","","","","","","","","","","","","","","","","","",""
"368.4000000357628","196233","SARL_v6","SARL_v64qguscgj","63d92dacc885e6167a4a486c","freq","","","img/blue_2bandit_a2.png","70","","70","test","1","","52","","","","square","circle","50","8","3","0.96","","","","","","","",""
"null","196680","SARL_v6","SARL_v64qguscgj","63d92dacc885e6167a4a486c","freq_resp","","","img/blue_2bandit_a.png","70","img/blue_2bandit_a.png","70","test","","","","","","","","","","","3","","","","","","","","",""
"null","196842","SARL_v6","SARL_v64qguscgj","63d92dacc885e6167a4a486c","fixation","","","img/fixation.png","null","","","test","","","","","","","","","","","","","","","","","","","",""
"441.80000001192093","197286","SARL_v6","SARL_v64qguscgj","63d92dacc885e6167a4a486c","infreq","","","img/orange_2bandit_a2.png","68","","68","test","1","","53","","","","square","circle","51","9","3","0.9607843137254902","","","","","","","",""
"null","197660","SARL_v6","SARL_v64qguscgj","63d92dacc885e6167a4a486c","infreq_resp","","","img/orange_2bandit_a.png","68","img/orange_2bandit_a.png","68","test","","","","","","","","","","","3","","","","","","","","",""
"null","197828","SARL_v6","SARL_v64qguscgj","63d92dacc885e6167a4a486c","fixation","","","img/fixation.png","null","","","test","","","","","","","","","","","","","","","","","","","",""
"324","198154","SARL_v6","SARL_v64qguscgj","63d92dacc885e6167a4a486c","freq","","","img/blue_2bandit_a2.png","70","","70","test","1","","54","","","","square","circle","52","10","3","0.9615384615384616","","","","","","","",""
"null","198645","SARL_v6","SARL_v64qguscgj","63d92dacc885e6167a4a486c","freq_resp","","","img/blue_2bandit_a.png","70","img/blue_2bandit_a.png","70","test","","","","","","","","","","","3","","","","","","","","",""
"null","198807","SARL_v6","SARL_v64qguscgj","63d92dacc885e6167a4a486c","fixation","","","img/fixation.png","null","","","test","","","","","","","","","","","","","","","","","","","",""
"176.0999999642372","198986","SARL_v6","SARL_v64qguscgj","63d92dacc885e6167a4a486c","freq","","","img/blue_2bandit_a2.png","70","","70","test","1","","55","","","","square","circle","53","11","3","0.9622641509433962","","","","","","","",""
"null","199618","SARL_v6","SARL_v64qguscgj","63d92dacc885e6167a4a486c","freq_resp","","","img/blue_2bandit_a.png","70","img/blue_2bandit_a.png","70","test","","","","","","","","","","","3","","","","","","","","",""
"null","199779","SARL_v6","SARL_v64qguscgj","63d92dacc885e6167a4a486c","fixation","","","img/fixation.png","null","","","test","","","","","","","","","","","","","","","","","","","",""
"190.10000002384186","199972","SARL_v6","SARL_v64qguscgj","63d92dacc885e6167a4a486c","infreq","","","img/orange_2bandit_a2.png","70","","68","test","0","","56","","","","square","circle","54","12","3","0.9444444444444444","","","","","","","",""
"null","200597","SARL_v6","SARL_v64qguscgj","63d92dacc885e6167a4a486c","infreq_resp","","","img/orange_2bandit_a.png","70","img/orange_2bandit_a.png","68","test","","","","","","","","","","","3","","","","","","","","",""
"null","200764","SARL_v6","SARL_v64qguscgj","63d92dacc885e6167a4a486c","fixation","","","img/fixation.png","null","","","test","","","","","","","","","","","","","","","","","","","",""
"506","201272","SARL_v6","SARL_v64qguscgj","63d92dacc885e6167a4a486c","freq","","","img/blue_2bandit_a2.png","70","","70","test","1","","57","","","","square","circle","55","13","3","0.9454545454545454","","","","","","","",""
"null","201577","SARL_v6","SARL_v64qguscgj","63d92dacc885e6167a4a486c","freq_resp","","","img/blue_2bandit_a.png","70","img/blue_2bandit_a.png","70","test","","","","","","","","","","","3","","","","","","","","",""
"null","201733","SARL_v6","SARL_v64qguscgj","63d92dacc885e6167a4a486c","fixation","","","img/fixation.png","null","","","test","","","","","","","","","","","","","","","","","","","",""
"457.30000001192093","202191","SARL_v6","SARL_v64qguscgj","63d92dacc885e6167a4a486c","freq","","","img/blue_2bandit_a2.png","70","","70","test","1","","58","","","","square","circle","56","14","3","0.9464285714285714","","","","","","","",""
"null","202544","SARL_v6","SARL_v64qguscgj","63d92dacc885e6167a4a486c","freq_resp","","","img/blue_2bandit_a.png","70","img/blue_2bandit_a.png","70","test","","","","","","","","","","","3","","","","","","","","",""
"null","202709","SARL_v6","SARL_v64qguscgj","63d92dacc885e6167a4a486c","fixation","","","img/fixation.png","null","","","test","","","","","","","","","","","","","","","","","","","",""
"317.30000001192093","203028","SARL_v6","SARL_v64qguscgj","63d92dacc885e6167a4a486c","freq","","","img/blue_2bandit_a2.png","70","","70","test","1","","59","","","","square","circle","57","15","3","0.9473684210526315","","","","","","","",""
"null","203526","SARL_v6","SARL_v64qguscgj","63d92dacc885e6167a4a486c","freq_resp","","","img/blue_2bandit_a.png","70","img/blue_2bandit_a.png","70","test","","","","","","","","","","","3","","","","","","","","",""
"null","203689","SARL_v6","SARL_v64qguscgj","63d92dacc885e6167a4a486c","fixation","","","img/fixation.png","null","","","test","","","","","","","","","","","","","","","","","","","",""
"318.30000001192093","204011","SARL_v6","SARL_v64qguscgj","63d92dacc885e6167a4a486c","freq","","","img/blue_2bandit_a2.png","70","","70","test","1","","60","","","","square","circle","58","16","3","0.9482758620689655","","","","","","","",""
"null","204508","SARL_v6","SARL_v64qguscgj","63d92dacc885e6167a4a486c","freq_resp","","","img/blue_2bandit_a.png","70","img/blue_2bandit_a.png","70","test","","","","","","","","","","","3","","","","","","","","",""
"null","204674","SARL_v6","SARL_v64qguscgj","63d92dacc885e6167a4a486c","fixation","","","img/fixation.png","null","","","test","","","","","","","","","","","","","","","","","","","",""
"327.30000001192093","205003","SARL_v6","SARL_v64qguscgj","63d92dacc885e6167a4a486c","freq","","","img/blue_2bandit_a2.png","70","","70","test","1","","61","","","","square","circle","59","17","3","0.9491525423728814","","","","","","","",""
"null","205489","SARL_v6","SARL_v64qguscgj","63d92dacc885e6167a4a486c","freq_resp","","","img/blue_2bandit_a.png","70","img/blue_2bandit_a.png","70","test","","","","","","","","","","","3","","","","","","","","",""
"null","205645","SARL_v6","SARL_v64qguscgj","63d92dacc885e6167a4a486c","fixation","","","img/fixation.png","null","","","test","","","","","","","","","","","","","","","","","","","",""
"317.39999997615814","205965","SARL_v6","SARL_v64qguscgj","63d92dacc885e6167a4a486c","freq","","","img/blue_2bandit_a2.png","70","","70","test","1","","62","","","","square","circle","60","18","3","0.95","","","","","","","",""
"null","206455","SARL_v6","SARL_v64qguscgj","63d92dacc885e6167a4a486c","freq_resp","","","img/blue_2bandit_a.png","70","img/blue_2bandit_a.png","70","test","","","","","","","","","","","3","","","","","","","","",""
"null","206612","SARL_v6","SARL_v64qguscgj","63d92dacc885e6167a4a486c","fixation","","","img/fixation.png","null","","","test","","","","","","","","","","","","","","","","","","","",""
"218","206832","SARL_v6","SARL_v64qguscgj","63d92dacc885e6167a4a486c","freq","","","img/blue_2bandit_a2.png","70","","70","test","1","","63","","","","square","circle","61","19","3","0.9508196721311475","","","","","","","",""
"null","207427","SARL_v6","SARL_v64qguscgj","63d92dacc885e6167a4a486c","freq_resp","","","img/blue_2bandit_a.png","70","img/blue_2bandit_a.png","70","test","","","","","","","","","","","3","","","","","","","","",""
"null","207589","SARL_v6","SARL_v64qguscgj","63d92dacc885e6167a4a486c","fixation","","","img/fixation.png","null","","","test","","","","","","","","","","","","","","","","","","","",""
"206.4000000357628","207799","SARL_v6","SARL_v64qguscgj","63d92dacc885e6167a4a486c","freq","","","img/blue_2bandit_a2.png","70","","70","test","1","","64","","","","square","circle","62","20","3","0.9516129032258065","","","","","","","",""
"null","208406","SARL_v6","SARL_v64qguscgj","63d92dacc885e6167a4a486c","freq_resp","","","img/blue_2bandit_a.png","70","img/blue_2bandit_a.png","70","test","","","","","","","","","","","3","","","","","","","","",""
"null","208560","SARL_v6","SARL_v64qguscgj","63d92dacc885e6167a4a486c","fixation","","","img/fixation.png","null","","","test","","","","","","","","","","","","","","","","","","","",""
"523.5","209086","SARL_v6","SARL_v64qguscgj","63d92dacc885e6167a4a486c","freq","","","img/blue_2bandit_a2.png","70","","70","test","1","","65","","","","square","circle","63","21","3","0.9523809523809523","","","","","","","",""
"null","209376","SARL_v6","SARL_v64qguscgj","63d92dacc885e6167a4a486c","freq_resp","","","img/blue_2bandit_a.png","70","img/blue_2bandit_a.png","70","test","","","","","","","","","","","3","","","","","","","","",""
"null","209540","SARL_v6","SARL_v64qguscgj","63d92dacc885e6167a4a486c","fixation","","","img/fixation.png","null","","","test","","","","","","","","","","","","","","","","","","","",""
"370.89999997615814","209914","SARL_v6","SARL_v64qguscgj","63d92dacc885e6167a4a486c","freq","","","img/blue_2bandit_a2.png","70","","70","test","1","","66","","","","square","circle","64","22","3","0.953125","","","","","","","",""
"null","210354","SARL_v6","SARL_v64qguscgj","63d92dacc885e6167a4a486c","freq_resp","","","img/blue_2bandit_a.png","70","img/blue_2bandit_a.png","70","test","","","","","","","","","","","3","","","","","","","","",""
"null","210520","SARL_v6","SARL_v64qguscgj","63d92dacc885e6167a4a486c","fixation","","","img/fixation.png","null","","","test","","","","","","","","","","","","","","","","","","","",""
"196.0999999642372","210718","SARL_v6","SARL_v64qguscgj","63d92dacc885e6167a4a486c","freq","","","img/blue_2bandit_a2.png","70","","70","test","1","","67","","","","square","circle","65","23","3","0.9538461538461539","","","","","","","",""
"null","211337","SARL_v6","SARL_v64qguscgj","63d92dacc885e6167a4a486c","freq_resp","","","img/blue_2bandit_a.png","70","img/blue_2bandit_a.png","70","test","","","","","","","","","","","3","","","","","","","","",""
"null","211494","SARL_v6","SARL_v64qguscgj","63d92dacc885e6167a4a486c","fixation","","","img/fixation.png","null","","","test","","","","","","","","","","","","","","","","","","","",""
"772.4000000357628","212270","SARL_v6","SARL_v64qguscgj","63d92dacc885e6167a4a486c","rl","","","img/black_2bandit_a2.png","74","","0","test","","","68","","","-4","square","circle","","0","3","","74","-8","-4","-4","-8","square","3","0"
"null","213036","SARL_v6","SARL_v64qguscgj","63d92dacc885e6167a4a486c","feedback","","","<div class=""verylowPoints_sq""> -4 </div>","null","","na","test","","","NaN","","","","","","","","3","","74","","","","","","3",""
"361.39999997615814","213400","SARL_v6","SARL_v64qguscgj","63d92dacc885e6167a4a486c","freq","","","img/blue_2bandit_a2.png","70","","70","test","1","","69","","","","square","circle","66","1","4","0.9545454545454546","","","","","","","",""
"null","213844","SARL_v6","SARL_v64qguscgj","63d92dacc885e6167a4a486c","freq_resp","","","img/blue_2bandit_a.png","70","img/blue_2bandit_a.png","70","test","","","","","","","","","","","4","","","","","","","","",""
"null","213998","SARL_v6","SARL_v64qguscgj","63d92dacc885e6167a4a486c","fixation","","","img/fixation.png","null","","","test","","","","","","","","","","","","","","","","","","","",""
"177","214177","SARL_v6","SARL_v64qguscgj","63d92dacc885e6167a4a486c","freq","","","img/blue_2bandit_a2.png","70","","70","test","1","","70","","","","square","circle","67","2","4","0.9552238805970149","","","","","","","",""
"null","214806","SARL_v6","SARL_v64qguscgj","63d92dacc885e6167a4a486c","freq_resp","","","img/blue_2bandit_a.png","70","img/blue_2bandit_a.png","70","test","","","","","","","","","","","4","","","","","","","","",""
"null","214959","SARL_v6","SARL_v64qguscgj","63d92dacc885e6167a4a486c","fixation","","","img/fixation.png","null","","","test","","","","","","","","","","","","","","","","","","","",""
"213.80000001192093","215174","SARL_v6","SARL_v64qguscgj","63d92dacc885e6167a4a486c","freq","","","img/blue_2bandit_a2.png","70","","70","test","1","","71","","","","square","circle","68","3","4","0.9558823529411765","","","","","","","",""
"null","215766","SARL_v6","SARL_v64qguscgj","63d92dacc885e6167a4a486c","freq_resp","","","img/blue_2bandit_a.png","70","img/blue_2bandit_a.png","70","test","","","","","","","","","","","4","","","","","","","","",""
"null","215935","SARL_v6","SARL_v64qguscgj","63d92dacc885e6167a4a486c","fixation","","","img/fixation.png","null","","","test","","","","","","","","","","","","","","","","","","","",""
"147.19999998807907","216084","SARL_v6","SARL_v64qguscgj","63d92dacc885e6167a4a486c","infreq","","","img/orange_2bandit_a2.png","70","","68","test","0","","72","","","","square","circle","69","4","4","0.9420289855072463","","","","","","","",""
"null","216742","SARL_v6","SARL_v64qguscgj","63d92dacc885e6167a4a486c","infreq_resp","","","img/orange_2bandit_a.png","70","img/orange_2bandit_a.png","68","test","","","","","","","","","","","4","","","","","","","","",""
"null","216907","SARL_v6","SARL_v64qguscgj","63d92dacc885e6167a4a486c","fixation","","","img/fixation.png","null","","","test","","","","","","","","","","","","","","","","","","","",""
"359.19999998807907","217269","SARL_v6","SARL_v64qguscgj","63d92dacc885e6167a4a486c","freq","","","img/blue_2bandit_a2.png","70","","70","test","1","","73","","","","square","circle","70","5","4","0.9428571428571428","","","","","","","",""
"null","217711","SARL_v6","SARL_v64qguscgj","63d92dacc885e6167a4a486c","freq_resp","","","img/blue_2bandit_a.png","70","img/blue_2bandit_a.png","70","test","","","","","","","","","","","4","","","","","","","","",""
"null","217880","SARL_v6","SARL_v64qguscgj","63d92dacc885e6167a4a486c","fixation","","","img/fixation.png","null","","","test","","","","","","","","","","","","","","","","","","","",""
"232.60000002384186","218115","SARL_v6","SARL_v64qguscgj","63d92dacc885e6167a4a486c","freq","","","img/blue_2bandit_a2.png","70","","70","test","1","","74","","","","square","circle","71","6","4","0.9436619718309859","","","","","","","",""
"null","218695","SARL_v6","SARL_v64qguscgj","63d92dacc885e6167a4a486c","freq_resp","","","img/blue_2bandit_a.png","70","img/blue_2bandit_a.png","70","test","","","","","","","","","","","4","","","","","","","","",""
"null","218850","SARL_v6","SARL_v64qguscgj","63d92dacc885e6167a4a486c","fixation","","","img/fixation.png","null","","","test","","","","","","","","","","","","","","","","","","","",""
"174.60000002384186","219028","SARL_v6","SARL_v64qguscgj","63d92dacc885e6167a4a486c","freq","","","img/blue_2bandit_a2.png","70","","70","test","1","","75","","","","square","circle","72","7","4","0.9444444444444444","","","","","","","",""
"null","219671","SARL_v6","SARL_v64qguscgj","63d92dacc885e6167a4a486c","freq_resp","","","img/blue_2bandit_a.png","70","img/blue_2bandit_a.png","70","test","","","","","","","","","","","4","","","","","","","","",""
"null","219837","SARL_v6","SARL_v64qguscgj","63d92dacc885e6167a4a486c","fixation","","","img/fixation.png","null","","","test","","","","","","","","","","","","","","","","","","","",""
"134.0999999642372","219974","SARL_v6","SARL_v64qguscgj","63d92dacc885e6167a4a486c","freq","","","img/blue_2bandit_a2.png","70","","70","test","1","","76","","","","square","circle","73","8","4","0.9452054794520548","","","","","","","",""
"null","220655","SARL_v6","SARL_v64qguscgj","63d92dacc885e6167a4a486c","freq_resp","","","img/blue_2bandit_a.png","70","img/blue_2bandit_a.png","70","test","","","","","","","","","","","4","","","","","","","","",""
"null","220816","SARL_v6","SARL_v64qguscgj","63d92dacc885e6167a4a486c","fixation","","","img/fixation.png","null","","","test","","","","","","","","","","","","","","","","","","","",""
"120.69999998807907","220940","SARL_v6","SARL_v64qguscgj","63d92dacc885e6167a4a486c","freq","","","img/blue_2bandit_a2.png","70","","70","test","1","","77","","","","square","circle","74","9","4","0.9459459459459459","","","","","","","",""
"null","221631","SARL_v6","SARL_v64qguscgj","63d92dacc885e6167a4a486c","freq_resp","","","img/blue_2bandit_a.png","70","img/blue_2bandit_a.png","70","test","","","","","","","","","","","4","","","","","","","","",""
"null","221796","SARL_v6","SARL_v64qguscgj","63d92dacc885e6167a4a486c","fixation","","","img/fixation.png","null","","","test","","","","","","","","","","","","","","","","","","","",""
"107.30000001192093","221906","SARL_v6","SARL_v64qguscgj","63d92dacc885e6167a4a486c","freq","","","img/blue_2bandit_a2.png","70","","70","test","1","","78","","","","square","circle","75","10","4","0.9466666666666667","","","","","","","",""
"null","222616","SARL_v6","SARL_v64qguscgj","63d92dacc885e6167a4a486c","freq_resp","","","img/blue_2bandit_a.png","70","img/blue_2bandit_a.png","70","test","","","","","","","","","","","4","","","","","","","","",""
"null","222779","SARL_v6","SARL_v64qguscgj","63d92dacc885e6167a4a486c","fixation","","","img/fixation.png","null","","","test","","","","","","","","","","","","","","","","","","","",""
"175.69999998807907","222958","SARL_v6","SARL_v64qguscgj","63d92dacc885e6167a4a486c","freq","","","img/blue_2bandit_a2.png","70","","70","test","1","","79","","","","square","circle","76","11","4","0.9473684210526315","","","","","","","",""
"null","223600","SARL_v6","SARL_v64qguscgj","63d92dacc885e6167a4a486c","freq_resp","","","img/blue_2bandit_a.png","70","img/blue_2bandit_a.png","70","test","","","","","","","","","","","4","","","","","","","","",""
"null","223767","SARL_v6","SARL_v64qguscgj","63d92dacc885e6167a4a486c","fixation","","","img/fixation.png","null","","","test","","","","","","","","","","","","","","","","","","","",""
"172.80000001192093","223942","SARL_v6","SARL_v64qguscgj","63d92dacc885e6167a4a486c","freq","","","img/blue_2bandit_a2.png","70","","70","test","1","","80","","","","square","circle","77","12","4","0.948051948051948","","","","","","","",""
"null","224574","SARL_v6","SARL_v64qguscgj","63d92dacc885e6167a4a486c","freq_resp","","","img/blue_2bandit_a.png","70","img/blue_2bandit_a.png","70","test","","","","","","","","","","","4","","","","","","","","",""
"null","224739","SARL_v6","SARL_v64qguscgj","63d92dacc885e6167a4a486c","fixation","","","img/fixation.png","null","","","test","","","","","","","","","","","","","","","","","","","",""
"300.10000002384186","225042","SARL_v6","SARL_v64qguscgj","63d92dacc885e6167a4a486c","freq","","","img/blue_2bandit_a2.png","70","","70","test","1","","81","","","","square","circle","78","13","4","0.9487179487179487","","","","","","","",""
"null","225546","SARL_v6","SARL_v64qguscgj","63d92dacc885e6167a4a486c","freq_resp","","","img/blue_2bandit_a.png","70","img/blue_2bandit_a.png","70","test","","","","","","","","","","","4","","","","","","","","",""
"null","225710","SARL_v6","SARL_v64qguscgj","63d92dacc885e6167a4a486c","fixation","","","img/fixation.png","null","","","test","","","","","","","","","","","","","","","","","","","",""
"311.5","226024","SARL_v6","SARL_v64qguscgj","63d92dacc885e6167a4a486c","freq","","","img/blue_2bandit_a2.png","70","","70","test","1","","82","","","","square","circle","79","14","4","0.9493670886075949","","","","","","","",""
"null","226522","SARL_v6","SARL_v64qguscgj","63d92dacc885e6167a4a486c","freq_resp","","","img/blue_2bandit_a.png","70","img/blue_2bandit_a.png","70","test","","","","","","","","","","","4","","","","","","","","",""
"null","226690","SARL_v6","SARL_v64qguscgj","63d92dacc885e6167a4a486c","fixation","","","img/fixation.png","null","","","test","","","","","","","","","","","","","","","","","","","",""
"292.7000000476837","226985","SARL_v6","SARL_v64qguscgj","63d92dacc885e6167a4a486c","freq","","","img/blue_2bandit_a2.png","70","","70","test","1","","83","","","","square","circle","80","15","4","0.95","","","","","","","",""
"null","227500","SARL_v6","SARL_v64qguscgj","63d92dacc885e6167a4a486c","freq_resp","","","img/blue_2bandit_a.png","70","img/blue_2bandit_a.png","70","test","","","","","","","","","","","4","","","","","","","","",""
"null","227663","SARL_v6","SARL_v64qguscgj","63d92dacc885e6167a4a486c","fixation","","","img/fixation.png","null","","","test","","","","","","","","","","","","","","","","","","","",""
"192.69999998807907","227858","SARL_v6","SARL_v64qguscgj","63d92dacc885e6167a4a486c","freq","","","img/blue_2bandit_a2.png","70","","70","test","1","","84","","","","square","circle","81","16","4","0.9506172839506173","","","","","","","",""
"null","228474","SARL_v6","SARL_v64qguscgj","63d92dacc885e6167a4a486c","freq_resp","","","img/blue_2bandit_a.png","70","img/blue_2bandit_a.png","70","test","","","","","","","","","","","4","","","","","","","","",""
"null","228641","SARL_v6","SARL_v64qguscgj","63d92dacc885e6167a4a486c","fixation","","","img/fixation.png","null","","","test","","","","","","","","","","","","","","","","","","","",""
"193.39999997615814","228835","SARL_v6","SARL_v64qguscgj","63d92dacc885e6167a4a486c","infreq","","","img/orange_2bandit_a2.png","70","","68","test","0","","85","","","","square","circle","82","17","4","0.9390243902439024","","","","","","","",""
"null","229452","SARL_v6","SARL_v64qguscgj","63d92dacc885e6167a4a486c","infreq_resp","","","img/orange_2bandit_a.png","70","img/orange_2bandit_a.png","68","test","","","","","","","","","","","4","","","","","","","","",""
"null","229613","SARL_v6","SARL_v64qguscgj","63d92dacc885e6167a4a486c","fixation","","","img/fixation.png","null","","","test","","","","","","","","","","","","","","","","","","","",""
"518.1000000238419","230133","SARL_v6","SARL_v64qguscgj","63d92dacc885e6167a4a486c","freq","","","img/blue_2bandit_a2.png","70","","70","test","1","","86","","","","square","circle","83","18","4","0.9397590361445783","","","","","","","",""
"null","230419","SARL_v6","SARL_v64qguscgj","63d92dacc885e6167a4a486c","freq_resp","","","img/blue_2bandit_a.png","70","img/blue_2bandit_a.png","70","test","","","","","","","","","","","4","","","","","","","","",""
"null","230586","SARL_v6","SARL_v64qguscgj","63d92dacc885e6167a4a486c","fixation","","","img/fixation.png","null","","","test","","","","","","","","","","","","","","","","","","","",""
"249.10000002384186","230839","SARL_v6","SARL_v64qguscgj","63d92dacc885e6167a4a486c","freq","","","img/blue_2bandit_a2.png","70","","70","test","1","","87","","","","square","circle","84","19","4","0.9404761904761905","","","","","","","",""
"null","231397","SARL_v6","SARL_v64qguscgj","63d92dacc885e6167a4a486c","freq_resp","","","img/blue_2bandit_a.png","70","img/blue_2bandit_a.png","70","test","","","","","","","","","","","4","","","","","","","","",""
"null","231565","SARL_v6","SARL_v64qguscgj","63d92dacc885e6167a4a486c","fixation","","","img/fixation.png","null","","","test","","","","","","","","","","","","","","","","","","","",""
"189.5","231756","SARL_v6","SARL_v64qguscgj","63d92dacc885e6167a4a486c","freq","","","img/blue_2bandit_a2.png","70","","70","test","1","","88","","","","square","circle","85","20","4","0.9411764705882353","","","","","","","",""
"null","232375","SARL_v6","SARL_v64qguscgj","63d92dacc885e6167a4a486c","freq_resp","","","img/blue_2bandit_a.png","70","img/blue_2bandit_a.png","70","test","","","","","","","","","","","4","","","","","","","","",""
"null","232540","SARL_v6","SARL_v64qguscgj","63d92dacc885e6167a4a486c","fixation","","","img/fixation.png","null","","","test","","","","","","","","","","","","","","","","","","","",""
"174.10000002384186","232717","SARL_v6","SARL_v64qguscgj","63d92dacc885e6167a4a486c","freq","","","img/blue_2bandit_a2.png","70","","70","test","1","","89","","","","square","circle","86","21","4","0.9418604651162791","","","","","","","",""
"null","233348","SARL_v6","SARL_v64qguscgj","63d92dacc885e6167a4a486c","freq_resp","","","img/blue_2bandit_a.png","70","img/blue_2bandit_a.png","70","test","","","","","","","","","","","4","","","","","","","","",""
"null","233514","SARL_v6","SARL_v64qguscgj","63d92dacc885e6167a4a486c","fixation","","","img/fixation.png","null","","","test","","","","","","","","","","","","","","","","","","","",""
"166.5","233682","SARL_v6","SARL_v64qguscgj","63d92dacc885e6167a4a486c","freq","","","img/blue_2bandit_a2.png","70","","70","test","1","","90","","","","square","circle","87","22","4","0.9425287356321839","","","","","","","",""
"null","234325","SARL_v6","SARL_v64qguscgj","63d92dacc885e6167a4a486c","freq_resp","","","img/blue_2bandit_a.png","70","img/blue_2bandit_a.png","70","test","","","","","","","","","","","4","","","","","","","","",""
"null","234487","SARL_v6","SARL_v64qguscgj","63d92dacc885e6167a4a486c","fixation","","","img/fixation.png","null","","","test","","","","","","","","","","","","","","","","","","","",""
"544.3999999761581","235035","SARL_v6","SARL_v64qguscgj","63d92dacc885e6167a4a486c","rl","","","img/black_2bandit_a2.png","74","","0","test","","","91","","","0","square","circle","","0","4","","74","-12","0","0","-12","square","4","0"
"null","235803","SARL_v6","SARL_v64qguscgj","63d92dacc885e6167a4a486c","feedback","","","<div class=""verylowPoints_sq""> 0 </div>","null","","na","test","","","NaN","","","","","","","","4","","74","","","","","","4",""
"474.9000000357628","236280","SARL_v6","SARL_v64qguscgj","63d92dacc885e6167a4a486c","freq","","","img/blue_2bandit_a2.png","70","","70","test","1","","92","","","","square","circle","88","1","5","0.9431818181818182","","","","","","","",""
"null","236618","SARL_v6","SARL_v64qguscgj","63d92dacc885e6167a4a486c","freq_resp","","","img/blue_2bandit_a.png","70","img/blue_2bandit_a.png","70","test","","","","","","","","","","","5","","","","","","","","",""
"null","236774","SARL_v6","SARL_v64qguscgj","63d92dacc885e6167a4a486c","fixation","","","img/fixation.png","null","","","test","","","","","","","","","","","","","","","","","","","",""
"149.4000000357628","236925","SARL_v6","SARL_v64qguscgj","63d92dacc885e6167a4a486c","freq","","","img/blue_2bandit_a2.png","70","","70","test","1","","93","","","","square","circle","89","2","5","0.9438202247191011","","","","","","","",""
"null","237588","SARL_v6","SARL_v64qguscgj","63d92dacc885e6167a4a486c","freq_resp","","","img/blue_2bandit_a.png","70","img/blue_2bandit_a.png","70","test","","","","","","","","","","","5","","","","","","","","",""
"null","237750","SARL_v6","SARL_v64qguscgj","63d92dacc885e6167a4a486c","fixation","","","img/fixation.png","null","","","test","","","","","","","","","","","","","","","","","","","",""
"101.5","237853","SARL_v6","SARL_v64qguscgj","63d92dacc885e6167a4a486c","freq","","","img/blue_2bandit_a2.png","70","","70","test","1","","94","","","","square","circle","90","3","5","0.9444444444444444","","","","","","","",""
"null","238561","SARL_v6","SARL_v64qguscgj","63d92dacc885e6167a4a486c","freq_resp","","","img/blue_2bandit_a.png","70","img/blue_2bandit_a.png","70","test","","","","","","","","","","","5","","","","","","","","",""
"null","238715","SARL_v6","SARL_v64qguscgj","63d92dacc885e6167a4a486c","fixation","","","img/fixation.png","null","","","test","","","","","","","","","","","","","","","","","","","",""
"172.89999997615814","238890","SARL_v6","SARL_v64qguscgj","63d92dacc885e6167a4a486c","freq","","","img/blue_2bandit_a2.png","70","","70","test","1","","95","","","","square","circle","91","4","5","0.945054945054945","","","","","","","",""
"null","239532","SARL_v6","SARL_v64qguscgj","63d92dacc885e6167a4a486c","freq_resp","","","img/blue_2bandit_a.png","70","img/blue_2bandit_a.png","70","test","","","","","","","","","","","5","","","","","","","","",""
"null","239694","SARL_v6","SARL_v64qguscgj","63d92dacc885e6167a4a486c","fixation","","","img/fixation.png","null","","","test","","","","","","","","","","","","","","","","","","","",""
"168","239863","SARL_v6","SARL_v64qguscgj","63d92dacc885e6167a4a486c","freq","","","img/blue_2bandit_a2.png","70","","70","test","1","","96","","","","square","circle","92","5","5","0.9456521739130435","","","","","","","",""
"null","240500","SARL_v6","SARL_v64qguscgj","63d92dacc885e6167a4a486c","freq_resp","","","img/blue_2bandit_a.png","70","img/blue_2bandit_a.png","70","test","","","","","","","","","","","5","","","","","","","","",""
"null","240667","SARL_v6","SARL_v64qguscgj","63d92dacc885e6167a4a486c","fixation","","","img/fixation.png","null","","","test","","","","","","","","","","","","","","","","","","","",""
"135.0999999642372","240804","SARL_v6","SARL_v64qguscgj","63d92dacc885e6167a4a486c","freq","","","img/blue_2bandit_a2.png","70","","70","test","1","","97","","","","square","circle","93","6","5","0.946236559139785","","","","","","","",""
"null","241479","SARL_v6","SARL_v64qguscgj","63d92dacc885e6167a4a486c","freq_resp","","","img/blue_2bandit_a.png","70","img/blue_2bandit_a.png","70","test","","","","","","","","","","","5","","","","","","","","",""
"null","241646","SARL_v6","SARL_v64qguscgj","63d92dacc885e6167a4a486c","fixation","","","img/fixation.png","null","","","test","","","","","","","","","","","","","","","","","","","",""
"158.5","241808","SARL_v6","SARL_v64qguscgj","63d92dacc885e6167a4a486c","freq","","","img/blue_2bandit_a2.png","70","","70","test","1","","98","","","","square","circle","94","7","5","0.9468085106382979","","","","","","","",""
"null","242455","SARL_v6","SARL_v64qguscgj","63d92dacc885e6167a4a486c","freq_resp","","","img/blue_2bandit_a.png","70","img/blue_2bandit_a.png","70","test","","","","","","","","","","","5","","","","","","","","",""
"null","242618","SARL_v6","SARL_v64qguscgj","63d92dacc885e6167a4a486c","fixation","","","img/fixation.png","null","","","test","","","","","","","","","","","","","","","","","","","",""
"227.5","242848","SARL_v6","SARL_v64qguscgj","63d92dacc885e6167a4a486c","freq","","","img/blue_2bandit_a2.png","70","","70","test","1","","99","","","","square","circle","95","8","5","0.9473684210526315","","","","","","","",""
"null","243422","SARL_v6","SARL_v64qguscgj","63d92dacc885e6167a4a486c","freq_resp","","","img/blue_2bandit_a.png","70","img/blue_2bandit_a.png","70","test","","","","","","","","","","","5","","","","","","","","",""
"null","243589","SARL_v6","SARL_v64qguscgj","63d92dacc885e6167a4a486c","fixation","","","img/fixation.png","null","","","test","","","","","","","","","","","","","","","","","","","",""
"251.30000001192093","243843","SARL_v6","SARL_v64qguscgj","63d92dacc885e6167a4a486c","freq","","","img/blue_2bandit_a2.png","70","","70","test","1","","100","","","","square","circle","96","9","5","0.9479166666666666","","","","","","","",""
"null","244400","SARL_v6","SARL_v64qguscgj","63d92dacc885e6167a4a486c","freq_resp","","","img/blue_2bandit_a.png","70","img/blue_2bandit_a.png","70","test","","","","","","","","","","","5","","","","","","","","",""
"null","244564","SARL_v6","SARL_v64qguscgj","63d92dacc885e6167a4a486c","fixation","","","img/fixation.png","null","","","test","","","","","","","","","","","","","","","","","","","",""
"185.89999997615814","244752","SARL_v6","SARL_v64qguscgj","63d92dacc885e6167a4a486c","freq","","","img/blue_2bandit_a2.png","70","","70","test","1","","101","","","","square","circle","97","10","5","0.9484536082474226","","","","","","","",""
"null","245373","SARL_v6","SARL_v64qguscgj","63d92dacc885e6167a4a486c","freq_resp","","","img/blue_2bandit_a.png","70","img/blue_2bandit_a.png","70","test","","","","","","","","","","","5","","","","","","","","",""
"null","245534","SARL_v6","SARL_v64qguscgj","63d92dacc885e6167a4a486c","fixation","","","img/fixation.png","null","","","test","","","","","","","","","","","","","","","","","","","",""
"278","245814","SARL_v6","SARL_v64qguscgj","63d92dacc885e6167a4a486c","freq","","","img/blue_2bandit_a2.png","70","","70","test","1","","102","","","","square","circle","98","11","5","0.9489795918367347","","","","","","","",""
"null","246347","SARL_v6","SARL_v64qguscgj","63d92dacc885e6167a4a486c","freq_resp","","","img/blue_2bandit_a.png","70","img/blue_2bandit_a.png","70","test","","","","","","","","","","","5","","","","","","","","",""
"null","246508","SARL_v6","SARL_v64qguscgj","63d92dacc885e6167a4a486c","fixation","","","img/fixation.png","null","","","test","","","","","","","","","","","","","","","","","","","",""
"303.80000001192093","246815","SARL_v6","SARL_v64qguscgj","63d92dacc885e6167a4a486c","freq","","","img/blue_2bandit_a2.png","70","","70","test","1","","103","","","","square","circle","99","12","5","0.9494949494949495","","","","","","","",""
"null","247324","SARL_v6","SARL_v64qguscgj","63d92dacc885e6167a4a486c","freq_resp","","","img/blue_2bandit_a.png","70","img/blue_2bandit_a.png","70","test","","","","","","","","","","","5","","","","","","","","",""
"null","247477","SARL_v6","SARL_v64qguscgj","63d92dacc885e6167a4a486c","fixation","","","img/fixation.png","null","","","test","","","","","","","","","","","","","","","","","","","",""
"338.4000000357628","247817","SARL_v6","SARL_v64qguscgj","63d92dacc885e6167a4a486c","freq","","","img/blue_2bandit_a2.png","70","","70","test","1","","104","","","","square","circle","100","13","5","0.95","","","","","","","",""
"null","248288","SARL_v6","SARL_v64qguscgj","63d92dacc885e6167a4a486c","freq_resp","","","img/blue_2bandit_a.png","70","img/blue_2bandit_a.png","70","test","","","","","","","","","","","5","","","","","","","","",""
"null","248451","SARL_v6","SARL_v64qguscgj","63d92dacc885e6167a4a486c","fixation","","","img/fixation.png","null","","","test","","","","","","","","","","","","","","","","","","","",""
"292.39999997615814","248745","SARL_v6","SARL_v64qguscgj","63d92dacc885e6167a4a486c","freq","","","img/blue_2bandit_a2.png","70","","70","test","1","","105","","","","square","circle","101","14","5","0.9504950495049505","","","","","","","",""
"null","249254","SARL_v6","SARL_v64qguscgj","63d92dacc885e6167a4a486c","freq_resp","","","img/blue_2bandit_a.png","70","img/blue_2bandit_a.png","70","test","","","","","","","","","","","5","","","","","","","","",""
"null","249415","SARL_v6","SARL_v64qguscgj","63d92dacc885e6167a4a486c","fixation","","","img/fixation.png","null","","","test","","","","","","","","","","","","","","","","","","","",""
"343.5","249761","SARL_v6","SARL_v64qguscgj","63d92dacc885e6167a4a486c","freq","","","img/blue_2bandit_a2.png","70","","70","test","1","","106","","","","square","circle","102","15","5","0.9509803921568627","","","","","","","",""
"null","250221","SARL_v6","SARL_v64qguscgj","63d92dacc885e6167a4a486c","freq_resp","","","img/blue_2bandit_a.png","70","img/blue_2bandit_a.png","70","test","","","","","","","","","","","5","","","","","","","","",""
"null","250387","SARL_v6","SARL_v64qguscgj","63d92dacc885e6167a4a486c","fixation","","","img/fixation.png","null","","","test","","","","","","","","","","","","","","","","","","","",""
"322.5","250712","SARL_v6","SARL_v64qguscgj","63d92dacc885e6167a4a486c","freq","","","img/blue_2bandit_a2.png","70","","70","test","1","","107","","","","square","circle","103","16","5","0.9514563106796117","","","","","","","",""
"null","251204","SARL_v6","SARL_v64qguscgj","63d92dacc885e6167a4a486c","freq_resp","","","img/blue_2bandit_a.png","70","img/blue_2bandit_a.png","70","test","","","","","","","","","","","5","","","","","","","","",""
"null","251358","SARL_v6","SARL_v64qguscgj","63d92dacc885e6167a4a486c","fixation","","","img/fixation.png","null","","","test","","","","","","","","","","","","","","","","","","","",""
"378.39999997615814","251739","SARL_v6","SARL_v64qguscgj","63d92dacc885e6167a4a486c","infreq","","","img/orange_2bandit_a2.png","68","","68","test","1","","108","","","","square","circle","104","17","5","0.9519230769230769","","","","","","","",""
"null","252163","SARL_v6","SARL_v64qguscgj","63d92dacc885e6167a4a486c","infreq_resp","","","img/orange_2bandit_a.png","68","img/orange_2bandit_a.png","68","test","","","","","","","","","","","5","","","","","","","","",""
"null","252325","SARL_v6","SARL_v64qguscgj","63d92dacc885e6167a4a486c","fixation","","","img/fixation.png","null","","","test","","","","","","","","","","","","","","","","","","","",""
"153.19999998807907","252481","SARL_v6","SARL_v64qguscgj","63d92dacc885e6167a4a486c","infreq","","","img/orange_2bandit_a2.png","70","","68","test","0","","109","","","","square","circle","105","18","5","0.9428571428571428","","","","","","","",""
"null","253131","SARL_v6","SARL_v64qguscgj","63d92dacc885e6167a4a486c","infreq_resp","","","img/orange_2bandit_a.png","70","img/orange_2bandit_a.png","68","test","","","","","","","","","","","5","","","","","","","","",""
"null","253296","SARL_v6","SARL_v64qguscgj","63d92dacc885e6167a4a486c","fixation","","","img/fixation.png","null","","","test","","","","","","","","","","","","","","","","","","","",""
"471.69999998807907","253771","SARL_v6","SARL_v64qguscgj","63d92dacc885e6167a4a486c","freq","","","img/blue_2bandit_a2.png","70","","70","test","1","","110","","","","square","circle","106","19","5","0.9433962264150944","","","","","","","",""
"null","254115","SARL_v6","SARL_v64qguscgj","63d92dacc885e6167a4a486c","freq_resp","","","img/blue_2bandit_a.png","70","img/blue_2bandit_a.png","70","test","","","","","","","","","","","5","","","","","","","","",""
"null","254283","SARL_v6","SARL_v64qguscgj","63d92dacc885e6167a4a486c","fixation","","","img/fixation.png","null","","","test","","","","","","","","","","","","","","","","","","","",""
"249.19999998807907","254535","SARL_v6","SARL_v64qguscgj","63d92dacc885e6167a4a486c","infreq","","","img/orange_2bandit_a2.png","70","","68","test","0","","111","","","","square","circle","107","20","5","0.9345794392523364","","","","","","","",""
"null","255101","SARL_v6","SARL_v64qguscgj","63d92dacc885e6167a4a486c","infreq_resp","","","img/orange_2bandit_a.png","70","img/orange_2bandit_a.png","68","test","","","","","","","","","","","5","","","","","","","","",""
"null","255268","SARL_v6","SARL_v64qguscgj","63d92dacc885e6167a4a486c","fixation","","","img/fixation.png","null","","","test","","","","","","","","","","","","","","","","","","","",""
"374.60000002384186","255646","SARL_v6","SARL_v64qguscgj","63d92dacc885e6167a4a486c","freq","","","img/blue_2bandit_a2.png","70","","70","test","1","","112","","","","square","circle","108","21","5","0.9351851851851852","","","","","","","",""
"null","256085","SARL_v6","SARL_v64qguscgj","63d92dacc885e6167a4a486c","freq_resp","","","img/blue_2bandit_a.png","70","img/blue_2bandit_a.png","70","test","","","","","","","","","","","5","","","","","","","","",""
"null","256247","SARL_v6","SARL_v64qguscgj","63d92dacc885e6167a4a486c","fixation","","","img/fixation.png","null","","","test","","","","","","","","","","","","","","","","","","","",""
"586","256835","SARL_v6","SARL_v64qguscgj","63d92dacc885e6167a4a486c","freq","","","img/blue_2bandit_a2.png","70","","70","test","1","","113","","","","square","circle","109","22","5","0.9357798165137615","","","","","","","",""
"null","257059","SARL_v6","SARL_v64qguscgj","63d92dacc885e6167a4a486c","freq_resp","","","img/blue_2bandit_a.png","70","img/blue_2bandit_a.png","70","test","","","","","","","","","","","5","","","","","","","","",""
"null","257226","SARL_v6","SARL_v64qguscgj","63d92dacc885e6167a4a486c","fixation","","","img/fixation.png","null","","","test","","","","","","","","","","","","","","","","","","","",""
"430.4000000357628","257659","SARL_v6","SARL_v64qguscgj","63d92dacc885e6167a4a486c","freq","","","img/blue_2bandit_a2.png","70","","70","test","1","","114","","","","square","circle","110","23","5","0.9363636363636364","","","","","","","",""
"null","258034","SARL_v6","SARL_v64qguscgj","63d92dacc885e6167a4a486c","freq_resp","","","img/blue_2bandit_a.png","70","img/blue_2bandit_a.png","70","test","","","","","","","","","","","5","","","","","","","","",""
"null","258191","SARL_v6","SARL_v64qguscgj","63d92dacc885e6167a4a486c","fixation","","","img/fixation.png","null","","","test","","","","","","","","","","","","","","","","","","","",""
"303.7999999523163","258498","SARL_v6","SARL_v64qguscgj","63d92dacc885e6167a4a486c","freq","","","img/blue_2bandit_a2.png","70","","70","test","1","","115","","","","square","circle","111","24","5","0.9369369369369369","","","","","","","",""
"null","259009","SARL_v6","SARL_v64qguscgj","63d92dacc885e6167a4a486c","freq_resp","","","img/blue_2bandit_a.png","70","img/blue_2bandit_a.png","70","test","","","","","","","","","","","5","","","","","","","","",""
"null","259165","SARL_v6","SARL_v64qguscgj","63d92dacc885e6167a4a486c","fixation","","","img/fixation.png","null","","","test","","","","","","","","","","","","","","","","","","","",""
"371.39999997615814","259539","SARL_v6","SARL_v64qguscgj","63d92dacc885e6167a4a486c","freq","","","img/blue_2bandit_a2.png","70","","70","test","1","","116","","","","square","circle","112","25","5","0.9375","","","","","","","",""
"null","259976","SARL_v6","SARL_v64qguscgj","63d92dacc885e6167a4a486c","freq_resp","","","img/blue_2bandit_a.png","70","img/blue_2bandit_a.png","70","test","","","","","","","","","","","5","","","","","","","","",""
"null","260140","SARL_v6","SARL_v64qguscgj","63d92dacc885e6167a4a486c","fixation","","","img/fixation.png","null","","","test","","","","","","","","","","","","","","","","","","","",""
"508.60000002384186","260652","SARL_v6","SARL_v64qguscgj","63d92dacc885e6167a4a486c","rl","","","img/black_2bandit_a2.png","74","","0","test","","","117","","","4","square","circle","","0","5","","74","-7","4","4","-7","square","5","0"
"null","261410","SARL_v6","SARL_v64qguscgj","63d92dacc885e6167a4a486c","feedback","","","<div class=""veryhighPoints_sq""> 4 </div>","null","","na","test","","","NaN","","","","","","","","5","","74","","","","","","5",""
"333.19999998807907","261746","SARL_v6","SARL_v64qguscgj","63d92dacc885e6167a4a486c","freq","","","img/blue_2bandit_a2.png","70","","70","test","1","","118","","","","square","circle","113","1","6","0.9380530973451328","","","","","","","",""
"null","262221","SARL_v6","SARL_v64qguscgj","63d92dacc885e6167a4a486c","freq_resp","","","img/blue_2bandit_a.png","70","img/blue_2bandit_a.png","70","test","","","","","","","","","","","6","","","","","","","","",""
"null","262376","SARL_v6","SARL_v64qguscgj","63d92dacc885e6167a4a486c","fixation","","","img/fixation.png","null","","","test","","","","","","","","","","","","","","","","","","","",""
"149.19999998807907","262528","SARL_v6","SARL_v64qguscgj","63d92dacc885e6167a4a486c","freq","","","img/blue_2bandit_a2.png","70","","70","test","1","","119","","","","square","circle","114","2","6","0.9385964912280702","","","","","","","",""
"null","263195","SARL_v6","SARL_v64qguscgj","63d92dacc885e6167a4a486c","freq_resp","","","img/blue_2bandit_a.png","70","img/blue_2bandit_a.png","70","test","","","","","","","","","","","6","","","","","","","","",""
"null","263363","SARL_v6","SARL_v64qguscgj","63d92dacc885e6167a4a486c","fixation","","","img/fixation.png","null","","","test","","","","","","","","","","","","","","","","","","","",""
"27.30000001192093","263392","SARL_v6","SARL_v64qguscgj","63d92dacc885e6167a4a486c","freq","","","img/blue_2bandit_a2.png","70","","70","test","1","","120","","","","square","circle","115","3","6","0.9391304347826087","","","","","","","",""
"null","264178","SARL_v6","SARL_v64qguscgj","63d92dacc885e6167a4a486c","freq_resp","","","img/blue_2bandit_a.png","70","img/blue_2bandit_a.png","70","test","","","","","","","","","","","6","","","","","","","","",""
"null","264343","SARL_v6","SARL_v64qguscgj","63d92dacc885e6167a4a486c","fixation","","","img/fixation.png","null","","","test","","","","","","","","","","","","","","","","","","","",""
"90.5","264435","SARL_v6","SARL_v64qguscgj","63d92dacc885e6167a4a486c","freq","","","img/blue_2bandit_a2.png","70","","70","test","1","","121","","","","square","circle","116","4","6","0.9396551724137931","","","","","","","",""
"null","265161","SARL_v6","SARL_v64qguscgj","63d92dacc885e6167a4a486c","freq_resp","","","img/blue_2bandit_a.png","70","img/blue_2bandit_a.png","70","test","","","","","","","","","","","6","","","","","","","","",""
"null","265329","SARL_v6","SARL_v64qguscgj","63d92dacc885e6167a4a486c","fixation","","","img/fixation.png","null","","","test","","","","","","","","","","","","","","","","","","","",""
"82.80000001192093","265414","SARL_v6","SARL_v64qguscgj","63d92dacc885e6167a4a486c","freq","","","img/blue_2bandit_a2.png","70","","70","test","1","","122","","","","square","circle","117","5","6","0.9401709401709402","","","","","","","",""
"null","266140","SARL_v6","SARL_v64qguscgj","63d92dacc885e6167a4a486c","freq_resp","","","img/blue_2bandit_a.png","70","img/blue_2bandit_a.png","70","test","","","","","","","","","","","6","","","","","","","","",""
"null","266293","SARL_v6","SARL_v64qguscgj","63d92dacc885e6167a4a486c","fixation","","","img/fixation.png","null","","","test","","","","","","","","","","","","","","","","","","","",""
"147.69999998807907","266444","SARL_v6","SARL_v64qguscgj","63d92dacc885e6167a4a486c","freq","","","img/blue_2bandit_a2.png","70","","70","test","1","","123","","","","square","circle","118","6","6","0.940677966101695","","","","","","","",""
"null","267110","SARL_v6","SARL_v64qguscgj","63d92dacc885e6167a4a486c","freq_resp","","","img/blue_2bandit_a.png","70","img/blue_2bandit_a.png","70","test","","","","","","","","","","","6","","","","","","","","",""
"null","267273","SARL_v6","SARL_v64qguscgj","63d92dacc885e6167a4a486c","fixation","","","img/fixation.png","null","","","test","","","","","","","","","","","","","","","","","","","",""
"365","267639","SARL_v6","SARL_v64qguscgj","63d92dacc885e6167a4a486c","freq","","","img/blue_2bandit_a2.png","70","","70","test","1","","124","","","","square","circle","119","7","6","0.9411764705882353","","","","","","","",""
"null","268084","SARL_v6","SARL_v64qguscgj","63d92dacc885e6167a4a486c","freq_resp","","","img/blue_2bandit_a.png","70","img/blue_2bandit_a.png","70","test","","","","","","","","","","","6","","","","","","","","",""
"null","268251","SARL_v6","SARL_v64qguscgj","63d92dacc885e6167a4a486c","fixation","","","img/fixation.png","null","","","test","","","","","","","","","","","","","","","","","","","",""
"353.5","268607","SARL_v6","SARL_v64qguscgj","63d92dacc885e6167a4a486c","freq","","","img/blue_2bandit_a2.png","70","","70","test","1","","125","","","","square","circle","120","8","6","0.9416666666666667","","","","","","","",""
"null","269066","SARL_v6","SARL_v64qguscgj","63d92dacc885e6167a4a486c","freq_resp","","","img/blue_2bandit_a.png","70","img/blue_2bandit_a.png","70","test","","","","","","","","","","","6","","","","","","","","",""
"null","269223","SARL_v6","SARL_v64qguscgj","63d92dacc885e6167a4a486c","fixation","","","img/fixation.png","null","","","test","","","","","","","","","","","","","","","","","","","",""
"303.0999999642372","269528","SARL_v6","SARL_v64qguscgj","63d92dacc885e6167a4a486c","freq","","","img/blue_2bandit_a2.png","70","","70","test","1","","126","","","","square","circle","121","9","6","0.9421487603305785","","","","","","","",""
"null","270035","SARL_v6","SARL_v64qguscgj","63d92dacc885e6167a4a486c","freq_resp","","","img/blue_2bandit_a.png","70","img/blue_2bandit_a.png","70","test","","","","","","","","","","","6","","","","","","","","",""
"null","270188","SARL_v6","SARL_v64qguscgj","63d92dacc885e6167a4a486c","fixation","","","img/fixation.png","null","","","test","","","","","","","","","","","","","","","","","","","",""
"333.60000002384186","270524","SARL_v6","SARL_v64qguscgj","63d92dacc885e6167a4a486c","freq","","","img/blue_2bandit_a2.png","70","","70","test","1","","127","","","","square","circle","122","10","6","0.9426229508196722","","","","","","","",""
"null","270995","SARL_v6","SARL_v64qguscgj","63d92dacc885e6167a4a486c","freq_resp","","","img/blue_2bandit_a.png","70","img/blue_2bandit_a.png","70","test","","","","","","","","","","","6","","","","","","","","",""
"null","271161","SARL_v6","SARL_v64qguscgj","63d92dacc885e6167a4a486c","fixation","","","img/fixation.png","null","","","test","","","","","","","","","","","","","","","","","","","",""
"294.60000002384186","271458","SARL_v6","SARL_v64qguscgj","63d92dacc885e6167a4a486c","freq","","","img/blue_2bandit_a2.png","70","","70","test","1","","128","","","","square","circle","123","11","6","0.943089430894309","","","","","","","",""
"null","271976","SARL_v6","SARL_v64qguscgj","63d92dacc885e6167a4a486c","freq_resp","","","img/blue_2bandit_a.png","70","img/blue_2bandit_a.png","70","test","","","","","","","","","","","6","","","","","","","","",""
"null","272132","SARL_v6","SARL_v64qguscgj","63d92dacc885e6167a4a486c","fixation","","","img/fixation.png","null","","","test","","","","","","","","","","","","","","","","","","","",""
"293","272427","SARL_v6","SARL_v64qguscgj","63d92dacc885e6167a4a486c","freq","","","img/blue_2bandit_a2.png","70","","70","test","1","","129","","","","square","circle","124","12","6","0.9435483870967742","","","","","","","",""
"null","272944","SARL_v6","SARL_v64qguscgj","63d92dacc885e6167a4a486c","freq_resp","","","img/blue_2bandit_a.png","70","img/blue_2bandit_a.png","70","test","","","","","","","","","","","6","","","","","","","","",""
"null","273109","SARL_v6","SARL_v64qguscgj","63d92dacc885e6167a4a486c","fixation","","","img/fixation.png","null","","","test","","","","","","","","","","","","","","","","","","","",""
"265.5","273377","SARL_v6","SARL_v64qguscgj","63d92dacc885e6167a4a486c","freq","","","img/blue_2bandit_a2.png","70","","70","test","1","","130","","","","square","circle","125","13","6","0.944","","","","","","","",""
"null","273919","SARL_v6","SARL_v64qguscgj","63d92dacc885e6167a4a486c","freq_resp","","","img/blue_2bandit_a.png","70","img/blue_2bandit_a.png","70","test","","","","","","","","","","","6","","","","","","","","",""
"null","274084","SARL_v6","SARL_v64qguscgj","63d92dacc885e6167a4a486c","fixation","","","img/fixation.png","null","","","test","","","","","","","","","","","","","","","","","","","",""
