"rt","time_elapsed","expId","subject","prolificID","trialType","rlType","attType","stimulus","key_press","stim","corrresp","phase","corr","pracCounter","trialNum","rewardOne","rewardTwo","reward","bandOne","bandTwo","attentionNum","attentionRunNum","blockNum","performance","bandChosen","circleVal","squareVal","bandOneVal","bandTwoVal","shapeChosen","rlNum","badFlag"
"7988.299999998882","7991","SARL_v6","SARL_v661cohpf5","5e0e1f62814bba56ea1a86dd","","","","","","","","","","","","","","","","","","","","","","","","","","","",""
"","11655","SARL_v6","SARL_v661cohpf5","5e0e1f62814bba56ea1a86dd","fullscreen","fullscreen","fullscreen","","","","","","","","","","","","","","","","","","","","","","","","",""
"74668.30000000075","86325","SARL_v6","SARL_v661cohpf5","5e0e1f62814bba56ea1a86dd","","","","","","","","","","","","","","","","","","","","","","","","","","","",""
"463.30000000074506","86793","SARL_v6","SARL_v661cohpf5","5e0e1f62814bba56ea1a86dd","freqPrac","","","img/blue_2bandit_b2.png","68","img/blue_2bandit_b2.png","70","prac","0","1","","","","","","","","","","","","","","","","","",""
"463.30000000074506","87133","SARL_v6","SARL_v661cohpf5","5e0e1f62814bba56ea1a86dd","freqPrac_resp","","","img/blue_2bandit_b.png","68","img/blue_2bandit_b.png","70","prac","","","","","","","","","","","","","","","","","","","",""
"null","88140","SARL_v6","SARL_v661cohpf5","5e0e1f62814bba56ea1a86dd","feedback","","","img/wrongKey.png","null","","na","prac","","","","","","","","","","","","","","","","","","","",""
"null","88296","SARL_v6","SARL_v661cohpf5","5e0e1f62814bba56ea1a86dd","fixation","","","img/fixation.png","null","","","prac","","","","","","","","","","","","","","","","","","","",""
"713.3000000007451","89012","SARL_v6","SARL_v661cohpf5","5e0e1f62814bba56ea1a86dd","infreqPrac","","","img/orange_2bandit_b2.png","68","img/orange_2bandit_b2.png","68","prac","1","1","","","","","","","","","","","","","","","","","",""
"713.3000000007451","89104","SARL_v6","SARL_v661cohpf5","5e0e1f62814bba56ea1a86dd","infreqPrac_resp","","","img/orange_2bandit_b.png","68","img/orange_2bandit_b.png","68","prac","","","","","","","","","","","","","","","","","","","",""
"null","89260","SARL_v6","SARL_v661cohpf5","5e0e1f62814bba56ea1a86dd","fixation","","","img/fixation.png","null","","","prac","","","","","","","","","","","","","","","","","","","",""
"619.7999999988824","89882","SARL_v6","SARL_v661cohpf5","5e0e1f62814bba56ea1a86dd","freqPrac","","","img/blue_2bandit_b2.png","70","img/blue_2bandit_b2.png","70","prac","1","1","","","","","","","","","","","","","","","","","",""
"619.7999999988824","90070","SARL_v6","SARL_v661cohpf5","5e0e1f62814bba56ea1a86dd","freqPrac_resp","","","img/blue_2bandit_b.png","70","img/blue_2bandit_b.png","70","prac","","","","","","","","","","","","","","","","","","","",""
"null","90228","SARL_v6","SARL_v661cohpf5","5e0e1f62814bba56ea1a86dd","fixation","","","img/fixation.png","null","","","prac","","","","","","","","","","","","","","","","","","","",""
"455.90000000037253","90687","SARL_v6","SARL_v661cohpf5","5e0e1f62814bba56ea1a86dd","infreqPrac","","","img/orange_2bandit_b2.png","68","img/orange_2bandit_b2.png","68","prac","1","1","","","","","","","","","","","","","","","","","",""
"455.90000000037253","91047","SARL_v6","SARL_v661cohpf5","5e0e1f62814bba56ea1a86dd","infreqPrac_resp","","","img/orange_2bandit_b.png","68","img/orange_2bandit_b.png","68","prac","","","","","","","","","","","","","","","","","","","",""
"null","91202","SARL_v6","SARL_v661cohpf5","5e0e1f62814bba56ea1a86dd","fixation","","","img/fixation.png","null","","","prac","","","","","","","","","","","","","","","","","","","",""
"340","91544","SARL_v6","SARL_v661cohpf5","5e0e1f62814bba56ea1a86dd","infreqPrac","","","img/orange_2bandit_b2.png","68","img/orange_2bandit_b2.png","68","prac","1","1","","","","","","","","","","","","","","","","","",""
"340","92024","SARL_v6","SARL_v661cohpf5","5e0e1f62814bba56ea1a86dd","infreqPrac_resp","","","img/orange_2bandit_b.png","68","img/orange_2bandit_b.png","68","prac","","","","","","","","","","","","","","","","","","","",""
"null","92177","SARL_v6","SARL_v661cohpf5","5e0e1f62814bba56ea1a86dd","fixation","","","img/fixation.png","null","","","prac","","","","","","","","","","","","","","","","","","","",""
"316.2000000011176","92496","SARL_v6","SARL_v661cohpf5","5e0e1f62814bba56ea1a86dd","infreqPrac","","","img/orange_2bandit_b2.png","68","img/orange_2bandit_b2.png","68","prac","1","1","","","","","","","","","","","","","","","","","",""
"316.2000000011176","92986","SARL_v6","SARL_v661cohpf5","5e0e1f62814bba56ea1a86dd","infreqPrac_resp","","","img/orange_2bandit_b.png","68","img/orange_2bandit_b.png","68","prac","","","","","","","","","","","","","","","","","","","",""
"null","93138","SARL_v6","SARL_v661cohpf5","5e0e1f62814bba56ea1a86dd","fixation","","","img/fixation.png","null","","","prac","","","","","","","","","","","","","","","","","","","",""
"285.5","93425","SARL_v6","SARL_v661cohpf5","5e0e1f62814bba56ea1a86dd","freqPrac","","","img/blue_2bandit_b2.png","70","img/blue_2bandit_b2.png","70","prac","1","1","","","","","","","","","","","","","","","","","",""
"285.5","93946","SARL_v6","SARL_v661cohpf5","5e0e1f62814bba56ea1a86dd","freqPrac_resp","","","img/blue_2bandit_b.png","70","img/blue_2bandit_b.png","70","prac","","","","","","","","","","","","","","","","","","","",""
"null","94102","SARL_v6","SARL_v661cohpf5","5e0e1f62814bba56ea1a86dd","fixation","","","img/fixation.png","null","","","prac","","","","","","","","","","","","","","","","","","","",""
"429.59999999962747","94533","SARL_v6","SARL_v661cohpf5","5e0e1f62814bba56ea1a86dd","infreqPrac","","","img/orange_2bandit_b2.png","68","img/orange_2bandit_b2.png","68","prac","1","1","","","","","","","","","","","","","","","","","",""
"429.59999999962747","94910","SARL_v6","SARL_v661cohpf5","5e0e1f62814bba56ea1a86dd","infreqPrac_resp","","","img/orange_2bandit_b.png","68","img/orange_2bandit_b.png","68","prac","","","","","","","","","","","","","","","","","","","",""
"null","95067","SARL_v6","SARL_v661cohpf5","5e0e1f62814bba56ea1a86dd","fixation","","","img/fixation.png","null","","","prac","","","","","","","","","","","","","","","","","","","",""
"537.7999999988824","95607","SARL_v6","SARL_v661cohpf5","5e0e1f62814bba56ea1a86dd","freqPrac","","","img/blue_2bandit_b2.png","70","img/blue_2bandit_b2.png","70","prac","1","1","","","","","","","","","","","","","","","","","",""
"537.7999999988824","95872","SARL_v6","SARL_v661cohpf5","5e0e1f62814bba56ea1a86dd","freqPrac_resp","","","img/blue_2bandit_b.png","70","img/blue_2bandit_b.png","70","prac","","","","","","","","","","","","","","","","","","","",""
"null","96027","SARL_v6","SARL_v661cohpf5","5e0e1f62814bba56ea1a86dd","fixation","","","img/fixation.png","null","","","prac","","","","","","","","","","","","","","","","","","","",""
"394.90000000037253","96423","SARL_v6","SARL_v661cohpf5","5e0e1f62814bba56ea1a86dd","freqPrac","","","img/blue_2bandit_b2.png","70","img/blue_2bandit_b2.png","70","prac","1","1","","","","","","","","","","","","","","","","","",""
"394.90000000037253","96835","SARL_v6","SARL_v661cohpf5","5e0e1f62814bba56ea1a86dd","freqPrac_resp","","","img/blue_2bandit_b.png","70","img/blue_2bandit_b.png","70","prac","","","","","","","","","","","","","","","","","","","",""
"null","96989","SARL_v6","SARL_v661cohpf5","5e0e1f62814bba56ea1a86dd","fixation","","","img/fixation.png","null","","","prac","","","","","","","","","","","","","","","","","","","",""
"63204.5","160195","SARL_v6","SARL_v661cohpf5","5e0e1f62814bba56ea1a86dd","","","","","","","","prac","","","","","","","","","","","","","","","","","","","",""
"906.5","161104","SARL_v6","SARL_v661cohpf5","5e0e1f62814bba56ea1a86dd","rlPractice","","","img/black_2bandit_b2.png","74","img/black_2bandit_b2.png","","prac","","","0","","","","","","","","","","","","","","","","",""
"null","161866","SARL_v6","SARL_v661cohpf5","5e0e1f62814bba56ea1a86dd","feedback","","","<div class=""veryhighPoints""> 10 </div>","null","","na","prac","","","1","10","-14","10","","","","","","","","","","","","","",""
"null","162021","SARL_v6","SARL_v661cohpf5","5e0e1f62814bba56ea1a86dd","fixation","","","img/fixation.png","null","","","prac","","","","","","","","","","","","","","","","","","","",""
"613.6999999992549","162637","SARL_v6","SARL_v661cohpf5","5e0e1f62814bba56ea1a86dd","rlPractice","","","img/black_2bandit_b2.png","74","img/black_2bandit_b2.png","","prac","","","1","","","","","","","","","","","","","","","","",""
"null","163402","SARL_v6","SARL_v661cohpf5","5e0e1f62814bba56ea1a86dd","feedback","","","<div class=""veryhighPoints""> 5 </div>","null","","na","prac","","","2","5","-5","5","","","","","","","","","","","","","",""
"null","163557","SARL_v6","SARL_v661cohpf5","5e0e1f62814bba56ea1a86dd","fixation","","","img/fixation.png","null","","","prac","","","","","","","","","","","","","","","","","","","",""
"562.5999999996275","164121","SARL_v6","SARL_v661cohpf5","5e0e1f62814bba56ea1a86dd","rlPractice","","","img/black_2bandit_b2.png","74","img/black_2bandit_b2.png","","prac","","","2","","","","","","","","","","","","","","","","",""
"null","164873","SARL_v6","SARL_v661cohpf5","5e0e1f62814bba56ea1a86dd","feedback","","","<div class=""veryhighPoints""> 30 </div>","null","","na","prac","","","3","30","2","30","","","","","","","","","","","","","",""
"null","165028","SARL_v6","SARL_v661cohpf5","5e0e1f62814bba56ea1a86dd","fixation","","","img/fixation.png","null","","","prac","","","","","","","","","","","","","","","","","","","",""
"335.2999999988824","165365","SARL_v6","SARL_v661cohpf5","5e0e1f62814bba56ea1a86dd","rlPractice","","","img/black_2bandit_b2.png","75","img/black_2bandit_b2.png","","prac","","","3","","","","","","","","","","","","","","","","",""
"null","166130","SARL_v6","SARL_v661cohpf5","5e0e1f62814bba56ea1a86dd","feedback","","","<div class=""veryhighPoints_sq""> 20 </div>","null","","na","prac","","","4","-2","20","-2","","","","","","","","","","","","","",""
"null","166287","SARL_v6","SARL_v661cohpf5","5e0e1f62814bba56ea1a86dd","fixation","","","img/fixation.png","null","","","prac","","","","","","","","","","","","","","","","","","","",""
"20687.699999999255","186976","SARL_v6","SARL_v661cohpf5","5e0e1f62814bba56ea1a86dd","","","","","","","","prac","","","","","","","","","","","","","","","","","","","",""
"null","187790","SARL_v6","SARL_v661cohpf5","5e0e1f62814bba56ea1a86dd","mixAttFreqPrac","","","img/blue_2bandit_b2.png","null","img/blue_2bandit_b2.png","70","prac","","","1","","","","","","","","","","","","","","","","",""
"null","187945","SARL_v6","SARL_v661cohpf5","5e0e1f62814bba56ea1a86dd","fixation","","","img/fixation.png","null","","","prac","","","","","","","","","","","","","","","","","","","",""
"33.5","187980","SARL_v6","SARL_v661cohpf5","5e0e1f62814bba56ea1a86dd","mixAttInfreqPrac","","","img/orange_2bandit_b2.png","68","img/orange_2bandit_b2.png","68","prac","","","2","","","","","","","","","","","","","","","","",""
"33.5","188755","SARL_v6","SARL_v661cohpf5","5e0e1f62814bba56ea1a86dd","infreqPrac_resp","","","img/orange_2bandit_b.png","68","img/blue_2bandit_b.png","68","prac","","","2","","","","","","","","","","","","","","","","",""
"77.09999999962747","188909","SARL_v6","SARL_v661cohpf5","5e0e1f62814bba56ea1a86dd","fixation","","","img/fixation.png","70","","","prac","","","","","","","","","","","","","","","","","","","",""
"407.90000000037253","189320","SARL_v6","SARL_v661cohpf5","5e0e1f62814bba56ea1a86dd","mixAttInfreqPrac","","","img/orange_2bandit_b2.png","68","img/orange_2bandit_b2.png","68","prac","","","3","","","","","","","","","","","","","","","","",""
"407.90000000037253","189718","SARL_v6","SARL_v661cohpf5","5e0e1f62814bba56ea1a86dd","infreqPrac_resp","","","img/orange_2bandit_b.png","68","img/blue_2bandit_b.png","68","prac","","","3","","","","","","","","","","","","","","","","",""
"null","189873","SARL_v6","SARL_v661cohpf5","5e0e1f62814bba56ea1a86dd","fixation","","","img/fixation.png","null","","","prac","","","","","","","","","","","","","","","","","","","",""
"218.59999999962747","190094","SARL_v6","SARL_v661cohpf5","5e0e1f62814bba56ea1a86dd","mixAttInfreqPrac","","","img/orange_2bandit_b2.png","68","img/orange_2bandit_b2.png","68","prac","","","4","","","","","","","","","","","","","","","","",""
"218.59999999962747","190679","SARL_v6","SARL_v661cohpf5","5e0e1f62814bba56ea1a86dd","infreqPrac_resp","","","img/orange_2bandit_b.png","68","img/blue_2bandit_b.png","68","prac","","","4","","","","","","","","","","","","","","","","",""
"null","190833","SARL_v6","SARL_v661cohpf5","5e0e1f62814bba56ea1a86dd","fixation","","","img/fixation.png","null","","","prac","","","","","","","","","","","","","","","","","","","",""
"211.59999999962747","191047","SARL_v6","SARL_v661cohpf5","5e0e1f62814bba56ea1a86dd","mixAttFreqPrac","","","img/blue_2bandit_b2.png","68","img/blue_2bandit_b2.png","70","prac","","","5","","","","","","","","","","","","","","","","",""
"211.59999999962747","191643","SARL_v6","SARL_v661cohpf5","5e0e1f62814bba56ea1a86dd","freqPrac_resp","","","img/blue_2bandit_b.png","68","img/blue_2bandit_b.png","70","prac","","","5","","","","","","","","","","","","","","","","",""
"null","191798","SARL_v6","SARL_v661cohpf5","5e0e1f62814bba56ea1a86dd","fixation","","","img/fixation.png","null","","","prac","","","","","","","","","","","","","","","","","","","",""
"876.5999999996275","192676","SARL_v6","SARL_v661cohpf5","5e0e1f62814bba56ea1a86dd","mixRLPractice","","","img/black_2bandit_b2.png","75","img/black_2bandit_b2.png","","prac","","","5","","","","","","","","","","","","","","","","",""
"null","193440","SARL_v6","SARL_v661cohpf5","5e0e1f62814bba56ea1a86dd","feedback","","","<div class=""veryhighPoints_sq""> 10 </div>","null","","na","prac","","","6","-14","10","-14","","","","","","","","","","","","","",""
"null","193598","SARL_v6","SARL_v661cohpf5","5e0e1f62814bba56ea1a86dd","fixation","","","img/fixation.png","null","","","prac","","","","","","","","","","","","","","","","","","","",""
"581.0999999996275","194181","SARL_v6","SARL_v661cohpf5","5e0e1f62814bba56ea1a86dd","mixAttFreqPrac","","","img/blue_2bandit_b2.png","70","img/blue_2bandit_b2.png","70","prac","","","7","","","","","","","","","","","","","","","","",""
"581.0999999996275","194404","SARL_v6","SARL_v661cohpf5","5e0e1f62814bba56ea1a86dd","freqPrac_resp","","","img/blue_2bandit_b.png","70","img/blue_2bandit_b.png","70","prac","","","7","","","","","","","","","","","","","","","","",""
"null","194561","SARL_v6","SARL_v661cohpf5","5e0e1f62814bba56ea1a86dd","fixation","","","img/fixation.png","null","","","prac","","","","","","","","","","","","","","","","","","","",""
"500.09999999962747","195063","SARL_v6","SARL_v661cohpf5","5e0e1f62814bba56ea1a86dd","mixAttInfreqPrac","","","img/orange_2bandit_b2.png","68","img/orange_2bandit_b2.png","68","prac","","","8","","","","","","","","","","","","","","","","",""
"500.09999999962747","195369","SARL_v6","SARL_v661cohpf5","5e0e1f62814bba56ea1a86dd","infreqPrac_resp","","","img/orange_2bandit_b.png","68","img/blue_2bandit_b.png","68","prac","","","8","","","","","","","","","","","","","","","","",""
"null","195526","SARL_v6","SARL_v661cohpf5","5e0e1f62814bba56ea1a86dd","fixation","","","img/fixation.png","null","","","prac","","","","","","","","","","","","","","","","","","","",""
"482","196011","SARL_v6","SARL_v661cohpf5","5e0e1f62814bba56ea1a86dd","mixAttFreqPrac","","","img/blue_2bandit_b2.png","70","img/blue_2bandit_b2.png","70","prac","","","9","","","","","","","","","","","","","","","","",""
"482","196333","SARL_v6","SARL_v661cohpf5","5e0e1f62814bba56ea1a86dd","freqPrac_resp","","","img/blue_2bandit_b.png","70","img/blue_2bandit_b.png","70","prac","","","9","","","","","","","","","","","","","","","","",""
"null","196488","SARL_v6","SARL_v661cohpf5","5e0e1f62814bba56ea1a86dd","fixation","","","img/fixation.png","null","","","prac","","","","","","","","","","","","","","","","","","","",""
"307","196796","SARL_v6","SARL_v661cohpf5","5e0e1f62814bba56ea1a86dd","mixAttFreqPrac","","","img/blue_2bandit_b2.png","70","img/blue_2bandit_b2.png","70","prac","","","10","","","","","","","","","","","","","","","","",""
"307","197295","SARL_v6","SARL_v661cohpf5","5e0e1f62814bba56ea1a86dd","freqPrac_resp","","","img/blue_2bandit_b.png","70","img/blue_2bandit_b.png","70","prac","","","10","","","","","","","","","","","","","","","","",""
"null","197447","SARL_v6","SARL_v661cohpf5","5e0e1f62814bba56ea1a86dd","fixation","","","img/fixation.png","null","","","prac","","","","","","","","","","","","","","","","","","","",""
"284","197733","SARL_v6","SARL_v661cohpf5","5e0e1f62814bba56ea1a86dd","mixAttInfreqPrac","","","img/orange_2bandit_b2.png","70","img/orange_2bandit_b2.png","68","prac","","","11","","","","","","","","","","","","","","","","",""
"284","198259","SARL_v6","SARL_v661cohpf5","5e0e1f62814bba56ea1a86dd","infreqPrac_resp","","","img/orange_2bandit_b.png","70","img/blue_2bandit_b.png","68","prac","","","11","","","","","","","","","","","","","","","","",""
"null","198413","SARL_v6","SARL_v661cohpf5","5e0e1f62814bba56ea1a86dd","fixation","","","img/fixation.png","null","","","prac","","","","","","","","","","","","","","","","","","","",""
"725.8000000007451","199141","SARL_v6","SARL_v661cohpf5","5e0e1f62814bba56ea1a86dd","mixRLPractice","","","img/black_2bandit_b2.png","75","img/black_2bandit_b2.png","","prac","","","11","","","","","","","","","","","","","","","","",""
"null","199901","SARL_v6","SARL_v661cohpf5","5e0e1f62814bba56ea1a86dd","feedback","","","<div class=""verylowPoints_sq""> -5 </div>","null","","na","prac","","","12","5","-5","5","","","","","","","","","","","","","",""
"null","200058","SARL_v6","SARL_v661cohpf5","5e0e1f62814bba56ea1a86dd","fixation","","","img/fixation.png","null","","","prac","","","","","","","","","","","","","","","","","","","",""
"44196.09999999963","244256","SARL_v6","SARL_v661cohpf5","5e0e1f62814bba56ea1a86dd","","","","","","","","prac","","","","","","","","","","","","","","","","","","","",""
"746.7000000011176","245006","SARL_v6","SARL_v661cohpf5","5e0e1f62814bba56ea1a86dd","freq","","","img/blue_2bandit_b2.png","70","","70","test","1","","1","","","","circle","square","1","1","1","1","","","","","","","",""
"null","245062","SARL_v6","SARL_v661cohpf5","5e0e1f62814bba56ea1a86dd","freq_resp","","","img/blue_2bandit_b.png","70","img/blue_2bandit_b.png","70","test","","","","","","","","","","","1","","","","","","","","",""
"null","245228","SARL_v6","SARL_v661cohpf5","5e0e1f62814bba56ea1a86dd","fixation","","","img/fixation.png","null","","","test","","","","","","","","","","","","","","","","","","","",""
"392.3999999985099","245623","SARL_v6","SARL_v661cohpf5","5e0e1f62814bba56ea1a86dd","freq","","","img/blue_2bandit_b2.png","70","","70","test","1","","2","","","","circle","square","2","2","1","1","","","","","","","",""
"null","246035","SARL_v6","SARL_v661cohpf5","5e0e1f62814bba56ea1a86dd","freq_resp","","","img/blue_2bandit_b.png","70","img/blue_2bandit_b.png","70","test","","","","","","","","","","","1","","","","","","","","",""
"null","246189","SARL_v6","SARL_v661cohpf5","5e0e1f62814bba56ea1a86dd","fixation","","","img/fixation.png","null","","","test","","","","","","","","","","","","","","","","","","","",""
"275.90000000037253","246468","SARL_v6","SARL_v661cohpf5","5e0e1f62814bba56ea1a86dd","freq","","","img/blue_2bandit_b2.png","70","","70","test","1","","3","","","","circle","square","3","3","1","1","","","","","","","",""
"null","246997","SARL_v6","SARL_v661cohpf5","5e0e1f62814bba56ea1a86dd","freq_resp","","","img/blue_2bandit_b.png","70","img/blue_2bandit_b.png","70","test","","","","","","","","","","","1","","","","","","","","",""
"null","247150","SARL_v6","SARL_v661cohpf5","5e0e1f62814bba56ea1a86dd","fixation","","","img/fixation.png","null","","","test","","","","","","","","","","","","","","","","","","","",""
"390","247543","SARL_v6","SARL_v661cohpf5","5e0e1f62814bba56ea1a86dd","freq","","","img/blue_2bandit_b2.png","70","","70","test","1","","4","","","","circle","square","4","4","1","1","","","","","","","",""
"null","247958","SARL_v6","SARL_v661cohpf5","5e0e1f62814bba56ea1a86dd","freq_resp","","","img/blue_2bandit_b.png","70","img/blue_2bandit_b.png","70","test","","","","","","","","","","","1","","","","","","","","",""
"null","248115","SARL_v6","SARL_v661cohpf5","5e0e1f62814bba56ea1a86dd","fixation","","","img/fixation.png","null","","","test","","","","","","","","","","","","","","","","","","","",""
"290.5","248409","SARL_v6","SARL_v661cohpf5","5e0e1f62814bba56ea1a86dd","freq","","","img/blue_2bandit_b2.png","70","","70","test","1","","5","","","","circle","square","5","5","1","1","","","","","","","",""
"null","248935","SARL_v6","SARL_v661cohpf5","5e0e1f62814bba56ea1a86dd","freq_resp","","","img/blue_2bandit_b.png","70","img/blue_2bandit_b.png","70","test","","","","","","","","","","","1","","","","","","","","",""
"null","249089","SARL_v6","SARL_v661cohpf5","5e0e1f62814bba56ea1a86dd","fixation","","","img/fixation.png","null","","","test","","","","","","","","","","","","","","","","","","","",""
"457.90000000037253","249549","SARL_v6","SARL_v661cohpf5","5e0e1f62814bba56ea1a86dd","freq","","","img/blue_2bandit_b2.png","70","","70","test","1","","6","","","","circle","square","6","6","1","1","","","","","","","",""
"null","249900","SARL_v6","SARL_v661cohpf5","5e0e1f62814bba56ea1a86dd","freq_resp","","","img/blue_2bandit_b.png","70","img/blue_2bandit_b.png","70","test","","","","","","","","","","","1","","","","","","","","",""
"null","250053","SARL_v6","SARL_v661cohpf5","5e0e1f62814bba56ea1a86dd","fixation","","","img/fixation.png","null","","","test","","","","","","","","","","","","","","","","","","","",""
"418.2000000011176","250474","SARL_v6","SARL_v661cohpf5","5e0e1f62814bba56ea1a86dd","freq","","","img/blue_2bandit_b2.png","70","","70","test","1","","7","","","","circle","square","7","7","1","1","","","","","","","",""
"null","250872","SARL_v6","SARL_v661cohpf5","5e0e1f62814bba56ea1a86dd","freq_resp","","","img/blue_2bandit_b.png","70","img/blue_2bandit_b.png","70","test","","","","","","","","","","","1","","","","","","","","",""
"null","251029","SARL_v6","SARL_v661cohpf5","5e0e1f62814bba56ea1a86dd","fixation","","","img/fixation.png","null","","","test","","","","","","","","","","","","","","","","","","","",""
"312","251343","SARL_v6","SARL_v661cohpf5","5e0e1f62814bba56ea1a86dd","freq","","","img/blue_2bandit_b2.png","70","","70","test","1","","8","","","","circle","square","8","8","1","1","","","","","","","",""
"null","251838","SARL_v6","SARL_v661cohpf5","5e0e1f62814bba56ea1a86dd","freq_resp","","","img/blue_2bandit_b.png","70","img/blue_2bandit_b.png","70","test","","","","","","","","","","","1","","","","","","","","",""
"null","251992","SARL_v6","SARL_v661cohpf5","5e0e1f62814bba56ea1a86dd","fixation","","","img/fixation.png","null","","","test","","","","","","","","","","","","","","","","","","","",""
"288","252283","SARL_v6","SARL_v661cohpf5","5e0e1f62814bba56ea1a86dd","freq","","","img/blue_2bandit_b2.png","70","","70","test","1","","9","","","","circle","square","9","9","1","1","","","","","","","",""
"null","252800","SARL_v6","SARL_v661cohpf5","5e0e1f62814bba56ea1a86dd","freq_resp","","","img/blue_2bandit_b.png","70","img/blue_2bandit_b.png","70","test","","","","","","","","","","","1","","","","","","","","",""
"null","252957","SARL_v6","SARL_v661cohpf5","5e0e1f62814bba56ea1a86dd","fixation","","","img/fixation.png","null","","","test","","","","","","","","","","","","","","","","","","","",""
"616.1999999992549","253575","SARL_v6","SARL_v661cohpf5","5e0e1f62814bba56ea1a86dd","infreq","","","img/orange_2bandit_b2.png","70","","68","test","0","","10","","","","circle","square","10","10","1","0.9","","","","","","","",""
"null","253764","SARL_v6","SARL_v661cohpf5","5e0e1f62814bba56ea1a86dd","infreq_resp","","","img/orange_2bandit_b.png","70","img/orange_2bandit_b.png","68","test","","","","","","","","","","","1","","","","","","","","",""
"null","253919","SARL_v6","SARL_v661cohpf5","5e0e1f62814bba56ea1a86dd","fixation","","","img/fixation.png","null","","","test","","","","","","","","","","","","","","","","","","","",""
"595.3999999985099","254517","SARL_v6","SARL_v661cohpf5","5e0e1f62814bba56ea1a86dd","freq","","","img/blue_2bandit_b2.png","70","","70","test","1","","11","","","","circle","square","11","11","1","0.9090909090909091","","","","","","","",""
"null","254728","SARL_v6","SARL_v661cohpf5","5e0e1f62814bba56ea1a86dd","freq_resp","","","img/blue_2bandit_b.png","70","img/blue_2bandit_b.png","70","test","","","","","","","","","","","1","","","","","","","","",""
"null","254881","SARL_v6","SARL_v661cohpf5","5e0e1f62814bba56ea1a86dd","fixation","","","img/fixation.png","null","","","test","","","","","","","","","","","","","","","","","","","",""
"353.2999999988824","255237","SARL_v6","SARL_v661cohpf5","5e0e1f62814bba56ea1a86dd","freq","","","img/blue_2bandit_b2.png","70","","70","test","1","","12","","","","circle","square","12","12","1","0.9166666666666666","","","","","","","",""
"null","255687","SARL_v6","SARL_v661cohpf5","5e0e1f62814bba56ea1a86dd","freq_resp","","","img/blue_2bandit_b.png","70","img/blue_2bandit_b.png","70","test","","","","","","","","","","","1","","","","","","","","",""
"null","255843","SARL_v6","SARL_v661cohpf5","5e0e1f62814bba56ea1a86dd","fixation","","","img/fixation.png","null","","","test","","","","","","","","","","","","","","","","","","","",""
"469.2000000011176","256315","SARL_v6","SARL_v661cohpf5","5e0e1f62814bba56ea1a86dd","freq","","","img/blue_2bandit_b2.png","70","","70","test","1","","13","","","","circle","square","13","13","1","0.9230769230769231","","","","","","","",""
"null","256652","SARL_v6","SARL_v661cohpf5","5e0e1f62814bba56ea1a86dd","freq_resp","","","img/blue_2bandit_b.png","70","img/blue_2bandit_b.png","70","test","","","","","","","","","","","1","","","","","","","","",""
"null","256807","SARL_v6","SARL_v661cohpf5","5e0e1f62814bba56ea1a86dd","fixation","","","img/fixation.png","null","","","test","","","","","","","","","","","","","","","","","","","",""
"329.5","257140","SARL_v6","SARL_v661cohpf5","5e0e1f62814bba56ea1a86dd","infreq","","","img/orange_2bandit_b2.png","68","","68","test","1","","14","","","","circle","square","14","14","1","0.9285714285714286","","","","","","","",""
"null","257617","SARL_v6","SARL_v661cohpf5","5e0e1f62814bba56ea1a86dd","infreq_resp","","","img/orange_2bandit_b.png","68","img/orange_2bandit_b.png","68","test","","","","","","","","","","","1","","","","","","","","",""
"null","257772","SARL_v6","SARL_v661cohpf5","5e0e1f62814bba56ea1a86dd","fixation","","","img/fixation.png","null","","","test","","","","","","","","","","","","","","","","","","","",""
"418.59999999962747","258193","SARL_v6","SARL_v661cohpf5","5e0e1f62814bba56ea1a86dd","freq","","","img/blue_2bandit_b2.png","70","","70","test","1","","15","","","","circle","square","15","15","1","0.9333333333333333","","","","","","","",""
"null","258579","SARL_v6","SARL_v661cohpf5","5e0e1f62814bba56ea1a86dd","freq_resp","","","img/blue_2bandit_b.png","70","img/blue_2bandit_b.png","70","test","","","","","","","","","","","1","","","","","","","","",""
"null","258734","SARL_v6","SARL_v661cohpf5","5e0e1f62814bba56ea1a86dd","fixation","","","img/fixation.png","null","","","test","","","","","","","","","","","","","","","","","","","",""
"328.59999999962747","259064","SARL_v6","SARL_v661cohpf5","5e0e1f62814bba56ea1a86dd","freq","","","img/blue_2bandit_b2.png","70","","70","test","1","","16","","","","circle","square","16","16","1","0.9375","","","","","","","",""
"null","259540","SARL_v6","SARL_v661cohpf5","5e0e1f62814bba56ea1a86dd","freq_resp","","","img/blue_2bandit_b.png","70","img/blue_2bandit_b.png","70","test","","","","","","","","","","","1","","","","","","","","",""
"null","259694","SARL_v6","SARL_v661cohpf5","5e0e1f62814bba56ea1a86dd","fixation","","","img/fixation.png","null","","","test","","","","","","","","","","","","","","","","","","","",""
"292.3999999985099","259990","SARL_v6","SARL_v661cohpf5","5e0e1f62814bba56ea1a86dd","freq","","","img/blue_2bandit_b2.png","70","","70","test","1","","17","","","","circle","square","17","17","1","0.9411764705882353","","","","","","","",""
"null","260501","SARL_v6","SARL_v661cohpf5","5e0e1f62814bba56ea1a86dd","freq_resp","","","img/blue_2bandit_b.png","70","img/blue_2bandit_b.png","70","test","","","","","","","","","","","1","","","","","","","","",""
"null","260655","SARL_v6","SARL_v661cohpf5","5e0e1f62814bba56ea1a86dd","fixation","","","img/fixation.png","null","","","test","","","","","","","","","","","","","","","","","","","",""
"256.30000000074506","260914","SARL_v6","SARL_v661cohpf5","5e0e1f62814bba56ea1a86dd","freq","","","img/blue_2bandit_b2.png","70","","70","test","1","","18","","","","circle","square","18","18","1","0.9444444444444444","","","","","","","",""
"null","261462","SARL_v6","SARL_v661cohpf5","5e0e1f62814bba56ea1a86dd","freq_resp","","","img/blue_2bandit_b.png","70","img/blue_2bandit_b.png","70","test","","","","","","","","","","","1","","","","","","","","",""
"null","261617","SARL_v6","SARL_v661cohpf5","5e0e1f62814bba56ea1a86dd","fixation","","","img/fixation.png","null","","","test","","","","","","","","","","","","","","","","","","","",""
"235.40000000037253","261854","SARL_v6","SARL_v661cohpf5","5e0e1f62814bba56ea1a86dd","freq","","","img/blue_2bandit_b2.png","70","","70","test","1","","19","","","","circle","square","19","19","1","0.9473684210526315","","","","","","","",""
"null","262423","SARL_v6","SARL_v661cohpf5","5e0e1f62814bba56ea1a86dd","freq_resp","","","img/blue_2bandit_b.png","70","img/blue_2bandit_b.png","70","test","","","","","","","","","","","1","","","","","","","","",""
"null","262580","SARL_v6","SARL_v661cohpf5","5e0e1f62814bba56ea1a86dd","fixation","","","img/fixation.png","null","","","test","","","","","","","","","","","","","","","","","","","",""
"279.7000000011176","262861","SARL_v6","SARL_v661cohpf5","5e0e1f62814bba56ea1a86dd","freq","","","img/blue_2bandit_b2.png","70","","70","test","1","","20","","","","circle","square","20","20","1","0.95","","","","","","","",""
"null","263388","SARL_v6","SARL_v661cohpf5","5e0e1f62814bba56ea1a86dd","freq_resp","","","img/blue_2bandit_b.png","70","img/blue_2bandit_b.png","70","test","","","","","","","","","","","1","","","","","","","","",""
"null","263542","SARL_v6","SARL_v661cohpf5","5e0e1f62814bba56ea1a86dd","fixation","","","img/fixation.png","null","","","test","","","","","","","","","","","","","","","","","","","",""
"306","263850","SARL_v6","SARL_v661cohpf5","5e0e1f62814bba56ea1a86dd","freq","","","img/blue_2bandit_b2.png","70","","70","test","1","","21","","","","circle","square","21","21","1","0.9523809523809523","","","","","","","",""
"null","264350","SARL_v6","SARL_v661cohpf5","5e0e1f62814bba56ea1a86dd","freq_resp","","","img/blue_2bandit_b.png","70","img/blue_2bandit_b.png","70","test","","","","","","","","","","","1","","","","","","","","",""
"null","264503","SARL_v6","SARL_v661cohpf5","5e0e1f62814bba56ea1a86dd","fixation","","","img/fixation.png","null","","","test","","","","","","","","","","","","","","","","","","","",""
"293","264798","SARL_v6","SARL_v661cohpf5","5e0e1f62814bba56ea1a86dd","freq","","","img/blue_2bandit_b2.png","70","","70","test","1","","22","","","","circle","square","22","22","1","0.9545454545454546","","","","","","","",""
"null","265309","SARL_v6","SARL_v661cohpf5","5e0e1f62814bba56ea1a86dd","freq_resp","","","img/blue_2bandit_b.png","70","img/blue_2bandit_b.png","70","test","","","","","","","","","","","1","","","","","","","","",""
"null","265465","SARL_v6","SARL_v661cohpf5","5e0e1f62814bba56ea1a86dd","fixation","","","img/fixation.png","null","","","test","","","","","","","","","","","","","","","","","","","",""
"794.3000000007451","266260","SARL_v6","SARL_v661cohpf5","5e0e1f62814bba56ea1a86dd","rl","","","img/black_2bandit_b2.png","74","","0","test","","","23","","","-3","circle","square","","0","1","","74","-3","-3","-3","-3","circle","1","0"
"null","267015","SARL_v6","SARL_v661cohpf5","5e0e1f62814bba56ea1a86dd","feedback","","","<div class=""verylowPoints""> -3 </div>","null","","na","test","","","NaN","","","","","","","","1","","74","","","","","","1",""
"812.5999999996275","267830","SARL_v6","SARL_v661cohpf5","5e0e1f62814bba56ea1a86dd","freq","","","img/blue_2bandit_b2.png","70","","70","test","1","","24","","","","circle","square","23","1","2","0.9565217391304348","","","","","","","",""
"null","267988","SARL_v6","SARL_v661cohpf5","5e0e1f62814bba56ea1a86dd","fixation","","","img/fixation.png","null","","","test","","","","","","","","","","","","","","","","","","","",""
"791.0999999996275","268781","SARL_v6","SARL_v661cohpf5","5e0e1f62814bba56ea1a86dd","freq","","","img/blue_2bandit_b2.png","70","","70","test","1","","25","","","","circle","square","24","2","2","0.9583333333333334","","","","","","","",""
"null","268791","SARL_v6","SARL_v661cohpf5","5e0e1f62814bba56ea1a86dd","freq_resp","","","img/blue_2bandit_b.png","70","img/blue_2bandit_b.png","70","test","","","","","","","","","","","2","","","","","","","","",""
"null","268947","SARL_v6","SARL_v661cohpf5","5e0e1f62814bba56ea1a86dd","fixation","","","img/fixation.png","null","","","test","","","","","","","","","","","","","","","","","","","",""
"480.2000000011176","269431","SARL_v6","SARL_v661cohpf5","5e0e1f62814bba56ea1a86dd","infreq","","","img/orange_2bandit_b2.png","68","","68","test","1","","26","","","","circle","square","25","3","2","0.96","","","","","","","",""
"null","269766","SARL_v6","SARL_v661cohpf5","5e0e1f62814bba56ea1a86dd","infreq_resp","","","img/orange_2bandit_b.png","68","img/orange_2bandit_b.png","68","test","","","","","","","","","","","2","","","","","","","","",""
"null","269919","SARL_v6","SARL_v661cohpf5","5e0e1f62814bba56ea1a86dd","fixation","","","img/fixation.png","null","","","test","","","","","","","","","","","","","","","","","","","",""
"500.30000000074506","270421","SARL_v6","SARL_v661cohpf5","5e0e1f62814bba56ea1a86dd","freq","","","img/blue_2bandit_b2.png","68","","70","test","0","","27","","","","circle","square","26","4","2","0.9230769230769231","","","","","","","",""
"null","270728","SARL_v6","SARL_v661cohpf5","5e0e1f62814bba56ea1a86dd","freq_resp","","","img/blue_2bandit_b.png","68","img/blue_2bandit_b.png","70","test","","","","","","","","","","","2","","","","","","","","",""
"null","270888","SARL_v6","SARL_v661cohpf5","5e0e1f62814bba56ea1a86dd","fixation","","","img/fixation.png","null","","","test","","","","","","","","","","","","","","","","","","","",""
"306.30000000074506","271197","SARL_v6","SARL_v661cohpf5","5e0e1f62814bba56ea1a86dd","freq","","","img/blue_2bandit_b2.png","68","","70","test","0","","28","","","","circle","square","27","5","2","0.8888888888888888","","","","","","","",""
"null","271694","SARL_v6","SARL_v661cohpf5","5e0e1f62814bba56ea1a86dd","freq_resp","","","img/blue_2bandit_b.png","68","img/blue_2bandit_b.png","70","test","","","","","","","","","","","2","","","","","","","","",""
"null","271848","SARL_v6","SARL_v661cohpf5","5e0e1f62814bba56ea1a86dd","fixation","","","img/fixation.png","null","","","test","","","","","","","","","","","","","","","","","","","",""
"315.8999999985099","272167","SARL_v6","SARL_v661cohpf5","5e0e1f62814bba56ea1a86dd","freq","","","img/blue_2bandit_b2.png","68","","70","test","0","","29","","","","circle","square","28","6","2","0.8571428571428571","","","","","","","",""
"null","272661","SARL_v6","SARL_v661cohpf5","5e0e1f62814bba56ea1a86dd","freq_resp","","","img/blue_2bandit_b.png","68","img/blue_2bandit_b.png","70","test","","","","","","","","","","","2","","","","","","","","",""
"null","272818","SARL_v6","SARL_v661cohpf5","5e0e1f62814bba56ea1a86dd","fixation","","","img/fixation.png","null","","","test","","","","","","","","","","","","","","","","","","","",""
"392.3999999985099","273212","SARL_v6","SARL_v661cohpf5","5e0e1f62814bba56ea1a86dd","freq","","","img/blue_2bandit_b2.png","68","","70","test","0","","30","","","","circle","square","29","7","2","0.8275862068965517","","","","","","","",""
"null","273634","SARL_v6","SARL_v661cohpf5","5e0e1f62814bba56ea1a86dd","freq_resp","","","img/blue_2bandit_b.png","68","img/blue_2bandit_b.png","70","test","","","","","","","","","","","2","","","","","","","","",""
"null","273790","SARL_v6","SARL_v661cohpf5","5e0e1f62814bba56ea1a86dd","fixation","","","img/fixation.png","null","","","test","","","","","","","","","","","","","","","","","","","",""
"475.69999999925494","274268","SARL_v6","SARL_v661cohpf5","5e0e1f62814bba56ea1a86dd","infreq","","","img/orange_2bandit_b2.png","70","","68","test","0","","31","","","","circle","square","30","8","2","0.8","","","","","","","",""
"null","274595","SARL_v6","SARL_v661cohpf5","5e0e1f62814bba56ea1a86dd","infreq_resp","","","img/orange_2bandit_b.png","70","img/orange_2bandit_b.png","68","test","","","","","","","","","","","2","","","","","","","","",""
"null","274749","SARL_v6","SARL_v661cohpf5","5e0e1f62814bba56ea1a86dd","fixation","","","img/fixation.png","null","","","test","","","","","","","","","","","","","","","","","","","",""
"572.7000000011176","275324","SARL_v6","SARL_v661cohpf5","5e0e1f62814bba56ea1a86dd","freq","","","img/blue_2bandit_b2.png","68","","70","test","0","","32","","","","circle","square","31","9","2","0.7741935483870968","","","","","","","",""
"null","275554","SARL_v6","SARL_v661cohpf5","5e0e1f62814bba56ea1a86dd","freq_resp","","","img/blue_2bandit_b.png","68","img/blue_2bandit_b.png","70","test","","","","","","","","","","","2","","","","","","","","",""
"null","275709","SARL_v6","SARL_v661cohpf5","5e0e1f62814bba56ea1a86dd","fixation","","","img/fixation.png","null","","","test","","","","","","","","","","","","","","","","","","","",""
"472.69999999925494","276184","SARL_v6","SARL_v661cohpf5","5e0e1f62814bba56ea1a86dd","freq","","","img/blue_2bandit_b2.png","68","","70","test","0","","33","","","","circle","square","32","10","2","0.75","","","","","","","",""
"null","276520","SARL_v6","SARL_v661cohpf5","5e0e1f62814bba56ea1a86dd","freq_resp","","","img/blue_2bandit_b.png","68","img/blue_2bandit_b.png","70","test","","","","","","","","","","","2","","","","","","","","",""
"null","276676","SARL_v6","SARL_v661cohpf5","5e0e1f62814bba56ea1a86dd","fixation","","","img/fixation.png","null","","","test","","","","","","","","","","","","","","","","","","","",""
"84.19999999925494","276763","SARL_v6","SARL_v661cohpf5","5e0e1f62814bba56ea1a86dd","freq","","","img/blue_2bandit_b2.png","70","","70","test","1","","34","","","","circle","square","33","11","2","0.7575757575757576","","","","","","","",""
"null","277484","SARL_v6","SARL_v661cohpf5","5e0e1f62814bba56ea1a86dd","freq_resp","","","img/blue_2bandit_b.png","70","img/blue_2bandit_b.png","70","test","","","","","","","","","","","2","","","","","","","","",""
"null","277640","SARL_v6","SARL_v661cohpf5","5e0e1f62814bba56ea1a86dd","fixation","","","img/fixation.png","null","","","test","","","","","","","","","","","","","","","","","","","",""
"325.5","277967","SARL_v6","SARL_v661cohpf5","5e0e1f62814bba56ea1a86dd","freq","","","img/blue_2bandit_b2.png","70","","70","test","1","","35","","","","circle","square","34","12","2","0.7647058823529411","","","","","","","",""
"null","278446","SARL_v6","SARL_v661cohpf5","5e0e1f62814bba56ea1a86dd","freq_resp","","","img/blue_2bandit_b.png","70","img/blue_2bandit_b.png","70","test","","","","","","","","","","","2","","","","","","","","",""
"null","278600","SARL_v6","SARL_v661cohpf5","5e0e1f62814bba56ea1a86dd","fixation","","","img/fixation.png","null","","","test","","","","","","","","","","","","","","","","","","","",""
"335.40000000037253","278937","SARL_v6","SARL_v661cohpf5","5e0e1f62814bba56ea1a86dd","freq","","","img/blue_2bandit_b2.png","70","","70","test","1","","36","","","","circle","square","35","13","2","0.7714285714285715","","","","","","","",""
"null","279404","SARL_v6","SARL_v661cohpf5","5e0e1f62814bba56ea1a86dd","freq_resp","","","img/blue_2bandit_b.png","70","img/blue_2bandit_b.png","70","test","","","","","","","","","","","2","","","","","","","","",""
"null","279560","SARL_v6","SARL_v661cohpf5","5e0e1f62814bba56ea1a86dd","fixation","","","img/fixation.png","null","","","test","","","","","","","","","","","","","","","","","","","",""
"302.30000000074506","279864","SARL_v6","SARL_v661cohpf5","5e0e1f62814bba56ea1a86dd","freq","","","img/blue_2bandit_b2.png","70","","70","test","1","","37","","","","circle","square","36","14","2","0.7777777777777778","","","","","","","",""
"null","280372","SARL_v6","SARL_v661cohpf5","5e0e1f62814bba56ea1a86dd","freq_resp","","","img/blue_2bandit_b.png","70","img/blue_2bandit_b.png","70","test","","","","","","","","","","","2","","","","","","","","",""
"null","280527","SARL_v6","SARL_v661cohpf5","5e0e1f62814bba56ea1a86dd","fixation","","","img/fixation.png","null","","","test","","","","","","","","","","","","","","","","","","","",""
"238.5","280767","SARL_v6","SARL_v661cohpf5","5e0e1f62814bba56ea1a86dd","freq","","","img/blue_2bandit_b2.png","70","","70","test","1","","38","","","","circle","square","37","15","2","0.7837837837837838","","","","","","","",""
"null","281334","SARL_v6","SARL_v661cohpf5","5e0e1f62814bba56ea1a86dd","freq_resp","","","img/blue_2bandit_b.png","70","img/blue_2bandit_b.png","70","test","","","","","","","","","","","2","","","","","","","","",""
"null","281491","SARL_v6","SARL_v661cohpf5","5e0e1f62814bba56ea1a86dd","fixation","","","img/fixation.png","null","","","test","","","","","","","","","","","","","","","","","","","",""
"298.30000000074506","281791","SARL_v6","SARL_v661cohpf5","5e0e1f62814bba56ea1a86dd","freq","","","img/blue_2bandit_b2.png","70","","70","test","1","","39","","","","circle","square","38","16","2","0.7894736842105263","","","","","","","",""
"null","282295","SARL_v6","SARL_v661cohpf5","5e0e1f62814bba56ea1a86dd","freq_resp","","","img/blue_2bandit_b.png","70","img/blue_2bandit_b.png","70","test","","","","","","","","","","","2","","","","","","","","",""
"null","282449","SARL_v6","SARL_v661cohpf5","5e0e1f62814bba56ea1a86dd","fixation","","","img/fixation.png","null","","","test","","","","","","","","","","","","","","","","","","","",""
"331.7999999988824","282783","SARL_v6","SARL_v661cohpf5","5e0e1f62814bba56ea1a86dd","freq","","","img/blue_2bandit_b2.png","70","","70","test","1","","40","","","","circle","square","39","17","2","0.7948717948717948","","","","","","","",""
"null","283256","SARL_v6","SARL_v661cohpf5","5e0e1f62814bba56ea1a86dd","freq_resp","","","img/blue_2bandit_b.png","70","img/blue_2bandit_b.png","70","test","","","","","","","","","","","2","","","","","","","","",""
"null","283412","SARL_v6","SARL_v661cohpf5","5e0e1f62814bba56ea1a86dd","fixation","","","img/fixation.png","null","","","test","","","","","","","","","","","","","","","","","","","",""
"288","283702","SARL_v6","SARL_v661cohpf5","5e0e1f62814bba56ea1a86dd","freq","","","img/blue_2bandit_b2.png","70","","70","test","1","","41","","","","circle","square","40","18","2","0.8","","","","","","","",""
"null","284221","SARL_v6","SARL_v661cohpf5","5e0e1f62814bba56ea1a86dd","freq_resp","","","img/blue_2bandit_b.png","70","img/blue_2bandit_b.png","70","test","","","","","","","","","","","2","","","","","","","","",""
"null","284379","SARL_v6","SARL_v661cohpf5","5e0e1f62814bba56ea1a86dd","fixation","","","img/fixation.png","null","","","test","","","","","","","","","","","","","","","","","","","",""
"308.09999999962747","284688","SARL_v6","SARL_v661cohpf5","5e0e1f62814bba56ea1a86dd","freq","","","img/blue_2bandit_b2.png","70","","70","test","1","","42","","","","circle","square","41","19","2","0.8048780487804879","","","","","","","",""
"null","285185","SARL_v6","SARL_v661cohpf5","5e0e1f62814bba56ea1a86dd","freq_resp","","","img/blue_2bandit_b.png","70","img/blue_2bandit_b.png","70","test","","","","","","","","","","","2","","","","","","","","",""
"null","285339","SARL_v6","SARL_v661cohpf5","5e0e1f62814bba56ea1a86dd","fixation","","","img/fixation.png","null","","","test","","","","","","","","","","","","","","","","","","","",""
"259.2999999988824","285601","SARL_v6","SARL_v661cohpf5","5e0e1f62814bba56ea1a86dd","freq","","","img/blue_2bandit_b2.png","70","","70","test","1","","43","","","","circle","square","42","20","2","0.8095238095238095","","","","","","","",""
"null","286145","SARL_v6","SARL_v661cohpf5","5e0e1f62814bba56ea1a86dd","freq_resp","","","img/blue_2bandit_b.png","70","img/blue_2bandit_b.png","70","test","","","","","","","","","","","2","","","","","","","","",""
"null","286298","SARL_v6","SARL_v661cohpf5","5e0e1f62814bba56ea1a86dd","fixation","","","img/fixation.png","null","","","test","","","","","","","","","","","","","","","","","","","",""
"265.5","286565","SARL_v6","SARL_v661cohpf5","5e0e1f62814bba56ea1a86dd","freq","","","img/blue_2bandit_b2.png","70","","70","test","1","","44","","","","circle","square","43","21","2","0.813953488372093","","","","","","","",""
"null","287104","SARL_v6","SARL_v661cohpf5","5e0e1f62814bba56ea1a86dd","freq_resp","","","img/blue_2bandit_b.png","70","img/blue_2bandit_b.png","70","test","","","","","","","","","","","2","","","","","","","","",""
"null","287261","SARL_v6","SARL_v661cohpf5","5e0e1f62814bba56ea1a86dd","fixation","","","img/fixation.png","null","","","test","","","","","","","","","","","","","","","","","","","",""
"607.6000000014901","287870","SARL_v6","SARL_v661cohpf5","5e0e1f62814bba56ea1a86dd","rl","","","img/black_2bandit_b2.png","75","","0","test","","","45","","","-5","circle","square","","0","2","","75","-8","-5","-8","-5","square","2","0"
"null","288628","SARL_v6","SARL_v661cohpf5","5e0e1f62814bba56ea1a86dd","feedback","","","<div class=""verylowPoints_sq""> -5 </div>","null","","na","test","","","NaN","","","","","","","","2","","75","","","","","","2",""
"455.40000000037253","289085","SARL_v6","SARL_v661cohpf5","5e0e1f62814bba56ea1a86dd","freq","","","img/blue_2bandit_b2.png","70","","70","test","1","","46","","","","circle","square","44","1","3","0.8181818181818182","","","","","","","",""
"null","289434","SARL_v6","SARL_v661cohpf5","5e0e1f62814bba56ea1a86dd","freq_resp","","","img/blue_2bandit_b.png","70","img/blue_2bandit_b.png","70","test","","","","","","","","","","","3","","","","","","","","",""
"null","289590","SARL_v6","SARL_v661cohpf5","5e0e1f62814bba56ea1a86dd","fixation","","","img/fixation.png","null","","","test","","","","","","","","","","","","","","","","","","","",""
"378","289969","SARL_v6","SARL_v661cohpf5","5e0e1f62814bba56ea1a86dd","freq","","","img/blue_2bandit_b2.png","70","","70","test","1","","47","","","","circle","square","45","2","3","0.8222222222222222","","","","","","","",""
"null","290407","SARL_v6","SARL_v661cohpf5","5e0e1f62814bba56ea1a86dd","freq_resp","","","img/blue_2bandit_b.png","70","img/blue_2bandit_b.png","70","test","","","","","","","","","","","3","","","","","","","","",""
"null","290563","SARL_v6","SARL_v661cohpf5","5e0e1f62814bba56ea1a86dd","fixation","","","img/fixation.png","null","","","test","","","","","","","","","","","","","","","","","","","",""
"330.40000000037253","290895","SARL_v6","SARL_v661cohpf5","5e0e1f62814bba56ea1a86dd","freq","","","img/blue_2bandit_b2.png","70","","70","test","1","","48","","","","circle","square","46","3","3","0.8260869565217391","","","","","","","",""
"null","291371","SARL_v6","SARL_v661cohpf5","5e0e1f62814bba56ea1a86dd","freq_resp","","","img/blue_2bandit_b.png","70","img/blue_2bandit_b.png","70","test","","","","","","","","","","","3","","","","","","","","",""
"null","291525","SARL_v6","SARL_v661cohpf5","5e0e1f62814bba56ea1a86dd","fixation","","","img/fixation.png","null","","","test","","","","","","","","","","","","","","","","","","","",""
"296.3999999985099","291823","SARL_v6","SARL_v661cohpf5","5e0e1f62814bba56ea1a86dd","freq","","","img/blue_2bandit_b2.png","70","","70","test","1","","49","","","","circle","square","47","4","3","0.8297872340425532","","","","","","","",""
"null","292333","SARL_v6","SARL_v661cohpf5","5e0e1f62814bba56ea1a86dd","freq_resp","","","img/blue_2bandit_b.png","70","img/blue_2bandit_b.png","70","test","","","","","","","","","","","3","","","","","","","","",""
"null","292488","SARL_v6","SARL_v661cohpf5","5e0e1f62814bba56ea1a86dd","fixation","","","img/fixation.png","null","","","test","","","","","","","","","","","","","","","","","","","",""
"122.90000000037253","292613","SARL_v6","SARL_v661cohpf5","5e0e1f62814bba56ea1a86dd","freq","","","img/blue_2bandit_b2.png","70","","70","test","1","","50","","","","circle","square","48","5","3","0.8333333333333334","","","","","","","",""
"null","293299","SARL_v6","SARL_v661cohpf5","5e0e1f62814bba56ea1a86dd","freq_resp","","","img/blue_2bandit_b.png","70","img/blue_2bandit_b.png","70","test","","","","","","","","","","","3","","","","","","","","",""
"null","293452","SARL_v6","SARL_v661cohpf5","5e0e1f62814bba56ea1a86dd","fixation","","","img/fixation.png","null","","","test","","","","","","","","","","","","","","","","","","","",""
"143.90000000037253","293599","SARL_v6","SARL_v661cohpf5","5e0e1f62814bba56ea1a86dd","freq","","","img/blue_2bandit_b2.png","70","","70","test","1","","51","","","","circle","square","49","6","3","0.8367346938775511","","","","","","","",""
"null","294260","SARL_v6","SARL_v661cohpf5","5e0e1f62814bba56ea1a86dd","freq_resp","","","img/blue_2bandit_b.png","70","img/blue_2bandit_b.png","70","test","","","","","","","","","","","3","","","","","","","","",""
"null","294416","SARL_v6","SARL_v661cohpf5","5e0e1f62814bba56ea1a86dd","fixation","","","img/fixation.png","null","","","test","","","","","","","","","","","","","","","","","","","",""
"230","294648","SARL_v6","SARL_v661cohpf5","5e0e1f62814bba56ea1a86dd","freq","","","img/blue_2bandit_b2.png","70","","70","test","1","","52","","","","circle","square","50","7","3","0.84","","","","","","","",""
"null","295235","SARL_v6","SARL_v661cohpf5","5e0e1f62814bba56ea1a86dd","freq_resp","","","img/blue_2bandit_b.png","70","img/blue_2bandit_b.png","70","test","","","","","","","","","","","3","","","","","","","","",""
"null","295391","SARL_v6","SARL_v661cohpf5","5e0e1f62814bba56ea1a86dd","fixation","","","img/fixation.png","null","","","test","","","","","","","","","","","","","","","","","","","",""
"233.09999999962747","295626","SARL_v6","SARL_v661cohpf5","5e0e1f62814bba56ea1a86dd","freq","","","img/blue_2bandit_b2.png","70","","70","test","1","","53","","","","circle","square","51","8","3","0.8431372549019608","","","","","","","",""
"null","296209","SARL_v6","SARL_v661cohpf5","5e0e1f62814bba56ea1a86dd","freq_resp","","","img/blue_2bandit_b.png","70","img/blue_2bandit_b.png","70","test","","","","","","","","","","","3","","","","","","","","",""
"null","296363","SARL_v6","SARL_v661cohpf5","5e0e1f62814bba56ea1a86dd","fixation","","","img/fixation.png","null","","","test","","","","","","","","","","","","","","","","","","","",""
"236.7999999988824","296603","SARL_v6","SARL_v661cohpf5","5e0e1f62814bba56ea1a86dd","freq","","","img/blue_2bandit_b2.png","70","","70","test","1","","54","","","","circle","square","52","9","3","0.8461538461538461","","","","","","","",""
"null","297169","SARL_v6","SARL_v661cohpf5","5e0e1f62814bba56ea1a86dd","freq_resp","","","img/blue_2bandit_b.png","70","img/blue_2bandit_b.png","70","test","","","","","","","","","","","3","","","","","","","","",""
"null","297324","SARL_v6","SARL_v661cohpf5","5e0e1f62814bba56ea1a86dd","fixation","","","img/fixation.png","null","","","test","","","","","","","","","","","","","","","","","","","",""
"277.09999999962747","297603","SARL_v6","SARL_v661cohpf5","5e0e1f62814bba56ea1a86dd","freq","","","img/blue_2bandit_b2.png","70","","70","test","1","","55","","","","circle","square","53","10","3","0.8490566037735849","","","","","","","",""
"null","298132","SARL_v6","SARL_v661cohpf5","5e0e1f62814bba56ea1a86dd","freq_resp","","","img/blue_2bandit_b.png","70","img/blue_2bandit_b.png","70","test","","","","","","","","","","","3","","","","","","","","",""
"null","298288","SARL_v6","SARL_v661cohpf5","5e0e1f62814bba56ea1a86dd","fixation","","","img/fixation.png","null","","","test","","","","","","","","","","","","","","","","","","","",""
"294.59999999962747","298585","SARL_v6","SARL_v661cohpf5","5e0e1f62814bba56ea1a86dd","freq","","","img/blue_2bandit_b2.png","70","","70","test","1","","56","","","","circle","square","54","11","3","0.8518518518518519","","","","","","","",""
"null","299093","SARL_v6","SARL_v661cohpf5","5e0e1f62814bba56ea1a86dd","freq_resp","","","img/blue_2bandit_b.png","70","img/blue_2bandit_b.png","70","test","","","","","","","","","","","3","","","","","","","","",""
"null","299248","SARL_v6","SARL_v661cohpf5","5e0e1f62814bba56ea1a86dd","fixation","","","img/fixation.png","null","","","test","","","","","","","","","","","","","","","","","","","",""
"366.19999999925494","299617","SARL_v6","SARL_v661cohpf5","5e0e1f62814bba56ea1a86dd","freq","","","img/blue_2bandit_b2.png","70","","70","test","1","","57","","","","circle","square","55","12","3","0.8545454545454545","","","","","","","",""
"null","300058","SARL_v6","SARL_v661cohpf5","5e0e1f62814bba56ea1a86dd","freq_resp","","","img/blue_2bandit_b.png","70","img/blue_2bandit_b.png","70","test","","","","","","","","","","","3","","","","","","","","",""
"null","300213","SARL_v6","SARL_v661cohpf5","5e0e1f62814bba56ea1a86dd","fixation","","","img/fixation.png","null","","","test","","","","","","","","","","","","","","","","","","","",""
"304.5","300520","SARL_v6","SARL_v661cohpf5","5e0e1f62814bba56ea1a86dd","freq","","","img/blue_2bandit_b2.png","70","","70","test","1","","58","","","","circle","square","56","13","3","0.8571428571428571","","","","","","","",""
"null","301023","SARL_v6","SARL_v661cohpf5","5e0e1f62814bba56ea1a86dd","freq_resp","","","img/blue_2bandit_b.png","70","img/blue_2bandit_b.png","70","test","","","","","","","","","","","3","","","","","","","","",""
"null","301177","SARL_v6","SARL_v661cohpf5","5e0e1f62814bba56ea1a86dd","fixation","","","img/fixation.png","null","","","test","","","","","","","","","","","","","","","","","","","",""
"497.5","301676","SARL_v6","SARL_v661cohpf5","5e0e1f62814bba56ea1a86dd","infreq","","","img/orange_2bandit_b2.png","68","","68","test","1","","59","","","","circle","square","57","14","3","0.8596491228070176","","","","","","","",""
"null","301982","SARL_v6","SARL_v661cohpf5","5e0e1f62814bba56ea1a86dd","infreq_resp","","","img/orange_2bandit_b.png","68","img/orange_2bandit_b.png","68","test","","","","","","","","","","","3","","","","","","","","",""
"null","302136","SARL_v6","SARL_v661cohpf5","5e0e1f62814bba56ea1a86dd","fixation","","","img/fixation.png","null","","","test","","","","","","","","","","","","","","","","","","","",""
"491.09999999962747","302630","SARL_v6","SARL_v661cohpf5","5e0e1f62814bba56ea1a86dd","freq","","","img/blue_2bandit_b2.png","70","","70","test","1","","60","","","","circle","square","58","15","3","0.8620689655172413","","","","","","","",""
"null","302941","SARL_v6","SARL_v661cohpf5","5e0e1f62814bba56ea1a86dd","freq_resp","","","img/blue_2bandit_b.png","70","img/blue_2bandit_b.png","70","test","","","","","","","","","","","3","","","","","","","","",""
"null","303095","SARL_v6","SARL_v661cohpf5","5e0e1f62814bba56ea1a86dd","fixation","","","img/fixation.png","null","","","test","","","","","","","","","","","","","","","","","","","",""
"374.7000000011176","303473","SARL_v6","SARL_v661cohpf5","5e0e1f62814bba56ea1a86dd","freq","","","img/blue_2bandit_b2.png","70","","70","test","1","","61","","","","circle","square","59","16","3","0.864406779661017","","","","","","","",""
"null","303903","SARL_v6","SARL_v661cohpf5","5e0e1f62814bba56ea1a86dd","freq_resp","","","img/blue_2bandit_b.png","70","img/blue_2bandit_b.png","70","test","","","","","","","","","","","3","","","","","","","","",""
"null","304058","SARL_v6","SARL_v661cohpf5","5e0e1f62814bba56ea1a86dd","fixation","","","img/fixation.png","null","","","test","","","","","","","","","","","","","","","","","","","",""
"320.90000000037253","304383","SARL_v6","SARL_v661cohpf5","5e0e1f62814bba56ea1a86dd","freq","","","img/blue_2bandit_b2.png","70","","70","test","1","","62","","","","circle","square","60","17","3","0.8666666666666667","","","","","","","",""
"null","304871","SARL_v6","SARL_v661cohpf5","5e0e1f62814bba56ea1a86dd","freq_resp","","","img/blue_2bandit_b.png","70","img/blue_2bandit_b.png","70","test","","","","","","","","","","","3","","","","","","","","",""
"null","305027","SARL_v6","SARL_v661cohpf5","5e0e1f62814bba56ea1a86dd","fixation","","","img/fixation.png","null","","","test","","","","","","","","","","","","","","","","","","","",""
"350.30000000074506","305379","SARL_v6","SARL_v661cohpf5","5e0e1f62814bba56ea1a86dd","freq","","","img/blue_2bandit_b2.png","70","","70","test","1","","63","","","","circle","square","61","18","3","0.8688524590163934","","","","","","","",""
"null","305836","SARL_v6","SARL_v661cohpf5","5e0e1f62814bba56ea1a86dd","freq_resp","","","img/blue_2bandit_b.png","70","img/blue_2bandit_b.png","70","test","","","","","","","","","","","3","","","","","","","","",""
"null","305990","SARL_v6","SARL_v661cohpf5","5e0e1f62814bba56ea1a86dd","fixation","","","img/fixation.png","null","","","test","","","","","","","","","","","","","","","","","","","",""
"383","306375","SARL_v6","SARL_v661cohpf5","5e0e1f62814bba56ea1a86dd","freq","","","img/blue_2bandit_b2.png","70","","70","test","1","","64","","","","circle","square","62","19","3","0.8709677419354839","","","","","","","",""
"null","306799","SARL_v6","SARL_v661cohpf5","5e0e1f62814bba56ea1a86dd","freq_resp","","","img/blue_2bandit_b.png","70","img/blue_2bandit_b.png","70","test","","","","","","","","","","","3","","","","","","","","",""
"null","306954","SARL_v6","SARL_v661cohpf5","5e0e1f62814bba56ea1a86dd","fixation","","","img/fixation.png","null","","","test","","","","","","","","","","","","","","","","","","","",""
"343.40000000037253","307300","SARL_v6","SARL_v661cohpf5","5e0e1f62814bba56ea1a86dd","freq","","","img/blue_2bandit_b2.png","70","","70","test","1","","65","","","","circle","square","63","20","3","0.873015873015873","","","","","","","",""
"null","307759","SARL_v6","SARL_v661cohpf5","5e0e1f62814bba56ea1a86dd","freq_resp","","","img/blue_2bandit_b.png","70","img/blue_2bandit_b.png","70","test","","","","","","","","","","","3","","","","","","","","",""
"null","307914","SARL_v6","SARL_v661cohpf5","5e0e1f62814bba56ea1a86dd","fixation","","","img/fixation.png","null","","","test","","","","","","","","","","","","","","","","","","","",""
"385.2000000011176","308303","SARL_v6","SARL_v661cohpf5","5e0e1f62814bba56ea1a86dd","infreq","","","img/orange_2bandit_b2.png","68","","68","test","1","","66","","","","circle","square","64","21","3","0.875","","","","","","","",""
"null","308721","SARL_v6","SARL_v661cohpf5","5e0e1f62814bba56ea1a86dd","infreq_resp","","","img/orange_2bandit_b.png","68","img/orange_2bandit_b.png","68","test","","","","","","","","","","","3","","","","","","","","",""
"null","308878","SARL_v6","SARL_v661cohpf5","5e0e1f62814bba56ea1a86dd","fixation","","","img/fixation.png","null","","","test","","","","","","","","","","","","","","","","","","","",""
"461.09999999962747","309341","SARL_v6","SARL_v661cohpf5","5e0e1f62814bba56ea1a86dd","freq","","","img/blue_2bandit_b2.png","70","","70","test","1","","67","","","","circle","square","65","22","3","0.8769230769230769","","","","","","","",""
"null","309685","SARL_v6","SARL_v661cohpf5","5e0e1f62814bba56ea1a86dd","freq_resp","","","img/blue_2bandit_b.png","70","img/blue_2bandit_b.png","70","test","","","","","","","","","","","3","","","","","","","","",""
"null","309838","SARL_v6","SARL_v661cohpf5","5e0e1f62814bba56ea1a86dd","fixation","","","img/fixation.png","null","","","test","","","","","","","","","","","","","","","","","","","",""
"612.4000000003725","310453","SARL_v6","SARL_v661cohpf5","5e0e1f62814bba56ea1a86dd","rl","","","img/black_2bandit_b2.png","75","","0","test","","","68","","","-4","circle","square","","0","3","","75","-8","-4","-8","-4","square","3","0"
"null","311217","SARL_v6","SARL_v661cohpf5","5e0e1f62814bba56ea1a86dd","feedback","","","<div class=""verylowPoints_sq""> -4 </div>","null","","na","test","","","NaN","","","","","","","","3","","75","","","","","","3",""
"479.69999999925494","311699","SARL_v6","SARL_v661cohpf5","5e0e1f62814bba56ea1a86dd","freq","","","img/blue_2bandit_b2.png","70","","70","test","1","","69","","","","circle","square","66","1","4","0.8787878787878788","","","","","","","",""
"null","312025","SARL_v6","SARL_v661cohpf5","5e0e1f62814bba56ea1a86dd","freq_resp","","","img/blue_2bandit_b.png","70","img/blue_2bandit_b.png","70","test","","","","","","","","","","","4","","","","","","","","",""
"null","312181","SARL_v6","SARL_v661cohpf5","5e0e1f62814bba56ea1a86dd","fixation","","","img/fixation.png","null","","","test","","","","","","","","","","","","","","","","","","","",""
"406.30000000074506","312590","SARL_v6","SARL_v661cohpf5","5e0e1f62814bba56ea1a86dd","freq","","","img/blue_2bandit_b2.png","70","","70","test","1","","70","","","","circle","square","67","2","4","0.8805970149253731","","","","","","","",""
"null","313000","SARL_v6","SARL_v661cohpf5","5e0e1f62814bba56ea1a86dd","freq_resp","","","img/blue_2bandit_b.png","70","img/blue_2bandit_b.png","70","test","","","","","","","","","","","4","","","","","","","","",""
"null","313155","SARL_v6","SARL_v661cohpf5","5e0e1f62814bba56ea1a86dd","fixation","","","img/fixation.png","null","","","test","","","","","","","","","","","","","","","","","","","",""
"259","313416","SARL_v6","SARL_v661cohpf5","5e0e1f62814bba56ea1a86dd","freq","","","img/blue_2bandit_b2.png","70","","70","test","1","","71","","","","circle","square","68","3","4","0.8823529411764706","","","","","","","",""
"null","313965","SARL_v6","SARL_v661cohpf5","5e0e1f62814bba56ea1a86dd","freq_resp","","","img/blue_2bandit_b.png","70","img/blue_2bandit_b.png","70","test","","","","","","","","","","","4","","","","","","","","",""
"null","314120","SARL_v6","SARL_v661cohpf5","5e0e1f62814bba56ea1a86dd","fixation","","","img/fixation.png","null","","","test","","","","","","","","","","","","","","","","","","","",""
"397","314520","SARL_v6","SARL_v661cohpf5","5e0e1f62814bba56ea1a86dd","freq","","","img/blue_2bandit_b2.png","70","","70","test","1","","72","","","","circle","square","69","4","4","0.8840579710144928","","","","","","","",""
"null","314928","SARL_v6","SARL_v661cohpf5","5e0e1f62814bba56ea1a86dd","freq_resp","","","img/blue_2bandit_b.png","70","img/blue_2bandit_b.png","70","test","","","","","","","","","","","4","","","","","","","","",""
"null","315082","SARL_v6","SARL_v661cohpf5","5e0e1f62814bba56ea1a86dd","fixation","","","img/fixation.png","null","","","test","","","","","","","","","","","","","","","","","","","",""
"258.59999999962747","315343","SARL_v6","SARL_v661cohpf5","5e0e1f62814bba56ea1a86dd","freq","","","img/blue_2bandit_b2.png","70","","70","test","1","","73","","","","circle","square","70","5","4","0.8857142857142857","","","","","","","",""
"null","315890","SARL_v6","SARL_v661cohpf5","5e0e1f62814bba56ea1a86dd","freq_resp","","","img/blue_2bandit_b.png","70","img/blue_2bandit_b.png","70","test","","","","","","","","","","","4","","","","","","","","",""
"null","316046","SARL_v6","SARL_v661cohpf5","5e0e1f62814bba56ea1a86dd","fixation","","","img/fixation.png","null","","","test","","","","","","","","","","","","","","","","","","","",""
"290.59999999962747","316339","SARL_v6","SARL_v661cohpf5","5e0e1f62814bba56ea1a86dd","freq","","","img/blue_2bandit_b2.png","70","","70","test","1","","74","","","","circle","square","71","6","4","0.8873239436619719","","","","","","","",""
"null","316853","SARL_v6","SARL_v661cohpf5","5e0e1f62814bba56ea1a86dd","freq_resp","","","img/blue_2bandit_b.png","70","img/blue_2bandit_b.png","70","test","","","","","","","","","","","4","","","","","","","","",""
"null","317009","SARL_v6","SARL_v661cohpf5","5e0e1f62814bba56ea1a86dd","fixation","","","img/fixation.png","null","","","test","","","","","","","","","","","","","","","","","","","",""
"309","317320","SARL_v6","SARL_v661cohpf5","5e0e1f62814bba56ea1a86dd","freq","","","img/blue_2bandit_b2.png","70","","70","test","1","","75","","","","circle","square","72","7","4","0.8888888888888888","","","","","","","",""
"null","317815","SARL_v6","SARL_v661cohpf5","5e0e1f62814bba56ea1a86dd","freq_resp","","","img/blue_2bandit_b.png","70","img/blue_2bandit_b.png","70","test","","","","","","","","","","","4","","","","","","","","",""
"null","317970","SARL_v6","SARL_v661cohpf5","5e0e1f62814bba56ea1a86dd","fixation","","","img/fixation.png","null","","","test","","","","","","","","","","","","","","","","","","","",""
"236.19999999925494","318208","SARL_v6","SARL_v661cohpf5","5e0e1f62814bba56ea1a86dd","freq","","","img/blue_2bandit_b2.png","70","","70","test","1","","76","","","","circle","square","73","8","4","0.8904109589041096","","","","","","","",""
"null","318787","SARL_v6","SARL_v661cohpf5","5e0e1f62814bba56ea1a86dd","freq_resp","","","img/blue_2bandit_b.png","70","img/blue_2bandit_b.png","70","test","","","","","","","","","","","4","","","","","","","","",""
"null","318941","SARL_v6","SARL_v661cohpf5","5e0e1f62814bba56ea1a86dd","fixation","","","img/fixation.png","null","","","test","","","","","","","","","","","","","","","","","","","",""
"314.2000000011176","319257","SARL_v6","SARL_v661cohpf5","5e0e1f62814bba56ea1a86dd","freq","","","img/blue_2bandit_b2.png","70","","70","test","1","","77","","","","circle","square","74","9","4","0.8918918918918919","","","","","","","",""
"null","319750","SARL_v6","SARL_v661cohpf5","5e0e1f62814bba56ea1a86dd","freq_resp","","","img/blue_2bandit_b.png","70","img/blue_2bandit_b.png","70","test","","","","","","","","","","","4","","","","","","","","",""
"null","319902","SARL_v6","SARL_v661cohpf5","5e0e1f62814bba56ea1a86dd","fixation","","","img/fixation.png","null","","","test","","","","","","","","","","","","","","","","","","","",""
"308.40000000037253","320213","SARL_v6","SARL_v661cohpf5","5e0e1f62814bba56ea1a86dd","freq","","","img/blue_2bandit_b2.png","70","","70","test","1","","78","","","","circle","square","75","10","4","0.8933333333333333","","","","","","","",""
"null","320709","SARL_v6","SARL_v661cohpf5","5e0e1f62814bba56ea1a86dd","freq_resp","","","img/blue_2bandit_b.png","70","img/blue_2bandit_b.png","70","test","","","","","","","","","","","4","","","","","","","","",""
"null","320862","SARL_v6","SARL_v661cohpf5","5e0e1f62814bba56ea1a86dd","fixation","","","img/fixation.png","null","","","test","","","","","","","","","","","","","","","","","","","",""
"331.7000000011176","321195","SARL_v6","SARL_v661cohpf5","5e0e1f62814bba56ea1a86dd","freq","","","img/blue_2bandit_b2.png","70","","70","test","1","","79","","","","circle","square","76","11","4","0.8947368421052632","","","","","","","",""
"null","321666","SARL_v6","SARL_v661cohpf5","5e0e1f62814bba56ea1a86dd","freq_resp","","","img/blue_2bandit_b.png","70","img/blue_2bandit_b.png","70","test","","","","","","","","","","","4","","","","","","","","",""
"null","321824","SARL_v6","SARL_v661cohpf5","5e0e1f62814bba56ea1a86dd","fixation","","","img/fixation.png","null","","","test","","","","","","","","","","","","","","","","","","","",""
"268","322095","SARL_v6","SARL_v661cohpf5","5e0e1f62814bba56ea1a86dd","freq","","","img/blue_2bandit_b2.png","70","","70","test","1","","80","","","","circle","square","77","12","4","0.8961038961038961","","","","","","","",""
"null","322633","SARL_v6","SARL_v661cohpf5","5e0e1f62814bba56ea1a86dd","freq_resp","","","img/blue_2bandit_b.png","70","img/blue_2bandit_b.png","70","test","","","","","","","","","","","4","","","","","","","","",""
"null","322790","SARL_v6","SARL_v661cohpf5","5e0e1f62814bba56ea1a86dd","fixation","","","img/fixation.png","null","","","test","","","","","","","","","","","","","","","","","","","",""
"303.19999999925494","323096","SARL_v6","SARL_v661cohpf5","5e0e1f62814bba56ea1a86dd","freq","","","img/blue_2bandit_b2.png","70","","70","test","1","","81","","","","circle","square","78","13","4","0.8974358974358975","","","","","","","",""
"null","323608","SARL_v6","SARL_v661cohpf5","5e0e1f62814bba56ea1a86dd","freq_resp","","","img/blue_2bandit_b.png","70","img/blue_2bandit_b.png","70","test","","","","","","","","","","","4","","","","","","","","",""
"null","323762","SARL_v6","SARL_v661cohpf5","5e0e1f62814bba56ea1a86dd","fixation","","","img/fixation.png","null","","","test","","","","","","","","","","","","","","","","","","","",""
"261.30000000074506","324026","SARL_v6","SARL_v661cohpf5","5e0e1f62814bba56ea1a86dd","freq","","","img/blue_2bandit_b2.png","70","","70","test","1","","82","","","","circle","square","79","14","4","0.8987341772151899","","","","","","","",""
"null","324569","SARL_v6","SARL_v661cohpf5","5e0e1f62814bba56ea1a86dd","freq_resp","","","img/blue_2bandit_b.png","70","img/blue_2bandit_b.png","70","test","","","","","","","","","","","4","","","","","","","","",""
"null","324722","SARL_v6","SARL_v661cohpf5","5e0e1f62814bba56ea1a86dd","fixation","","","img/fixation.png","null","","","test","","","","","","","","","","","","","","","","","","","",""
"337.40000000037253","325061","SARL_v6","SARL_v661cohpf5","5e0e1f62814bba56ea1a86dd","freq","","","img/blue_2bandit_b2.png","70","","70","test","1","","83","","","","circle","square","80","15","4","0.9","","","","","","","",""
"null","325531","SARL_v6","SARL_v661cohpf5","5e0e1f62814bba56ea1a86dd","freq_resp","","","img/blue_2bandit_b.png","70","img/blue_2bandit_b.png","70","test","","","","","","","","","","","4","","","","","","","","",""
"null","325686","SARL_v6","SARL_v661cohpf5","5e0e1f62814bba56ea1a86dd","fixation","","","img/fixation.png","null","","","test","","","","","","","","","","","","","","","","","","","",""
"305","325993","SARL_v6","SARL_v661cohpf5","5e0e1f62814bba56ea1a86dd","freq","","","img/blue_2bandit_b2.png","70","","70","test","1","","84","","","","circle","square","81","16","4","0.9012345679012346","","","","","","","",""
"null","326492","SARL_v6","SARL_v661cohpf5","5e0e1f62814bba56ea1a86dd","freq_resp","","","img/blue_2bandit_b.png","70","img/blue_2bandit_b.png","70","test","","","","","","","","","","","4","","","","","","","","",""
"null","326647","SARL_v6","SARL_v661cohpf5","5e0e1f62814bba56ea1a86dd","fixation","","","img/fixation.png","null","","","test","","","","","","","","","","","","","","","","","","","",""
"279.59999999962747","326929","SARL_v6","SARL_v661cohpf5","5e0e1f62814bba56ea1a86dd","freq","","","img/blue_2bandit_b2.png","70","","70","test","1","","85","","","","circle","square","82","17","4","0.9024390243902439","","","","","","","",""
"null","327453","SARL_v6","SARL_v661cohpf5","5e0e1f62814bba56ea1a86dd","freq_resp","","","img/blue_2bandit_b.png","70","img/blue_2bandit_b.png","70","test","","","","","","","","","","","4","","","","","","","","",""
"null","327609","SARL_v6","SARL_v661cohpf5","5e0e1f62814bba56ea1a86dd","fixation","","","img/fixation.png","null","","","test","","","","","","","","","","","","","","","","","","","",""
"299","327911","SARL_v6","SARL_v661cohpf5","5e0e1f62814bba56ea1a86dd","freq","","","img/blue_2bandit_b2.png","70","","70","test","1","","86","","","","circle","square","83","18","4","0.9036144578313253","","","","","","","",""
"null","328426","SARL_v6","SARL_v661cohpf5","5e0e1f62814bba56ea1a86dd","freq_resp","","","img/blue_2bandit_b.png","70","img/blue_2bandit_b.png","70","test","","","","","","","","","","","4","","","","","","","","",""
"null","328581","SARL_v6","SARL_v661cohpf5","5e0e1f62814bba56ea1a86dd","fixation","","","img/fixation.png","null","","","test","","","","","","","","","","","","","","","","","","","",""
"317.90000000037253","328900","SARL_v6","SARL_v661cohpf5","5e0e1f62814bba56ea1a86dd","freq","","","img/blue_2bandit_b2.png","70","","70","test","1","","87","","","","circle","square","84","19","4","0.9047619047619048","","","","","","","",""
"null","329387","SARL_v6","SARL_v661cohpf5","5e0e1f62814bba56ea1a86dd","freq_resp","","","img/blue_2bandit_b.png","70","img/blue_2bandit_b.png","70","test","","","","","","","","","","","4","","","","","","","","",""
"null","329540","SARL_v6","SARL_v661cohpf5","5e0e1f62814bba56ea1a86dd","fixation","","","img/fixation.png","null","","","test","","","","","","","","","","","","","","","","","","","",""
"303.30000000074506","329846","SARL_v6","SARL_v661cohpf5","5e0e1f62814bba56ea1a86dd","freq","","","img/blue_2bandit_b2.png","70","","70","test","1","","88","","","","circle","square","85","20","4","0.9058823529411765","","","","","","","",""
"null","330352","SARL_v6","SARL_v661cohpf5","5e0e1f62814bba56ea1a86dd","freq_resp","","","img/blue_2bandit_b.png","70","img/blue_2bandit_b.png","70","test","","","","","","","","","","","4","","","","","","","","",""
"null","330505","SARL_v6","SARL_v661cohpf5","5e0e1f62814bba56ea1a86dd","fixation","","","img/fixation.png","null","","","test","","","","","","","","","","","","","","","","","","","",""
"393.19999999925494","330900","SARL_v6","SARL_v661cohpf5","5e0e1f62814bba56ea1a86dd","infreq","","","img/orange_2bandit_b2.png","68","","68","test","1","","89","","","","circle","square","86","21","4","0.9069767441860465","","","","","","","",""
"null","331312","SARL_v6","SARL_v661cohpf5","5e0e1f62814bba56ea1a86dd","infreq_resp","","","img/orange_2bandit_b.png","68","img/orange_2bandit_b.png","68","test","","","","","","","","","","","4","","","","","","","","",""
"null","331467","SARL_v6","SARL_v661cohpf5","5e0e1f62814bba56ea1a86dd","fixation","","","img/fixation.png","null","","","test","","","","","","","","","","","","","","","","","","","",""
"424.30000000074506","331893","SARL_v6","SARL_v661cohpf5","5e0e1f62814bba56ea1a86dd","freq","","","img/blue_2bandit_b2.png","70","","70","test","1","","90","","","","circle","square","87","22","4","0.9080459770114943","","","","","","","",""
"null","332275","SARL_v6","SARL_v661cohpf5","5e0e1f62814bba56ea1a86dd","freq_resp","","","img/blue_2bandit_b.png","70","img/blue_2bandit_b.png","70","test","","","","","","","","","","","4","","","","","","","","",""
"null","332430","SARL_v6","SARL_v661cohpf5","5e0e1f62814bba56ea1a86dd","fixation","","","img/fixation.png","null","","","test","","","","","","","","","","","","","","","","","","","",""
"502.80000000074506","332935","SARL_v6","SARL_v661cohpf5","5e0e1f62814bba56ea1a86dd","infreq","","","img/orange_2bandit_b2.png","68","","68","test","1","","91","","","","circle","square","88","23","4","0.9090909090909091","","","","","","","",""
"null","333237","SARL_v6","SARL_v661cohpf5","5e0e1f62814bba56ea1a86dd","infreq_resp","","","img/orange_2bandit_b.png","68","img/orange_2bandit_b.png","68","test","","","","","","","","","","","4","","","","","","","","",""
"null","333391","SARL_v6","SARL_v661cohpf5","5e0e1f62814bba56ea1a86dd","fixation","","","img/fixation.png","null","","","test","","","","","","","","","","","","","","","","","","","",""
"576.2999999988824","333969","SARL_v6","SARL_v661cohpf5","5e0e1f62814bba56ea1a86dd","freq","","","img/blue_2bandit_b2.png","70","","70","test","1","","92","","","","circle","square","89","24","4","0.9101123595505618","","","","","","","",""
"null","334197","SARL_v6","SARL_v661cohpf5","5e0e1f62814bba56ea1a86dd","freq_resp","","","img/blue_2bandit_b.png","70","img/blue_2bandit_b.png","70","test","","","","","","","","","","","4","","","","","","","","",""
"null","334354","SARL_v6","SARL_v661cohpf5","5e0e1f62814bba56ea1a86dd","fixation","","","img/fixation.png","null","","","test","","","","","","","","","","","","","","","","","","","",""
"329.40000000037253","334685","SARL_v6","SARL_v661cohpf5","5e0e1f62814bba56ea1a86dd","freq","","","img/blue_2bandit_b2.png","70","","70","test","1","","93","","","","circle","square","90","25","4","0.9111111111111111","","","","","","","",""
"null","335163","SARL_v6","SARL_v661cohpf5","5e0e1f62814bba56ea1a86dd","freq_resp","","","img/blue_2bandit_b.png","70","img/blue_2bandit_b.png","70","test","","","","","","","","","","","4","","","","","","","","",""
"null","335317","SARL_v6","SARL_v661cohpf5","5e0e1f62814bba56ea1a86dd","fixation","","","img/fixation.png","null","","","test","","","","","","","","","","","","","","","","","","","",""
"651.7000000011176","335971","SARL_v6","SARL_v661cohpf5","5e0e1f62814bba56ea1a86dd","rl","","","img/black_2bandit_b2.png","74","","0","test","","","94","","","-12","circle","square","","0","4","","74","-12","0","-12","0","circle","4","0"
"null","336726","SARL_v6","SARL_v661cohpf5","5e0e1f62814bba56ea1a86dd","feedback","","","<div class=""verylowPoints""> -12 </div>","null","","na","test","","","NaN","","","","","","","","4","","74","","","","","","4",""
"null","337533","SARL_v6","SARL_v661cohpf5","5e0e1f62814bba56ea1a86dd","freq","","","img/blue_2bandit_b2.png","null","","70","test","0","","95","","","","circle","square","91","1","5","0.9010989010989011","","","","","","","",""
"null","337687","SARL_v6","SARL_v661cohpf5","5e0e1f62814bba56ea1a86dd","fixation","","","img/fixation.png","null","","","test","","","","","","","","","","","","","","","","","","","",""
"50.5","337741","SARL_v6","SARL_v661cohpf5","5e0e1f62814bba56ea1a86dd","freq","","","img/blue_2bandit_b2.png","68","","70","test","0","","96","","","","circle","square","92","2","5","0.8913043478260869","","","","","","","",""
"null","338495","SARL_v6","SARL_v661cohpf5","5e0e1f62814bba56ea1a86dd","freq_resp","","","img/blue_2bandit_b.png","68","img/blue_2bandit_b.png","70","test","","","","","","","","","","","5","","","","","","","","",""
"null","338651","SARL_v6","SARL_v661cohpf5","5e0e1f62814bba56ea1a86dd","fixation","","","img/fixation.png","null","","","test","","","","","","","","","","","","","","","","","","","",""
"376.69999999925494","339030","SARL_v6","SARL_v661cohpf5","5e0e1f62814bba56ea1a86dd","freq","","","img/blue_2bandit_b2.png","70","","70","test","1","","97","","","","circle","square","93","3","5","0.8924731182795699","","","","","","","",""
"null","339460","SARL_v6","SARL_v661cohpf5","5e0e1f62814bba56ea1a86dd","freq_resp","","","img/blue_2bandit_b.png","70","img/blue_2bandit_b.png","70","test","","","","","","","","","","","5","","","","","","","","",""
"null","339617","SARL_v6","SARL_v661cohpf5","5e0e1f62814bba56ea1a86dd","fixation","","","img/fixation.png","null","","","test","","","","","","","","","","","","","","","","","","","",""
"222.69999999925494","339842","SARL_v6","SARL_v661cohpf5","5e0e1f62814bba56ea1a86dd","freq","","","img/blue_2bandit_b2.png","70","","70","test","1","","98","","","","circle","square","94","4","5","0.8936170212765957","","","","","","","",""
"null","340436","SARL_v6","SARL_v661cohpf5","5e0e1f62814bba56ea1a86dd","freq_resp","","","img/blue_2bandit_b.png","70","img/blue_2bandit_b.png","70","test","","","","","","","","","","","5","","","","","","","","",""
"null","340592","SARL_v6","SARL_v661cohpf5","5e0e1f62814bba56ea1a86dd","fixation","","","img/fixation.png","null","","","test","","","","","","","","","","","","","","","","","","","",""
"184.60000000149012","340779","SARL_v6","SARL_v661cohpf5","5e0e1f62814bba56ea1a86dd","freq","","","img/blue_2bandit_b2.png","70","","70","test","1","","99","","","","circle","square","95","5","5","0.8947368421052632","","","","","","","",""
"null","341411","SARL_v6","SARL_v661cohpf5","5e0e1f62814bba56ea1a86dd","freq_resp","","","img/blue_2bandit_b.png","70","img/blue_2bandit_b.png","70","test","","","","","","","","","","","5","","","","","","","","",""
"null","341564","SARL_v6","SARL_v661cohpf5","5e0e1f62814bba56ea1a86dd","fixation","","","img/fixation.png","null","","","test","","","","","","","","","","","","","","","","","","","",""
"129.2999999988824","341694","SARL_v6","SARL_v661cohpf5","5e0e1f62814bba56ea1a86dd","freq","","","img/blue_2bandit_b2.png","70","","70","test","1","","100","","","","circle","square","96","6","5","0.8958333333333334","","","","","","","",""
"null","342373","SARL_v6","SARL_v661cohpf5","5e0e1f62814bba56ea1a86dd","freq_resp","","","img/blue_2bandit_b.png","70","img/blue_2bandit_b.png","70","test","","","","","","","","","","","5","","","","","","","","",""
"null","342528","SARL_v6","SARL_v661cohpf5","5e0e1f62814bba56ea1a86dd","fixation","","","img/fixation.png","null","","","test","","","","","","","","","","","","","","","","","","","",""
"136.30000000074506","342666","SARL_v6","SARL_v661cohpf5","5e0e1f62814bba56ea1a86dd","freq","","","img/blue_2bandit_b2.png","70","","70","test","1","","101","","","","circle","square","97","7","5","0.8969072164948454","","","","","","","",""
"null","343335","SARL_v6","SARL_v661cohpf5","5e0e1f62814bba56ea1a86dd","freq_resp","","","img/blue_2bandit_b.png","70","img/blue_2bandit_b.png","70","test","","","","","","","","","","","5","","","","","","","","",""
"null","343490","SARL_v6","SARL_v661cohpf5","5e0e1f62814bba56ea1a86dd","fixation","","","img/fixation.png","null","","","test","","","","","","","","","","","","","","","","","","","",""
"295.90000000037253","343789","SARL_v6","SARL_v661cohpf5","5e0e1f62814bba56ea1a86dd","freq","","","img/blue_2bandit_b2.png","70","","70","test","1","","102","","","","circle","square","98","8","5","0.8979591836734694","","","","","","","",""
"null","344308","SARL_v6","SARL_v661cohpf5","5e0e1f62814bba56ea1a86dd","freq_resp","","","img/blue_2bandit_b.png","70","img/blue_2bandit_b.png","70","test","","","","","","","","","","","5","","","","","","","","",""
"null","344462","SARL_v6","SARL_v661cohpf5","5e0e1f62814bba56ea1a86dd","fixation","","","img/fixation.png","null","","","test","","","","","","","","","","","","","","","","","","","",""
"338","344802","SARL_v6","SARL_v661cohpf5","5e0e1f62814bba56ea1a86dd","freq","","","img/blue_2bandit_b2.png","70","","70","test","1","","103","","","","circle","square","99","9","5","0.898989898989899","","","","","","","",""
"null","345270","SARL_v6","SARL_v661cohpf5","5e0e1f62814bba56ea1a86dd","freq_resp","","","img/blue_2bandit_b.png","70","img/blue_2bandit_b.png","70","test","","","","","","","","","","","5","","","","","","","","",""
"null","345426","SARL_v6","SARL_v661cohpf5","5e0e1f62814bba56ea1a86dd","fixation","","","img/fixation.png","null","","","test","","","","","","","","","","","","","","","","","","","",""
"254.59999999962747","345683","SARL_v6","SARL_v661cohpf5","5e0e1f62814bba56ea1a86dd","freq","","","img/blue_2bandit_b2.png","70","","70","test","1","","104","","","","circle","square","100","10","5","0.9","","","","","","","",""
"null","346230","SARL_v6","SARL_v661cohpf5","5e0e1f62814bba56ea1a86dd","freq_resp","","","img/blue_2bandit_b.png","70","img/blue_2bandit_b.png","70","test","","","","","","","","","","","5","","","","","","","","",""
"null","346388","SARL_v6","SARL_v661cohpf5","5e0e1f62814bba56ea1a86dd","fixation","","","img/fixation.png","null","","","test","","","","","","","","","","","","","","","","","","","",""
"265.30000000074506","346654","SARL_v6","SARL_v661cohpf5","5e0e1f62814bba56ea1a86dd","freq","","","img/blue_2bandit_b2.png","70","","70","test","1","","105","","","","circle","square","101","11","5","0.900990099009901","","","","","","","",""
"null","347193","SARL_v6","SARL_v661cohpf5","5e0e1f62814bba56ea1a86dd","freq_resp","","","img/blue_2bandit_b.png","70","img/blue_2bandit_b.png","70","test","","","","","","","","","","","5","","","","","","","","",""
"null","347345","SARL_v6","SARL_v661cohpf5","5e0e1f62814bba56ea1a86dd","fixation","","","img/fixation.png","null","","","test","","","","","","","","","","","","","","","","","","","",""
"298.30000000074506","347646","SARL_v6","SARL_v661cohpf5","5e0e1f62814bba56ea1a86dd","freq","","","img/blue_2bandit_b2.png","70","","70","test","1","","106","","","","circle","square","102","12","5","0.9019607843137255","","","","","","","",""
"null","348158","SARL_v6","SARL_v661cohpf5","5e0e1f62814bba56ea1a86dd","freq_resp","","","img/blue_2bandit_b.png","70","img/blue_2bandit_b.png","70","test","","","","","","","","","","","5","","","","","","","","",""
"null","348313","SARL_v6","SARL_v661cohpf5","5e0e1f62814bba56ea1a86dd","fixation","","","img/fixation.png","null","","","test","","","","","","","","","","","","","","","","","","","",""
"239.40000000037253","348556","SARL_v6","SARL_v661cohpf5","5e0e1f62814bba56ea1a86dd","freq","","","img/blue_2bandit_b2.png","70","","70","test","1","","107","","","","circle","square","103","13","5","0.9029126213592233","","","","","","","",""
"null","349132","SARL_v6","SARL_v661cohpf5","5e0e1f62814bba56ea1a86dd","freq_resp","","","img/blue_2bandit_b.png","70","img/blue_2bandit_b.png","70","test","","","","","","","","","","","5","","","","","","","","",""
"null","349287","SARL_v6","SARL_v661cohpf5","5e0e1f62814bba56ea1a86dd","fixation","","","img/fixation.png","null","","","test","","","","","","","","","","","","","","","","","","","",""
"241.2999999988824","349530","SARL_v6","SARL_v661cohpf5","5e0e1f62814bba56ea1a86dd","freq","","","img/blue_2bandit_b2.png","70","","70","test","1","","108","","","","circle","square","104","14","5","0.9038461538461539","","","","","","","",""
"null","350093","SARL_v6","SARL_v661cohpf5","5e0e1f62814bba56ea1a86dd","freq_resp","","","img/blue_2bandit_b.png","70","img/blue_2bandit_b.png","70","test","","","","","","","","","","","5","","","","","","","","",""
"null","350262","SARL_v6","SARL_v661cohpf5","5e0e1f62814bba56ea1a86dd","fixation","","","img/fixation.png","null","","","test","","","","","","","","","","","","","","","","","","","",""
"238.40000000037253","350502","SARL_v6","SARL_v661cohpf5","5e0e1f62814bba56ea1a86dd","freq","","","img/blue_2bandit_b2.png","70","","70","test","1","","109","","","","circle","square","105","15","5","0.9047619047619048","","","","","","","",""
"null","351073","SARL_v6","SARL_v661cohpf5","5e0e1f62814bba56ea1a86dd","freq_resp","","","img/blue_2bandit_b.png","70","img/blue_2bandit_b.png","70","test","","","","","","","","","","","5","","","","","","","","",""
"null","351229","SARL_v6","SARL_v661cohpf5","5e0e1f62814bba56ea1a86dd","fixation","","","img/fixation.png","null","","","test","","","","","","","","","","","","","","","","","","","",""
"321.7000000011176","351553","SARL_v6","SARL_v661cohpf5","5e0e1f62814bba56ea1a86dd","freq","","","img/blue_2bandit_b2.png","70","","70","test","1","","110","","","","circle","square","106","16","5","0.9056603773584906","","","","","","","",""
"null","352037","SARL_v6","SARL_v661cohpf5","5e0e1f62814bba56ea1a86dd","freq_resp","","","img/blue_2bandit_b.png","70","img/blue_2bandit_b.png","70","test","","","","","","","","","","","5","","","","","","","","",""
"null","352190","SARL_v6","SARL_v661cohpf5","5e0e1f62814bba56ea1a86dd","fixation","","","img/fixation.png","null","","","test","","","","","","","","","","","","","","","","","","","",""
"257.80000000074506","352451","SARL_v6","SARL_v661cohpf5","5e0e1f62814bba56ea1a86dd","freq","","","img/blue_2bandit_b2.png","70","","70","test","1","","111","","","","circle","square","107","17","5","0.9065420560747663","","","","","","","",""
"null","352995","SARL_v6","SARL_v661cohpf5","5e0e1f62814bba56ea1a86dd","freq_resp","","","img/blue_2bandit_b.png","70","img/blue_2bandit_b.png","70","test","","","","","","","","","","","5","","","","","","","","",""
"null","353150","SARL_v6","SARL_v661cohpf5","5e0e1f62814bba56ea1a86dd","fixation","","","img/fixation.png","null","","","test","","","","","","","","","","","","","","","","","","","",""
"239.30000000074506","353392","SARL_v6","SARL_v661cohpf5","5e0e1f62814bba56ea1a86dd","freq","","","img/blue_2bandit_b2.png","70","","70","test","1","","112","","","","circle","square","108","18","5","0.9074074074074074","","","","","","","",""
"null","353956","SARL_v6","SARL_v661cohpf5","5e0e1f62814bba56ea1a86dd","freq_resp","","","img/blue_2bandit_b.png","70","img/blue_2bandit_b.png","70","test","","","","","","","","","","","5","","","","","","","","",""
"null","354111","SARL_v6","SARL_v661cohpf5","5e0e1f62814bba56ea1a86dd","fixation","","","img/fixation.png","null","","","test","","","","","","","","","","","","","","","","","","","",""
"229.80000000074506","354342","SARL_v6","SARL_v661cohpf5","5e0e1f62814bba56ea1a86dd","freq","","","img/blue_2bandit_b2.png","70","","70","test","1","","113","","","","circle","square","109","19","5","0.908256880733945","","","","","","","",""
"null","354917","SARL_v6","SARL_v661cohpf5","5e0e1f62814bba56ea1a86dd","freq_resp","","","img/blue_2bandit_b.png","70","img/blue_2bandit_b.png","70","test","","","","","","","","","","","5","","","","","","","","",""
"null","355071","SARL_v6","SARL_v661cohpf5","5e0e1f62814bba56ea1a86dd","fixation","","","img/fixation.png","null","","","test","","","","","","","","","","","","","","","","","","","",""
"265.40000000037253","355338","SARL_v6","SARL_v661cohpf5","5e0e1f62814bba56ea1a86dd","freq","","","img/blue_2bandit_b2.png","70","","70","test","1","","114","","","","circle","square","110","20","5","0.9090909090909091","","","","","","","",""
"null","355879","SARL_v6","SARL_v661cohpf5","5e0e1f62814bba56ea1a86dd","freq_resp","","","img/blue_2bandit_b.png","70","img/blue_2bandit_b.png","70","test","","","","","","","","","","","5","","","","","","","","",""
"null","356034","SARL_v6","SARL_v661cohpf5","5e0e1f62814bba56ea1a86dd","fixation","","","img/fixation.png","null","","","test","","","","","","","","","","","","","","","","","","","",""
"388.80000000074506","356425","SARL_v6","SARL_v661cohpf5","5e0e1f62814bba56ea1a86dd","infreq","","","img/orange_2bandit_b2.png","68","","68","test","1","","115","","","","circle","square","111","21","5","0.9099099099099099","","","","","","","",""
"null","356840","SARL_v6","SARL_v661cohpf5","5e0e1f62814bba56ea1a86dd","infreq_resp","","","img/orange_2bandit_b.png","68","img/orange_2bandit_b.png","68","test","","","","","","","","","","","5","","","","","","","","",""
"null","356995","SARL_v6","SARL_v661cohpf5","5e0e1f62814bba56ea1a86dd","fixation","","","img/fixation.png","null","","","test","","","","","","","","","","","","","","","","","","","",""
"297.5","357295","SARL_v6","SARL_v661cohpf5","5e0e1f62814bba56ea1a86dd","infreq","","","img/orange_2bandit_b2.png","68","","68","test","1","","116","","","","circle","square","112","22","5","0.9107142857142857","","","","","","","",""
"null","357803","SARL_v6","SARL_v661cohpf5","5e0e1f62814bba56ea1a86dd","infreq_resp","","","img/orange_2bandit_b.png","68","img/orange_2bandit_b.png","68","test","","","","","","","","","","","5","","","","","","","","",""
"null","357960","SARL_v6","SARL_v661cohpf5","5e0e1f62814bba56ea1a86dd","fixation","","","img/fixation.png","null","","","test","","","","","","","","","","","","","","","","","","","",""
"458.09999999962747","358421","SARL_v6","SARL_v661cohpf5","5e0e1f62814bba56ea1a86dd","freq","","","img/blue_2bandit_b2.png","70","","70","test","1","","117","","","","circle","square","113","23","5","0.911504424778761","","","","","","","",""
"null","358766","SARL_v6","SARL_v661cohpf5","5e0e1f62814bba56ea1a86dd","freq_resp","","","img/blue_2bandit_b.png","70","img/blue_2bandit_b.png","70","test","","","","","","","","","","","5","","","","","","","","",""
"null","358921","SARL_v6","SARL_v661cohpf5","5e0e1f62814bba56ea1a86dd","fixation","","","img/fixation.png","null","","","test","","","","","","","","","","","","","","","","","","","",""
"330","359252","SARL_v6","SARL_v661cohpf5","5e0e1f62814bba56ea1a86dd","freq","","","img/blue_2bandit_b2.png","70","","70","test","1","","118","","","","circle","square","114","24","5","0.9122807017543859","","","","","","","",""
"null","359730","SARL_v6","SARL_v661cohpf5","5e0e1f62814bba56ea1a86dd","freq_resp","","","img/blue_2bandit_b.png","70","img/blue_2bandit_b.png","70","test","","","","","","","","","","","5","","","","","","","","",""
"null","359885","SARL_v6","SARL_v661cohpf5","5e0e1f62814bba56ea1a86dd","fixation","","","img/fixation.png","null","","","test","","","","","","","","","","","","","","","","","","","",""
"614","360502","SARL_v6","SARL_v661cohpf5","5e0e1f62814bba56ea1a86dd","rl","","","img/black_2bandit_b2.png","75","","0","test","","","119","","","4","circle","square","","0","5","","75","-7","4","-7","4","square","5","0"
"null","361259","SARL_v6","SARL_v661cohpf5","5e0e1f62814bba56ea1a86dd","feedback","","","<div class=""veryhighPoints_sq""> 4 </div>","null","","na","test","","","NaN","","","","","","","","5","","75","","","","","","5",""
"467.19999999925494","361729","SARL_v6","SARL_v661cohpf5","5e0e1f62814bba56ea1a86dd","freq","","","img/blue_2bandit_b2.png","70","","70","test","1","","120","","","","circle","square","115","1","6","0.9130434782608695","","","","","","","",""
"null","362067","SARL_v6","SARL_v661cohpf5","5e0e1f62814bba56ea1a86dd","freq_resp","","","img/blue_2bandit_b.png","70","img/blue_2bandit_b.png","70","test","","","","","","","","","","","6","","","","","","","","",""
"null","362223","SARL_v6","SARL_v661cohpf5","5e0e1f62814bba56ea1a86dd","fixation","","","img/fixation.png","null","","","test","","","","","","","","","","","","","","","","","","","",""
"275.59999999962747","362501","SARL_v6","SARL_v661cohpf5","5e0e1f62814bba56ea1a86dd","freq","","","img/blue_2bandit_b2.png","70","","70","test","1","","121","","","","circle","square","116","2","6","0.9137931034482759","","","","","","","",""
"null","363028","SARL_v6","SARL_v661cohpf5","5e0e1f62814bba56ea1a86dd","freq_resp","","","img/blue_2bandit_b.png","70","img/blue_2bandit_b.png","70","test","","","","","","","","","","","6","","","","","","","","",""
"null","363183","SARL_v6","SARL_v661cohpf5","5e0e1f62814bba56ea1a86dd","fixation","","","img/fixation.png","null","","","test","","","","","","","","","","","","","","","","","","","",""
"222.59999999962747","363407","SARL_v6","SARL_v661cohpf5","5e0e1f62814bba56ea1a86dd","freq","","","img/blue_2bandit_b2.png","70","","70","test","1","","122","","","","circle","square","117","3","6","0.9145299145299145","","","","","","","",""
"null","363988","SARL_v6","SARL_v661cohpf5","5e0e1f62814bba56ea1a86dd","freq_resp","","","img/blue_2bandit_b.png","70","img/blue_2bandit_b.png","70","test","","","","","","","","","","","6","","","","","","","","",""
"null","364141","SARL_v6","SARL_v661cohpf5","5e0e1f62814bba56ea1a86dd","fixation","","","img/fixation.png","null","","","test","","","","","","","","","","","","","","","","","","","",""
"227.40000000037253","364372","SARL_v6","SARL_v661cohpf5","5e0e1f62814bba56ea1a86dd","infreq","","","img/orange_2bandit_b2.png","70","","68","test","0","","123","","","","circle","square","118","4","6","0.9067796610169492","","","","","","","",""
"null","364949","SARL_v6","SARL_v661cohpf5","5e0e1f62814bba56ea1a86dd","infreq_resp","","","img/orange_2bandit_b.png","70","img/orange_2bandit_b.png","68","test","","","","","","","","","","","6","","","","","","","","",""
"null","365103","SARL_v6","SARL_v661cohpf5","5e0e1f62814bba56ea1a86dd","fixation","","","img/fixation.png","null","","","test","","","","","","","","","","","","","","","","","","","",""
"435.7999999988824","365540","SARL_v6","SARL_v661cohpf5","5e0e1f62814bba56ea1a86dd","freq","","","img/blue_2bandit_b2.png","70","","70","test","1","","124","","","","circle","square","119","5","6","0.907563025210084","","","","","","","",""
"null","365914","SARL_v6","SARL_v661cohpf5","5e0e1f62814bba56ea1a86dd","freq_resp","","","img/blue_2bandit_b.png","70","img/blue_2bandit_b.png","70","test","","","","","","","","","","","6","","","","","","","","",""
"null","366082","SARL_v6","SARL_v661cohpf5","5e0e1f62814bba56ea1a86dd","fixation","","","img/fixation.png","null","","","test","","","","","","","","","","","","","","","","","","","",""
"414.80000000074506","366499","SARL_v6","SARL_v661cohpf5","5e0e1f62814bba56ea1a86dd","freq","","","img/blue_2bandit_b2.png","70","","70","test","1","","125","","","","circle","square","120","6","6","0.9083333333333333","","","","","","","",""
"null","366889","SARL_v6","SARL_v661cohpf5","5e0e1f62814bba56ea1a86dd","freq_resp","","","img/blue_2bandit_b.png","70","img/blue_2bandit_b.png","70","test","","","","","","","","","","","6","","","","","","","","",""
"null","367043","SARL_v6","SARL_v661cohpf5","5e0e1f62814bba56ea1a86dd","fixation","","","img/fixation.png","null","","","test","","","","","","","","","","","","","","","","","","","",""
"392.59999999962747","367437","SARL_v6","SARL_v661cohpf5","5e0e1f62814bba56ea1a86dd","freq","","","img/blue_2bandit_b2.png","70","","70","test","1","","126","","","","circle","square","121","7","6","0.9090909090909091","","","","","","","",""
"null","367850","SARL_v6","SARL_v661cohpf5","5e0e1f62814bba56ea1a86dd","freq_resp","","","img/blue_2bandit_b.png","70","img/blue_2bandit_b.png","70","test","","","","","","","","","","","6","","","","","","","","",""
"null","368007","SARL_v6","SARL_v661cohpf5","5e0e1f62814bba56ea1a86dd","fixation","","","img/fixation.png","null","","","test","","","","","","","","","","","","","","","","","","","",""
"328","368337","SARL_v6","SARL_v661cohpf5","5e0e1f62814bba56ea1a86dd","freq","","","img/blue_2bandit_b2.png","70","","70","test","1","","127","","","","circle","square","122","8","6","0.9098360655737705","","","","","","","",""
"null","368813","SARL_v6","SARL_v661cohpf5","5e0e1f62814bba56ea1a86dd","freq_resp","","","img/blue_2bandit_b.png","70","img/blue_2bandit_b.png","70","test","","","","","","","","","","","6","","","","","","","","",""
"null","368968","SARL_v6","SARL_v661cohpf5","5e0e1f62814bba56ea1a86dd","fixation","","","img/fixation.png","null","","","test","","","","","","","","","","","","","","","","","","","",""
"368.2999999988824","369339","SARL_v6","SARL_v661cohpf5","5e0e1f62814bba56ea1a86dd","infreq","","","img/orange_2bandit_b2.png","68","","68","test","1","","128","","","","circle","square","123","9","6","0.9105691056910569","","","","","","","",""
"null","369776","SARL_v6","SARL_v661cohpf5","5e0e1f62814bba56ea1a86dd","infreq_resp","","","img/orange_2bandit_b.png","68","img/orange_2bandit_b.png","68","test","","","","","","","","","","","6","","","","","","","","",""
"null","369932","SARL_v6","SARL_v661cohpf5","5e0e1f62814bba56ea1a86dd","fixation","","","img/fixation.png","null","","","test","","","","","","","","","","","","","","","","","","","",""
"472.40000000037253","370407","SARL_v6","SARL_v661cohpf5","5e0e1f62814bba56ea1a86dd","freq","","","img/blue_2bandit_b2.png","70","","70","test","1","","129","","","","circle","square","124","10","6","0.9112903225806451","","","","","","","",""
"null","370742","SARL_v6","SARL_v661cohpf5","5e0e1f62814bba56ea1a86dd","freq_resp","","","img/blue_2bandit_b.png","70","img/blue_2bandit_b.png","70","test","","","","","","","","","","","6","","","","","","","","",""
"null","370895","SARL_v6","SARL_v661cohpf5","5e0e1f62814bba56ea1a86dd","fixation","","","img/fixation.png","null","","","test","","","","","","","","","","","","","","","","","","","",""
"429.90000000037253","371328","SARL_v6","SARL_v661cohpf5","5e0e1f62814bba56ea1a86dd","freq","","","img/blue_2bandit_b2.png","70","","70","test","1","","130","","","","circle","square","125","11","6","0.912","","","","","","","",""
"null","371707","SARL_v6","SARL_v661cohpf5","5e0e1f62814bba56ea1a86dd","freq_resp","","","img/blue_2bandit_b.png","70","img/blue_2bandit_b.png","70","test","","","","","","","","","","","6","","","","","","","","",""
