"rt","time_elapsed","expId","subject","prolificID","trialType","rlType","attType","stimulus","key_press","stim","corrresp","phase","corr","pracCounter","trialNum","rewardOne","rewardTwo","reward","bandOne","bandTwo","attentionNum","attentionRunNum","blockNum","performance","bandChosen","circleVal","squareVal","bandOneVal","bandTwoVal","shapeChosen","rlNum","badFlag"
"8295.20000000298","8299","SARL_v6","SARL_v6vlnzfwvk","5f579cc797c3ee2607f6e344","","","","","","","","","","","","","","","","","","","","","","","","","","","",""
"","11702","SARL_v6","SARL_v6vlnzfwvk","5f579cc797c3ee2607f6e344","fullscreen","fullscreen","fullscreen","","","","","","","","","","","","","","","","","","","","","","","","",""
"42956.30000001192","54661","SARL_v6","SARL_v6vlnzfwvk","5f579cc797c3ee2607f6e344","","","","","","","","","","","","","","","","","","","","","","","","","","","",""
"604.5","55269","SARL_v6","SARL_v6vlnzfwvk","5f579cc797c3ee2607f6e344","freqPrac","","","img/orange_2bandit_b2.png","70","img/orange_2bandit_b2.png","70","prac","1","0","","","","","","","","","","","","","","","","","",""
"604.5","55484","SARL_v6","SARL_v6vlnzfwvk","5f579cc797c3ee2607f6e344","freqPrac_resp","","","img/orange_2bandit_b.png","70","img/orange_2bandit_b.png","70","prac","","","","","","","","","","","","","","","","","","","",""
"null","55640","SARL_v6","SARL_v6vlnzfwvk","5f579cc797c3ee2607f6e344","fixation","","","img/fixation.png","null","","","prac","","","","","","","","","","","","","","","","","","","",""
"447","56090","SARL_v6","SARL_v6vlnzfwvk","5f579cc797c3ee2607f6e344","infreqPrac","","","img/blue_2bandit_b2.png","68","img/blue_2bandit_b2.png","68","prac","1","0","","","","","","","","","","","","","","","","","",""
"447","56452","SARL_v6","SARL_v6vlnzfwvk","5f579cc797c3ee2607f6e344","infreqPrac_resp","","","img/blue_2bandit_b.png","68","img/blue_2bandit_b.png","68","prac","","","","","","","","","","","","","","","","","","","",""
"null","56609","SARL_v6","SARL_v6vlnzfwvk","5f579cc797c3ee2607f6e344","fixation","","","img/fixation.png","null","","","prac","","","","","","","","","","","","","","","","","","","",""
"226.5","56839","SARL_v6","SARL_v6vlnzfwvk","5f579cc797c3ee2607f6e344","freqPrac","","","img/orange_2bandit_b2.png","70","img/orange_2bandit_b2.png","70","prac","1","0","","","","","","","","","","","","","","","","","",""
"226.5","57436","SARL_v6","SARL_v6vlnzfwvk","5f579cc797c3ee2607f6e344","freqPrac_resp","","","img/orange_2bandit_b.png","70","img/orange_2bandit_b.png","70","prac","","","","","","","","","","","","","","","","","","","",""
"null","57590","SARL_v6","SARL_v6vlnzfwvk","5f579cc797c3ee2607f6e344","fixation","","","img/fixation.png","null","","","prac","","","","","","","","","","","","","","","","","","","",""
"322","57915","SARL_v6","SARL_v6vlnzfwvk","5f579cc797c3ee2607f6e344","infreqPrac","","","img/blue_2bandit_b2.png","68","img/blue_2bandit_b2.png","68","prac","1","0","","","","","","","","","","","","","","","","","",""
"322","58421","SARL_v6","SARL_v6vlnzfwvk","5f579cc797c3ee2607f6e344","infreqPrac_resp","","","img/blue_2bandit_b.png","68","img/blue_2bandit_b.png","68","prac","","","","","","","","","","","","","","","","","","","",""
"null","58576","SARL_v6","SARL_v6vlnzfwvk","5f579cc797c3ee2607f6e344","fixation","","","img/fixation.png","null","","","prac","","","","","","","","","","","","","","","","","","","",""
"297.09999999403954","58876","SARL_v6","SARL_v6vlnzfwvk","5f579cc797c3ee2607f6e344","infreqPrac","","","img/blue_2bandit_b2.png","70","img/blue_2bandit_b2.png","68","prac","0","1","","","","","","","","","","","","","","","","","",""
"297.09999999403954","59390","SARL_v6","SARL_v6vlnzfwvk","5f579cc797c3ee2607f6e344","infreqPrac_resp","","","img/blue_2bandit_b.png","70","img/blue_2bandit_b.png","68","prac","","","","","","","","","","","","","","","","","","","",""
"null","60405","SARL_v6","SARL_v6vlnzfwvk","5f579cc797c3ee2607f6e344","feedback","","","img/wrongKey.png","null","","na","prac","","","","","","","","","","","","","","","","","","","",""
"null","60573","SARL_v6","SARL_v6vlnzfwvk","5f579cc797c3ee2607f6e344","fixation","","","img/fixation.png","null","","","prac","","","","","","","","","","","","","","","","","","","",""
"498","61074","SARL_v6","SARL_v6vlnzfwvk","5f579cc797c3ee2607f6e344","infreqPrac","","","img/blue_2bandit_b2.png","68","img/blue_2bandit_b2.png","68","prac","1","1","","","","","","","","","","","","","","","","","",""
"498","61390","SARL_v6","SARL_v6vlnzfwvk","5f579cc797c3ee2607f6e344","infreqPrac_resp","","","img/blue_2bandit_b.png","68","img/blue_2bandit_b.png","68","prac","","","","","","","","","","","","","","","","","","","",""
"null","61546","SARL_v6","SARL_v6vlnzfwvk","5f579cc797c3ee2607f6e344","fixation","","","img/fixation.png","null","","","prac","","","","","","","","","","","","","","","","","","","",""
"568.9000000059605","62118","SARL_v6","SARL_v6vlnzfwvk","5f579cc797c3ee2607f6e344","freqPrac","","","img/orange_2bandit_b2.png","70","img/orange_2bandit_b2.png","70","prac","1","1","","","","","","","","","","","","","","","","","",""
"568.9000000059605","62358","SARL_v6","SARL_v6vlnzfwvk","5f579cc797c3ee2607f6e344","freqPrac_resp","","","img/orange_2bandit_b.png","70","img/orange_2bandit_b.png","70","prac","","","","","","","","","","","","","","","","","","","",""
"null","62514","SARL_v6","SARL_v6vlnzfwvk","5f579cc797c3ee2607f6e344","fixation","","","img/fixation.png","null","","","prac","","","","","","","","","","","","","","","","","","","",""
"335.70000000298023","62853","SARL_v6","SARL_v6vlnzfwvk","5f579cc797c3ee2607f6e344","infreqPrac","","","img/blue_2bandit_b2.png","68","img/blue_2bandit_b2.png","68","prac","1","1","","","","","","","","","","","","","","","","","",""
"335.70000000298023","63327","SARL_v6","SARL_v6vlnzfwvk","5f579cc797c3ee2607f6e344","infreqPrac_resp","","","img/blue_2bandit_b.png","68","img/blue_2bandit_b.png","68","prac","","","","","","","","","","","","","","","","","","","",""
"null","63483","SARL_v6","SARL_v6vlnzfwvk","5f579cc797c3ee2607f6e344","fixation","","","img/fixation.png","null","","","prac","","","","","","","","","","","","","","","","","","","",""
"311.40000000596046","63797","SARL_v6","SARL_v6vlnzfwvk","5f579cc797c3ee2607f6e344","freqPrac","","","img/orange_2bandit_b2.png","70","img/orange_2bandit_b2.png","70","prac","1","1","","","","","","","","","","","","","","","","","",""
"311.40000000596046","64311","SARL_v6","SARL_v6vlnzfwvk","5f579cc797c3ee2607f6e344","freqPrac_resp","","","img/orange_2bandit_b.png","70","img/orange_2bandit_b.png","70","prac","","","","","","","","","","","","","","","","","","","",""
"null","64468","SARL_v6","SARL_v6vlnzfwvk","5f579cc797c3ee2607f6e344","fixation","","","img/fixation.png","null","","","prac","","","","","","","","","","","","","","","","","","","",""
"472.90000000596046","64944","SARL_v6","SARL_v6vlnzfwvk","5f579cc797c3ee2607f6e344","freqPrac","","","img/orange_2bandit_b2.png","70","img/orange_2bandit_b2.png","70","prac","1","1","","","","","","","","","","","","","","","","","",""
"472.90000000596046","65279","SARL_v6","SARL_v6vlnzfwvk","5f579cc797c3ee2607f6e344","freqPrac_resp","","","img/orange_2bandit_b.png","70","img/orange_2bandit_b.png","70","prac","","","","","","","","","","","","","","","","","","","",""
"null","65436","SARL_v6","SARL_v6vlnzfwvk","5f579cc797c3ee2607f6e344","fixation","","","img/fixation.png","null","","","prac","","","","","","","","","","","","","","","","","","","",""
"32319","97759","SARL_v6","SARL_v6vlnzfwvk","5f579cc797c3ee2607f6e344","","","","","","","","prac","","","","","","","","","","","","","","","","","","","",""
"731.2999999970198","98493","SARL_v6","SARL_v6vlnzfwvk","5f579cc797c3ee2607f6e344","rlPractice","","","img/black_2bandit_b2.png","75","img/black_2bandit_b2.png","","prac","","","0","","","","","","","","","","","","","","","","",""
"null","99248","SARL_v6","SARL_v6vlnzfwvk","5f579cc797c3ee2607f6e344","feedback","","","<div class=""verylowPoints_sq""> -14 </div>","null","","na","prac","","","1","10","-14","10","","","","","","","","","","","","","",""
"null","99402","SARL_v6","SARL_v6vlnzfwvk","5f579cc797c3ee2607f6e344","fixation","","","img/fixation.png","null","","","prac","","","","","","","","","","","","","","","","","","","",""
"268.59999999403954","99672","SARL_v6","SARL_v6vlnzfwvk","5f579cc797c3ee2607f6e344","rlPractice","","","img/black_2bandit_b2.png","74","img/black_2bandit_b2.png","","prac","","","1","","","","","","","","","","","","","","","","",""
"null","100437","SARL_v6","SARL_v6vlnzfwvk","5f579cc797c3ee2607f6e344","feedback","","","<div class=""veryhighPoints""> 5 </div>","null","","na","prac","","","2","5","-5","5","","","","","","","","","","","","","",""
"null","100593","SARL_v6","SARL_v6vlnzfwvk","5f579cc797c3ee2607f6e344","fixation","","","img/fixation.png","null","","","prac","","","","","","","","","","","","","","","","","","","",""
"225.29999999701977","100821","SARL_v6","SARL_v6vlnzfwvk","5f579cc797c3ee2607f6e344","rlPractice","","","img/black_2bandit_b2.png","74","img/black_2bandit_b2.png","","prac","","","2","","","","","","","","","","","","","","","","",""
"null","101577","SARL_v6","SARL_v6vlnzfwvk","5f579cc797c3ee2607f6e344","feedback","","","<div class=""veryhighPoints""> 30 </div>","null","","na","prac","","","3","30","2","30","","","","","","","","","","","","","",""
"null","101733","SARL_v6","SARL_v6vlnzfwvk","5f579cc797c3ee2607f6e344","fixation","","","img/fixation.png","null","","","prac","","","","","","","","","","","","","","","","","","","",""
"233.09999999403954","101969","SARL_v6","SARL_v6vlnzfwvk","5f579cc797c3ee2607f6e344","rlPractice","","","img/black_2bandit_b2.png","74","img/black_2bandit_b2.png","","prac","","","3","","","","","","","","","","","","","","","","",""
"null","102734","SARL_v6","SARL_v6vlnzfwvk","5f579cc797c3ee2607f6e344","feedback","","","<div class=""verylowPoints""> -2 </div>","null","","na","prac","","","4","-2","20","-2","","","","","","","","","","","","","",""
"null","102899","SARL_v6","SARL_v6vlnzfwvk","5f579cc797c3ee2607f6e344","fixation","","","img/fixation.png","null","","","prac","","","","","","","","","","","","","","","","","","","",""
"8694.300000011921","111596","SARL_v6","SARL_v6vlnzfwvk","5f579cc797c3ee2607f6e344","","","","","","","","prac","","","","","","","","","","","","","","","","","","","",""
"430.8999999910593","112030","SARL_v6","SARL_v6vlnzfwvk","5f579cc797c3ee2607f6e344","mixAttFreqPrac","","","img/orange_2bandit_b2.png","70","img/orange_2bandit_b2.png","70","prac","","","1","","","","","","","","","","","","","","","","",""
"430.8999999910593","112407","SARL_v6","SARL_v6vlnzfwvk","5f579cc797c3ee2607f6e344","freqPrac_resp","","","img/orange_2bandit_b.png","70","img/orange_2bandit_b.png","70","prac","","","1","","","","","","","","","","","","","","","","",""
"null","112573","SARL_v6","SARL_v6vlnzfwvk","5f579cc797c3ee2607f6e344","fixation","","","img/fixation.png","null","","","prac","","","","","","","","","","","","","","","","","","","",""
"450.09999999403954","113026","SARL_v6","SARL_v6vlnzfwvk","5f579cc797c3ee2607f6e344","mixAttInfreqPrac","","","img/blue_2bandit_b2.png","68","img/blue_2bandit_b2.png","68","prac","","","2","","","","","","","","","","","","","","","","",""
"450.09999999403954","113389","SARL_v6","SARL_v6vlnzfwvk","5f579cc797c3ee2607f6e344","infreqPrac_resp","","","img/blue_2bandit_b.png","68","img/orange_2bandit_b.png","68","prac","","","2","","","","","","","","","","","","","","","","",""
"null","113545","SARL_v6","SARL_v6vlnzfwvk","5f579cc797c3ee2607f6e344","fixation","","","img/fixation.png","null","","","prac","","","","","","","","","","","","","","","","","","","",""
"460.1000000089407","114009","SARL_v6","SARL_v6vlnzfwvk","5f579cc797c3ee2607f6e344","mixAttInfreqPrac","","","img/blue_2bandit_b2.png","68","img/blue_2bandit_b2.png","68","prac","","","3","","","","","","","","","","","","","","","","",""
"460.1000000089407","114359","SARL_v6","SARL_v6vlnzfwvk","5f579cc797c3ee2607f6e344","infreqPrac_resp","","","img/blue_2bandit_b.png","68","img/orange_2bandit_b.png","68","prac","","","3","","","","","","","","","","","","","","","","",""
"null","114522","SARL_v6","SARL_v6vlnzfwvk","5f579cc797c3ee2607f6e344","fixation","","","img/fixation.png","null","","","prac","","","","","","","","","","","","","","","","","","","",""
"null","115327","SARL_v6","SARL_v6vlnzfwvk","5f579cc797c3ee2607f6e344","mixAttInfreqPrac","","","img/blue_2bandit_b2.png","null","img/blue_2bandit_b2.png","68","prac","","","4","","","","","","","","","","","","","","","","",""
"121.70000000298023","115493","SARL_v6","SARL_v6vlnzfwvk","5f579cc797c3ee2607f6e344","fixation","","","img/fixation.png","70","","","prac","","","","","","","","","","","","","","","","","","","",""
"607","116103","SARL_v6","SARL_v6vlnzfwvk","5f579cc797c3ee2607f6e344","mixAttFreqPrac","","","img/orange_2bandit_b2.png","70","img/orange_2bandit_b2.png","70","prac","","","5","","","","","","","","","","","","","","","","",""
"607","116312","SARL_v6","SARL_v6vlnzfwvk","5f579cc797c3ee2607f6e344","freqPrac_resp","","","img/orange_2bandit_b.png","70","img/orange_2bandit_b.png","70","prac","","","5","","","","","","","","","","","","","","","","",""
"null","116468","SARL_v6","SARL_v6vlnzfwvk","5f579cc797c3ee2607f6e344","fixation","","","img/fixation.png","null","","","prac","","","","","","","","","","","","","","","","","","","",""
"602.5","117073","SARL_v6","SARL_v6vlnzfwvk","5f579cc797c3ee2607f6e344","mixRLPractice","","","img/black_2bandit_b2.png","74","img/black_2bandit_b2.png","","prac","","","5","","","","","","","","","","","","","","","","",""
"null","117843","SARL_v6","SARL_v6vlnzfwvk","5f579cc797c3ee2607f6e344","feedback","","","<div class=""verylowPoints""> -14 </div>","null","","na","prac","","","6","-14","10","-14","","","","","","","","","","","","","",""
"null","118000","SARL_v6","SARL_v6vlnzfwvk","5f579cc797c3ee2607f6e344","fixation","","","img/fixation.png","null","","","prac","","","","","","","","","","","","","","","","","","","",""
"null","118811","SARL_v6","SARL_v6vlnzfwvk","5f579cc797c3ee2607f6e344","mixAttFreqPrac","","","img/orange_2bandit_b2.png","null","img/orange_2bandit_b2.png","70","prac","","","7","","","","","","","","","","","","","","","","",""
"null","118966","SARL_v6","SARL_v6vlnzfwvk","5f579cc797c3ee2607f6e344","fixation","","","img/fixation.png","null","","","prac","","","","","","","","","","","","","","","","","","","",""
"null","119780","SARL_v6","SARL_v6vlnzfwvk","5f579cc797c3ee2607f6e344","mixAttInfreqPrac","","","img/blue_2bandit_b2.png","null","img/blue_2bandit_b2.png","68","prac","","","8","","","","","","","","","","","","","","","","",""
"102.29999999701977","119933","SARL_v6","SARL_v6vlnzfwvk","5f579cc797c3ee2607f6e344","fixation","","","img/fixation.png","68","","","prac","","","","","","","","","","","","","","","","","","","",""
"548.5999999940395","120484","SARL_v6","SARL_v6vlnzfwvk","5f579cc797c3ee2607f6e344","mixAttFreqPrac","","","img/orange_2bandit_b2.png","70","img/orange_2bandit_b2.png","70","prac","","","9","","","","","","","","","","","","","","","","",""
"548.5999999940395","120749","SARL_v6","SARL_v6vlnzfwvk","5f579cc797c3ee2607f6e344","freqPrac_resp","","","img/orange_2bandit_b.png","70","img/orange_2bandit_b.png","70","prac","","","9","","","","","","","","","","","","","","","","",""
"null","120920","SARL_v6","SARL_v6vlnzfwvk","5f579cc797c3ee2607f6e344","fixation","","","img/fixation.png","null","","","prac","","","","","","","","","","","","","","","","","","","",""
"281.5","121205","SARL_v6","SARL_v6vlnzfwvk","5f579cc797c3ee2607f6e344","mixAttFreqPrac","","","img/orange_2bandit_b2.png","68","img/orange_2bandit_b2.png","70","prac","","","10","","","","","","","","","","","","","","","","",""
"281.5","121735","SARL_v6","SARL_v6vlnzfwvk","5f579cc797c3ee2607f6e344","freqPrac_resp","","","img/orange_2bandit_b.png","68","img/orange_2bandit_b.png","70","prac","","","10","","","","","","","","","","","","","","","","",""
"null","121898","SARL_v6","SARL_v6vlnzfwvk","5f579cc797c3ee2607f6e344","fixation","","","img/fixation.png","null","","","prac","","","","","","","","","","","","","","","","","","","",""
"343.80000001192093","122245","SARL_v6","SARL_v6vlnzfwvk","5f579cc797c3ee2607f6e344","mixAttInfreqPrac","","","img/blue_2bandit_b2.png","68","img/blue_2bandit_b2.png","68","prac","","","11","","","","","","","","","","","","","","","","",""
"343.80000001192093","122718","SARL_v6","SARL_v6vlnzfwvk","5f579cc797c3ee2607f6e344","infreqPrac_resp","","","img/blue_2bandit_b.png","68","img/orange_2bandit_b.png","68","prac","","","11","","","","","","","","","","","","","","","","",""
"null","122873","SARL_v6","SARL_v6vlnzfwvk","5f579cc797c3ee2607f6e344","fixation","","","img/fixation.png","null","","","prac","","","","","","","","","","","","","","","","","","","",""
"1025.2000000029802","123901","SARL_v6","SARL_v6vlnzfwvk","5f579cc797c3ee2607f6e344","mixRLPractice","","","img/black_2bandit_b2.png","75","img/black_2bandit_b2.png","","prac","","","11","","","","","","","","","","","","","","","","",""
"null","124655","SARL_v6","SARL_v6vlnzfwvk","5f579cc797c3ee2607f6e344","feedback","","","<div class=""verylowPoints_sq""> -5 </div>","null","","na","prac","","","12","5","-5","5","","","","","","","","","","","","","",""
"null","124811","SARL_v6","SARL_v6vlnzfwvk","5f579cc797c3ee2607f6e344","fixation","","","img/fixation.png","null","","","prac","","","","","","","","","","","","","","","","","","","",""
"9178.79999999702","133992","SARL_v6","SARL_v6vlnzfwvk","5f579cc797c3ee2607f6e344","","","","","","","","prac","","","","","","","","","","","","","","","","","","","",""
"491.1000000089407","134486","SARL_v6","SARL_v6vlnzfwvk","5f579cc797c3ee2607f6e344","freq","","","img/orange_2bandit_b2.png","70","","70","test","1","","1","","","","circle","square","1","1","1","1","","","","","","","",""
"null","134811","SARL_v6","SARL_v6vlnzfwvk","5f579cc797c3ee2607f6e344","freq_resp","","","img/orange_2bandit_b.png","70","img/orange_2bandit_b.png","70","test","","","","","","","","","","","1","","","","","","","","",""
"null","134967","SARL_v6","SARL_v6vlnzfwvk","5f579cc797c3ee2607f6e344","fixation","","","img/fixation.png","null","","","test","","","","","","","","","","","","","","","","","","","",""
"341.19999998807907","135311","SARL_v6","SARL_v6vlnzfwvk","5f579cc797c3ee2607f6e344","freq","","","img/orange_2bandit_b2.png","70","","70","test","1","","2","","","","circle","square","2","2","1","1","","","","","","","",""
"null","135780","SARL_v6","SARL_v6vlnzfwvk","5f579cc797c3ee2607f6e344","freq_resp","","","img/orange_2bandit_b.png","70","img/orange_2bandit_b.png","70","test","","","","","","","","","","","1","","","","","","","","",""
"null","135936","SARL_v6","SARL_v6vlnzfwvk","5f579cc797c3ee2607f6e344","fixation","","","img/fixation.png","null","","","test","","","","","","","","","","","","","","","","","","","",""
"341.29999999701977","136281","SARL_v6","SARL_v6vlnzfwvk","5f579cc797c3ee2607f6e344","freq","","","img/orange_2bandit_b2.png","70","","70","test","1","","3","","","","circle","square","3","3","1","1","","","","","","","",""
"null","136749","SARL_v6","SARL_v6vlnzfwvk","5f579cc797c3ee2607f6e344","freq_resp","","","img/orange_2bandit_b.png","70","img/orange_2bandit_b.png","70","test","","","","","","","","","","","1","","","","","","","","",""
"null","136921","SARL_v6","SARL_v6vlnzfwvk","5f579cc797c3ee2607f6e344","fixation","","","img/fixation.png","null","","","test","","","","","","","","","","","","","","","","","","","",""
"329.69999998807907","137254","SARL_v6","SARL_v6vlnzfwvk","5f579cc797c3ee2607f6e344","freq","","","img/orange_2bandit_b2.png","70","","70","test","1","","4","","","","circle","square","4","4","1","1","","","","","","","",""
"null","137733","SARL_v6","SARL_v6vlnzfwvk","5f579cc797c3ee2607f6e344","freq_resp","","","img/orange_2bandit_b.png","70","img/orange_2bandit_b.png","70","test","","","","","","","","","","","1","","","","","","","","",""
"null","137890","SARL_v6","SARL_v6vlnzfwvk","5f579cc797c3ee2607f6e344","fixation","","","img/fixation.png","null","","","test","","","","","","","","","","","","","","","","","","","",""
"255.79999999701977","138148","SARL_v6","SARL_v6vlnzfwvk","5f579cc797c3ee2607f6e344","freq","","","img/orange_2bandit_b2.png","70","","70","test","1","","5","","","","circle","square","5","5","1","1","","","","","","","",""
"null","138702","SARL_v6","SARL_v6vlnzfwvk","5f579cc797c3ee2607f6e344","freq_resp","","","img/orange_2bandit_b.png","70","img/orange_2bandit_b.png","70","test","","","","","","","","","","","1","","","","","","","","",""
"null","138859","SARL_v6","SARL_v6vlnzfwvk","5f579cc797c3ee2607f6e344","fixation","","","img/fixation.png","null","","","test","","","","","","","","","","","","","","","","","","","",""
"248.20000000298023","139110","SARL_v6","SARL_v6vlnzfwvk","5f579cc797c3ee2607f6e344","freq","","","img/orange_2bandit_b2.png","70","","70","test","1","","6","","","","circle","square","6","6","1","1","","","","","","","",""
"null","139671","SARL_v6","SARL_v6vlnzfwvk","5f579cc797c3ee2607f6e344","freq_resp","","","img/orange_2bandit_b.png","70","img/orange_2bandit_b.png","70","test","","","","","","","","","","","1","","","","","","","","",""
"null","139824","SARL_v6","SARL_v6vlnzfwvk","5f579cc797c3ee2607f6e344","fixation","","","img/fixation.png","null","","","test","","","","","","","","","","","","","","","","","","","",""
"221.79999999701977","140049","SARL_v6","SARL_v6vlnzfwvk","5f579cc797c3ee2607f6e344","freq","","","img/orange_2bandit_b2.png","70","","70","test","1","","7","","","","circle","square","7","7","1","1","","","","","","","",""
"null","140640","SARL_v6","SARL_v6vlnzfwvk","5f579cc797c3ee2607f6e344","freq_resp","","","img/orange_2bandit_b.png","70","img/orange_2bandit_b.png","70","test","","","","","","","","","","","1","","","","","","","","",""
"null","140794","SARL_v6","SARL_v6vlnzfwvk","5f579cc797c3ee2607f6e344","fixation","","","img/fixation.png","null","","","test","","","","","","","","","","","","","","","","","","","",""
"142.09999999403954","140939","SARL_v6","SARL_v6vlnzfwvk","5f579cc797c3ee2607f6e344","infreq","","","img/blue_2bandit_b2.png","70","","68","test","0","","8","","","","circle","square","8","8","1","0.875","","","","","","","",""
"null","141608","SARL_v6","SARL_v6vlnzfwvk","5f579cc797c3ee2607f6e344","infreq_resp","","","img/blue_2bandit_b.png","70","img/blue_2bandit_b.png","68","test","","","","","","","","","","","1","","","","","","","","",""
"null","141762","SARL_v6","SARL_v6vlnzfwvk","5f579cc797c3ee2607f6e344","fixation","","","img/fixation.png","null","","","test","","","","","","","","","","","","","","","","","","","",""
"445.3999999910593","142210","SARL_v6","SARL_v6vlnzfwvk","5f579cc797c3ee2607f6e344","freq","","","img/orange_2bandit_b2.png","70","","70","test","1","","9","","","","circle","square","9","9","1","0.8888888888888888","","","","","","","",""
"null","142576","SARL_v6","SARL_v6vlnzfwvk","5f579cc797c3ee2607f6e344","freq_resp","","","img/orange_2bandit_b.png","70","img/orange_2bandit_b.png","70","test","","","","","","","","","","","1","","","","","","","","",""
"null","142743","SARL_v6","SARL_v6vlnzfwvk","5f579cc797c3ee2607f6e344","fixation","","","img/fixation.png","null","","","test","","","","","","","","","","","","","","","","","","","",""
"375.90000000596046","143122","SARL_v6","SARL_v6vlnzfwvk","5f579cc797c3ee2607f6e344","freq","","","img/orange_2bandit_b2.png","70","","70","test","1","","10","","","","circle","square","10","10","1","0.9","","","","","","","",""
"null","143561","SARL_v6","SARL_v6vlnzfwvk","5f579cc797c3ee2607f6e344","freq_resp","","","img/orange_2bandit_b.png","70","img/orange_2bandit_b.png","70","test","","","","","","","","","","","1","","","","","","","","",""
"null","143717","SARL_v6","SARL_v6vlnzfwvk","5f579cc797c3ee2607f6e344","fixation","","","img/fixation.png","null","","","test","","","","","","","","","","","","","","","","","","","",""
"309.09999999403954","144030","SARL_v6","SARL_v6vlnzfwvk","5f579cc797c3ee2607f6e344","freq","","","img/orange_2bandit_b2.png","70","","70","test","1","","11","","","","circle","square","11","11","1","0.9090909090909091","","","","","","","",""
"null","144531","SARL_v6","SARL_v6vlnzfwvk","5f579cc797c3ee2607f6e344","freq_resp","","","img/orange_2bandit_b.png","70","img/orange_2bandit_b.png","70","test","","","","","","","","","","","1","","","","","","","","",""
"null","144686","SARL_v6","SARL_v6vlnzfwvk","5f579cc797c3ee2607f6e344","fixation","","","img/fixation.png","null","","","test","","","","","","","","","","","","","","","","","","","",""
"326.59999999403954","145016","SARL_v6","SARL_v6vlnzfwvk","5f579cc797c3ee2607f6e344","freq","","","img/orange_2bandit_b2.png","70","","70","test","1","","12","","","","circle","square","12","12","1","0.9166666666666666","","","","","","","",""
"null","145499","SARL_v6","SARL_v6vlnzfwvk","5f579cc797c3ee2607f6e344","freq_resp","","","img/orange_2bandit_b.png","70","img/orange_2bandit_b.png","70","test","","","","","","","","","","","1","","","","","","","","",""
"null","145655","SARL_v6","SARL_v6vlnzfwvk","5f579cc797c3ee2607f6e344","fixation","","","img/fixation.png","null","","","test","","","","","","","","","","","","","","","","","","","",""
"321.29999999701977","145979","SARL_v6","SARL_v6vlnzfwvk","5f579cc797c3ee2607f6e344","freq","","","img/orange_2bandit_b2.png","70","","70","test","1","","13","","","","circle","square","13","13","1","0.9230769230769231","","","","","","","",""
"null","146468","SARL_v6","SARL_v6vlnzfwvk","5f579cc797c3ee2607f6e344","freq_resp","","","img/orange_2bandit_b.png","70","img/orange_2bandit_b.png","70","test","","","","","","","","","","","1","","","","","","","","",""
"null","146623","SARL_v6","SARL_v6vlnzfwvk","5f579cc797c3ee2607f6e344","fixation","","","img/fixation.png","null","","","test","","","","","","","","","","","","","","","","","","","",""
"459.29999999701977","147085","SARL_v6","SARL_v6vlnzfwvk","5f579cc797c3ee2607f6e344","freq","","","img/orange_2bandit_b2.png","70","","70","test","1","","14","","","","circle","square","14","14","1","0.9285714285714286","","","","","","","",""
"null","147436","SARL_v6","SARL_v6vlnzfwvk","5f579cc797c3ee2607f6e344","freq_resp","","","img/orange_2bandit_b.png","70","img/orange_2bandit_b.png","70","test","","","","","","","","","","","1","","","","","","","","",""
"null","147608","SARL_v6","SARL_v6vlnzfwvk","5f579cc797c3ee2607f6e344","fixation","","","img/fixation.png","null","","","test","","","","","","","","","","","","","","","","","","","",""
"279.20000000298023","147890","SARL_v6","SARL_v6vlnzfwvk","5f579cc797c3ee2607f6e344","infreq","","","img/blue_2bandit_b2.png","70","","68","test","0","","15","","","","circle","square","15","15","1","0.8666666666666667","","","","","","","",""
"null","148422","SARL_v6","SARL_v6vlnzfwvk","5f579cc797c3ee2607f6e344","infreq_resp","","","img/blue_2bandit_b.png","70","img/blue_2bandit_b.png","68","test","","","","","","","","","","","1","","","","","","","","",""
"null","148588","SARL_v6","SARL_v6vlnzfwvk","5f579cc797c3ee2607f6e344","fixation","","","img/fixation.png","null","","","test","","","","","","","","","","","","","","","","","","","",""
"517.1000000089407","149108","SARL_v6","SARL_v6vlnzfwvk","5f579cc797c3ee2607f6e344","freq","","","img/orange_2bandit_b2.png","70","","70","test","1","","16","","","","circle","square","16","16","1","0.875","","","","","","","",""
"null","149406","SARL_v6","SARL_v6vlnzfwvk","5f579cc797c3ee2607f6e344","freq_resp","","","img/orange_2bandit_b.png","70","img/orange_2bandit_b.png","70","test","","","","","","","","","","","1","","","","","","","","",""
"null","149559","SARL_v6","SARL_v6vlnzfwvk","5f579cc797c3ee2607f6e344","fixation","","","img/fixation.png","null","","","test","","","","","","","","","","","","","","","","","","","",""
"565.7000000029802","150128","SARL_v6","SARL_v6vlnzfwvk","5f579cc797c3ee2607f6e344","freq","","","img/orange_2bandit_b2.png","70","","70","test","1","","17","","","","circle","square","17","17","1","0.8823529411764706","","","","","","","",""
"null","150390","SARL_v6","SARL_v6vlnzfwvk","5f579cc797c3ee2607f6e344","freq_resp","","","img/orange_2bandit_b.png","70","img/orange_2bandit_b.png","70","test","","","","","","","","","","","1","","","","","","","","",""
"null","150553","SARL_v6","SARL_v6vlnzfwvk","5f579cc797c3ee2607f6e344","fixation","","","img/fixation.png","null","","","test","","","","","","","","","","","","","","","","","","","",""
"629.2000000029802","151186","SARL_v6","SARL_v6vlnzfwvk","5f579cc797c3ee2607f6e344","freq","","","img/orange_2bandit_b2.png","70","","70","test","1","","18","","","","circle","square","18","18","1","0.8888888888888888","","","","","","","",""
"null","151368","SARL_v6","SARL_v6vlnzfwvk","5f579cc797c3ee2607f6e344","freq_resp","","","img/orange_2bandit_b.png","70","img/orange_2bandit_b.png","70","test","","","","","","","","","","","1","","","","","","","","",""
"null","151532","SARL_v6","SARL_v6vlnzfwvk","5f579cc797c3ee2607f6e344","fixation","","","img/fixation.png","null","","","test","","","","","","","","","","","","","","","","","","","",""
"366.09999999403954","151901","SARL_v6","SARL_v6vlnzfwvk","5f579cc797c3ee2607f6e344","freq","","","img/orange_2bandit_b2.png","70","","70","test","1","","19","","","","circle","square","19","19","1","0.8947368421052632","","","","","","","",""
"null","152343","SARL_v6","SARL_v6vlnzfwvk","5f579cc797c3ee2607f6e344","freq_resp","","","img/orange_2bandit_b.png","70","img/orange_2bandit_b.png","70","test","","","","","","","","","","","1","","","","","","","","",""
"null","152499","SARL_v6","SARL_v6vlnzfwvk","5f579cc797c3ee2607f6e344","fixation","","","img/fixation.png","null","","","test","","","","","","","","","","","","","","","","","","","",""
"316.79999999701977","152819","SARL_v6","SARL_v6vlnzfwvk","5f579cc797c3ee2607f6e344","freq","","","img/orange_2bandit_b2.png","70","","70","test","1","","20","","","","circle","square","20","20","1","0.9","","","","","","","",""
"null","153312","SARL_v6","SARL_v6vlnzfwvk","5f579cc797c3ee2607f6e344","freq_resp","","","img/orange_2bandit_b.png","70","img/orange_2bandit_b.png","70","test","","","","","","","","","","","1","","","","","","","","",""
"null","153466","SARL_v6","SARL_v6vlnzfwvk","5f579cc797c3ee2607f6e344","fixation","","","img/fixation.png","null","","","test","","","","","","","","","","","","","","","","","","","",""
"290.90000000596046","153760","SARL_v6","SARL_v6vlnzfwvk","5f579cc797c3ee2607f6e344","freq","","","img/orange_2bandit_b2.png","70","","70","test","1","","21","","","","circle","square","21","21","1","0.9047619047619048","","","","","","","",""
"null","154296","SARL_v6","SARL_v6vlnzfwvk","5f579cc797c3ee2607f6e344","freq_resp","","","img/orange_2bandit_b.png","70","img/orange_2bandit_b.png","70","test","","","","","","","","","","","1","","","","","","","","",""
"null","154464","SARL_v6","SARL_v6vlnzfwvk","5f579cc797c3ee2607f6e344","fixation","","","img/fixation.png","null","","","test","","","","","","","","","","","","","","","","","","","",""
"195","154662","SARL_v6","SARL_v6vlnzfwvk","5f579cc797c3ee2607f6e344","freq","","","img/orange_2bandit_b2.png","70","","70","test","1","","22","","","","circle","square","22","22","1","0.9090909090909091","","","","","","","",""
"null","155280","SARL_v6","SARL_v6vlnzfwvk","5f579cc797c3ee2607f6e344","freq_resp","","","img/orange_2bandit_b.png","70","img/orange_2bandit_b.png","70","test","","","","","","","","","","","1","","","","","","","","",""
"null","155445","SARL_v6","SARL_v6vlnzfwvk","5f579cc797c3ee2607f6e344","fixation","","","img/fixation.png","null","","","test","","","","","","","","","","","","","","","","","","","",""
"775.9000000059605","156224","SARL_v6","SARL_v6vlnzfwvk","5f579cc797c3ee2607f6e344","rl","","","img/black_2bandit_b2.png","75","","0","test","","","23","","","-3","circle","square","","0","1","","75","-3","-3","-3","-3","square","1","0"
"null","156983","SARL_v6","SARL_v6vlnzfwvk","5f579cc797c3ee2607f6e344","feedback","","","<div class=""verylowPoints_sq""> -3 </div>","null","","na","test","","","NaN","","","","","","","","1","","75","","","","","","1",""
"762","157749","SARL_v6","SARL_v6vlnzfwvk","5f579cc797c3ee2607f6e344","freq","","","img/orange_2bandit_b2.png","70","","70","test","1","","24","","","","circle","square","23","1","2","0.9130434782608695","","","","","","","",""
"null","157802","SARL_v6","SARL_v6vlnzfwvk","5f579cc797c3ee2607f6e344","freq_resp","","","img/orange_2bandit_b.png","70","img/orange_2bandit_b.png","70","test","","","","","","","","","","","2","","","","","","","","",""
"null","157962","SARL_v6","SARL_v6vlnzfwvk","5f579cc797c3ee2607f6e344","fixation","","","img/fixation.png","null","","","test","","","","","","","","","","","","","","","","","","","",""
"498.79999999701977","158464","SARL_v6","SARL_v6vlnzfwvk","5f579cc797c3ee2607f6e344","freq","","","img/orange_2bandit_b2.png","70","","70","test","1","","25","","","","circle","square","24","2","2","0.9166666666666666","","","","","","","",""
"null","158781","SARL_v6","SARL_v6vlnzfwvk","5f579cc797c3ee2607f6e344","freq_resp","","","img/orange_2bandit_b.png","70","img/orange_2bandit_b.png","70","test","","","","","","","","","","","2","","","","","","","","",""
"null","158936","SARL_v6","SARL_v6vlnzfwvk","5f579cc797c3ee2607f6e344","fixation","","","img/fixation.png","null","","","test","","","","","","","","","","","","","","","","","","","",""
"370.1000000089407","159309","SARL_v6","SARL_v6vlnzfwvk","5f579cc797c3ee2607f6e344","freq","","","img/orange_2bandit_b2.png","70","","70","test","1","","26","","","","circle","square","25","3","2","0.92","","","","","","","",""
"null","159749","SARL_v6","SARL_v6vlnzfwvk","5f579cc797c3ee2607f6e344","freq_resp","","","img/orange_2bandit_b.png","70","img/orange_2bandit_b.png","70","test","","","","","","","","","","","2","","","","","","","","",""
"null","159910","SARL_v6","SARL_v6vlnzfwvk","5f579cc797c3ee2607f6e344","fixation","","","img/fixation.png","null","","","test","","","","","","","","","","","","","","","","","","","",""
"699.3999999910593","160613","SARL_v6","SARL_v6vlnzfwvk","5f579cc797c3ee2607f6e344","freq","","","img/orange_2bandit_b2.png","70","","70","test","1","","27","","","","circle","square","26","4","2","0.9230769230769231","","","","","","","",""
"null","160728","SARL_v6","SARL_v6vlnzfwvk","5f579cc797c3ee2607f6e344","freq_resp","","","img/orange_2bandit_b.png","70","img/orange_2bandit_b.png","70","test","","","","","","","","","","","2","","","","","","","","",""
"null","160889","SARL_v6","SARL_v6vlnzfwvk","5f579cc797c3ee2607f6e344","fixation","","","img/fixation.png","null","","","test","","","","","","","","","","","","","","","","","","","",""
"601.0999999940395","161493","SARL_v6","SARL_v6vlnzfwvk","5f579cc797c3ee2607f6e344","freq","","","img/orange_2bandit_b2.png","70","","70","test","1","","28","","","","circle","square","27","5","2","0.9259259259259259","","","","","","","",""
"null","161702","SARL_v6","SARL_v6vlnzfwvk","5f579cc797c3ee2607f6e344","freq_resp","","","img/orange_2bandit_b.png","70","img/orange_2bandit_b.png","70","test","","","","","","","","","","","2","","","","","","","","",""
"null","161859","SARL_v6","SARL_v6vlnzfwvk","5f579cc797c3ee2607f6e344","fixation","","","img/fixation.png","null","","","test","","","","","","","","","","","","","","","","","","","",""
"427.79999999701977","162290","SARL_v6","SARL_v6vlnzfwvk","5f579cc797c3ee2607f6e344","freq","","","img/orange_2bandit_b2.png","70","","70","test","1","","29","","","","circle","square","28","6","2","0.9285714285714286","","","","","","","",""
"null","162671","SARL_v6","SARL_v6vlnzfwvk","5f579cc797c3ee2607f6e344","freq_resp","","","img/orange_2bandit_b.png","70","img/orange_2bandit_b.png","70","test","","","","","","","","","","","2","","","","","","","","",""
"null","162828","SARL_v6","SARL_v6vlnzfwvk","5f579cc797c3ee2607f6e344","fixation","","","img/fixation.png","null","","","test","","","","","","","","","","","","","","","","","","","",""
"285.90000000596046","163117","SARL_v6","SARL_v6vlnzfwvk","5f579cc797c3ee2607f6e344","freq","","","img/orange_2bandit_b2.png","70","","70","test","1","","30","","","","circle","square","29","7","2","0.9310344827586207","","","","","","","",""
"null","163649","SARL_v6","SARL_v6vlnzfwvk","5f579cc797c3ee2607f6e344","freq_resp","","","img/orange_2bandit_b.png","70","img/orange_2bandit_b.png","70","test","","","","","","","","","","","2","","","","","","","","",""
"null","163806","SARL_v6","SARL_v6vlnzfwvk","5f579cc797c3ee2607f6e344","fixation","","","img/fixation.png","null","","","test","","","","","","","","","","","","","","","","","","","",""
"247.40000000596046","164057","SARL_v6","SARL_v6vlnzfwvk","5f579cc797c3ee2607f6e344","freq","","","img/orange_2bandit_b2.png","70","","70","test","1","","31","","","","circle","square","30","8","2","0.9333333333333333","","","","","","","",""
"null","164624","SARL_v6","SARL_v6vlnzfwvk","5f579cc797c3ee2607f6e344","freq_resp","","","img/orange_2bandit_b.png","70","img/orange_2bandit_b.png","70","test","","","","","","","","","","","2","","","","","","","","",""
"null","164780","SARL_v6","SARL_v6vlnzfwvk","5f579cc797c3ee2607f6e344","fixation","","","img/fixation.png","null","","","test","","","","","","","","","","","","","","","","","","","",""
"450.40000000596046","165233","SARL_v6","SARL_v6vlnzfwvk","5f579cc797c3ee2607f6e344","freq","","","img/orange_2bandit_b2.png","70","","70","test","1","","32","","","","circle","square","31","9","2","0.9354838709677419","","","","","","","",""
"null","165608","SARL_v6","SARL_v6vlnzfwvk","5f579cc797c3ee2607f6e344","freq_resp","","","img/orange_2bandit_b.png","70","img/orange_2bandit_b.png","70","test","","","","","","","","","","","2","","","","","","","","",""
"null","165771","SARL_v6","SARL_v6vlnzfwvk","5f579cc797c3ee2607f6e344","fixation","","","img/fixation.png","null","","","test","","","","","","","","","","","","","","","","","","","",""
"437.6000000089407","166211","SARL_v6","SARL_v6vlnzfwvk","5f579cc797c3ee2607f6e344","freq","","","img/orange_2bandit_b2.png","70","","70","test","1","","33","","","","circle","square","32","10","2","0.9375","","","","","","","",""
"null","166578","SARL_v6","SARL_v6vlnzfwvk","5f579cc797c3ee2607f6e344","freq_resp","","","img/orange_2bandit_b.png","70","img/orange_2bandit_b.png","70","test","","","","","","","","","","","2","","","","","","","","",""
"null","166734","SARL_v6","SARL_v6vlnzfwvk","5f579cc797c3ee2607f6e344","fixation","","","img/fixation.png","null","","","test","","","","","","","","","","","","","","","","","","","",""
"539.7999999970198","167276","SARL_v6","SARL_v6vlnzfwvk","5f579cc797c3ee2607f6e344","freq","","","img/orange_2bandit_b2.png","70","","70","test","1","","34","","","","circle","square","33","11","2","0.9393939393939394","","","","","","","",""
"null","167561","SARL_v6","SARL_v6vlnzfwvk","5f579cc797c3ee2607f6e344","freq_resp","","","img/orange_2bandit_b.png","70","img/orange_2bandit_b.png","70","test","","","","","","","","","","","2","","","","","","","","",""
"null","167718","SARL_v6","SARL_v6vlnzfwvk","5f579cc797c3ee2607f6e344","fixation","","","img/fixation.png","null","","","test","","","","","","","","","","","","","","","","","","","",""
"369.8999999910593","168091","SARL_v6","SARL_v6vlnzfwvk","5f579cc797c3ee2607f6e344","infreq","","","img/blue_2bandit_b2.png","68","","68","test","1","","35","","","","circle","square","34","12","2","0.9411764705882353","","","","","","","",""
"null","168529","SARL_v6","SARL_v6vlnzfwvk","5f579cc797c3ee2607f6e344","infreq_resp","","","img/blue_2bandit_b.png","68","img/blue_2bandit_b.png","68","test","","","","","","","","","","","2","","","","","","","","",""
"null","168684","SARL_v6","SARL_v6vlnzfwvk","5f579cc797c3ee2607f6e344","fixation","","","img/fixation.png","null","","","test","","","","","","","","","","","","","","","","","","","",""
"598.7000000029802","169285","SARL_v6","SARL_v6vlnzfwvk","5f579cc797c3ee2607f6e344","freq","","","img/orange_2bandit_b2.png","70","","70","test","1","","36","","","","circle","square","35","13","2","0.9428571428571428","","","","","","","",""
"null","169499","SARL_v6","SARL_v6vlnzfwvk","5f579cc797c3ee2607f6e344","freq_resp","","","img/orange_2bandit_b.png","70","img/orange_2bandit_b.png","70","test","","","","","","","","","","","2","","","","","","","","",""
"null","169666","SARL_v6","SARL_v6vlnzfwvk","5f579cc797c3ee2607f6e344","fixation","","","img/fixation.png","null","","","test","","","","","","","","","","","","","","","","","","","",""
"500.29999999701977","170169","SARL_v6","SARL_v6vlnzfwvk","5f579cc797c3ee2607f6e344","freq","","","img/orange_2bandit_b2.png","70","","70","test","1","","37","","","","circle","square","36","14","2","0.9444444444444444","","","","","","","",""
"null","170483","SARL_v6","SARL_v6vlnzfwvk","5f579cc797c3ee2607f6e344","freq_resp","","","img/orange_2bandit_b.png","70","img/orange_2bandit_b.png","70","test","","","","","","","","","","","2","","","","","","","","",""
"null","170639","SARL_v6","SARL_v6vlnzfwvk","5f579cc797c3ee2607f6e344","fixation","","","img/fixation.png","null","","","test","","","","","","","","","","","","","","","","","","","",""
"487.40000000596046","171130","SARL_v6","SARL_v6vlnzfwvk","5f579cc797c3ee2607f6e344","freq","","","img/orange_2bandit_b2.png","70","","70","test","1","","38","","","","circle","square","37","15","2","0.9459459459459459","","","","","","","",""
"null","171453","SARL_v6","SARL_v6vlnzfwvk","5f579cc797c3ee2607f6e344","freq_resp","","","img/orange_2bandit_b.png","70","img/orange_2bandit_b.png","70","test","","","","","","","","","","","2","","","","","","","","",""
"null","171616","SARL_v6","SARL_v6vlnzfwvk","5f579cc797c3ee2607f6e344","fixation","","","img/fixation.png","null","","","test","","","","","","","","","","","","","","","","","","","",""
"478.80000001192093","172098","SARL_v6","SARL_v6vlnzfwvk","5f579cc797c3ee2607f6e344","freq","","","img/orange_2bandit_b2.png","70","","70","test","1","","39","","","","circle","square","38","16","2","0.9473684210526315","","","","","","","",""
"null","172436","SARL_v6","SARL_v6vlnzfwvk","5f579cc797c3ee2607f6e344","freq_resp","","","img/orange_2bandit_b.png","70","img/orange_2bandit_b.png","70","test","","","","","","","","","","","2","","","","","","","","",""
"null","172593","SARL_v6","SARL_v6vlnzfwvk","5f579cc797c3ee2607f6e344","fixation","","","img/fixation.png","null","","","test","","","","","","","","","","","","","","","","","","","",""
"807.1000000089407","173403","SARL_v6","SARL_v6vlnzfwvk","5f579cc797c3ee2607f6e344","infreq","","","img/blue_2bandit_b2.png","68","","68","test","1","","40","","","","circle","square","39","17","2","0.9487179487179487","","","","","","","",""
"null","173562","SARL_v6","SARL_v6vlnzfwvk","5f579cc797c3ee2607f6e344","fixation","","","img/fixation.png","null","","","test","","","","","","","","","","","","","","","","","","","",""
"801.5","174367","SARL_v6","SARL_v6vlnzfwvk","5f579cc797c3ee2607f6e344","freq","","","img/orange_2bandit_b2.png","70","","70","test","1","","41","","","","circle","square","40","18","2","0.95","","","","","","","",""
"null","174529","SARL_v6","SARL_v6vlnzfwvk","5f579cc797c3ee2607f6e344","fixation","","","img/fixation.png","null","","","test","","","","","","","","","","","","","","","","","","","",""
"null","175342","SARL_v6","SARL_v6vlnzfwvk","5f579cc797c3ee2607f6e344","freq","","","img/orange_2bandit_b2.png","null","","70","test","0","","42","","","","circle","square","41","19","2","0.926829268292683","","","","","","","",""
"null","175508","SARL_v6","SARL_v6vlnzfwvk","5f579cc797c3ee2607f6e344","fixation","","","img/fixation.png","null","","","test","","","","","","","","","","","","","","","","","","","",""
"564.7999999970198","176076","SARL_v6","SARL_v6vlnzfwvk","5f579cc797c3ee2607f6e344","freq","","","img/orange_2bandit_b2.png","70","","70","test","1","","43","","","","circle","square","42","20","2","0.9285714285714286","","","","","","","",""
"null","176320","SARL_v6","SARL_v6vlnzfwvk","5f579cc797c3ee2607f6e344","freq_resp","","","img/orange_2bandit_b.png","70","img/orange_2bandit_b.png","70","test","","","","","","","","","","","2","","","","","","","","",""
"null","176476","SARL_v6","SARL_v6vlnzfwvk","5f579cc797c3ee2607f6e344","fixation","","","img/fixation.png","null","","","test","","","","","","","","","","","","","","","","","","","",""
"612.5999999940395","177092","SARL_v6","SARL_v6vlnzfwvk","5f579cc797c3ee2607f6e344","rl","","","img/black_2bandit_b2.png","74","","0","test","","","44","","","-5","circle","square","","0","2","","74","-5","-8","-5","-8","circle","2","0"
"null","177858","SARL_v6","SARL_v6vlnzfwvk","5f579cc797c3ee2607f6e344","feedback","","","<div class=""verylowPoints""> -5 </div>","null","","na","test","","","NaN","","","","","","","","2","","74","","","","","","2",""
"344.6000000089407","178206","SARL_v6","SARL_v6vlnzfwvk","5f579cc797c3ee2607f6e344","freq","","","img/orange_2bandit_b2.png","70","","70","test","1","","45","","","","circle","square","43","1","3","0.9302325581395349","","","","","","","",""
"null","178671","SARL_v6","SARL_v6vlnzfwvk","5f579cc797c3ee2607f6e344","freq_resp","","","img/orange_2bandit_b.png","70","img/orange_2bandit_b.png","70","test","","","","","","","","","","","3","","","","","","","","",""
"null","178839","SARL_v6","SARL_v6vlnzfwvk","5f579cc797c3ee2607f6e344","fixation","","","img/fixation.png","null","","","test","","","","","","","","","","","","","","","","","","","",""
"322.79999999701977","179165","SARL_v6","SARL_v6vlnzfwvk","5f579cc797c3ee2607f6e344","freq","","","img/orange_2bandit_b2.png","70","","70","test","1","","46","","","","circle","square","44","2","3","0.9318181818181818","","","","","","","",""
"null","179656","SARL_v6","SARL_v6vlnzfwvk","5f579cc797c3ee2607f6e344","freq_resp","","","img/orange_2bandit_b.png","70","img/orange_2bandit_b.png","70","test","","","","","","","","","","","3","","","","","","","","",""
"null","179812","SARL_v6","SARL_v6vlnzfwvk","5f579cc797c3ee2607f6e344","fixation","","","img/fixation.png","null","","","test","","","","","","","","","","","","","","","","","","","",""
"331.5","180147","SARL_v6","SARL_v6vlnzfwvk","5f579cc797c3ee2607f6e344","freq","","","img/orange_2bandit_b2.png","70","","70","test","1","","47","","","","circle","square","45","3","3","0.9333333333333333","","","","","","","",""
"null","180623","SARL_v6","SARL_v6vlnzfwvk","5f579cc797c3ee2607f6e344","freq_resp","","","img/orange_2bandit_b.png","70","img/orange_2bandit_b.png","70","test","","","","","","","","","","","3","","","","","","","","",""
"null","180789","SARL_v6","SARL_v6vlnzfwvk","5f579cc797c3ee2607f6e344","fixation","","","img/fixation.png","null","","","test","","","","","","","","","","","","","","","","","","","",""
"424.40000000596046","181216","SARL_v6","SARL_v6vlnzfwvk","5f579cc797c3ee2607f6e344","freq","","","img/orange_2bandit_b2.png","70","","70","test","1","","48","","","","circle","square","46","4","3","0.9347826086956522","","","","","","","",""
"null","181608","SARL_v6","SARL_v6vlnzfwvk","5f579cc797c3ee2607f6e344","freq_resp","","","img/orange_2bandit_b.png","70","img/orange_2bandit_b.png","70","test","","","","","","","","","","","3","","","","","","","","",""
"null","181764","SARL_v6","SARL_v6vlnzfwvk","5f579cc797c3ee2607f6e344","fixation","","","img/fixation.png","null","","","test","","","","","","","","","","","","","","","","","","","",""
"586.9000000059605","182353","SARL_v6","SARL_v6vlnzfwvk","5f579cc797c3ee2607f6e344","freq","","","img/orange_2bandit_b2.png","70","","70","test","1","","49","","","","circle","square","47","5","3","0.9361702127659575","","","","","","","",""
"null","182577","SARL_v6","SARL_v6vlnzfwvk","5f579cc797c3ee2607f6e344","freq_resp","","","img/orange_2bandit_b.png","70","img/orange_2bandit_b.png","70","test","","","","","","","","","","","3","","","","","","","","",""
"null","182733","SARL_v6","SARL_v6vlnzfwvk","5f579cc797c3ee2607f6e344","fixation","","","img/fixation.png","null","","","test","","","","","","","","","","","","","","","","","","","",""
"532.2000000029802","183268","SARL_v6","SARL_v6vlnzfwvk","5f579cc797c3ee2607f6e344","freq","","","img/orange_2bandit_b2.png","70","","70","test","1","","50","","","","circle","square","48","6","3","0.9375","","","","","","","",""
"null","183545","SARL_v6","SARL_v6vlnzfwvk","5f579cc797c3ee2607f6e344","freq_resp","","","img/orange_2bandit_b.png","70","img/orange_2bandit_b.png","70","test","","","","","","","","","","","3","","","","","","","","",""
"null","183702","SARL_v6","SARL_v6vlnzfwvk","5f579cc797c3ee2607f6e344","fixation","","","img/fixation.png","null","","","test","","","","","","","","","","","","","","","","","","","",""
"529.4000000059605","184234","SARL_v6","SARL_v6vlnzfwvk","5f579cc797c3ee2607f6e344","freq","","","img/orange_2bandit_b2.png","70","","70","test","1","","51","","","","circle","square","49","7","3","0.9387755102040817","","","","","","","",""
"null","184513","SARL_v6","SARL_v6vlnzfwvk","5f579cc797c3ee2607f6e344","freq_resp","","","img/orange_2bandit_b.png","70","img/orange_2bandit_b.png","70","test","","","","","","","","","","","3","","","","","","","","",""
"null","184670","SARL_v6","SARL_v6vlnzfwvk","5f579cc797c3ee2607f6e344","fixation","","","img/fixation.png","null","","","test","","","","","","","","","","","","","","","","","","","",""
"386.5","185059","SARL_v6","SARL_v6vlnzfwvk","5f579cc797c3ee2607f6e344","freq","","","img/orange_2bandit_b2.png","70","","70","test","1","","52","","","","circle","square","50","8","3","0.94","","","","","","","",""
"null","185483","SARL_v6","SARL_v6vlnzfwvk","5f579cc797c3ee2607f6e344","freq_resp","","","img/orange_2bandit_b.png","70","img/orange_2bandit_b.png","70","test","","","","","","","","","","","3","","","","","","","","",""
"null","185650","SARL_v6","SARL_v6vlnzfwvk","5f579cc797c3ee2607f6e344","fixation","","","img/fixation.png","null","","","test","","","","","","","","","","","","","","","","","","","",""
"404.20000000298023","186057","SARL_v6","SARL_v6vlnzfwvk","5f579cc797c3ee2607f6e344","infreq","","","img/blue_2bandit_b2.png","68","","68","test","1","","53","","","","circle","square","51","9","3","0.9411764705882353","","","","","","","",""
"null","186467","SARL_v6","SARL_v6vlnzfwvk","5f579cc797c3ee2607f6e344","infreq_resp","","","img/blue_2bandit_b.png","68","img/blue_2bandit_b.png","68","test","","","","","","","","","","","3","","","","","","","","",""
"null","186624","SARL_v6","SARL_v6vlnzfwvk","5f579cc797c3ee2607f6e344","fixation","","","img/fixation.png","null","","","test","","","","","","","","","","","","","","","","","","","",""
"689.5999999940395","187317","SARL_v6","SARL_v6vlnzfwvk","5f579cc797c3ee2607f6e344","freq","","","img/orange_2bandit_b2.png","70","","70","test","1","","54","","","","circle","square","52","10","3","0.9423076923076923","","","","","","","",""
"null","187434","SARL_v6","SARL_v6vlnzfwvk","5f579cc797c3ee2607f6e344","freq_resp","","","img/orange_2bandit_b.png","70","img/orange_2bandit_b.png","70","test","","","","","","","","","","","3","","","","","","","","",""
"null","187593","SARL_v6","SARL_v6vlnzfwvk","5f579cc797c3ee2607f6e344","fixation","","","img/fixation.png","null","","","test","","","","","","","","","","","","","","","","","","","",""
"539.9000000059605","188136","SARL_v6","SARL_v6vlnzfwvk","5f579cc797c3ee2607f6e344","freq","","","img/orange_2bandit_b2.png","70","","70","test","1","","55","","","","circle","square","53","11","3","0.9433962264150944","","","","","","","",""
"null","188405","SARL_v6","SARL_v6vlnzfwvk","5f579cc797c3ee2607f6e344","freq_resp","","","img/orange_2bandit_b.png","70","img/orange_2bandit_b.png","70","test","","","","","","","","","","","3","","","","","","","","",""
"null","188561","SARL_v6","SARL_v6vlnzfwvk","5f579cc797c3ee2607f6e344","fixation","","","img/fixation.png","null","","","test","","","","","","","","","","","","","","","","","","","",""
"609.5","189174","SARL_v6","SARL_v6vlnzfwvk","5f579cc797c3ee2607f6e344","infreq","","","img/blue_2bandit_b2.png","68","","68","test","1","","56","","","","circle","square","54","12","3","0.9444444444444444","","","","","","","",""
"null","189389","SARL_v6","SARL_v6vlnzfwvk","5f579cc797c3ee2607f6e344","infreq_resp","","","img/blue_2bandit_b.png","68","img/blue_2bandit_b.png","68","test","","","","","","","","","","","3","","","","","","","","",""
"null","189547","SARL_v6","SARL_v6vlnzfwvk","5f579cc797c3ee2607f6e344","fixation","","","img/fixation.png","null","","","test","","","","","","","","","","","","","","","","","","","",""
"426.90000000596046","189977","SARL_v6","SARL_v6vlnzfwvk","5f579cc797c3ee2607f6e344","freq","","","img/orange_2bandit_b2.png","70","","70","test","1","","57","","","","circle","square","55","13","3","0.9454545454545454","","","","","","","",""
"null","190359","SARL_v6","SARL_v6vlnzfwvk","5f579cc797c3ee2607f6e344","freq_resp","","","img/orange_2bandit_b.png","70","img/orange_2bandit_b.png","70","test","","","","","","","","","","","3","","","","","","","","",""
"null","190512","SARL_v6","SARL_v6vlnzfwvk","5f579cc797c3ee2607f6e344","fixation","","","img/fixation.png","null","","","test","","","","","","","","","","","","","","","","","","","",""
"418.6000000089407","190934","SARL_v6","SARL_v6vlnzfwvk","5f579cc797c3ee2607f6e344","freq","","","img/orange_2bandit_b2.png","70","","70","test","1","","58","","","","circle","square","56","14","3","0.9464285714285714","","","","","","","",""
"null","191327","SARL_v6","SARL_v6vlnzfwvk","5f579cc797c3ee2607f6e344","freq_resp","","","img/orange_2bandit_b.png","70","img/orange_2bandit_b.png","70","test","","","","","","","","","","","3","","","","","","","","",""
"null","191494","SARL_v6","SARL_v6vlnzfwvk","5f579cc797c3ee2607f6e344","fixation","","","img/fixation.png","null","","","test","","","","","","","","","","","","","","","","","","","",""
"492.3999999910593","191989","SARL_v6","SARL_v6vlnzfwvk","5f579cc797c3ee2607f6e344","freq","","","img/orange_2bandit_b2.png","70","","70","test","1","","59","","","","circle","square","57","15","3","0.9473684210526315","","","","","","","",""
"null","192311","SARL_v6","SARL_v6vlnzfwvk","5f579cc797c3ee2607f6e344","freq_resp","","","img/orange_2bandit_b.png","70","img/orange_2bandit_b.png","70","test","","","","","","","","","","","3","","","","","","","","",""
"null","192476","SARL_v6","SARL_v6vlnzfwvk","5f579cc797c3ee2607f6e344","fixation","","","img/fixation.png","null","","","test","","","","","","","","","","","","","","","","","","","",""
"504","192984","SARL_v6","SARL_v6vlnzfwvk","5f579cc797c3ee2607f6e344","freq","","","img/orange_2bandit_b2.png","70","","70","test","1","","60","","","","circle","square","58","16","3","0.9482758620689655","","","","","","","",""
"null","193294","SARL_v6","SARL_v6vlnzfwvk","5f579cc797c3ee2607f6e344","freq_resp","","","img/orange_2bandit_b.png","70","img/orange_2bandit_b.png","70","test","","","","","","","","","","","3","","","","","","","","",""
"null","193460","SARL_v6","SARL_v6vlnzfwvk","5f579cc797c3ee2607f6e344","fixation","","","img/fixation.png","null","","","test","","","","","","","","","","","","","","","","","","","",""
"490.20000000298023","193953","SARL_v6","SARL_v6vlnzfwvk","5f579cc797c3ee2607f6e344","freq","","","img/orange_2bandit_b2.png","70","","70","test","1","","61","","","","circle","square","59","17","3","0.9491525423728814","","","","","","","",""
"null","194295","SARL_v6","SARL_v6vlnzfwvk","5f579cc797c3ee2607f6e344","freq_resp","","","img/orange_2bandit_b.png","70","img/orange_2bandit_b.png","70","test","","","","","","","","","","","3","","","","","","","","",""
"null","194459","SARL_v6","SARL_v6vlnzfwvk","5f579cc797c3ee2607f6e344","fixation","","","img/fixation.png","null","","","test","","","","","","","","","","","","","","","","","","","",""
"503.30000001192093","194966","SARL_v6","SARL_v6vlnzfwvk","5f579cc797c3ee2607f6e344","freq","","","img/orange_2bandit_b2.png","70","","70","test","1","","62","","","","circle","square","60","18","3","0.95","","","","","","","",""
"null","195280","SARL_v6","SARL_v6vlnzfwvk","5f579cc797c3ee2607f6e344","freq_resp","","","img/orange_2bandit_b.png","70","img/orange_2bandit_b.png","70","test","","","","","","","","","","","3","","","","","","","","",""
"null","195442","SARL_v6","SARL_v6vlnzfwvk","5f579cc797c3ee2607f6e344","fixation","","","img/fixation.png","null","","","test","","","","","","","","","","","","","","","","","","","",""
"439","195885","SARL_v6","SARL_v6vlnzfwvk","5f579cc797c3ee2607f6e344","freq","","","img/orange_2bandit_b2.png","70","","70","test","1","","63","","","","circle","square","61","19","3","0.9508196721311475","","","","","","","",""
"null","196265","SARL_v6","SARL_v6vlnzfwvk","5f579cc797c3ee2607f6e344","freq_resp","","","img/orange_2bandit_b.png","70","img/orange_2bandit_b.png","70","test","","","","","","","","","","","3","","","","","","","","",""
"null","196421","SARL_v6","SARL_v6vlnzfwvk","5f579cc797c3ee2607f6e344","fixation","","","img/fixation.png","null","","","test","","","","","","","","","","","","","","","","","","","",""
"475.5","196900","SARL_v6","SARL_v6vlnzfwvk","5f579cc797c3ee2607f6e344","freq","","","img/orange_2bandit_b2.png","70","","70","test","1","","64","","","","circle","square","62","20","3","0.9516129032258065","","","","","","","",""
"null","197233","SARL_v6","SARL_v6vlnzfwvk","5f579cc797c3ee2607f6e344","freq_resp","","","img/orange_2bandit_b.png","70","img/orange_2bandit_b.png","70","test","","","","","","","","","","","3","","","","","","","","",""
"null","197390","SARL_v6","SARL_v6vlnzfwvk","5f579cc797c3ee2607f6e344","fixation","","","img/fixation.png","null","","","test","","","","","","","","","","","","","","","","","","","",""
"423.5","197816","SARL_v6","SARL_v6vlnzfwvk","5f579cc797c3ee2607f6e344","freq","","","img/orange_2bandit_b2.png","70","","70","test","1","","65","","","","circle","square","63","21","3","0.9523809523809523","","","","","","","",""
"null","198217","SARL_v6","SARL_v6vlnzfwvk","5f579cc797c3ee2607f6e344","freq_resp","","","img/orange_2bandit_b.png","70","img/orange_2bandit_b.png","70","test","","","","","","","","","","","3","","","","","","","","",""
"null","198372","SARL_v6","SARL_v6vlnzfwvk","5f579cc797c3ee2607f6e344","fixation","","","img/fixation.png","null","","","test","","","","","","","","","","","","","","","","","","","",""
"333.79999999701977","198709","SARL_v6","SARL_v6vlnzfwvk","5f579cc797c3ee2607f6e344","freq","","","img/orange_2bandit_b2.png","70","","70","test","1","","66","","","","circle","square","64","22","3","0.953125","","","","","","","",""
"null","199186","SARL_v6","SARL_v6vlnzfwvk","5f579cc797c3ee2607f6e344","freq_resp","","","img/orange_2bandit_b.png","70","img/orange_2bandit_b.png","70","test","","","","","","","","","","","3","","","","","","","","",""
"null","199353","SARL_v6","SARL_v6vlnzfwvk","5f579cc797c3ee2607f6e344","fixation","","","img/fixation.png","null","","","test","","","","","","","","","","","","","","","","","","","",""
"351.40000000596046","199707","SARL_v6","SARL_v6vlnzfwvk","5f579cc797c3ee2607f6e344","freq","","","img/orange_2bandit_b2.png","70","","70","test","1","","67","","","","circle","square","65","23","3","0.9538461538461539","","","","","","","",""
"null","200170","SARL_v6","SARL_v6vlnzfwvk","5f579cc797c3ee2607f6e344","freq_resp","","","img/orange_2bandit_b.png","70","img/orange_2bandit_b.png","70","test","","","","","","","","","","","3","","","","","","","","",""
"null","200326","SARL_v6","SARL_v6vlnzfwvk","5f579cc797c3ee2607f6e344","fixation","","","img/fixation.png","null","","","test","","","","","","","","","","","","","","","","","","","",""
"616.2999999970198","200946","SARL_v6","SARL_v6vlnzfwvk","5f579cc797c3ee2607f6e344","rl","","","img/black_2bandit_b2.png","74","","0","test","","","68","","","-4","circle","square","","0","3","","74","-4","-8","-4","-8","circle","3","0"
"null","201701","SARL_v6","SARL_v6vlnzfwvk","5f579cc797c3ee2607f6e344","feedback","","","<div class=""verylowPoints""> -4 </div>","null","","na","test","","","NaN","","","","","","","","3","","74","","","","","","3",""
"410.59999999403954","202115","SARL_v6","SARL_v6vlnzfwvk","5f579cc797c3ee2607f6e344","freq","","","img/orange_2bandit_b2.png","70","","70","test","1","","69","","","","circle","square","66","1","4","0.9545454545454546","","","","","","","",""
"null","202514","SARL_v6","SARL_v6vlnzfwvk","5f579cc797c3ee2607f6e344","freq_resp","","","img/orange_2bandit_b.png","70","img/orange_2bandit_b.png","70","test","","","","","","","","","","","4","","","","","","","","",""
"null","202668","SARL_v6","SARL_v6vlnzfwvk","5f579cc797c3ee2607f6e344","fixation","","","img/fixation.png","null","","","test","","","","","","","","","","","","","","","","","","","",""
"351.6000000089407","203023","SARL_v6","SARL_v6vlnzfwvk","5f579cc797c3ee2607f6e344","freq","","","img/orange_2bandit_b2.png","70","","70","test","1","","70","","","","circle","square","67","2","4","0.9552238805970149","","","","","","","",""
"null","203483","SARL_v6","SARL_v6vlnzfwvk","5f579cc797c3ee2607f6e344","freq_resp","","","img/orange_2bandit_b.png","70","img/orange_2bandit_b.png","70","test","","","","","","","","","","","4","","","","","","","","",""
"null","203640","SARL_v6","SARL_v6vlnzfwvk","5f579cc797c3ee2607f6e344","fixation","","","img/fixation.png","null","","","test","","","","","","","","","","","","","","","","","","","",""
"427.1000000089407","204070","SARL_v6","SARL_v6vlnzfwvk","5f579cc797c3ee2607f6e344","freq","","","img/orange_2bandit_b2.png","70","","70","test","1","","71","","","","circle","square","68","3","4","0.9558823529411765","","","","","","","",""
"null","204452","SARL_v6","SARL_v6vlnzfwvk","5f579cc797c3ee2607f6e344","freq_resp","","","img/orange_2bandit_b.png","70","img/orange_2bandit_b.png","70","test","","","","","","","","","","","4","","","","","","","","",""
"null","204616","SARL_v6","SARL_v6vlnzfwvk","5f579cc797c3ee2607f6e344","fixation","","","img/fixation.png","null","","","test","","","","","","","","","","","","","","","","","","","",""
"511.6000000089407","205130","SARL_v6","SARL_v6vlnzfwvk","5f579cc797c3ee2607f6e344","infreq","","","img/blue_2bandit_b2.png","68","","68","test","1","","72","","","","circle","square","69","4","4","0.9565217391304348","","","","","","","",""
"null","205437","SARL_v6","SARL_v6vlnzfwvk","5f579cc797c3ee2607f6e344","infreq_resp","","","img/blue_2bandit_b.png","68","img/blue_2bandit_b.png","68","test","","","","","","","","","","","4","","","","","","","","",""
"null","205590","SARL_v6","SARL_v6vlnzfwvk","5f579cc797c3ee2607f6e344","fixation","","","img/fixation.png","null","","","test","","","","","","","","","","","","","","","","","","","",""
"440.09999999403954","206033","SARL_v6","SARL_v6vlnzfwvk","5f579cc797c3ee2607f6e344","freq","","","img/orange_2bandit_b2.png","70","","70","test","1","","73","","","","circle","square","70","5","4","0.9571428571428572","","","","","","","",""
"null","206404","SARL_v6","SARL_v6vlnzfwvk","5f579cc797c3ee2607f6e344","freq_resp","","","img/orange_2bandit_b.png","70","img/orange_2bandit_b.png","70","test","","","","","","","","","","","4","","","","","","","","",""
"null","206562","SARL_v6","SARL_v6vlnzfwvk","5f579cc797c3ee2607f6e344","fixation","","","img/fixation.png","null","","","test","","","","","","","","","","","","","","","","","","","",""
"477.20000000298023","207042","SARL_v6","SARL_v6vlnzfwvk","5f579cc797c3ee2607f6e344","freq","","","img/orange_2bandit_b2.png","70","","70","test","1","","74","","","","circle","square","71","6","4","0.9577464788732394","","","","","","","",""
"null","207373","SARL_v6","SARL_v6vlnzfwvk","5f579cc797c3ee2607f6e344","freq_resp","","","img/orange_2bandit_b.png","70","img/orange_2bandit_b.png","70","test","","","","","","","","","","","4","","","","","","","","",""
"null","207529","SARL_v6","SARL_v6vlnzfwvk","5f579cc797c3ee2607f6e344","fixation","","","img/fixation.png","null","","","test","","","","","","","","","","","","","","","","","","","",""
"445.20000000298023","207977","SARL_v6","SARL_v6vlnzfwvk","5f579cc797c3ee2607f6e344","freq","","","img/orange_2bandit_b2.png","70","","70","test","1","","75","","","","circle","square","72","7","4","0.9583333333333334","","","","","","","",""
"null","208343","SARL_v6","SARL_v6vlnzfwvk","5f579cc797c3ee2607f6e344","freq_resp","","","img/orange_2bandit_b.png","70","img/orange_2bandit_b.png","70","test","","","","","","","","","","","4","","","","","","","","",""
"null","208511","SARL_v6","SARL_v6vlnzfwvk","5f579cc797c3ee2607f6e344","fixation","","","img/fixation.png","null","","","test","","","","","","","","","","","","","","","","","","","",""
"569.6000000089407","209084","SARL_v6","SARL_v6vlnzfwvk","5f579cc797c3ee2607f6e344","freq","","","img/orange_2bandit_b2.png","70","","70","test","1","","76","","","","circle","square","73","8","4","0.958904109589041","","","","","","","",""
"null","209326","SARL_v6","SARL_v6vlnzfwvk","5f579cc797c3ee2607f6e344","freq_resp","","","img/orange_2bandit_b.png","70","img/orange_2bandit_b.png","70","test","","","","","","","","","","","4","","","","","","","","",""
"null","209483","SARL_v6","SARL_v6vlnzfwvk","5f579cc797c3ee2607f6e344","fixation","","","img/fixation.png","null","","","test","","","","","","","","","","","","","","","","","","","",""
"705.1999999880791","210191","SARL_v6","SARL_v6vlnzfwvk","5f579cc797c3ee2607f6e344","freq","","","img/orange_2bandit_b2.png","70","","70","test","1","","77","","","","circle","square","74","9","4","0.9594594594594594","","","","","","","",""
"null","210302","SARL_v6","SARL_v6vlnzfwvk","5f579cc797c3ee2607f6e344","freq_resp","","","img/orange_2bandit_b.png","70","img/orange_2bandit_b.png","70","test","","","","","","","","","","","4","","","","","","","","",""
"null","210467","SARL_v6","SARL_v6vlnzfwvk","5f579cc797c3ee2607f6e344","fixation","","","img/fixation.png","null","","","test","","","","","","","","","","","","","","","","","","","",""
"613.5","211083","SARL_v6","SARL_v6vlnzfwvk","5f579cc797c3ee2607f6e344","freq","","","img/orange_2bandit_b2.png","70","","70","test","1","","78","","","","circle","square","75","10","4","0.96","","","","","","","",""
"null","211275","SARL_v6","SARL_v6vlnzfwvk","5f579cc797c3ee2607f6e344","freq_resp","","","img/orange_2bandit_b.png","70","img/orange_2bandit_b.png","70","test","","","","","","","","","","","4","","","","","","","","",""
"null","211435","SARL_v6","SARL_v6vlnzfwvk","5f579cc797c3ee2607f6e344","fixation","","","img/fixation.png","null","","","test","","","","","","","","","","","","","","","","","","","",""
"500.09999999403954","211938","SARL_v6","SARL_v6vlnzfwvk","5f579cc797c3ee2607f6e344","freq","","","img/orange_2bandit_b2.png","70","","70","test","1","","79","","","","circle","square","76","11","4","0.9605263157894737","","","","","","","",""
"null","212248","SARL_v6","SARL_v6vlnzfwvk","5f579cc797c3ee2607f6e344","freq_resp","","","img/orange_2bandit_b.png","70","img/orange_2bandit_b.png","70","test","","","","","","","","","","","4","","","","","","","","",""
"null","212405","SARL_v6","SARL_v6vlnzfwvk","5f579cc797c3ee2607f6e344","fixation","","","img/fixation.png","null","","","test","","","","","","","","","","","","","","","","","","","",""
"353.20000000298023","212761","SARL_v6","SARL_v6vlnzfwvk","5f579cc797c3ee2607f6e344","freq","","","img/orange_2bandit_b2.png","70","","70","test","1","","80","","","","circle","square","77","12","4","0.961038961038961","","","","","","","",""
"null","213218","SARL_v6","SARL_v6vlnzfwvk","5f579cc797c3ee2607f6e344","freq_resp","","","img/orange_2bandit_b.png","70","img/orange_2bandit_b.png","70","test","","","","","","","","","","","4","","","","","","","","",""
"null","213374","SARL_v6","SARL_v6vlnzfwvk","5f579cc797c3ee2607f6e344","fixation","","","img/fixation.png","null","","","test","","","","","","","","","","","","","","","","","","","",""
"333.90000000596046","213711","SARL_v6","SARL_v6vlnzfwvk","5f579cc797c3ee2607f6e344","freq","","","img/orange_2bandit_b2.png","70","","70","test","1","","81","","","","circle","square","78","13","4","0.9615384615384616","","","","","","","",""
"null","214201","SARL_v6","SARL_v6vlnzfwvk","5f579cc797c3ee2607f6e344","freq_resp","","","img/orange_2bandit_b.png","70","img/orange_2bandit_b.png","70","test","","","","","","","","","","","4","","","","","","","","",""
"null","214356","SARL_v6","SARL_v6vlnzfwvk","5f579cc797c3ee2607f6e344","fixation","","","img/fixation.png","null","","","test","","","","","","","","","","","","","","","","","","","",""
"377.6000000089407","214736","SARL_v6","SARL_v6vlnzfwvk","5f579cc797c3ee2607f6e344","freq","","","img/orange_2bandit_b2.png","70","","70","test","1","","82","","","","circle","square","79","14","4","0.9620253164556962","","","","","","","",""
"null","215169","SARL_v6","SARL_v6vlnzfwvk","5f579cc797c3ee2607f6e344","freq_resp","","","img/orange_2bandit_b.png","70","img/orange_2bandit_b.png","70","test","","","","","","","","","","","4","","","","","","","","",""
"null","215337","SARL_v6","SARL_v6vlnzfwvk","5f579cc797c3ee2607f6e344","fixation","","","img/fixation.png","null","","","test","","","","","","","","","","","","","","","","","","","",""
"429.5","215770","SARL_v6","SARL_v6vlnzfwvk","5f579cc797c3ee2607f6e344","freq","","","img/orange_2bandit_b2.png","70","","70","test","1","","83","","","","circle","square","80","15","4","0.9625","","","","","","","",""
"null","216154","SARL_v6","SARL_v6vlnzfwvk","5f579cc797c3ee2607f6e344","freq_resp","","","img/orange_2bandit_b.png","70","img/orange_2bandit_b.png","70","test","","","","","","","","","","","4","","","","","","","","",""
"null","216319","SARL_v6","SARL_v6vlnzfwvk","5f579cc797c3ee2607f6e344","fixation","","","img/fixation.png","null","","","test","","","","","","","","","","","","","","","","","","","",""
"353.1000000089407","216676","SARL_v6","SARL_v6vlnzfwvk","5f579cc797c3ee2607f6e344","freq","","","img/orange_2bandit_b2.png","70","","70","test","1","","84","","","","circle","square","81","16","4","0.9629629629629629","","","","","","","",""
"null","217139","SARL_v6","SARL_v6vlnzfwvk","5f579cc797c3ee2607f6e344","freq_resp","","","img/orange_2bandit_b.png","70","img/orange_2bandit_b.png","70","test","","","","","","","","","","","4","","","","","","","","",""
"null","217303","SARL_v6","SARL_v6vlnzfwvk","5f579cc797c3ee2607f6e344","fixation","","","img/fixation.png","null","","","test","","","","","","","","","","","","","","","","","","","",""
"473.40000000596046","217780","SARL_v6","SARL_v6vlnzfwvk","5f579cc797c3ee2607f6e344","infreq","","","img/blue_2bandit_b2.png","68","","68","test","1","","85","","","","circle","square","82","17","4","0.9634146341463414","","","","","","","",""
"null","218125","SARL_v6","SARL_v6vlnzfwvk","5f579cc797c3ee2607f6e344","infreq_resp","","","img/blue_2bandit_b.png","68","img/blue_2bandit_b.png","68","test","","","","","","","","","","","4","","","","","","","","",""
"null","218279","SARL_v6","SARL_v6vlnzfwvk","5f579cc797c3ee2607f6e344","fixation","","","img/fixation.png","null","","","test","","","","","","","","","","","","","","","","","","","",""
"511.69999998807907","218794","SARL_v6","SARL_v6vlnzfwvk","5f579cc797c3ee2607f6e344","freq","","","img/orange_2bandit_b2.png","70","","70","test","1","","86","","","","circle","square","83","18","4","0.963855421686747","","","","","","","",""
"null","219092","SARL_v6","SARL_v6vlnzfwvk","5f579cc797c3ee2607f6e344","freq_resp","","","img/orange_2bandit_b.png","70","img/orange_2bandit_b.png","70","test","","","","","","","","","","","4","","","","","","","","",""
"null","219249","SARL_v6","SARL_v6vlnzfwvk","5f579cc797c3ee2607f6e344","fixation","","","img/fixation.png","null","","","test","","","","","","","","","","","","","","","","","","","",""
"457.70000000298023","219710","SARL_v6","SARL_v6vlnzfwvk","5f579cc797c3ee2607f6e344","freq","","","img/orange_2bandit_b2.png","70","","70","test","1","","87","","","","circle","square","84","19","4","0.9642857142857143","","","","","","","",""
"null","220062","SARL_v6","SARL_v6vlnzfwvk","5f579cc797c3ee2607f6e344","freq_resp","","","img/orange_2bandit_b.png","70","img/orange_2bandit_b.png","70","test","","","","","","","","","","","4","","","","","","","","",""
"null","220217","SARL_v6","SARL_v6vlnzfwvk","5f579cc797c3ee2607f6e344","fixation","","","img/fixation.png","null","","","test","","","","","","","","","","","","","","","","","","","",""
"485.1000000089407","220706","SARL_v6","SARL_v6vlnzfwvk","5f579cc797c3ee2607f6e344","freq","","","img/orange_2bandit_b2.png","70","","70","test","1","","88","","","","circle","square","85","20","4","0.9647058823529412","","","","","","","",""
"null","221046","SARL_v6","SARL_v6vlnzfwvk","5f579cc797c3ee2607f6e344","freq_resp","","","img/orange_2bandit_b.png","70","img/orange_2bandit_b.png","70","test","","","","","","","","","","","4","","","","","","","","",""
"null","221199","SARL_v6","SARL_v6vlnzfwvk","5f579cc797c3ee2607f6e344","fixation","","","img/fixation.png","null","","","test","","","","","","","","","","","","","","","","","","","",""
"392.79999999701977","221595","SARL_v6","SARL_v6vlnzfwvk","5f579cc797c3ee2607f6e344","freq","","","img/orange_2bandit_b2.png","70","","70","test","1","","89","","","","circle","square","86","21","4","0.9651162790697675","","","","","","","",""
"null","222014","SARL_v6","SARL_v6vlnzfwvk","5f579cc797c3ee2607f6e344","freq_resp","","","img/orange_2bandit_b.png","70","img/orange_2bandit_b.png","70","test","","","","","","","","","","","4","","","","","","","","",""
"null","222181","SARL_v6","SARL_v6vlnzfwvk","5f579cc797c3ee2607f6e344","fixation","","","img/fixation.png","null","","","test","","","","","","","","","","","","","","","","","","","",""
"367.59999999403954","222551","SARL_v6","SARL_v6vlnzfwvk","5f579cc797c3ee2607f6e344","freq","","","img/orange_2bandit_b2.png","70","","70","test","1","","90","","","","circle","square","87","22","4","0.9655172413793104","","","","","","","",""
"null","222998","SARL_v6","SARL_v6vlnzfwvk","5f579cc797c3ee2607f6e344","freq_resp","","","img/orange_2bandit_b.png","70","img/orange_2bandit_b.png","70","test","","","","","","","","","","","4","","","","","","","","",""
"null","223163","SARL_v6","SARL_v6vlnzfwvk","5f579cc797c3ee2607f6e344","fixation","","","img/fixation.png","null","","","test","","","","","","","","","","","","","","","","","","","",""
"332.40000000596046","223498","SARL_v6","SARL_v6vlnzfwvk","5f579cc797c3ee2607f6e344","rl","","","img/black_2bandit_b2.png","75","","0","test","","","91","","","-12","circle","square","","0","4","","75","0","-12","0","-12","square","4","0"
"null","224264","SARL_v6","SARL_v6vlnzfwvk","5f579cc797c3ee2607f6e344","feedback","","","<div class=""verylowPoints_sq""> -12 </div>","null","","na","test","","","NaN","","","","","","","","4","","75","","","","","","4",""
"316.59999999403954","224584","SARL_v6","SARL_v6vlnzfwvk","5f579cc797c3ee2607f6e344","freq","","","img/orange_2bandit_b2.png","70","","70","test","1","","92","","","","circle","square","88","1","5","0.9659090909090909","","","","","","","",""
"null","225076","SARL_v6","SARL_v6vlnzfwvk","5f579cc797c3ee2607f6e344","freq_resp","","","img/orange_2bandit_b.png","70","img/orange_2bandit_b.png","70","test","","","","","","","","","","","5","","","","","","","","",""
"null","225245","SARL_v6","SARL_v6vlnzfwvk","5f579cc797c3ee2607f6e344","fixation","","","img/fixation.png","null","","","test","","","","","","","","","","","","","","","","","","","",""
"538.3000000119209","225786","SARL_v6","SARL_v6vlnzfwvk","5f579cc797c3ee2607f6e344","freq","","","img/orange_2bandit_b2.png","70","","70","test","1","","93","","","","circle","square","89","2","5","0.9662921348314607","","","","","","","",""
"null","226061","SARL_v6","SARL_v6vlnzfwvk","5f579cc797c3ee2607f6e344","freq_resp","","","img/orange_2bandit_b.png","70","img/orange_2bandit_b.png","70","test","","","","","","","","","","","5","","","","","","","","",""
"null","226226","SARL_v6","SARL_v6vlnzfwvk","5f579cc797c3ee2607f6e344","fixation","","","img/fixation.png","null","","","test","","","","","","","","","","","","","","","","","","","",""
"369","226599","SARL_v6","SARL_v6vlnzfwvk","5f579cc797c3ee2607f6e344","freq","","","img/orange_2bandit_b2.png","70","","70","test","1","","94","","","","circle","square","90","3","5","0.9666666666666667","","","","","","","",""
"null","227046","SARL_v6","SARL_v6vlnzfwvk","5f579cc797c3ee2607f6e344","freq_resp","","","img/orange_2bandit_b.png","70","img/orange_2bandit_b.png","70","test","","","","","","","","","","","5","","","","","","","","",""
"null","227201","SARL_v6","SARL_v6vlnzfwvk","5f579cc797c3ee2607f6e344","fixation","","","img/fixation.png","null","","","test","","","","","","","","","","","","","","","","","","","",""
"299.8999999910593","227504","SARL_v6","SARL_v6vlnzfwvk","5f579cc797c3ee2607f6e344","freq","","","img/orange_2bandit_b2.png","70","","70","test","1","","95","","","","circle","square","91","4","5","0.967032967032967","","","","","","","",""
"null","228014","SARL_v6","SARL_v6vlnzfwvk","5f579cc797c3ee2607f6e344","freq_resp","","","img/orange_2bandit_b.png","70","img/orange_2bandit_b.png","70","test","","","","","","","","","","","5","","","","","","","","",""
"null","228176","SARL_v6","SARL_v6vlnzfwvk","5f579cc797c3ee2607f6e344","fixation","","","img/fixation.png","null","","","test","","","","","","","","","","","","","","","","","","","",""
"239.79999999701977","228419","SARL_v6","SARL_v6vlnzfwvk","5f579cc797c3ee2607f6e344","freq","","","img/orange_2bandit_b2.png","70","","70","test","1","","96","","","","circle","square","92","5","5","0.967391304347826","","","","","","","",""
"null","228999","SARL_v6","SARL_v6vlnzfwvk","5f579cc797c3ee2607f6e344","freq_resp","","","img/orange_2bandit_b.png","70","img/orange_2bandit_b.png","70","test","","","","","","","","","","","5","","","","","","","","",""
"null","229155","SARL_v6","SARL_v6vlnzfwvk","5f579cc797c3ee2607f6e344","fixation","","","img/fixation.png","null","","","test","","","","","","","","","","","","","","","","","","","",""
"340.40000000596046","229498","SARL_v6","SARL_v6vlnzfwvk","5f579cc797c3ee2607f6e344","freq","","","img/orange_2bandit_b2.png","70","","70","test","1","","97","","","","circle","square","93","6","5","0.967741935483871","","","","","","","",""
"null","229983","SARL_v6","SARL_v6vlnzfwvk","5f579cc797c3ee2607f6e344","freq_resp","","","img/orange_2bandit_b.png","70","img/orange_2bandit_b.png","70","test","","","","","","","","","","","5","","","","","","","","",""
"null","230136","SARL_v6","SARL_v6vlnzfwvk","5f579cc797c3ee2607f6e344","fixation","","","img/fixation.png","null","","","test","","","","","","","","","","","","","","","","","","","",""
"297.6000000089407","230437","SARL_v6","SARL_v6vlnzfwvk","5f579cc797c3ee2607f6e344","freq","","","img/orange_2bandit_b2.png","70","","70","test","1","","98","","","","circle","square","94","7","5","0.9680851063829787","","","","","","","",""
"null","230952","SARL_v6","SARL_v6vlnzfwvk","5f579cc797c3ee2607f6e344","freq_resp","","","img/orange_2bandit_b.png","70","img/orange_2bandit_b.png","70","test","","","","","","","","","","","5","","","","","","","","",""
"null","231108","SARL_v6","SARL_v6vlnzfwvk","5f579cc797c3ee2607f6e344","fixation","","","img/fixation.png","null","","","test","","","","","","","","","","","","","","","","","","","",""
"320.8999999910593","231432","SARL_v6","SARL_v6vlnzfwvk","5f579cc797c3ee2607f6e344","freq","","","img/orange_2bandit_b2.png","70","","70","test","1","","99","","","","circle","square","95","8","5","0.968421052631579","","","","","","","",""
"null","231920","SARL_v6","SARL_v6vlnzfwvk","5f579cc797c3ee2607f6e344","freq_resp","","","img/orange_2bandit_b.png","70","img/orange_2bandit_b.png","70","test","","","","","","","","","","","5","","","","","","","","",""
"null","232094","SARL_v6","SARL_v6vlnzfwvk","5f579cc797c3ee2607f6e344","fixation","","","img/fixation.png","null","","","test","","","","","","","","","","","","","","","","","","","",""
"247.29999999701977","232345","SARL_v6","SARL_v6vlnzfwvk","5f579cc797c3ee2607f6e344","freq","","","img/orange_2bandit_b2.png","70","","70","test","1","","100","","","","circle","square","96","9","5","0.96875","","","","","","","",""
"null","232904","SARL_v6","SARL_v6vlnzfwvk","5f579cc797c3ee2607f6e344","freq_resp","","","img/orange_2bandit_b.png","70","img/orange_2bandit_b.png","70","test","","","","","","","","","","","5","","","","","","","","",""
"null","233061","SARL_v6","SARL_v6vlnzfwvk","5f579cc797c3ee2607f6e344","fixation","","","img/fixation.png","null","","","test","","","","","","","","","","","","","","","","","","","",""
"486.19999998807907","233550","SARL_v6","SARL_v6vlnzfwvk","5f579cc797c3ee2607f6e344","freq","","","img/orange_2bandit_b2.png","70","","70","test","1","","101","","","","circle","square","97","10","5","0.9690721649484536","","","","","","","",""
"null","233873","SARL_v6","SARL_v6vlnzfwvk","5f579cc797c3ee2607f6e344","freq_resp","","","img/orange_2bandit_b.png","70","img/orange_2bandit_b.png","70","test","","","","","","","","","","","5","","","","","","","","",""
"null","234036","SARL_v6","SARL_v6vlnzfwvk","5f579cc797c3ee2607f6e344","fixation","","","img/fixation.png","null","","","test","","","","","","","","","","","","","","","","","","","",""
"467.79999999701977","234507","SARL_v6","SARL_v6vlnzfwvk","5f579cc797c3ee2607f6e344","freq","","","img/orange_2bandit_b2.png","70","","70","test","1","","102","","","","circle","square","98","11","5","0.9693877551020408","","","","","","","",""
"null","234858","SARL_v6","SARL_v6vlnzfwvk","5f579cc797c3ee2607f6e344","freq_resp","","","img/orange_2bandit_b.png","70","img/orange_2bandit_b.png","70","test","","","","","","","","","","","5","","","","","","","","",""
"null","235021","SARL_v6","SARL_v6vlnzfwvk","5f579cc797c3ee2607f6e344","fixation","","","img/fixation.png","null","","","test","","","","","","","","","","","","","","","","","","","",""
"468.29999999701977","235492","SARL_v6","SARL_v6vlnzfwvk","5f579cc797c3ee2607f6e344","freq","","","img/orange_2bandit_b2.png","70","","70","test","1","","103","","","","circle","square","99","12","5","0.9696969696969697","","","","","","","",""
"null","235842","SARL_v6","SARL_v6vlnzfwvk","5f579cc797c3ee2607f6e344","freq_resp","","","img/orange_2bandit_b.png","70","img/orange_2bandit_b.png","70","test","","","","","","","","","","","5","","","","","","","","",""
"null","235998","SARL_v6","SARL_v6vlnzfwvk","5f579cc797c3ee2607f6e344","fixation","","","img/fixation.png","null","","","test","","","","","","","","","","","","","","","","","","","",""
"469.5","236470","SARL_v6","SARL_v6vlnzfwvk","5f579cc797c3ee2607f6e344","freq","","","img/orange_2bandit_b2.png","70","","70","test","1","","104","","","","circle","square","100","13","5","0.97","","","","","","","",""
"null","236810","SARL_v6","SARL_v6vlnzfwvk","5f579cc797c3ee2607f6e344","freq_resp","","","img/orange_2bandit_b.png","70","img/orange_2bandit_b.png","70","test","","","","","","","","","","","5","","","","","","","","",""
"null","236967","SARL_v6","SARL_v6vlnzfwvk","5f579cc797c3ee2607f6e344","fixation","","","img/fixation.png","null","","","test","","","","","","","","","","","","","","","","","","","",""
"616.3999999910593","237587","SARL_v6","SARL_v6vlnzfwvk","5f579cc797c3ee2607f6e344","freq","","","img/orange_2bandit_b2.png","70","","70","test","1","","105","","","","circle","square","101","14","5","0.9702970297029703","","","","","","","",""
"null","237779","SARL_v6","SARL_v6vlnzfwvk","5f579cc797c3ee2607f6e344","freq_resp","","","img/orange_2bandit_b.png","70","img/orange_2bandit_b.png","70","test","","","","","","","","","","","5","","","","","","","","",""
"null","237933","SARL_v6","SARL_v6vlnzfwvk","5f579cc797c3ee2607f6e344","fixation","","","img/fixation.png","null","","","test","","","","","","","","","","","","","","","","","","","",""
"486","238422","SARL_v6","SARL_v6vlnzfwvk","5f579cc797c3ee2607f6e344","freq","","","img/orange_2bandit_b2.png","70","","70","test","1","","106","","","","circle","square","102","15","5","0.9705882352941176","","","","","","","",""
"null","238748","SARL_v6","SARL_v6vlnzfwvk","5f579cc797c3ee2607f6e344","freq_resp","","","img/orange_2bandit_b.png","70","img/orange_2bandit_b.png","70","test","","","","","","","","","","","5","","","","","","","","",""
"null","238914","SARL_v6","SARL_v6vlnzfwvk","5f579cc797c3ee2607f6e344","fixation","","","img/fixation.png","null","","","test","","","","","","","","","","","","","","","","","","","",""
"401.40000000596046","239318","SARL_v6","SARL_v6vlnzfwvk","5f579cc797c3ee2607f6e344","freq","","","img/orange_2bandit_b2.png","70","","70","test","1","","107","","","","circle","square","103","16","5","0.970873786407767","","","","","","","",""
"null","239733","SARL_v6","SARL_v6vlnzfwvk","5f579cc797c3ee2607f6e344","freq_resp","","","img/orange_2bandit_b.png","70","img/orange_2bandit_b.png","70","test","","","","","","","","","","","5","","","","","","","","",""
"null","239898","SARL_v6","SARL_v6vlnzfwvk","5f579cc797c3ee2607f6e344","fixation","","","img/fixation.png","null","","","test","","","","","","","","","","","","","","","","","","","",""
"447.5","240348","SARL_v6","SARL_v6vlnzfwvk","5f579cc797c3ee2607f6e344","infreq","","","img/blue_2bandit_b2.png","68","","68","test","1","","108","","","","circle","square","104","17","5","0.9711538461538461","","","","","","","",""
"null","240719","SARL_v6","SARL_v6vlnzfwvk","5f579cc797c3ee2607f6e344","infreq_resp","","","img/blue_2bandit_b.png","68","img/blue_2bandit_b.png","68","test","","","","","","","","","","","5","","","","","","","","",""
"null","240881","SARL_v6","SARL_v6vlnzfwvk","5f579cc797c3ee2607f6e344","fixation","","","img/fixation.png","null","","","test","","","","","","","","","","","","","","","","","","","",""
"539","241423","SARL_v6","SARL_v6vlnzfwvk","5f579cc797c3ee2607f6e344","infreq","","","img/blue_2bandit_b2.png","68","","68","test","1","","109","","","","circle","square","105","18","5","0.9714285714285714","","","","","","","",""
"null","241702","SARL_v6","SARL_v6vlnzfwvk","5f579cc797c3ee2607f6e344","infreq_resp","","","img/blue_2bandit_b.png","68","img/blue_2bandit_b.png","68","test","","","","","","","","","","","5","","","","","","","","",""
"null","241858","SARL_v6","SARL_v6vlnzfwvk","5f579cc797c3ee2607f6e344","fixation","","","img/fixation.png","null","","","test","","","","","","","","","","","","","","","","","","","",""
"430","242291","SARL_v6","SARL_v6vlnzfwvk","5f579cc797c3ee2607f6e344","freq","","","img/orange_2bandit_b2.png","70","","70","test","1","","110","","","","circle","square","106","19","5","0.9716981132075472","","","","","","","",""
"null","242670","SARL_v6","SARL_v6vlnzfwvk","5f579cc797c3ee2607f6e344","freq_resp","","","img/orange_2bandit_b.png","70","img/orange_2bandit_b.png","70","test","","","","","","","","","","","5","","","","","","","","",""
"null","242826","SARL_v6","SARL_v6vlnzfwvk","5f579cc797c3ee2607f6e344","fixation","","","img/fixation.png","null","","","test","","","","","","","","","","","","","","","","","","","",""
"568.9000000059605","243399","SARL_v6","SARL_v6vlnzfwvk","5f579cc797c3ee2607f6e344","infreq","","","img/blue_2bandit_b2.png","68","","68","test","1","","111","","","","circle","square","107","20","5","0.9719626168224299","","","","","","","",""
"null","243639","SARL_v6","SARL_v6vlnzfwvk","5f579cc797c3ee2607f6e344","infreq_resp","","","img/blue_2bandit_b.png","68","img/blue_2bandit_b.png","68","test","","","","","","","","","","","5","","","","","","","","",""
"null","243796","SARL_v6","SARL_v6vlnzfwvk","5f579cc797c3ee2607f6e344","fixation","","","img/fixation.png","null","","","test","","","","","","","","","","","","","","","","","","","",""
"464.3999999910593","244264","SARL_v6","SARL_v6vlnzfwvk","5f579cc797c3ee2607f6e344","freq","","","img/orange_2bandit_b2.png","70","","70","test","1","","112","","","","circle","square","108","21","5","0.9722222222222222","","","","","","","",""
"null","244607","SARL_v6","SARL_v6vlnzfwvk","5f579cc797c3ee2607f6e344","freq_resp","","","img/orange_2bandit_b.png","70","img/orange_2bandit_b.png","70","test","","","","","","","","","","","5","","","","","","","","",""
"null","244764","SARL_v6","SARL_v6vlnzfwvk","5f579cc797c3ee2607f6e344","fixation","","","img/fixation.png","null","","","test","","","","","","","","","","","","","","","","","","","",""
"431","245199","SARL_v6","SARL_v6vlnzfwvk","5f579cc797c3ee2607f6e344","freq","","","img/orange_2bandit_b2.png","70","","70","test","1","","113","","","","circle","square","109","22","5","0.9724770642201835","","","","","","","",""
"null","245576","SARL_v6","SARL_v6vlnzfwvk","5f579cc797c3ee2607f6e344","freq_resp","","","img/orange_2bandit_b.png","70","img/orange_2bandit_b.png","70","test","","","","","","","","","","","5","","","","","","","","",""
"null","245741","SARL_v6","SARL_v6vlnzfwvk","5f579cc797c3ee2607f6e344","fixation","","","img/fixation.png","null","","","test","","","","","","","","","","","","","","","","","","","",""
"404.6000000089407","246149","SARL_v6","SARL_v6vlnzfwvk","5f579cc797c3ee2607f6e344","freq","","","img/orange_2bandit_b2.png","70","","70","test","1","","114","","","","circle","square","110","23","5","0.9727272727272728","","","","","","","",""
"null","246560","SARL_v6","SARL_v6vlnzfwvk","5f579cc797c3ee2607f6e344","freq_resp","","","img/orange_2bandit_b.png","70","img/orange_2bandit_b.png","70","test","","","","","","","","","","","5","","","","","","","","",""
"null","246725","SARL_v6","SARL_v6vlnzfwvk","5f579cc797c3ee2607f6e344","fixation","","","img/fixation.png","null","","","test","","","","","","","","","","","","","","","","","","","",""
"393.59999999403954","247123","SARL_v6","SARL_v6vlnzfwvk","5f579cc797c3ee2607f6e344","freq","","","img/orange_2bandit_b2.png","70","","70","test","1","","115","","","","circle","square","111","24","5","0.972972972972973","","","","","","","",""
"null","247547","SARL_v6","SARL_v6vlnzfwvk","5f579cc797c3ee2607f6e344","freq_resp","","","img/orange_2bandit_b.png","70","img/orange_2bandit_b.png","70","test","","","","","","","","","","","5","","","","","","","","",""
"null","247701","SARL_v6","SARL_v6vlnzfwvk","5f579cc797c3ee2607f6e344","fixation","","","img/fixation.png","null","","","test","","","","","","","","","","","","","","","","","","","",""
"361.79999999701977","248066","SARL_v6","SARL_v6vlnzfwvk","5f579cc797c3ee2607f6e344","freq","","","img/orange_2bandit_b2.png","70","","70","test","1","","116","","","","circle","square","112","25","5","0.9732142857142857","","","","","","","",""
"null","248514","SARL_v6","SARL_v6vlnzfwvk","5f579cc797c3ee2607f6e344","freq_resp","","","img/orange_2bandit_b.png","70","img/orange_2bandit_b.png","70","test","","","","","","","","","","","5","","","","","","","","",""
"null","248670","SARL_v6","SARL_v6vlnzfwvk","5f579cc797c3ee2607f6e344","fixation","","","img/fixation.png","null","","","test","","","","","","","","","","","","","","","","","","","",""
"350.1000000089407","249022","SARL_v6","SARL_v6vlnzfwvk","5f579cc797c3ee2607f6e344","rl","","","img/black_2bandit_b2.png","74","","0","test","","","117","","","4","circle","square","","0","5","","74","4","-7","4","-7","circle","5","0"
"null","249780","SARL_v6","SARL_v6vlnzfwvk","5f579cc797c3ee2607f6e344","feedback","","","<div class=""veryhighPoints""> 4 </div>","null","","na","test","","","NaN","","","","","","","","5","","74","","","","","","5",""
"347.70000000298023","250131","SARL_v6","SARL_v6vlnzfwvk","5f579cc797c3ee2607f6e344","freq","","","img/orange_2bandit_b2.png","70","","70","test","1","","118","","","","circle","square","113","1","6","0.9734513274336283","","","","","","","",""
"null","250593","SARL_v6","SARL_v6vlnzfwvk","5f579cc797c3ee2607f6e344","freq_resp","","","img/orange_2bandit_b.png","70","img/orange_2bandit_b.png","70","test","","","","","","","","","","","6","","","","","","","","",""
"null","250746","SARL_v6","SARL_v6vlnzfwvk","5f579cc797c3ee2607f6e344","fixation","","","img/fixation.png","null","","","test","","","","","","","","","","","","","","","","","","","",""
"299.79999999701977","251049","SARL_v6","SARL_v6vlnzfwvk","5f579cc797c3ee2607f6e344","freq","","","img/orange_2bandit_b2.png","70","","70","test","1","","119","","","","circle","square","114","2","6","0.9736842105263158","","","","","","","",""
"null","251561","SARL_v6","SARL_v6vlnzfwvk","5f579cc797c3ee2607f6e344","freq_resp","","","img/orange_2bandit_b.png","70","img/orange_2bandit_b.png","70","test","","","","","","","","","","","6","","","","","","","","",""
"null","251717","SARL_v6","SARL_v6vlnzfwvk","5f579cc797c3ee2607f6e344","fixation","","","img/fixation.png","null","","","test","","","","","","","","","","","","","","","","","","","",""
"377.5","252097","SARL_v6","SARL_v6vlnzfwvk","5f579cc797c3ee2607f6e344","freq","","","img/orange_2bandit_b2.png","70","","70","test","1","","120","","","","circle","square","115","3","6","0.9739130434782609","","","","","","","",""
"null","252530","SARL_v6","SARL_v6vlnzfwvk","5f579cc797c3ee2607f6e344","freq_resp","","","img/orange_2bandit_b.png","70","img/orange_2bandit_b.png","70","test","","","","","","","","","","","6","","","","","","","","",""
"null","252686","SARL_v6","SARL_v6vlnzfwvk","5f579cc797c3ee2607f6e344","fixation","","","img/fixation.png","null","","","test","","","","","","","","","","","","","","","","","","","",""
"576.0999999940395","253265","SARL_v6","SARL_v6vlnzfwvk","5f579cc797c3ee2607f6e344","freq","","","img/orange_2bandit_b2.png","70","","70","test","1","","121","","","","circle","square","116","4","6","0.9741379310344828","","","","","","","",""
"null","253495","SARL_v6","SARL_v6vlnzfwvk","5f579cc797c3ee2607f6e344","freq_resp","","","img/orange_2bandit_b.png","70","img/orange_2bandit_b.png","70","test","","","","","","","","","","","6","","","","","","","","",""
"null","253654","SARL_v6","SARL_v6vlnzfwvk","5f579cc797c3ee2607f6e344","fixation","","","img/fixation.png","null","","","test","","","","","","","","","","","","","","","","","","","",""
"506.20000000298023","254164","SARL_v6","SARL_v6vlnzfwvk","5f579cc797c3ee2607f6e344","freq","","","img/orange_2bandit_b2.png","70","","70","test","1","","122","","","","circle","square","117","5","6","0.9743589743589743","","","","","","","",""
"null","254482","SARL_v6","SARL_v6vlnzfwvk","5f579cc797c3ee2607f6e344","freq_resp","","","img/orange_2bandit_b.png","70","img/orange_2bandit_b.png","70","test","","","","","","","","","","","6","","","","","","","","",""
"null","254648","SARL_v6","SARL_v6vlnzfwvk","5f579cc797c3ee2607f6e344","fixation","","","img/fixation.png","null","","","test","","","","","","","","","","","","","","","","","","","",""
"464.59999999403954","255116","SARL_v6","SARL_v6vlnzfwvk","5f579cc797c3ee2607f6e344","freq","","","img/orange_2bandit_b2.png","70","","70","test","1","","123","","","","circle","square","118","6","6","0.9745762711864406","","","","","","","",""
"null","255466","SARL_v6","SARL_v6vlnzfwvk","5f579cc797c3ee2607f6e344","freq_resp","","","img/orange_2bandit_b.png","70","img/orange_2bandit_b.png","70","test","","","","","","","","","","","6","","","","","","","","",""
"null","255631","SARL_v6","SARL_v6vlnzfwvk","5f579cc797c3ee2607f6e344","fixation","","","img/fixation.png","null","","","test","","","","","","","","","","","","","","","","","","","",""
"416.09999999403954","256050","SARL_v6","SARL_v6vlnzfwvk","5f579cc797c3ee2607f6e344","freq","","","img/orange_2bandit_b2.png","70","","70","test","1","","124","","","","circle","square","119","7","6","0.9747899159663865","","","","","","","",""
"null","256436","SARL_v6","SARL_v6vlnzfwvk","5f579cc797c3ee2607f6e344","freq_resp","","","img/orange_2bandit_b.png","70","img/orange_2bandit_b.png","70","test","","","","","","","","","","","6","","","","","","","","",""
"null","256599","SARL_v6","SARL_v6vlnzfwvk","5f579cc797c3ee2607f6e344","fixation","","","img/fixation.png","null","","","test","","","","","","","","","","","","","","","","","","","",""
"465","257067","SARL_v6","SARL_v6vlnzfwvk","5f579cc797c3ee2607f6e344","freq","","","img/orange_2bandit_b2.png","70","","70","test","1","","125","","","","circle","square","120","8","6","0.975","","","","","","","",""
"null","257421","SARL_v6","SARL_v6vlnzfwvk","5f579cc797c3ee2607f6e344","freq_resp","","","img/orange_2bandit_b.png","70","img/orange_2bandit_b.png","70","test","","","","","","","","","","","6","","","","","","","","",""
"null","257577","SARL_v6","SARL_v6vlnzfwvk","5f579cc797c3ee2607f6e344","fixation","","","img/fixation.png","null","","","test","","","","","","","","","","","","","","","","","","","",""
"461.5","258041","SARL_v6","SARL_v6vlnzfwvk","5f579cc797c3ee2607f6e344","freq","","","img/orange_2bandit_b2.png","70","","70","test","1","","126","","","","circle","square","121","9","6","0.9752066115702479","","","","","","","",""
"null","258389","SARL_v6","SARL_v6vlnzfwvk","5f579cc797c3ee2607f6e344","freq_resp","","","img/orange_2bandit_b.png","70","img/orange_2bandit_b.png","70","test","","","","","","","","","","","6","","","","","","","","",""
"null","258545","SARL_v6","SARL_v6vlnzfwvk","5f579cc797c3ee2607f6e344","fixation","","","img/fixation.png","null","","","test","","","","","","","","","","","","","","","","","","","",""
"null","259357","SARL_v6","SARL_v6vlnzfwvk","5f579cc797c3ee2607f6e344","freq","","","img/orange_2bandit_b2.png","null","","70","test","0","","127","","","","circle","square","122","10","6","0.9672131147540983","","","","","","","",""
"null","259511","SARL_v6","SARL_v6vlnzfwvk","5f579cc797c3ee2607f6e344","fixation","","","img/fixation.png","null","","","test","","","","","","","","","","","","","","","","","","","",""
"684.7999999970198","260199","SARL_v6","SARL_v6vlnzfwvk","5f579cc797c3ee2607f6e344","freq","","","img/orange_2bandit_b2.png","70","","70","test","1","","128","","","","circle","square","123","11","6","0.967479674796748","","","","","","","",""
"null","260331","SARL_v6","SARL_v6vlnzfwvk","5f579cc797c3ee2607f6e344","freq_resp","","","img/orange_2bandit_b.png","70","img/orange_2bandit_b.png","70","test","","","","","","","","","","","6","","","","","","","","",""
"null","260495","SARL_v6","SARL_v6vlnzfwvk","5f579cc797c3ee2607f6e344","fixation","","","img/fixation.png","null","","","test","","","","","","","","","","","","","","","","","","","",""
"568.7000000029802","261067","SARL_v6","SARL_v6vlnzfwvk","5f579cc797c3ee2607f6e344","freq","","","img/orange_2bandit_b2.png","70","","70","test","1","","129","","","","circle","square","124","12","6","0.967741935483871","","","","","","","",""
"null","261305","SARL_v6","SARL_v6vlnzfwvk","5f579cc797c3ee2607f6e344","freq_resp","","","img/orange_2bandit_b.png","70","img/orange_2bandit_b.png","70","test","","","","","","","","","","","6","","","","","","","","",""
"null","261467","SARL_v6","SARL_v6vlnzfwvk","5f579cc797c3ee2607f6e344","fixation","","","img/fixation.png","null","","","test","","","","","","","","","","","","","","","","","","","",""
"644.7000000029802","262115","SARL_v6","SARL_v6vlnzfwvk","5f579cc797c3ee2607f6e344","freq","","","img/orange_2bandit_b2.png","70","","70","test","1","","130","","","","circle","square","125","13","6","0.968","","","","","","","",""
"null","262277","SARL_v6","SARL_v6vlnzfwvk","5f579cc797c3ee2607f6e344","freq_resp","","","img/orange_2bandit_b.png","70","img/orange_2bandit_b.png","70","test","","","","","","","","","","","6","","","","","","","","",""
"null","262435","SARL_v6","SARL_v6vlnzfwvk","5f579cc797c3ee2607f6e344","fixation","","","img/fixation.png","null","","","test","","","","","","","","","","","","","","","","","","","",""
