"rt","time_elapsed","expId","subject","prolificID","trialType","rlType","attType","stimulus","key_press","stim","corrresp","phase","corr","pracCounter","trialNum","rewardOne","rewardTwo","reward","bandOne","bandTwo","attentionNum","attentionRunNum","blockNum","performance","bandChosen","circleVal","squareVal","bandOneVal","bandTwoVal","shapeChosen","rlNum","badFlag"
"2735","2752","SARL_v6","SARL_v6zr2lvx8v","63d3f99eac52371a49e65825","","","","","","","","","","","","","","","","","","","","","","","","","","","",""
"","5215","SARL_v6","SARL_v6zr2lvx8v","63d3f99eac52371a49e65825","fullscreen","fullscreen","fullscreen","","","","","","","","","","","","","","","","","","","","","","","","",""
"15671","20898","SARL_v6","SARL_v6zr2lvx8v","63d3f99eac52371a49e65825","","","","","","","","","","","","","","","","","","","","","","","","","","","",""
"null","21713","SARL_v6","SARL_v6zr2lvx8v","63d3f99eac52371a49e65825","freqPrac","","","img/blue_2bandit_a2.png","null","img/blue_2bandit_a2.png","70","prac","0","1","","","","","","","","","","","","","","","","","",""
"null","22737","SARL_v6","SARL_v6zr2lvx8v","63d3f99eac52371a49e65825","feedback","","","img/tooSlow.png","null","","na","prac","","","","","","","","","","","","","","","","","","","",""
"null","22903","SARL_v6","SARL_v6zr2lvx8v","63d3f99eac52371a49e65825","fixation","","","img/fixation.png","null","","","prac","","","","","","","","","","","","","","","","","","","",""
"229.29999995231628","23141","SARL_v6","SARL_v6zr2lvx8v","63d3f99eac52371a49e65825","infreqPrac","","","img/orange_2bandit_a2.png","70","img/orange_2bandit_a2.png","68","prac","0","2","","","","","","","","","","","","","","","","","",""
"229.29999995231628","23734","SARL_v6","SARL_v6zr2lvx8v","63d3f99eac52371a49e65825","infreqPrac_resp","","","img/orange_2bandit_a.png","70","img/orange_2bandit_a.png","68","prac","","","","","","","","","","","","","","","","","","","",""
"null","24759","SARL_v6","SARL_v6zr2lvx8v","63d3f99eac52371a49e65825","feedback","","","img/wrongKey.png","null","","na","prac","","","","","","","","","","","","","","","","","","","",""
"null","24924","SARL_v6","SARL_v6zr2lvx8v","63d3f99eac52371a49e65825","fixation","","","img/fixation.png","null","","","prac","","","","","","","","","","","","","","","","","","","",""
"348.39999985694885","25282","SARL_v6","SARL_v6zr2lvx8v","63d3f99eac52371a49e65825","freqPrac","","","img/blue_2bandit_a2.png","70","img/blue_2bandit_a2.png","70","prac","1","2","","","","","","","","","","","","","","","","","",""
"348.39999985694885","25743","SARL_v6","SARL_v6zr2lvx8v","63d3f99eac52371a49e65825","freqPrac_resp","","","img/blue_2bandit_a.png","70","img/blue_2bandit_a.png","70","prac","","","","","","","","","","","","","","","","","","","",""
"null","25905","SARL_v6","SARL_v6zr2lvx8v","63d3f99eac52371a49e65825","fixation","","","img/fixation.png","null","","","prac","","","","","","","","","","","","","","","","","","","",""
"503.5","26418","SARL_v6","SARL_v6zr2lvx8v","63d3f99eac52371a49e65825","infreqPrac","","","img/orange_2bandit_a2.png","68","img/orange_2bandit_a2.png","68","prac","1","2","","","","","","","","","","","","","","","","","",""
"503.5","26732","SARL_v6","SARL_v6zr2lvx8v","63d3f99eac52371a49e65825","infreqPrac_resp","","","img/orange_2bandit_a.png","68","img/orange_2bandit_a.png","68","prac","","","","","","","","","","","","","","","","","","","",""
"null","26906","SARL_v6","SARL_v6zr2lvx8v","63d3f99eac52371a49e65825","fixation","","","img/fixation.png","null","","","prac","","","","","","","","","","","","","","","","","","","",""
"290.7000000476837","27207","SARL_v6","SARL_v6zr2lvx8v","63d3f99eac52371a49e65825","infreqPrac","","","img/orange_2bandit_a2.png","68","img/orange_2bandit_a2.png","68","prac","1","2","","","","","","","","","","","","","","","","","",""
"290.7000000476837","27742","SARL_v6","SARL_v6zr2lvx8v","63d3f99eac52371a49e65825","infreqPrac_resp","","","img/orange_2bandit_a.png","68","img/orange_2bandit_a.png","68","prac","","","","","","","","","","","","","","","","","","","",""
"null","27906","SARL_v6","SARL_v6zr2lvx8v","63d3f99eac52371a49e65825","fixation","","","img/fixation.png","null","","","prac","","","","","","","","","","","","","","","","","","","",""
"102.90000009536743","28019","SARL_v6","SARL_v6zr2lvx8v","63d3f99eac52371a49e65825","infreqPrac","","","img/orange_2bandit_a2.png","68","img/orange_2bandit_a2.png","68","prac","1","2","","","","","","","","","","","","","","","","","",""
"102.90000009536743","28733","SARL_v6","SARL_v6zr2lvx8v","63d3f99eac52371a49e65825","infreqPrac_resp","","","img/orange_2bandit_a.png","68","img/orange_2bandit_a.png","68","prac","","","","","","","","","","","","","","","","","","","",""
"null","28905","SARL_v6","SARL_v6zr2lvx8v","63d3f99eac52371a49e65825","fixation","","","img/fixation.png","null","","","prac","","","","","","","","","","","","","","","","","","","",""
"427.2999999523163","29341","SARL_v6","SARL_v6zr2lvx8v","63d3f99eac52371a49e65825","freqPrac","","","img/blue_2bandit_a2.png","70","img/blue_2bandit_a2.png","70","prac","1","2","","","","","","","","","","","","","","","","","",""
"427.2999999523163","29731","SARL_v6","SARL_v6zr2lvx8v","63d3f99eac52371a49e65825","freqPrac_resp","","","img/blue_2bandit_a.png","70","img/blue_2bandit_a.png","70","prac","","","","","","","","","","","","","","","","","","","",""
"null","29906","SARL_v6","SARL_v6zr2lvx8v","63d3f99eac52371a49e65825","fixation","","","img/fixation.png","null","","","prac","","","","","","","","","","","","","","","","","","","",""
"446.59999990463257","30362","SARL_v6","SARL_v6zr2lvx8v","63d3f99eac52371a49e65825","infreqPrac","","","img/orange_2bandit_a2.png","68","img/orange_2bandit_a2.png","68","prac","1","2","","","","","","","","","","","","","","","","","",""
"446.59999990463257","30729","SARL_v6","SARL_v6zr2lvx8v","63d3f99eac52371a49e65825","infreqPrac_resp","","","img/orange_2bandit_a.png","68","img/orange_2bandit_a.png","68","prac","","","","","","","","","","","","","","","","","","","",""
"null","30905","SARL_v6","SARL_v6zr2lvx8v","63d3f99eac52371a49e65825","fixation","","","img/fixation.png","null","","","prac","","","","","","","","","","","","","","","","","","","",""
"711.0999999046326","31626","SARL_v6","SARL_v6zr2lvx8v","63d3f99eac52371a49e65825","freqPrac","","","img/blue_2bandit_a2.png","70","img/blue_2bandit_a2.png","70","prac","1","2","","","","","","","","","","","","","","","","","",""
"711.0999999046326","31739","SARL_v6","SARL_v6zr2lvx8v","63d3f99eac52371a49e65825","freqPrac_resp","","","img/blue_2bandit_a.png","70","img/blue_2bandit_a.png","70","prac","","","","","","","","","","","","","","","","","","","",""
"null","31904","SARL_v6","SARL_v6zr2lvx8v","63d3f99eac52371a49e65825","fixation","","","img/fixation.png","null","","","prac","","","","","","","","","","","","","","","","","","","",""
"501.7000000476837","32415","SARL_v6","SARL_v6zr2lvx8v","63d3f99eac52371a49e65825","freqPrac","","","img/blue_2bandit_a2.png","70","img/blue_2bandit_a2.png","70","prac","1","2","","","","","","","","","","","","","","","","","",""
"501.7000000476837","32732","SARL_v6","SARL_v6zr2lvx8v","63d3f99eac52371a49e65825","freqPrac_resp","","","img/blue_2bandit_a.png","70","img/blue_2bandit_a.png","70","prac","","","","","","","","","","","","","","","","","","","",""
"null","32903","SARL_v6","SARL_v6zr2lvx8v","63d3f99eac52371a49e65825","fixation","","","img/fixation.png","null","","","prac","","","","","","","","","","","","","","","","","","","",""
"15161.099999904633","48074","SARL_v6","SARL_v6zr2lvx8v","63d3f99eac52371a49e65825","","","","","","","","prac","","","","","","","","","","","","","","","","","","","",""
"621.5","48706","SARL_v6","SARL_v6zr2lvx8v","63d3f99eac52371a49e65825","rlPractice","","","img/black_2bandit_a2.png","75","img/black_2bandit_a2.png","","prac","","","0","","","","","","","","","","","","","","","","",""
"null","49479","SARL_v6","SARL_v6zr2lvx8v","63d3f99eac52371a49e65825","feedback","","","<div class=""veryhighPoints""> 10 </div>","null","","na","prac","","","1","10","-14","10","","","","","","","","","","","","","",""
"null","49652","SARL_v6","SARL_v6zr2lvx8v","63d3f99eac52371a49e65825","fixation","","","img/fixation.png","null","","","prac","","","","","","","","","","","","","","","","","","","",""
"388.7999999523163","50051","SARL_v6","SARL_v6zr2lvx8v","63d3f99eac52371a49e65825","rlPractice","","","img/black_2bandit_a2.png","74","img/black_2bandit_a2.png","","prac","","","1","","","","","","","","","","","","","","","","",""
"null","50812","SARL_v6","SARL_v6zr2lvx8v","63d3f99eac52371a49e65825","feedback","","","<div class=""verylowPoints_sq""> -5 </div>","null","","na","prac","","","2","5","-5","5","","","","","","","","","","","","","",""
"null","50974","SARL_v6","SARL_v6zr2lvx8v","63d3f99eac52371a49e65825","fixation","","","img/fixation.png","null","","","prac","","","","","","","","","","","","","","","","","","","",""
"592.4000000953674","51575","SARL_v6","SARL_v6zr2lvx8v","63d3f99eac52371a49e65825","rlPractice","","","img/black_2bandit_a2.png","74","img/black_2bandit_a2.png","","prac","","","2","","","","","","","","","","","","","","","","",""
"null","52343","SARL_v6","SARL_v6zr2lvx8v","63d3f99eac52371a49e65825","feedback","","","<div class=""veryhighPoints_sq""> 2 </div>","null","","na","prac","","","3","30","2","30","","","","","","","","","","","","","",""
"null","52509","SARL_v6","SARL_v6zr2lvx8v","63d3f99eac52371a49e65825","fixation","","","img/fixation.png","null","","","prac","","","","","","","","","","","","","","","","","","","",""
"477.7999999523163","52996","SARL_v6","SARL_v6zr2lvx8v","63d3f99eac52371a49e65825","rlPractice","","","img/black_2bandit_a2.png","74","img/black_2bandit_a2.png","","prac","","","3","","","","","","","","","","","","","","","","",""
"null","53761","SARL_v6","SARL_v6zr2lvx8v","63d3f99eac52371a49e65825","feedback","","","<div class=""veryhighPoints_sq""> 20 </div>","null","","na","prac","","","4","-2","20","-2","","","","","","","","","","","","","",""
"null","53936","SARL_v6","SARL_v6zr2lvx8v","63d3f99eac52371a49e65825","fixation","","","img/fixation.png","null","","","prac","","","","","","","","","","","","","","","","","","","",""
"10213.700000047684","64158","SARL_v6","SARL_v6zr2lvx8v","63d3f99eac52371a49e65825","","","","","","","","prac","","","","","","","","","","","","","","","","","","","",""
"null","64975","SARL_v6","SARL_v6zr2lvx8v","63d3f99eac52371a49e65825","mixAttFreqPrac","","","img/blue_2bandit_a2.png","null","img/blue_2bandit_a2.png","70","prac","","","1","","","","","","","","","","","","","","","","",""
"null","65149","SARL_v6","SARL_v6zr2lvx8v","63d3f99eac52371a49e65825","fixation","","","img/fixation.png","null","","","prac","","","","","","","","","","","","","","","","","","","",""
"224.70000004768372","65384","SARL_v6","SARL_v6zr2lvx8v","63d3f99eac52371a49e65825","mixAttInfreqPrac","","","img/orange_2bandit_a2.png","70","img/orange_2bandit_a2.png","68","prac","","","2","","","","","","","","","","","","","","","","",""
"224.70000004768372","65982","SARL_v6","SARL_v6zr2lvx8v","63d3f99eac52371a49e65825","infreqPrac_resp","","","img/orange_2bandit_a.png","70","img/blue_2bandit_a.png","68","prac","","","2","","","","","","","","","","","","","","","","",""
"null","66151","SARL_v6","SARL_v6zr2lvx8v","63d3f99eac52371a49e65825","fixation","","","img/fixation.png","null","","","prac","","","","","","","","","","","","","","","","","","","",""
"214.29999995231628","66374","SARL_v6","SARL_v6zr2lvx8v","63d3f99eac52371a49e65825","mixAttInfreqPrac","","","img/orange_2bandit_a2.png","68","img/orange_2bandit_a2.png","68","prac","","","3","","","","","","","","","","","","","","","","",""
"214.29999995231628","66981","SARL_v6","SARL_v6zr2lvx8v","63d3f99eac52371a49e65825","infreqPrac_resp","","","img/orange_2bandit_a.png","68","img/blue_2bandit_a.png","68","prac","","","3","","","","","","","","","","","","","","","","",""
"null","67151","SARL_v6","SARL_v6zr2lvx8v","63d3f99eac52371a49e65825","fixation","","","img/fixation.png","null","","","prac","","","","","","","","","","","","","","","","","","","",""
"102.60000014305115","67264","SARL_v6","SARL_v6zr2lvx8v","63d3f99eac52371a49e65825","mixAttInfreqPrac","","","img/orange_2bandit_a2.png","68","img/orange_2bandit_a2.png","68","prac","","","4","","","","","","","","","","","","","","","","",""
"102.60000014305115","67977","SARL_v6","SARL_v6zr2lvx8v","63d3f99eac52371a49e65825","infreqPrac_resp","","","img/orange_2bandit_a.png","68","img/blue_2bandit_a.png","68","prac","","","4","","","","","","","","","","","","","","","","",""
"null","68151","SARL_v6","SARL_v6zr2lvx8v","63d3f99eac52371a49e65825","fixation","","","img/fixation.png","null","","","prac","","","","","","","","","","","","","","","","","","","",""
"197.59999990463257","68357","SARL_v6","SARL_v6zr2lvx8v","63d3f99eac52371a49e65825","mixAttFreqPrac","","","img/blue_2bandit_a2.png","68","img/blue_2bandit_a2.png","70","prac","","","5","","","","","","","","","","","","","","","","",""
"197.59999990463257","68983","SARL_v6","SARL_v6zr2lvx8v","63d3f99eac52371a49e65825","freqPrac_resp","","","img/blue_2bandit_a.png","68","img/blue_2bandit_a.png","70","prac","","","5","","","","","","","","","","","","","","","","",""
"null","69151","SARL_v6","SARL_v6zr2lvx8v","63d3f99eac52371a49e65825","fixation","","","img/fixation.png","null","","","prac","","","","","","","","","","","","","","","","","","","",""
"445","69606","SARL_v6","SARL_v6zr2lvx8v","63d3f99eac52371a49e65825","mixRLPractice","","","img/black_2bandit_a2.png","74","img/black_2bandit_a2.png","","prac","","","5","","","","","","","","","","","","","","","","",""
"null","70373","SARL_v6","SARL_v6zr2lvx8v","63d3f99eac52371a49e65825","feedback","","","<div class=""veryhighPoints_sq""> 10 </div>","null","","na","prac","","","6","-14","10","-14","","","","","","","","","","","","","",""
"null","70549","SARL_v6","SARL_v6zr2lvx8v","63d3f99eac52371a49e65825","fixation","","","img/fixation.png","null","","","prac","","","","","","","","","","","","","","","","","","","",""
"274.40000009536743","70833","SARL_v6","SARL_v6zr2lvx8v","63d3f99eac52371a49e65825","mixAttFreqPrac","","","img/blue_2bandit_a2.png","68","img/blue_2bandit_a2.png","70","prac","","","7","","","","","","","","","","","","","","","","",""
"274.40000009536743","71384","SARL_v6","SARL_v6zr2lvx8v","63d3f99eac52371a49e65825","freqPrac_resp","","","img/blue_2bandit_a.png","68","img/blue_2bandit_a.png","70","prac","","","7","","","","","","","","","","","","","","","","",""
"null","71550","SARL_v6","SARL_v6zr2lvx8v","63d3f99eac52371a49e65825","fixation","","","img/fixation.png","null","","","prac","","","","","","","","","","","","","","","","","","","",""
"287","71847","SARL_v6","SARL_v6zr2lvx8v","63d3f99eac52371a49e65825","mixAttInfreqPrac","","","img/orange_2bandit_a2.png","68","img/orange_2bandit_a2.png","68","prac","","","8","","","","","","","","","","","","","","","","",""
"287","72384","SARL_v6","SARL_v6zr2lvx8v","63d3f99eac52371a49e65825","infreqPrac_resp","","","img/orange_2bandit_a.png","68","img/blue_2bandit_a.png","68","prac","","","8","","","","","","","","","","","","","","","","",""
"null","72548","SARL_v6","SARL_v6zr2lvx8v","63d3f99eac52371a49e65825","fixation","","","img/fixation.png","null","","","prac","","","","","","","","","","","","","","","","","","","",""
"616","73173","SARL_v6","SARL_v6zr2lvx8v","63d3f99eac52371a49e65825","mixAttFreqPrac","","","img/blue_2bandit_a2.png","70","img/blue_2bandit_a2.png","70","prac","","","9","","","","","","","","","","","","","","","","",""
"616","73381","SARL_v6","SARL_v6zr2lvx8v","63d3f99eac52371a49e65825","freqPrac_resp","","","img/blue_2bandit_a.png","70","img/blue_2bandit_a.png","70","prac","","","9","","","","","","","","","","","","","","","","",""
"null","73550","SARL_v6","SARL_v6zr2lvx8v","63d3f99eac52371a49e65825","fixation","","","img/fixation.png","null","","","prac","","","","","","","","","","","","","","","","","","","",""
"385","73942","SARL_v6","SARL_v6zr2lvx8v","63d3f99eac52371a49e65825","mixAttFreqPrac","","","img/blue_2bandit_a2.png","70","img/blue_2bandit_a2.png","70","prac","","","10","","","","","","","","","","","","","","","","",""
"385","74372","SARL_v6","SARL_v6zr2lvx8v","63d3f99eac52371a49e65825","freqPrac_resp","","","img/blue_2bandit_a.png","70","img/blue_2bandit_a.png","70","prac","","","10","","","","","","","","","","","","","","","","",""
"null","74547","SARL_v6","SARL_v6zr2lvx8v","63d3f99eac52371a49e65825","fixation","","","img/fixation.png","null","","","prac","","","","","","","","","","","","","","","","","","","",""
"130.29999995231628","74687","SARL_v6","SARL_v6zr2lvx8v","63d3f99eac52371a49e65825","mixAttInfreqPrac","","","img/orange_2bandit_a2.png","70","img/orange_2bandit_a2.png","68","prac","","","11","","","","","","","","","","","","","","","","",""
"130.29999995231628","75375","SARL_v6","SARL_v6zr2lvx8v","63d3f99eac52371a49e65825","infreqPrac_resp","","","img/orange_2bandit_a.png","70","img/blue_2bandit_a.png","68","prac","","","11","","","","","","","","","","","","","","","","",""
"86.10000014305115","75549","SARL_v6","SARL_v6zr2lvx8v","63d3f99eac52371a49e65825","fixation","","","img/fixation.png","70","","","prac","","","","","","","","","","","","","","","","","","","",""
"425.60000014305115","75984","SARL_v6","SARL_v6zr2lvx8v","63d3f99eac52371a49e65825","mixRLPractice","","","img/black_2bandit_a2.png","74","img/black_2bandit_a2.png","","prac","","","11","","","","","","","","","","","","","","","","",""
"null","76757","SARL_v6","SARL_v6zr2lvx8v","63d3f99eac52371a49e65825","feedback","","","<div class=""verylowPoints_sq""> -5 </div>","null","","na","prac","","","12","5","-5","5","","","","","","","","","","","","","",""
"null","76917","SARL_v6","SARL_v6zr2lvx8v","63d3f99eac52371a49e65825","fixation","","","img/fixation.png","null","","","prac","","","","","","","","","","","","","","","","","","","",""
"10237.400000095367","87163","SARL_v6","SARL_v6zr2lvx8v","63d3f99eac52371a49e65825","","","","","","","","prac","","","","","","","","","","","","","","","","","","","",""
"null","87987","SARL_v6","SARL_v6zr2lvx8v","63d3f99eac52371a49e65825","freq","","","img/blue_2bandit_a2.png","null","","70","test","0","","1","","","","square","circle","1","1","1","0","","","","","","","",""
"null","88148","SARL_v6","SARL_v6zr2lvx8v","63d3f99eac52371a49e65825","fixation","","","img/fixation.png","null","","","test","","","","","","","","","","","","","","","","","","","",""
"661.3999998569489","88818","SARL_v6","SARL_v6zr2lvx8v","63d3f99eac52371a49e65825","freq","","","img/blue_2bandit_a2.png","70","","70","test","1","","2","","","","square","circle","2","2","1","0.5","","","","","","","",""
"null","88980","SARL_v6","SARL_v6zr2lvx8v","63d3f99eac52371a49e65825","freq_resp","","","img/blue_2bandit_a.png","70","img/blue_2bandit_a.png","70","test","","","","","","","","","","","1","","","","","","","","",""
"null","89147","SARL_v6","SARL_v6zr2lvx8v","63d3f99eac52371a49e65825","fixation","","","img/fixation.png","null","","","test","","","","","","","","","","","","","","","","","","","",""
"358.89999985694885","89515","SARL_v6","SARL_v6zr2lvx8v","63d3f99eac52371a49e65825","freq","","","img/blue_2bandit_a2.png","70","","70","test","1","","3","","","","square","circle","3","3","1","0.6666666666666666","","","","","","","",""
"null","89968","SARL_v6","SARL_v6zr2lvx8v","63d3f99eac52371a49e65825","freq_resp","","","img/blue_2bandit_a.png","70","img/blue_2bandit_a.png","70","test","","","","","","","","","","","1","","","","","","","","",""
"null","90129","SARL_v6","SARL_v6zr2lvx8v","63d3f99eac52371a49e65825","fixation","","","img/fixation.png","null","","","test","","","","","","","","","","","","","","","","","","","",""
"261.7000000476837","90401","SARL_v6","SARL_v6zr2lvx8v","63d3f99eac52371a49e65825","infreq","","","img/orange_2bandit_a2.png","70","","68","test","0","","4","","","","square","circle","4","4","1","0.5","","","","","","","",""
"null","90963","SARL_v6","SARL_v6zr2lvx8v","63d3f99eac52371a49e65825","infreq_resp","","","img/orange_2bandit_a.png","70","img/orange_2bandit_a.png","68","test","","","","","","","","","","","1","","","","","","","","",""
"null","91131","SARL_v6","SARL_v6zr2lvx8v","63d3f99eac52371a49e65825","fixation","","","img/fixation.png","null","","","test","","","","","","","","","","","","","","","","","","","",""
"411.30000019073486","91552","SARL_v6","SARL_v6zr2lvx8v","63d3f99eac52371a49e65825","freq","","","img/blue_2bandit_a2.png","68","","70","test","0","","5","","","","square","circle","5","5","1","0.4","","","","","","","",""
"null","91953","SARL_v6","SARL_v6zr2lvx8v","63d3f99eac52371a49e65825","freq_resp","","","img/blue_2bandit_a.png","68","img/blue_2bandit_a.png","70","test","","","","","","","","","","","1","","","","","","","","",""
"null","92114","SARL_v6","SARL_v6zr2lvx8v","63d3f99eac52371a49e65825","fixation","","","img/fixation.png","null","","","test","","","","","","","","","","","","","","","","","","","",""
"445.7999999523163","92569","SARL_v6","SARL_v6zr2lvx8v","63d3f99eac52371a49e65825","freq","","","img/blue_2bandit_a2.png","70","","70","test","1","","6","","","","square","circle","6","6","1","0.5","","","","","","","",""
"null","92937","SARL_v6","SARL_v6zr2lvx8v","63d3f99eac52371a49e65825","freq_resp","","","img/blue_2bandit_a.png","70","img/blue_2bandit_a.png","70","test","","","","","","","","","","","1","","","","","","","","",""
"null","93097","SARL_v6","SARL_v6zr2lvx8v","63d3f99eac52371a49e65825","fixation","","","img/fixation.png","null","","","test","","","","","","","","","","","","","","","","","","","",""
"472.5","93579","SARL_v6","SARL_v6zr2lvx8v","63d3f99eac52371a49e65825","infreq","","","img/orange_2bandit_a2.png","68","","68","test","1","","7","","","","square","circle","7","7","1","0.5714285714285714","","","","","","","",""
"null","93921","SARL_v6","SARL_v6zr2lvx8v","63d3f99eac52371a49e65825","infreq_resp","","","img/orange_2bandit_a.png","68","img/orange_2bandit_a.png","68","test","","","","","","","","","","","1","","","","","","","","",""
"null","94082","SARL_v6","SARL_v6zr2lvx8v","63d3f99eac52371a49e65825","fixation","","","img/fixation.png","null","","","test","","","","","","","","","","","","","","","","","","","",""
"600.0999999046326","94691","SARL_v6","SARL_v6zr2lvx8v","63d3f99eac52371a49e65825","freq","","","img/blue_2bandit_a2.png","70","","70","test","1","","8","","","","square","circle","8","8","1","0.625","","","","","","","",""
"null","94910","SARL_v6","SARL_v6zr2lvx8v","63d3f99eac52371a49e65825","freq_resp","","","img/blue_2bandit_a.png","70","img/blue_2bandit_a.png","70","test","","","","","","","","","","","1","","","","","","","","",""
"null","95079","SARL_v6","SARL_v6zr2lvx8v","63d3f99eac52371a49e65825","fixation","","","img/fixation.png","null","","","test","","","","","","","","","","","","","","","","","","","",""
"null","95903","SARL_v6","SARL_v6zr2lvx8v","63d3f99eac52371a49e65825","freq","","","img/blue_2bandit_a2.png","null","","70","test","0","","9","","","","square","circle","9","9","1","0.5555555555555556","","","","","","","",""
"null","96063","SARL_v6","SARL_v6zr2lvx8v","63d3f99eac52371a49e65825","fixation","","","img/fixation.png","null","","","test","","","","","","","","","","","","","","","","","","","",""
"193.20000004768372","96266","SARL_v6","SARL_v6zr2lvx8v","63d3f99eac52371a49e65825","freq","","","img/blue_2bandit_a2.png","70","","70","test","1","","10","","","","square","circle","10","10","1","0.6","","","","","","","",""
"null","96893","SARL_v6","SARL_v6zr2lvx8v","63d3f99eac52371a49e65825","freq_resp","","","img/blue_2bandit_a.png","70","img/blue_2bandit_a.png","70","test","","","","","","","","","","","1","","","","","","","","",""
"null","97062","SARL_v6","SARL_v6zr2lvx8v","63d3f99eac52371a49e65825","fixation","","","img/fixation.png","null","","","test","","","","","","","","","","","","","","","","","","","",""
"278.5","97350","SARL_v6","SARL_v6zr2lvx8v","63d3f99eac52371a49e65825","freq","","","img/blue_2bandit_a2.png","70","","70","test","1","","11","","","","square","circle","11","11","1","0.6363636363636364","","","","","","","",""
"null","97884","SARL_v6","SARL_v6zr2lvx8v","63d3f99eac52371a49e65825","freq_resp","","","img/blue_2bandit_a.png","70","img/blue_2bandit_a.png","70","test","","","","","","","","","","","1","","","","","","","","",""
"null","98046","SARL_v6","SARL_v6zr2lvx8v","63d3f99eac52371a49e65825","fixation","","","img/fixation.png","null","","","test","","","","","","","","","","","","","","","","","","","",""
"124.59999990463257","98178","SARL_v6","SARL_v6zr2lvx8v","63d3f99eac52371a49e65825","freq","","","img/blue_2bandit_a2.png","70","","70","test","1","","12","","","","square","circle","12","12","1","0.6666666666666666","","","","","","","",""
"null","98875","SARL_v6","SARL_v6zr2lvx8v","63d3f99eac52371a49e65825","freq_resp","","","img/blue_2bandit_a.png","70","img/blue_2bandit_a.png","70","test","","","","","","","","","","","1","","","","","","","","",""
"null","99047","SARL_v6","SARL_v6zr2lvx8v","63d3f99eac52371a49e65825","fixation","","","img/fixation.png","null","","","test","","","","","","","","","","","","","","","","","","","",""
"254.70000004768372","99312","SARL_v6","SARL_v6zr2lvx8v","63d3f99eac52371a49e65825","freq","","","img/blue_2bandit_a2.png","70","","70","test","1","","13","","","","square","circle","13","13","1","0.6923076923076923","","","","","","","",""
"null","99881","SARL_v6","SARL_v6zr2lvx8v","63d3f99eac52371a49e65825","freq_resp","","","img/blue_2bandit_a.png","70","img/blue_2bandit_a.png","70","test","","","","","","","","","","","1","","","","","","","","",""
"null","100045","SARL_v6","SARL_v6zr2lvx8v","63d3f99eac52371a49e65825","fixation","","","img/fixation.png","null","","","test","","","","","","","","","","","","","","","","","","","",""
"65.79999995231628","100117","SARL_v6","SARL_v6zr2lvx8v","63d3f99eac52371a49e65825","freq","","","img/blue_2bandit_a2.png","70","","70","test","1","","14","","","","square","circle","14","14","1","0.7142857142857143","","","","","","","",""
"null","100871","SARL_v6","SARL_v6zr2lvx8v","63d3f99eac52371a49e65825","freq_resp","","","img/blue_2bandit_a.png","70","img/blue_2bandit_a.png","70","test","","","","","","","","","","","1","","","","","","","","",""
"null","101046","SARL_v6","SARL_v6zr2lvx8v","63d3f99eac52371a49e65825","fixation","","","img/fixation.png","null","","","test","","","","","","","","","","","","","","","","","","","",""
"333.60000014305115","101390","SARL_v6","SARL_v6zr2lvx8v","63d3f99eac52371a49e65825","freq","","","img/blue_2bandit_a2.png","70","","70","test","1","","15","","","","square","circle","15","15","1","0.7333333333333333","","","","","","","",""
"null","101869","SARL_v6","SARL_v6zr2lvx8v","63d3f99eac52371a49e65825","freq_resp","","","img/blue_2bandit_a.png","70","img/blue_2bandit_a.png","70","test","","","","","","","","","","","1","","","","","","","","",""
"null","102045","SARL_v6","SARL_v6zr2lvx8v","63d3f99eac52371a49e65825","fixation","","","img/fixation.png","null","","","test","","","","","","","","","","","","","","","","","","","",""
"360","102415","SARL_v6","SARL_v6zr2lvx8v","63d3f99eac52371a49e65825","infreq","","","img/orange_2bandit_a2.png","68","","68","test","1","","16","","","","square","circle","16","16","1","0.75","","","","","","","",""
"null","102869","SARL_v6","SARL_v6zr2lvx8v","63d3f99eac52371a49e65825","infreq_resp","","","img/orange_2bandit_a.png","68","img/orange_2bandit_a.png","68","test","","","","","","","","","","","1","","","","","","","","",""
"null","103032","SARL_v6","SARL_v6zr2lvx8v","63d3f99eac52371a49e65825","fixation","","","img/fixation.png","null","","","test","","","","","","","","","","","","","","","","","","","",""
"485.39999985694885","103527","SARL_v6","SARL_v6zr2lvx8v","63d3f99eac52371a49e65825","freq","","","img/blue_2bandit_a2.png","70","","70","test","1","","17","","","","square","circle","17","17","1","0.7647058823529411","","","","","","","",""
"null","103857","SARL_v6","SARL_v6zr2lvx8v","63d3f99eac52371a49e65825","freq_resp","","","img/blue_2bandit_a.png","70","img/blue_2bandit_a.png","70","test","","","","","","","","","","","1","","","","","","","","",""
"null","104029","SARL_v6","SARL_v6zr2lvx8v","63d3f99eac52371a49e65825","fixation","","","img/fixation.png","null","","","test","","","","","","","","","","","","","","","","","","","",""
"300","104336","SARL_v6","SARL_v6zr2lvx8v","63d3f99eac52371a49e65825","freq","","","img/blue_2bandit_a2.png","70","","70","test","1","","18","","","","square","circle","18","18","1","0.7777777777777778","","","","","","","",""
"null","104847","SARL_v6","SARL_v6zr2lvx8v","63d3f99eac52371a49e65825","freq_resp","","","img/blue_2bandit_a.png","70","img/blue_2bandit_a.png","70","test","","","","","","","","","","","1","","","","","","","","",""
"null","105013","SARL_v6","SARL_v6zr2lvx8v","63d3f99eac52371a49e65825","fixation","","","img/fixation.png","null","","","test","","","","","","","","","","","","","","","","","","","",""
"261.09999990463257","105283","SARL_v6","SARL_v6zr2lvx8v","63d3f99eac52371a49e65825","freq","","","img/blue_2bandit_a2.png","70","","70","test","1","","19","","","","square","circle","19","19","1","0.7894736842105263","","","","","","","",""
"null","105847","SARL_v6","SARL_v6zr2lvx8v","63d3f99eac52371a49e65825","freq_resp","","","img/blue_2bandit_a.png","70","img/blue_2bandit_a.png","70","test","","","","","","","","","","","1","","","","","","","","",""
"null","106014","SARL_v6","SARL_v6zr2lvx8v","63d3f99eac52371a49e65825","fixation","","","img/fixation.png","null","","","test","","","","","","","","","","","","","","","","","","","",""
"55.799999952316284","106079","SARL_v6","SARL_v6zr2lvx8v","63d3f99eac52371a49e65825","freq","","","img/blue_2bandit_a2.png","70","","70","test","1","","20","","","","square","circle","20","20","1","0.8","","","","","","","",""
"null","106835","SARL_v6","SARL_v6zr2lvx8v","63d3f99eac52371a49e65825","freq_resp","","","img/blue_2bandit_a.png","70","img/blue_2bandit_a.png","70","test","","","","","","","","","","","1","","","","","","","","",""
"null","107009","SARL_v6","SARL_v6zr2lvx8v","63d3f99eac52371a49e65825","fixation","","","img/fixation.png","null","","","test","","","","","","","","","","","","","","","","","","","",""
"595.9000000953674","107615","SARL_v6","SARL_v6zr2lvx8v","63d3f99eac52371a49e65825","rl","","","img/black_2bandit_a2.png","75","","0","test","","","21","","","-3","square","circle","","0","1","","75","-3","-3","-3","-3","circle","1","0"
"null","108386","SARL_v6","SARL_v6zr2lvx8v","63d3f99eac52371a49e65825","feedback","","","<div class=""verylowPoints""> -3 </div>","null","","na","test","","","NaN","","","","","","","","1","","75","","","","","","1",""
"671.2000000476837","109067","SARL_v6","SARL_v6zr2lvx8v","63d3f99eac52371a49e65825","freq","","","img/blue_2bandit_a2.png","70","","70","test","1","","22","","","","square","circle","21","1","2","0.8095238095238095","","","","","","","",""
"null","109211","SARL_v6","SARL_v6zr2lvx8v","63d3f99eac52371a49e65825","freq_resp","","","img/blue_2bandit_a.png","70","img/blue_2bandit_a.png","70","test","","","","","","","","","","","2","","","","","","","","",""
"null","109378","SARL_v6","SARL_v6zr2lvx8v","63d3f99eac52371a49e65825","fixation","","","img/fixation.png","null","","","test","","","","","","","","","","","","","","","","","","","",""
"475.09999990463257","109863","SARL_v6","SARL_v6zr2lvx8v","63d3f99eac52371a49e65825","freq","","","img/blue_2bandit_a2.png","70","","70","test","1","","23","","","","square","circle","22","2","2","0.8181818181818182","","","","","","","",""
"null","110203","SARL_v6","SARL_v6zr2lvx8v","63d3f99eac52371a49e65825","freq_resp","","","img/blue_2bandit_a.png","70","img/blue_2bandit_a.png","70","test","","","","","","","","","","","2","","","","","","","","",""
"null","110379","SARL_v6","SARL_v6zr2lvx8v","63d3f99eac52371a49e65825","fixation","","","img/fixation.png","null","","","test","","","","","","","","","","","","","","","","","","","",""
"309.7000000476837","110698","SARL_v6","SARL_v6zr2lvx8v","63d3f99eac52371a49e65825","freq","","","img/blue_2bandit_a2.png","70","","70","test","1","","24","","","","square","circle","23","3","2","0.8260869565217391","","","","","","","",""
"null","111213","SARL_v6","SARL_v6zr2lvx8v","63d3f99eac52371a49e65825","freq_resp","","","img/blue_2bandit_a.png","70","img/blue_2bandit_a.png","70","test","","","","","","","","","","","2","","","","","","","","",""
"null","111378","SARL_v6","SARL_v6zr2lvx8v","63d3f99eac52371a49e65825","fixation","","","img/fixation.png","null","","","test","","","","","","","","","","","","","","","","","","","",""
"308.40000009536743","111696","SARL_v6","SARL_v6zr2lvx8v","63d3f99eac52371a49e65825","freq","","","img/blue_2bandit_a2.png","70","","70","test","1","","25","","","","square","circle","24","4","2","0.8333333333333334","","","","","","","",""
"null","112202","SARL_v6","SARL_v6zr2lvx8v","63d3f99eac52371a49e65825","freq_resp","","","img/blue_2bandit_a.png","70","img/blue_2bandit_a.png","70","test","","","","","","","","","","","2","","","","","","","","",""
"null","112368","SARL_v6","SARL_v6zr2lvx8v","63d3f99eac52371a49e65825","fixation","","","img/fixation.png","null","","","test","","","","","","","","","","","","","","","","","","","",""
"301.80000019073486","112679","SARL_v6","SARL_v6zr2lvx8v","63d3f99eac52371a49e65825","freq","","","img/blue_2bandit_a2.png","70","","70","test","1","","26","","","","square","circle","25","5","2","0.84","","","","","","","",""
"null","113196","SARL_v6","SARL_v6zr2lvx8v","63d3f99eac52371a49e65825","freq_resp","","","img/blue_2bandit_a.png","70","img/blue_2bandit_a.png","70","test","","","","","","","","","","","2","","","","","","","","",""
"null","113359","SARL_v6","SARL_v6zr2lvx8v","63d3f99eac52371a49e65825","fixation","","","img/fixation.png","null","","","test","","","","","","","","","","","","","","","","","","","",""
"149.10000014305115","113516","SARL_v6","SARL_v6zr2lvx8v","63d3f99eac52371a49e65825","freq","","","img/blue_2bandit_a2.png","70","","70","test","1","","27","","","","square","circle","26","6","2","0.8461538461538461","","","","","","","",""
"null","114189","SARL_v6","SARL_v6zr2lvx8v","63d3f99eac52371a49e65825","freq_resp","","","img/blue_2bandit_a.png","70","img/blue_2bandit_a.png","70","test","","","","","","","","","","","2","","","","","","","","",""
"null","114359","SARL_v6","SARL_v6zr2lvx8v","63d3f99eac52371a49e65825","fixation","","","img/fixation.png","null","","","test","","","","","","","","","","","","","","","","","","","",""
"143.19999980926514","114512","SARL_v6","SARL_v6zr2lvx8v","63d3f99eac52371a49e65825","freq","","","img/blue_2bandit_a2.png","70","","70","test","1","","28","","","","square","circle","27","7","2","0.8518518518518519","","","","","","","",""
"null","115189","SARL_v6","SARL_v6zr2lvx8v","63d3f99eac52371a49e65825","freq_resp","","","img/blue_2bandit_a.png","70","img/blue_2bandit_a.png","70","test","","","","","","","","","","","2","","","","","","","","",""
"null","115360","SARL_v6","SARL_v6zr2lvx8v","63d3f99eac52371a49e65825","fixation","","","img/fixation.png","null","","","test","","","","","","","","","","","","","","","","","","","",""
"271","115641","SARL_v6","SARL_v6zr2lvx8v","63d3f99eac52371a49e65825","freq","","","img/blue_2bandit_a2.png","70","","70","test","1","","29","","","","square","circle","28","8","2","0.8571428571428571","","","","","","","",""
"null","116193","SARL_v6","SARL_v6zr2lvx8v","63d3f99eac52371a49e65825","freq_resp","","","img/blue_2bandit_a.png","70","img/blue_2bandit_a.png","70","test","","","","","","","","","","","2","","","","","","","","",""
"null","116359","SARL_v6","SARL_v6zr2lvx8v","63d3f99eac52371a49e65825","fixation","","","img/fixation.png","null","","","test","","","","","","","","","","","","","","","","","","","",""
"272","116641","SARL_v6","SARL_v6zr2lvx8v","63d3f99eac52371a49e65825","freq","","","img/blue_2bandit_a2.png","70","","70","test","1","","30","","","","square","circle","29","9","2","0.8620689655172413","","","","","","","",""
"null","117181","SARL_v6","SARL_v6zr2lvx8v","63d3f99eac52371a49e65825","freq_resp","","","img/blue_2bandit_a.png","70","img/blue_2bandit_a.png","70","test","","","","","","","","","","","2","","","","","","","","",""
"null","117343","SARL_v6","SARL_v6zr2lvx8v","63d3f99eac52371a49e65825","fixation","","","img/fixation.png","null","","","test","","","","","","","","","","","","","","","","","","","",""
"null","118168","SARL_v6","SARL_v6zr2lvx8v","63d3f99eac52371a49e65825","freq","","","img/blue_2bandit_a2.png","null","","70","test","0","","31","","","","square","circle","30","10","2","0.8333333333333334","","","","","","","",""
"null","118327","SARL_v6","SARL_v6zr2lvx8v","63d3f99eac52371a49e65825","fixation","","","img/fixation.png","null","","","test","","","","","","","","","","","","","","","","","","","",""
"450.5","118787","SARL_v6","SARL_v6zr2lvx8v","63d3f99eac52371a49e65825","freq","","","img/blue_2bandit_a2.png","70","","70","test","1","","32","","","","square","circle","31","11","2","0.8387096774193549","","","","","","","",""
"null","119152","SARL_v6","SARL_v6zr2lvx8v","63d3f99eac52371a49e65825","freq_resp","","","img/blue_2bandit_a.png","70","img/blue_2bandit_a.png","70","test","","","","","","","","","","","2","","","","","","","","",""
"null","119325","SARL_v6","SARL_v6zr2lvx8v","63d3f99eac52371a49e65825","fixation","","","img/fixation.png","null","","","test","","","","","","","","","","","","","","","","","","","",""
"323.2999999523163","119658","SARL_v6","SARL_v6zr2lvx8v","63d3f99eac52371a49e65825","freq","","","img/blue_2bandit_a2.png","70","","70","test","1","","33","","","","square","circle","32","12","2","0.84375","","","","","","","",""
"null","120144","SARL_v6","SARL_v6zr2lvx8v","63d3f99eac52371a49e65825","freq_resp","","","img/blue_2bandit_a.png","70","img/blue_2bandit_a.png","70","test","","","","","","","","","","","2","","","","","","","","",""
"null","120311","SARL_v6","SARL_v6zr2lvx8v","63d3f99eac52371a49e65825","fixation","","","img/fixation.png","null","","","test","","","","","","","","","","","","","","","","","","","",""
"314.59999990463257","120634","SARL_v6","SARL_v6zr2lvx8v","63d3f99eac52371a49e65825","freq","","","img/blue_2bandit_a2.png","70","","70","test","1","","34","","","","square","circle","33","13","2","0.8484848484848485","","","","","","","",""
"null","121145","SARL_v6","SARL_v6zr2lvx8v","63d3f99eac52371a49e65825","freq_resp","","","img/blue_2bandit_a.png","70","img/blue_2bandit_a.png","70","test","","","","","","","","","","","2","","","","","","","","",""
"null","121311","SARL_v6","SARL_v6zr2lvx8v","63d3f99eac52371a49e65825","fixation","","","img/fixation.png","null","","","test","","","","","","","","","","","","","","","","","","","",""
"134.29999995231628","121454","SARL_v6","SARL_v6zr2lvx8v","63d3f99eac52371a49e65825","freq","","","img/blue_2bandit_a2.png","70","","70","test","1","","35","","","","square","circle","34","14","2","0.8529411764705882","","","","","","","",""
"null","122138","SARL_v6","SARL_v6zr2lvx8v","63d3f99eac52371a49e65825","freq_resp","","","img/blue_2bandit_a.png","70","img/blue_2bandit_a.png","70","test","","","","","","","","","","","2","","","","","","","","",""
"null","122308","SARL_v6","SARL_v6zr2lvx8v","63d3f99eac52371a49e65825","fixation","","","img/fixation.png","null","","","test","","","","","","","","","","","","","","","","","","","",""
"254.5","122572","SARL_v6","SARL_v6zr2lvx8v","63d3f99eac52371a49e65825","freq","","","img/blue_2bandit_a2.png","70","","70","test","1","","36","","","","square","circle","35","15","2","0.8571428571428571","","","","","","","",""
"null","123128","SARL_v6","SARL_v6zr2lvx8v","63d3f99eac52371a49e65825","freq_resp","","","img/blue_2bandit_a.png","70","img/blue_2bandit_a.png","70","test","","","","","","","","","","","2","","","","","","","","",""
"null","123293","SARL_v6","SARL_v6zr2lvx8v","63d3f99eac52371a49e65825","fixation","","","img/fixation.png","null","","","test","","","","","","","","","","","","","","","","","","","",""
"null","124117","SARL_v6","SARL_v6zr2lvx8v","63d3f99eac52371a49e65825","freq","","","img/blue_2bandit_a2.png","null","","70","test","0","","37","","","","square","circle","36","16","2","0.8333333333333334","","","","","","","",""
"null","124278","SARL_v6","SARL_v6zr2lvx8v","63d3f99eac52371a49e65825","fixation","","","img/fixation.png","null","","","test","","","","","","","","","","","","","","","","","","","",""
"570.8999998569489","124859","SARL_v6","SARL_v6zr2lvx8v","63d3f99eac52371a49e65825","infreq","","","img/orange_2bandit_a2.png","68","","68","test","1","","38","","","","square","circle","37","17","2","0.8378378378378378","","","","","","","",""
"null","125107","SARL_v6","SARL_v6zr2lvx8v","63d3f99eac52371a49e65825","infreq_resp","","","img/orange_2bandit_a.png","68","img/orange_2bandit_a.png","68","test","","","","","","","","","","","2","","","","","","","","",""
"null","125275","SARL_v6","SARL_v6zr2lvx8v","63d3f99eac52371a49e65825","fixation","","","img/fixation.png","null","","","test","","","","","","","","","","","","","","","","","","","",""
"651.9000000953674","125936","SARL_v6","SARL_v6zr2lvx8v","63d3f99eac52371a49e65825","freq","","","img/blue_2bandit_a2.png","70","","70","test","1","","39","","","","square","circle","38","18","2","0.8421052631578947","","","","","","","",""
"null","126096","SARL_v6","SARL_v6zr2lvx8v","63d3f99eac52371a49e65825","freq_resp","","","img/blue_2bandit_a.png","70","img/blue_2bandit_a.png","70","test","","","","","","","","","","","2","","","","","","","","",""
"null","126257","SARL_v6","SARL_v6zr2lvx8v","63d3f99eac52371a49e65825","fixation","","","img/fixation.png","null","","","test","","","","","","","","","","","","","","","","","","","",""
"314.89999985694885","126581","SARL_v6","SARL_v6zr2lvx8v","63d3f99eac52371a49e65825","freq","","","img/blue_2bandit_a2.png","70","","70","test","1","","40","","","","square","circle","39","19","2","0.8461538461538461","","","","","","","",""
"null","127077","SARL_v6","SARL_v6zr2lvx8v","63d3f99eac52371a49e65825","freq_resp","","","img/blue_2bandit_a.png","70","img/blue_2bandit_a.png","70","test","","","","","","","","","","","2","","","","","","","","",""
"null","127239","SARL_v6","SARL_v6zr2lvx8v","63d3f99eac52371a49e65825","fixation","","","img/fixation.png","null","","","test","","","","","","","","","","","","","","","","","","","",""
"null","128060","SARL_v6","SARL_v6zr2lvx8v","63d3f99eac52371a49e65825","freq","","","img/blue_2bandit_a2.png","null","","70","test","0","","41","","","","square","circle","40","20","2","0.825","","","","","","","",""
"null","128226","SARL_v6","SARL_v6zr2lvx8v","63d3f99eac52371a49e65825","fixation","","","img/fixation.png","null","","","test","","","","","","","","","","","","","","","","","","","",""
"251.79999995231628","128487","SARL_v6","SARL_v6zr2lvx8v","63d3f99eac52371a49e65825","freq","","","img/blue_2bandit_a2.png","70","","70","test","1","","42","","","","square","circle","41","21","2","0.8292682926829268","","","","","","","",""
"null","129059","SARL_v6","SARL_v6zr2lvx8v","63d3f99eac52371a49e65825","freq_resp","","","img/blue_2bandit_a.png","70","img/blue_2bandit_a.png","70","test","","","","","","","","","","","2","","","","","","","","",""
"null","129224","SARL_v6","SARL_v6zr2lvx8v","63d3f99eac52371a49e65825","fixation","","","img/fixation.png","null","","","test","","","","","","","","","","","","","","","","","","","",""
"45.59999990463257","129279","SARL_v6","SARL_v6zr2lvx8v","63d3f99eac52371a49e65825","freq","","","img/blue_2bandit_a2.png","70","","70","test","1","","43","","","","square","circle","42","22","2","0.8333333333333334","","","","","","","",""
"null","130050","SARL_v6","SARL_v6zr2lvx8v","63d3f99eac52371a49e65825","freq_resp","","","img/blue_2bandit_a.png","70","img/blue_2bandit_a.png","70","test","","","","","","","","","","","2","","","","","","","","",""
"null","130224","SARL_v6","SARL_v6zr2lvx8v","63d3f99eac52371a49e65825","fixation","","","img/fixation.png","null","","","test","","","","","","","","","","","","","","","","","","","",""
"136.90000009536743","130371","SARL_v6","SARL_v6zr2lvx8v","63d3f99eac52371a49e65825","freq","","","img/blue_2bandit_a2.png","70","","70","test","1","","44","","","","square","circle","43","23","2","0.8372093023255814","","","","","","","",""
"null","131055","SARL_v6","SARL_v6zr2lvx8v","63d3f99eac52371a49e65825","freq_resp","","","img/blue_2bandit_a.png","70","img/blue_2bandit_a.png","70","test","","","","","","","","","","","2","","","","","","","","",""
"null","131223","SARL_v6","SARL_v6zr2lvx8v","63d3f99eac52371a49e65825","fixation","","","img/fixation.png","null","","","test","","","","","","","","","","","","","","","","","","","",""
"121","131354","SARL_v6","SARL_v6zr2lvx8v","63d3f99eac52371a49e65825","freq","","","img/blue_2bandit_a2.png","70","","70","test","1","","45","","","","square","circle","44","24","2","0.8409090909090909","","","","","","","",""
"null","132052","SARL_v6","SARL_v6zr2lvx8v","63d3f99eac52371a49e65825","freq_resp","","","img/blue_2bandit_a.png","70","img/blue_2bandit_a.png","70","test","","","","","","","","","","","2","","","","","","","","",""
"null","132224","SARL_v6","SARL_v6zr2lvx8v","63d3f99eac52371a49e65825","fixation","","","img/fixation.png","null","","","test","","","","","","","","","","","","","","","","","","","",""
"87.19999980926514","132319","SARL_v6","SARL_v6zr2lvx8v","63d3f99eac52371a49e65825","infreq","","","img/orange_2bandit_a2.png","70","","68","test","0","","46","","","","square","circle","45","25","2","0.8222222222222222","","","","","","","",""
"null","133050","SARL_v6","SARL_v6zr2lvx8v","63d3f99eac52371a49e65825","infreq_resp","","","img/orange_2bandit_a.png","70","img/orange_2bandit_a.png","68","test","","","","","","","","","","","2","","","","","","","","",""
"null","133225","SARL_v6","SARL_v6zr2lvx8v","63d3f99eac52371a49e65825","fixation","","","img/fixation.png","null","","","test","","","","","","","","","","","","","","","","","","","",""
"401.2000000476837","133636","SARL_v6","SARL_v6zr2lvx8v","63d3f99eac52371a49e65825","freq","","","img/blue_2bandit_a2.png","70","","70","test","1","","47","","","","square","circle","46","26","2","0.8260869565217391","","","","","","","",""
"null","134047","SARL_v6","SARL_v6zr2lvx8v","63d3f99eac52371a49e65825","freq_resp","","","img/blue_2bandit_a.png","70","img/blue_2bandit_a.png","70","test","","","","","","","","","","","2","","","","","","","","",""
"null","134207","SARL_v6","SARL_v6zr2lvx8v","63d3f99eac52371a49e65825","fixation","","","img/fixation.png","null","","","test","","","","","","","","","","","","","","","","","","","",""
"524.6000001430511","134744","SARL_v6","SARL_v6zr2lvx8v","63d3f99eac52371a49e65825","rl","","","img/black_2bandit_a2.png","75","","0","test","","","48","","","-5","square","circle","","0","2","","75","-5","-8","-8","-5","circle","2","0"
"null","135513","SARL_v6","SARL_v6zr2lvx8v","63d3f99eac52371a49e65825","feedback","","","<div class=""verylowPoints""> -5 </div>","null","","na","test","","","NaN","","","","","","","","2","","75","","","","","","2",""
"616.4000000953674","136139","SARL_v6","SARL_v6zr2lvx8v","63d3f99eac52371a49e65825","freq","","","img/blue_2bandit_a2.png","70","","70","test","1","","49","","","","square","circle","47","1","3","0.8297872340425532","","","","","","","",""
"null","136338","SARL_v6","SARL_v6zr2lvx8v","63d3f99eac52371a49e65825","freq_resp","","","img/blue_2bandit_a.png","70","img/blue_2bandit_a.png","70","test","","","","","","","","","","","3","","","","","","","","",""
"null","136507","SARL_v6","SARL_v6zr2lvx8v","63d3f99eac52371a49e65825","fixation","","","img/fixation.png","null","","","test","","","","","","","","","","","","","","","","","","","",""
"503.7999999523163","137018","SARL_v6","SARL_v6zr2lvx8v","63d3f99eac52371a49e65825","freq","","","img/blue_2bandit_a2.png","70","","70","test","1","","50","","","","square","circle","48","2","3","0.8333333333333334","","","","","","","",""
"null","137330","SARL_v6","SARL_v6zr2lvx8v","63d3f99eac52371a49e65825","freq_resp","","","img/blue_2bandit_a.png","70","img/blue_2bandit_a.png","70","test","","","","","","","","","","","3","","","","","","","","",""
"null","137505","SARL_v6","SARL_v6zr2lvx8v","63d3f99eac52371a49e65825","fixation","","","img/fixation.png","null","","","test","","","","","","","","","","","","","","","","","","","",""
"470.60000014305115","137985","SARL_v6","SARL_v6zr2lvx8v","63d3f99eac52371a49e65825","freq","","","img/blue_2bandit_a2.png","70","","70","test","1","","51","","","","square","circle","49","3","3","0.8367346938775511","","","","","","","",""
"null","138332","SARL_v6","SARL_v6zr2lvx8v","63d3f99eac52371a49e65825","freq_resp","","","img/blue_2bandit_a.png","70","img/blue_2bandit_a.png","70","test","","","","","","","","","","","3","","","","","","","","",""
"null","138504","SARL_v6","SARL_v6zr2lvx8v","63d3f99eac52371a49e65825","fixation","","","img/fixation.png","null","","","test","","","","","","","","","","","","","","","","","","","",""
"281.2999999523163","138793","SARL_v6","SARL_v6zr2lvx8v","63d3f99eac52371a49e65825","freq","","","img/blue_2bandit_a2.png","70","","70","test","1","","52","","","","square","circle","50","4","3","0.84","","","","","","","",""
"null","139324","SARL_v6","SARL_v6zr2lvx8v","63d3f99eac52371a49e65825","freq_resp","","","img/blue_2bandit_a.png","70","img/blue_2bandit_a.png","70","test","","","","","","","","","","","3","","","","","","","","",""
"null","139486","SARL_v6","SARL_v6zr2lvx8v","63d3f99eac52371a49e65825","fixation","","","img/fixation.png","null","","","test","","","","","","","","","","","","","","","","","","","",""
"266.2000000476837","139759","SARL_v6","SARL_v6zr2lvx8v","63d3f99eac52371a49e65825","freq","","","img/blue_2bandit_a2.png","70","","70","test","1","","53","","","","square","circle","51","5","3","0.8431372549019608","","","","","","","",""
"null","140304","SARL_v6","SARL_v6zr2lvx8v","63d3f99eac52371a49e65825","freq_resp","","","img/blue_2bandit_a.png","70","img/blue_2bandit_a.png","70","test","","","","","","","","","","","3","","","","","","","","",""
"null","140472","SARL_v6","SARL_v6zr2lvx8v","63d3f99eac52371a49e65825","fixation","","","img/fixation.png","null","","","test","","","","","","","","","","","","","","","","","","","",""
"276.40000009536743","140756","SARL_v6","SARL_v6zr2lvx8v","63d3f99eac52371a49e65825","freq","","","img/blue_2bandit_a2.png","70","","70","test","1","","54","","","","square","circle","52","6","3","0.8461538461538461","","","","","","","",""
"null","141292","SARL_v6","SARL_v6zr2lvx8v","63d3f99eac52371a49e65825","freq_resp","","","img/blue_2bandit_a.png","70","img/blue_2bandit_a.png","70","test","","","","","","","","","","","3","","","","","","","","",""
"null","141456","SARL_v6","SARL_v6zr2lvx8v","63d3f99eac52371a49e65825","fixation","","","img/fixation.png","null","","","test","","","","","","","","","","","","","","","","","","","",""
"278.2999999523163","141744","SARL_v6","SARL_v6zr2lvx8v","63d3f99eac52371a49e65825","freq","","","img/blue_2bandit_a2.png","70","","70","test","1","","55","","","","square","circle","53","7","3","0.8490566037735849","","","","","","","",""
"null","142284","SARL_v6","SARL_v6zr2lvx8v","63d3f99eac52371a49e65825","freq_resp","","","img/blue_2bandit_a.png","70","img/blue_2bandit_a.png","70","test","","","","","","","","","","","3","","","","","","","","",""
"null","142456","SARL_v6","SARL_v6zr2lvx8v","63d3f99eac52371a49e65825","fixation","","","img/fixation.png","null","","","test","","","","","","","","","","","","","","","","","","","",""
"623.4000000953674","143089","SARL_v6","SARL_v6zr2lvx8v","63d3f99eac52371a49e65825","infreq","","","img/orange_2bandit_a2.png","68","","68","test","1","","56","","","","square","circle","54","8","3","0.8518518518518519","","","","","","","",""
"null","143289","SARL_v6","SARL_v6zr2lvx8v","63d3f99eac52371a49e65825","infreq_resp","","","img/orange_2bandit_a.png","68","img/orange_2bandit_a.png","68","test","","","","","","","","","","","3","","","","","","","","",""
"null","143456","SARL_v6","SARL_v6zr2lvx8v","63d3f99eac52371a49e65825","fixation","","","img/fixation.png","null","","","test","","","","","","","","","","","","","","","","","","","",""
"479.09999990463257","143944","SARL_v6","SARL_v6zr2lvx8v","63d3f99eac52371a49e65825","freq","","","img/blue_2bandit_a2.png","70","","70","test","1","","57","","","","square","circle","55","9","3","0.8545454545454545","","","","","","","",""
"null","144281","SARL_v6","SARL_v6zr2lvx8v","63d3f99eac52371a49e65825","freq_resp","","","img/blue_2bandit_a.png","70","img/blue_2bandit_a.png","70","test","","","","","","","","","","","3","","","","","","","","",""
"null","144456","SARL_v6","SARL_v6zr2lvx8v","63d3f99eac52371a49e65825","fixation","","","img/fixation.png","null","","","test","","","","","","","","","","","","","","","","","","","",""
"287","144753","SARL_v6","SARL_v6zr2lvx8v","63d3f99eac52371a49e65825","freq","","","img/blue_2bandit_a2.png","70","","70","test","1","","58","","","","square","circle","56","10","3","0.8571428571428571","","","","","","","",""
"null","145291","SARL_v6","SARL_v6zr2lvx8v","63d3f99eac52371a49e65825","freq_resp","","","img/blue_2bandit_a.png","70","img/blue_2bandit_a.png","70","test","","","","","","","","","","","3","","","","","","","","",""
"null","145457","SARL_v6","SARL_v6zr2lvx8v","63d3f99eac52371a49e65825","fixation","","","img/fixation.png","null","","","test","","","","","","","","","","","","","","","","","","","",""
"280.09999990463257","145746","SARL_v6","SARL_v6zr2lvx8v","63d3f99eac52371a49e65825","freq","","","img/blue_2bandit_a2.png","70","","70","test","1","","59","","","","square","circle","57","11","3","0.8596491228070176","","","","","","","",""
"null","146287","SARL_v6","SARL_v6zr2lvx8v","63d3f99eac52371a49e65825","freq_resp","","","img/blue_2bandit_a.png","70","img/blue_2bandit_a.png","70","test","","","","","","","","","","","3","","","","","","","","",""
"null","146452","SARL_v6","SARL_v6zr2lvx8v","63d3f99eac52371a49e65825","fixation","","","img/fixation.png","null","","","test","","","","","","","","","","","","","","","","","","","",""
"90.60000014305115","146549","SARL_v6","SARL_v6zr2lvx8v","63d3f99eac52371a49e65825","freq","","","img/blue_2bandit_a2.png","70","","70","test","1","","60","","","","square","circle","58","12","3","0.8620689655172413","","","","","","","",""
"null","147268","SARL_v6","SARL_v6zr2lvx8v","63d3f99eac52371a49e65825","freq_resp","","","img/blue_2bandit_a.png","70","img/blue_2bandit_a.png","70","test","","","","","","","","","","","3","","","","","","","","",""
"null","147439","SARL_v6","SARL_v6zr2lvx8v","63d3f99eac52371a49e65825","fixation","","","img/fixation.png","null","","","test","","","","","","","","","","","","","","","","","","","",""
"277.5","147726","SARL_v6","SARL_v6zr2lvx8v","63d3f99eac52371a49e65825","freq","","","img/blue_2bandit_a2.png","70","","70","test","1","","61","","","","square","circle","59","13","3","0.864406779661017","","","","","","","",""
"null","148273","SARL_v6","SARL_v6zr2lvx8v","63d3f99eac52371a49e65825","freq_resp","","","img/blue_2bandit_a.png","70","img/blue_2bandit_a.png","70","test","","","","","","","","","","","3","","","","","","","","",""
"null","148440","SARL_v6","SARL_v6zr2lvx8v","63d3f99eac52371a49e65825","fixation","","","img/fixation.png","null","","","test","","","","","","","","","","","","","","","","","","","",""
"286.2999999523163","148736","SARL_v6","SARL_v6zr2lvx8v","63d3f99eac52371a49e65825","freq","","","img/blue_2bandit_a2.png","70","","70","test","1","","62","","","","square","circle","60","14","3","0.8666666666666667","","","","","","","",""
"null","149274","SARL_v6","SARL_v6zr2lvx8v","63d3f99eac52371a49e65825","freq_resp","","","img/blue_2bandit_a.png","70","img/blue_2bandit_a.png","70","test","","","","","","","","","","","3","","","","","","","","",""
"null","149439","SARL_v6","SARL_v6zr2lvx8v","63d3f99eac52371a49e65825","fixation","","","img/fixation.png","null","","","test","","","","","","","","","","","","","","","","","","","",""
"105.29999995231628","149554","SARL_v6","SARL_v6zr2lvx8v","63d3f99eac52371a49e65825","freq","","","img/blue_2bandit_a2.png","70","","70","test","1","","63","","","","square","circle","61","15","3","0.8688524590163934","","","","","","","",""
"null","150259","SARL_v6","SARL_v6zr2lvx8v","63d3f99eac52371a49e65825","freq_resp","","","img/blue_2bandit_a.png","70","img/blue_2bandit_a.png","70","test","","","","","","","","","","","3","","","","","","","","",""
"null","150424","SARL_v6","SARL_v6zr2lvx8v","63d3f99eac52371a49e65825","fixation","","","img/fixation.png","null","","","test","","","","","","","","","","","","","","","","","","","",""
"82.10000014305115","150515","SARL_v6","SARL_v6zr2lvx8v","63d3f99eac52371a49e65825","freq","","","img/blue_2bandit_a2.png","70","","70","test","1","","64","","","","square","circle","62","16","3","0.8709677419354839","","","","","","","",""
"null","151249","SARL_v6","SARL_v6zr2lvx8v","63d3f99eac52371a49e65825","freq_resp","","","img/blue_2bandit_a.png","70","img/blue_2bandit_a.png","70","test","","","","","","","","","","","3","","","","","","","","",""
"null","151422","SARL_v6","SARL_v6zr2lvx8v","63d3f99eac52371a49e65825","fixation","","","img/fixation.png","null","","","test","","","","","","","","","","","","","","","","","","","",""
"270.7000000476837","151703","SARL_v6","SARL_v6zr2lvx8v","63d3f99eac52371a49e65825","freq","","","img/blue_2bandit_a2.png","70","","70","test","1","","65","","","","square","circle","63","17","3","0.873015873015873","","","","","","","",""
"null","152257","SARL_v6","SARL_v6zr2lvx8v","63d3f99eac52371a49e65825","freq_resp","","","img/blue_2bandit_a.png","70","img/blue_2bandit_a.png","70","test","","","","","","","","","","","3","","","","","","","","",""
"null","152423","SARL_v6","SARL_v6zr2lvx8v","63d3f99eac52371a49e65825","fixation","","","img/fixation.png","null","","","test","","","","","","","","","","","","","","","","","","","",""
"95.29999995231628","152529","SARL_v6","SARL_v6zr2lvx8v","63d3f99eac52371a49e65825","freq","","","img/blue_2bandit_a2.png","70","","70","test","1","","66","","","","square","circle","64","18","3","0.875","","","","","","","",""
"null","153249","SARL_v6","SARL_v6zr2lvx8v","63d3f99eac52371a49e65825","freq_resp","","","img/blue_2bandit_a.png","70","img/blue_2bandit_a.png","70","test","","","","","","","","","","","3","","","","","","","","",""
"null","153424","SARL_v6","SARL_v6zr2lvx8v","63d3f99eac52371a49e65825","fixation","","","img/fixation.png","null","","","test","","","","","","","","","","","","","","","","","","","",""
"350.7000000476837","153785","SARL_v6","SARL_v6zr2lvx8v","63d3f99eac52371a49e65825","freq","","","img/blue_2bandit_a2.png","70","","70","test","1","","67","","","","square","circle","65","19","3","0.8769230769230769","","","","","","","",""
"null","154245","SARL_v6","SARL_v6zr2lvx8v","63d3f99eac52371a49e65825","freq_resp","","","img/blue_2bandit_a.png","70","img/blue_2bandit_a.png","70","test","","","","","","","","","","","3","","","","","","","","",""
"null","154405","SARL_v6","SARL_v6zr2lvx8v","63d3f99eac52371a49e65825","fixation","","","img/fixation.png","null","","","test","","","","","","","","","","","","","","","","","","","",""
"222.80000019073486","154638","SARL_v6","SARL_v6zr2lvx8v","63d3f99eac52371a49e65825","freq","","","img/blue_2bandit_a2.png","70","","70","test","1","","68","","","","square","circle","66","20","3","0.8787878787878788","","","","","","","",""
"null","155235","SARL_v6","SARL_v6zr2lvx8v","63d3f99eac52371a49e65825","freq_resp","","","img/blue_2bandit_a.png","70","img/blue_2bandit_a.png","70","test","","","","","","","","","","","3","","","","","","","","",""
"null","155394","SARL_v6","SARL_v6zr2lvx8v","63d3f99eac52371a49e65825","fixation","","","img/fixation.png","null","","","test","","","","","","","","","","","","","","","","","","","",""
"247.30000019073486","155651","SARL_v6","SARL_v6zr2lvx8v","63d3f99eac52371a49e65825","infreq","","","img/orange_2bandit_a2.png","70","","68","test","0","","69","","","","square","circle","67","21","3","0.8656716417910447","","","","","","","",""
"null","156220","SARL_v6","SARL_v6zr2lvx8v","63d3f99eac52371a49e65825","infreq_resp","","","img/orange_2bandit_a.png","70","img/orange_2bandit_a.png","68","test","","","","","","","","","","","3","","","","","","","","",""
"null","156388","SARL_v6","SARL_v6zr2lvx8v","63d3f99eac52371a49e65825","fixation","","","img/fixation.png","null","","","test","","","","","","","","","","","","","","","","","","","",""
"378","156775","SARL_v6","SARL_v6zr2lvx8v","63d3f99eac52371a49e65825","freq","","","img/blue_2bandit_a2.png","70","","70","test","1","","70","","","","square","circle","68","22","3","0.8676470588235294","","","","","","","",""
"null","157210","SARL_v6","SARL_v6zr2lvx8v","63d3f99eac52371a49e65825","freq_resp","","","img/blue_2bandit_a.png","70","img/blue_2bandit_a.png","70","test","","","","","","","","","","","3","","","","","","","","",""
"null","157376","SARL_v6","SARL_v6zr2lvx8v","63d3f99eac52371a49e65825","fixation","","","img/fixation.png","null","","","test","","","","","","","","","","","","","","","","","","","",""
"333.2000000476837","157719","SARL_v6","SARL_v6zr2lvx8v","63d3f99eac52371a49e65825","freq","","","img/blue_2bandit_a2.png","70","","70","test","1","","71","","","","square","circle","69","23","3","0.8695652173913043","","","","","","","",""
"null","158207","SARL_v6","SARL_v6zr2lvx8v","63d3f99eac52371a49e65825","freq_resp","","","img/blue_2bandit_a.png","70","img/blue_2bandit_a.png","70","test","","","","","","","","","","","3","","","","","","","","",""
"null","158371","SARL_v6","SARL_v6zr2lvx8v","63d3f99eac52371a49e65825","fixation","","","img/fixation.png","null","","","test","","","","","","","","","","","","","","","","","","","",""
"403.5","158785","SARL_v6","SARL_v6zr2lvx8v","63d3f99eac52371a49e65825","rl","","","img/black_2bandit_a2.png","75","","0","test","","","72","","","-4","square","circle","","0","3","","75","-4","-8","-8","-4","circle","3","0"
"null","159547","SARL_v6","SARL_v6zr2lvx8v","63d3f99eac52371a49e65825","feedback","","","<div class=""verylowPoints""> -4 </div>","null","","na","test","","","NaN","","","","","","","","3","","75","","","","","","3",""
"null","160365","SARL_v6","SARL_v6zr2lvx8v","63d3f99eac52371a49e65825","freq","","","img/blue_2bandit_a2.png","null","","70","test","0","","73","","","","square","circle","70","1","4","0.8571428571428571","","","","","","","",""
"null","160525","SARL_v6","SARL_v6zr2lvx8v","63d3f99eac52371a49e65825","fixation","","","img/fixation.png","null","","","test","","","","","","","","","","","","","","","","","","","",""
"282.7999999523163","160815","SARL_v6","SARL_v6zr2lvx8v","63d3f99eac52371a49e65825","freq","","","img/blue_2bandit_a2.png","70","","70","test","1","","74","","","","square","circle","71","2","4","0.8591549295774648","","","","","","","",""
"null","161342","SARL_v6","SARL_v6zr2lvx8v","63d3f99eac52371a49e65825","freq_resp","","","img/blue_2bandit_a.png","70","img/blue_2bandit_a.png","70","test","","","","","","","","","","","4","","","","","","","","",""
"null","161504","SARL_v6","SARL_v6zr2lvx8v","63d3f99eac52371a49e65825","fixation","","","img/fixation.png","null","","","test","","","","","","","","","","","","","","","","","","","",""
"51.59999990463257","161565","SARL_v6","SARL_v6zr2lvx8v","63d3f99eac52371a49e65825","freq","","","img/blue_2bandit_a2.png","70","","70","test","1","","75","","","","square","circle","72","3","4","0.8611111111111112","","","","","","","",""
"null","162329","SARL_v6","SARL_v6zr2lvx8v","63d3f99eac52371a49e65825","freq_resp","","","img/blue_2bandit_a.png","70","img/blue_2bandit_a.png","70","test","","","","","","","","","","","4","","","","","","","","",""
"null","162503","SARL_v6","SARL_v6zr2lvx8v","63d3f99eac52371a49e65825","fixation","","","img/fixation.png","null","","","test","","","","","","","","","","","","","","","","","","","",""
"361.19999980926514","162873","SARL_v6","SARL_v6zr2lvx8v","63d3f99eac52371a49e65825","freq","","","img/blue_2bandit_a2.png","70","","70","test","1","","76","","","","square","circle","73","4","4","0.863013698630137","","","","","","","",""
"null","163326","SARL_v6","SARL_v6zr2lvx8v","63d3f99eac52371a49e65825","freq_resp","","","img/blue_2bandit_a.png","70","img/blue_2bandit_a.png","70","test","","","","","","","","","","","4","","","","","","","","",""
"null","163487","SARL_v6","SARL_v6zr2lvx8v","63d3f99eac52371a49e65825","fixation","","","img/fixation.png","null","","","test","","","","","","","","","","","","","","","","","","","",""
"487.7999999523163","163984","SARL_v6","SARL_v6zr2lvx8v","63d3f99eac52371a49e65825","freq","","","img/blue_2bandit_a2.png","70","","70","test","1","","77","","","","square","circle","74","5","4","0.8648648648648649","","","","","","","",""
"null","164315","SARL_v6","SARL_v6zr2lvx8v","63d3f99eac52371a49e65825","freq_resp","","","img/blue_2bandit_a.png","70","img/blue_2bandit_a.png","70","test","","","","","","","","","","","4","","","","","","","","",""
"null","164486","SARL_v6","SARL_v6zr2lvx8v","63d3f99eac52371a49e65825","fixation","","","img/fixation.png","null","","","test","","","","","","","","","","","","","","","","","","","",""
"205.09999990463257","164701","SARL_v6","SARL_v6zr2lvx8v","63d3f99eac52371a49e65825","freq","","","img/blue_2bandit_a2.png","70","","70","test","1","","78","","","","square","circle","75","6","4","0.8666666666666667","","","","","","","",""
"null","165316","SARL_v6","SARL_v6zr2lvx8v","63d3f99eac52371a49e65825","freq_resp","","","img/blue_2bandit_a.png","70","img/blue_2bandit_a.png","70","test","","","","","","","","","","","4","","","","","","","","",""
"null","165486","SARL_v6","SARL_v6zr2lvx8v","63d3f99eac52371a49e65825","fixation","","","img/fixation.png","null","","","test","","","","","","","","","","","","","","","","","","","",""
"61.5","165557","SARL_v6","SARL_v6zr2lvx8v","63d3f99eac52371a49e65825","freq","","","img/blue_2bandit_a2.png","70","","70","test","1","","79","","","","square","circle","76","7","4","0.868421052631579","","","","","","","",""
"null","166311","SARL_v6","SARL_v6zr2lvx8v","63d3f99eac52371a49e65825","freq_resp","","","img/blue_2bandit_a.png","70","img/blue_2bandit_a.png","70","test","","","","","","","","","","","4","","","","","","","","",""
"null","166469","SARL_v6","SARL_v6zr2lvx8v","63d3f99eac52371a49e65825","fixation","","","img/fixation.png","null","","","test","","","","","","","","","","","","","","","","","","","",""
"797.0999999046326","167274","SARL_v6","SARL_v6zr2lvx8v","63d3f99eac52371a49e65825","infreq","","","img/orange_2bandit_a2.png","68","","68","test","1","","80","","","","square","circle","77","8","4","0.8701298701298701","","","","","","","",""
"null","167290","SARL_v6","SARL_v6zr2lvx8v","63d3f99eac52371a49e65825","infreq_resp","","","img/orange_2bandit_a.png","68","img/orange_2bandit_a.png","68","test","","","","","","","","","","","4","","","","","","","","",""
"null","167451","SARL_v6","SARL_v6zr2lvx8v","63d3f99eac52371a49e65825","fixation","","","img/fixation.png","null","","","test","","","","","","","","","","","","","","","","","","","",""
"500.2999999523163","167960","SARL_v6","SARL_v6zr2lvx8v","63d3f99eac52371a49e65825","freq","","","img/blue_2bandit_a2.png","70","","70","test","1","","81","","","","square","circle","78","9","4","0.8717948717948718","","","","","","","",""
"null","168281","SARL_v6","SARL_v6zr2lvx8v","63d3f99eac52371a49e65825","freq_resp","","","img/blue_2bandit_a.png","70","img/blue_2bandit_a.png","70","test","","","","","","","","","","","4","","","","","","","","",""
"null","168452","SARL_v6","SARL_v6zr2lvx8v","63d3f99eac52371a49e65825","fixation","","","img/fixation.png","null","","","test","","","","","","","","","","","","","","","","","","","",""
"280.40000009536743","168742","SARL_v6","SARL_v6zr2lvx8v","63d3f99eac52371a49e65825","freq","","","img/blue_2bandit_a2.png","70","","70","test","1","","82","","","","square","circle","79","10","4","0.8734177215189873","","","","","","","",""
"null","169287","SARL_v6","SARL_v6zr2lvx8v","63d3f99eac52371a49e65825","freq_resp","","","img/blue_2bandit_a.png","70","img/blue_2bandit_a.png","70","test","","","","","","","","","","","4","","","","","","","","",""
"null","169453","SARL_v6","SARL_v6zr2lvx8v","63d3f99eac52371a49e65825","fixation","","","img/fixation.png","null","","","test","","","","","","","","","","","","","","","","","","","",""
"27.399999856948853","169490","SARL_v6","SARL_v6zr2lvx8v","63d3f99eac52371a49e65825","freq","","","img/blue_2bandit_a2.png","70","","70","test","1","","83","","","","square","circle","80","11","4","0.875","","","","","","","",""
"null","170277","SARL_v6","SARL_v6zr2lvx8v","63d3f99eac52371a49e65825","freq_resp","","","img/blue_2bandit_a.png","70","img/blue_2bandit_a.png","70","test","","","","","","","","","","","4","","","","","","","","",""
"null","170453","SARL_v6","SARL_v6zr2lvx8v","63d3f99eac52371a49e65825","fixation","","","img/fixation.png","null","","","test","","","","","","","","","","","","","","","","","","","",""
"418.40000009536743","170881","SARL_v6","SARL_v6zr2lvx8v","63d3f99eac52371a49e65825","freq","","","img/blue_2bandit_a2.png","70","","70","test","1","","84","","","","square","circle","81","12","4","0.8765432098765432","","","","","","","",""
"null","171274","SARL_v6","SARL_v6zr2lvx8v","63d3f99eac52371a49e65825","freq_resp","","","img/blue_2bandit_a.png","70","img/blue_2bandit_a.png","70","test","","","","","","","","","","","4","","","","","","","","",""
"null","171435","SARL_v6","SARL_v6zr2lvx8v","63d3f99eac52371a49e65825","fixation","","","img/fixation.png","null","","","test","","","","","","","","","","","","","","","","","","","",""
"164","171609","SARL_v6","SARL_v6zr2lvx8v","63d3f99eac52371a49e65825","freq","","","img/blue_2bandit_a2.png","70","","70","test","1","","85","","","","square","circle","82","13","4","0.8780487804878049","","","","","","","",""
"null","172265","SARL_v6","SARL_v6zr2lvx8v","63d3f99eac52371a49e65825","freq_resp","","","img/blue_2bandit_a.png","70","img/blue_2bandit_a.png","70","test","","","","","","","","","","","4","","","","","","","","",""
"null","172438","SARL_v6","SARL_v6zr2lvx8v","63d3f99eac52371a49e65825","fixation","","","img/fixation.png","null","","","test","","","","","","","","","","","","","","","","","","","",""
"26","172471","SARL_v6","SARL_v6zr2lvx8v","63d3f99eac52371a49e65825","freq","","","img/blue_2bandit_a2.png","70","","70","test","1","","86","","","","square","circle","83","14","4","0.8795180722891566","","","","","","","",""
"null","173261","SARL_v6","SARL_v6zr2lvx8v","63d3f99eac52371a49e65825","freq_resp","","","img/blue_2bandit_a.png","70","img/blue_2bandit_a.png","70","test","","","","","","","","","","","4","","","","","","","","",""
"null","173435","SARL_v6","SARL_v6zr2lvx8v","63d3f99eac52371a49e65825","fixation","","","img/fixation.png","null","","","test","","","","","","","","","","","","","","","","","","","",""
"280.7000000476837","173726","SARL_v6","SARL_v6zr2lvx8v","63d3f99eac52371a49e65825","freq","","","img/blue_2bandit_a2.png","70","","70","test","1","","87","","","","square","circle","84","15","4","0.8809523809523809","","","","","","","",""
"null","174271","SARL_v6","SARL_v6zr2lvx8v","63d3f99eac52371a49e65825","freq_resp","","","img/blue_2bandit_a.png","70","img/blue_2bandit_a.png","70","test","","","","","","","","","","","4","","","","","","","","",""
"null","174437","SARL_v6","SARL_v6zr2lvx8v","63d3f99eac52371a49e65825","fixation","","","img/fixation.png","null","","","test","","","","","","","","","","","","","","","","","","","",""
"210.89999985694885","174657","SARL_v6","SARL_v6zr2lvx8v","63d3f99eac52371a49e65825","infreq","","","img/orange_2bandit_a2.png","70","","68","test","0","","88","","","","square","circle","85","16","4","0.8705882352941177","","","","","","","",""
"null","175267","SARL_v6","SARL_v6zr2lvx8v","63d3f99eac52371a49e65825","infreq_resp","","","img/orange_2bandit_a.png","70","img/orange_2bandit_a.png","68","test","","","","","","","","","","","4","","","","","","","","",""
"null","175437","SARL_v6","SARL_v6zr2lvx8v","63d3f99eac52371a49e65825","fixation","","","img/fixation.png","null","","","test","","","","","","","","","","","","","","","","","","","",""
"467.7000000476837","175914","SARL_v6","SARL_v6zr2lvx8v","63d3f99eac52371a49e65825","freq","","","img/blue_2bandit_a2.png","70","","70","test","1","","89","","","","square","circle","86","17","4","0.872093023255814","","","","","","","",""
"null","176263","SARL_v6","SARL_v6zr2lvx8v","63d3f99eac52371a49e65825","freq_resp","","","img/blue_2bandit_a.png","70","img/blue_2bandit_a.png","70","test","","","","","","","","","","","4","","","","","","","","",""
"null","176435","SARL_v6","SARL_v6zr2lvx8v","63d3f99eac52371a49e65825","fixation","","","img/fixation.png","null","","","test","","","","","","","","","","","","","","","","","","","",""
"312.60000014305115","176758","SARL_v6","SARL_v6zr2lvx8v","63d3f99eac52371a49e65825","freq","","","img/blue_2bandit_a2.png","70","","70","test","1","","90","","","","square","circle","87","18","4","0.8735632183908046","","","","","","","",""
"null","177270","SARL_v6","SARL_v6zr2lvx8v","63d3f99eac52371a49e65825","freq_resp","","","img/blue_2bandit_a.png","70","img/blue_2bandit_a.png","70","test","","","","","","","","","","","4","","","","","","","","",""
"null","177436","SARL_v6","SARL_v6zr2lvx8v","63d3f99eac52371a49e65825","fixation","","","img/fixation.png","null","","","test","","","","","","","","","","","","","","","","","","","",""
"325.40000009536743","177772","SARL_v6","SARL_v6zr2lvx8v","63d3f99eac52371a49e65825","freq","","","img/blue_2bandit_a2.png","70","","70","test","1","","91","","","","square","circle","88","19","4","0.875","","","","","","","",""
"null","178271","SARL_v6","SARL_v6zr2lvx8v","63d3f99eac52371a49e65825","freq_resp","","","img/blue_2bandit_a.png","70","img/blue_2bandit_a.png","70","test","","","","","","","","","","","4","","","","","","","","",""
"null","178436","SARL_v6","SARL_v6zr2lvx8v","63d3f99eac52371a49e65825","fixation","","","img/fixation.png","null","","","test","","","","","","","","","","","","","","","","","","","",""
"370.59999990463257","178816","SARL_v6","SARL_v6zr2lvx8v","63d3f99eac52371a49e65825","freq","","","img/blue_2bandit_a2.png","70","","70","test","1","","92","","","","square","circle","89","20","4","0.8764044943820225","","","","","","","",""
"null","179257","SARL_v6","SARL_v6zr2lvx8v","63d3f99eac52371a49e65825","freq_resp","","","img/blue_2bandit_a.png","70","img/blue_2bandit_a.png","70","test","","","","","","","","","","","4","","","","","","","","",""
"null","179418","SARL_v6","SARL_v6zr2lvx8v","63d3f99eac52371a49e65825","fixation","","","img/fixation.png","null","","","test","","","","","","","","","","","","","","","","","","","",""
"934.5999999046326","180362","SARL_v6","SARL_v6zr2lvx8v","63d3f99eac52371a49e65825","rl","","","img/black_2bandit_a2.png","74","","0","test","","","93","","","-12","square","circle","","0","4","","74","0","-12","-12","0","square","4","0"
"null","181125","SARL_v6","SARL_v6zr2lvx8v","63d3f99eac52371a49e65825","feedback","","","<div class=""verylowPoints_sq""> -12 </div>","null","","na","test","","","NaN","","","","","","","","4","","74","","","","","","4",""
"555.2000000476837","181690","SARL_v6","SARL_v6zr2lvx8v","63d3f99eac52371a49e65825","freq","","","img/blue_2bandit_a2.png","70","","70","test","1","","94","","","","square","circle","90","1","5","0.8777777777777778","","","","","","","",""
"null","181946","SARL_v6","SARL_v6zr2lvx8v","63d3f99eac52371a49e65825","freq_resp","","","img/blue_2bandit_a.png","70","img/blue_2bandit_a.png","70","test","","","","","","","","","","","5","","","","","","","","",""
"null","182118","SARL_v6","SARL_v6zr2lvx8v","63d3f99eac52371a49e65825","fixation","","","img/fixation.png","null","","","test","","","","","","","","","","","","","","","","","","","",""
"211.59999990463257","182339","SARL_v6","SARL_v6zr2lvx8v","63d3f99eac52371a49e65825","freq","","","img/blue_2bandit_a2.png","70","","70","test","1","","95","","","","square","circle","91","2","5","0.8791208791208791","","","","","","","",""
"null","182944","SARL_v6","SARL_v6zr2lvx8v","63d3f99eac52371a49e65825","freq_resp","","","img/blue_2bandit_a.png","70","img/blue_2bandit_a.png","70","test","","","","","","","","","","","5","","","","","","","","",""
"null","183115","SARL_v6","SARL_v6zr2lvx8v","63d3f99eac52371a49e65825","fixation","","","img/fixation.png","null","","","test","","","","","","","","","","","","","","","","","","","",""
"523.9000000953674","183649","SARL_v6","SARL_v6zr2lvx8v","63d3f99eac52371a49e65825","freq","","","img/blue_2bandit_a2.png","70","","70","test","1","","96","","","","square","circle","92","3","5","0.8804347826086957","","","","","","","",""
"null","183943","SARL_v6","SARL_v6zr2lvx8v","63d3f99eac52371a49e65825","freq_resp","","","img/blue_2bandit_a.png","70","img/blue_2bandit_a.png","70","test","","","","","","","","","","","5","","","","","","","","",""
"null","184116","SARL_v6","SARL_v6zr2lvx8v","63d3f99eac52371a49e65825","fixation","","","img/fixation.png","null","","","test","","","","","","","","","","","","","","","","","","","",""
"258.09999990463257","184383","SARL_v6","SARL_v6zr2lvx8v","63d3f99eac52371a49e65825","freq","","","img/blue_2bandit_a2.png","70","","70","test","1","","97","","","","square","circle","93","4","5","0.8817204301075269","","","","","","","",""
"null","184934","SARL_v6","SARL_v6zr2lvx8v","63d3f99eac52371a49e65825","freq_resp","","","img/blue_2bandit_a.png","70","img/blue_2bandit_a.png","70","test","","","","","","","","","","","5","","","","","","","","",""
"null","185099","SARL_v6","SARL_v6zr2lvx8v","63d3f99eac52371a49e65825","fixation","","","img/fixation.png","null","","","test","","","","","","","","","","","","","","","","","","","",""
"47.59999990463257","185157","SARL_v6","SARL_v6zr2lvx8v","63d3f99eac52371a49e65825","freq","","","img/blue_2bandit_a2.png","70","","70","test","1","","98","","","","square","circle","94","5","5","0.8829787234042553","","","","","","","",""
"null","185928","SARL_v6","SARL_v6zr2lvx8v","63d3f99eac52371a49e65825","freq_resp","","","img/blue_2bandit_a.png","70","img/blue_2bandit_a.png","70","test","","","","","","","","","","","5","","","","","","","","",""
"null","186085","SARL_v6","SARL_v6zr2lvx8v","63d3f99eac52371a49e65825","fixation","","","img/fixation.png","null","","","test","","","","","","","","","","","","","","","","","","","",""
"403.2000000476837","186497","SARL_v6","SARL_v6zr2lvx8v","63d3f99eac52371a49e65825","freq","","","img/blue_2bandit_a2.png","70","","70","test","1","","99","","","","square","circle","95","6","5","0.8842105263157894","","","","","","","",""
"null","186907","SARL_v6","SARL_v6zr2lvx8v","63d3f99eac52371a49e65825","freq_resp","","","img/blue_2bandit_a.png","70","img/blue_2bandit_a.png","70","test","","","","","","","","","","","5","","","","","","","","",""
"null","187066","SARL_v6","SARL_v6zr2lvx8v","63d3f99eac52371a49e65825","fixation","","","img/fixation.png","null","","","test","","","","","","","","","","","","","","","","","","","",""
"238","187314","SARL_v6","SARL_v6zr2lvx8v","63d3f99eac52371a49e65825","freq","","","img/blue_2bandit_a2.png","70","","70","test","1","","100","","","","square","circle","96","7","5","0.8854166666666666","","","","","","","",""
"null","187896","SARL_v6","SARL_v6zr2lvx8v","63d3f99eac52371a49e65825","freq_resp","","","img/blue_2bandit_a.png","70","img/blue_2bandit_a.png","70","test","","","","","","","","","","","5","","","","","","","","",""
"null","188066","SARL_v6","SARL_v6zr2lvx8v","63d3f99eac52371a49e65825","fixation","","","img/fixation.png","null","","","test","","","","","","","","","","","","","","","","","","","",""
"124.59999990463257","188200","SARL_v6","SARL_v6zr2lvx8v","63d3f99eac52371a49e65825","freq","","","img/blue_2bandit_a2.png","70","","70","test","1","","101","","","","square","circle","97","8","5","0.8865979381443299","","","","","","","",""
"null","188896","SARL_v6","SARL_v6zr2lvx8v","63d3f99eac52371a49e65825","freq_resp","","","img/blue_2bandit_a.png","70","img/blue_2bandit_a.png","70","test","","","","","","","","","","","5","","","","","","","","",""
"null","189067","SARL_v6","SARL_v6zr2lvx8v","63d3f99eac52371a49e65825","fixation","","","img/fixation.png","null","","","test","","","","","","","","","","","","","","","","","","","",""
"416.90000009536743","189493","SARL_v6","SARL_v6zr2lvx8v","63d3f99eac52371a49e65825","freq","","","img/blue_2bandit_a2.png","70","","70","test","1","","102","","","","square","circle","98","9","5","0.8877551020408163","","","","","","","",""
"null","189889","SARL_v6","SARL_v6zr2lvx8v","63d3f99eac52371a49e65825","freq_resp","","","img/blue_2bandit_a.png","70","img/blue_2bandit_a.png","70","test","","","","","","","","","","","5","","","","","","","","",""
"null","190050","SARL_v6","SARL_v6zr2lvx8v","63d3f99eac52371a49e65825","fixation","","","img/fixation.png","null","","","test","","","","","","","","","","","","","","","","","","","",""
"416.2999999523163","190476","SARL_v6","SARL_v6zr2lvx8v","63d3f99eac52371a49e65825","freq","","","img/blue_2bandit_a2.png","70","","70","test","1","","103","","","","square","circle","99","10","5","0.8888888888888888","","","","","","","",""
"null","190874","SARL_v6","SARL_v6zr2lvx8v","63d3f99eac52371a49e65825","freq_resp","","","img/blue_2bandit_a.png","70","img/blue_2bandit_a.png","70","test","","","","","","","","","","","5","","","","","","","","",""
"null","191050","SARL_v6","SARL_v6zr2lvx8v","63d3f99eac52371a49e65825","fixation","","","img/fixation.png","null","","","test","","","","","","","","","","","","","","","","","","","",""
"204.60000014305115","191264","SARL_v6","SARL_v6zr2lvx8v","63d3f99eac52371a49e65825","freq","","","img/blue_2bandit_a2.png","70","","70","test","1","","104","","","","square","circle","100","11","5","0.89","","","","","","","",""
"null","191880","SARL_v6","SARL_v6zr2lvx8v","63d3f99eac52371a49e65825","freq_resp","","","img/blue_2bandit_a.png","70","img/blue_2bandit_a.png","70","test","","","","","","","","","","","5","","","","","","","","",""
"null","192047","SARL_v6","SARL_v6zr2lvx8v","63d3f99eac52371a49e65825","fixation","","","img/fixation.png","null","","","test","","","","","","","","","","","","","","","","","","","",""
"205.90000009536743","192262","SARL_v6","SARL_v6zr2lvx8v","63d3f99eac52371a49e65825","freq","","","img/blue_2bandit_a2.png","70","","70","test","1","","105","","","","square","circle","101","12","5","0.8910891089108911","","","","","","","",""
"null","192882","SARL_v6","SARL_v6zr2lvx8v","63d3f99eac52371a49e65825","freq_resp","","","img/blue_2bandit_a.png","70","img/blue_2bandit_a.png","70","test","","","","","","","","","","","5","","","","","","","","",""
"null","193048","SARL_v6","SARL_v6zr2lvx8v","63d3f99eac52371a49e65825","fixation","","","img/fixation.png","null","","","test","","","","","","","","","","","","","","","","","","","",""
"403","193460","SARL_v6","SARL_v6zr2lvx8v","63d3f99eac52371a49e65825","freq","","","img/blue_2bandit_a2.png","70","","70","test","1","","106","","","","square","circle","102","13","5","0.8921568627450981","","","","","","","",""
"null","193873","SARL_v6","SARL_v6zr2lvx8v","63d3f99eac52371a49e65825","freq_resp","","","img/blue_2bandit_a.png","70","img/blue_2bandit_a.png","70","test","","","","","","","","","","","5","","","","","","","","",""
"null","194048","SARL_v6","SARL_v6zr2lvx8v","63d3f99eac52371a49e65825","fixation","","","img/fixation.png","null","","","test","","","","","","","","","","","","","","","","","","","",""
"238.20000004768372","194296","SARL_v6","SARL_v6zr2lvx8v","63d3f99eac52371a49e65825","freq","","","img/blue_2bandit_a2.png","70","","70","test","1","","107","","","","square","circle","103","14","5","0.8932038834951457","","","","","","","",""
"null","194869","SARL_v6","SARL_v6zr2lvx8v","63d3f99eac52371a49e65825","freq_resp","","","img/blue_2bandit_a.png","70","img/blue_2bandit_a.png","70","test","","","","","","","","","","","5","","","","","","","","",""
"null","195033","SARL_v6","SARL_v6zr2lvx8v","63d3f99eac52371a49e65825","fixation","","","img/fixation.png","null","","","test","","","","","","","","","","","","","","","","","","","",""
"430.40000009536743","195473","SARL_v6","SARL_v6zr2lvx8v","63d3f99eac52371a49e65825","freq","","","img/blue_2bandit_a2.png","70","","70","test","1","","108","","","","square","circle","104","15","5","0.8942307692307693","","","","","","","",""
"null","195852","SARL_v6","SARL_v6zr2lvx8v","63d3f99eac52371a49e65825","freq_resp","","","img/blue_2bandit_a.png","70","img/blue_2bandit_a.png","70","test","","","","","","","","","","","5","","","","","","","","",""
"null","196013","SARL_v6","SARL_v6zr2lvx8v","63d3f99eac52371a49e65825","fixation","","","img/fixation.png","null","","","test","","","","","","","","","","","","","","","","","","","",""
"100.90000009536743","196121","SARL_v6","SARL_v6zr2lvx8v","63d3f99eac52371a49e65825","freq","","","img/blue_2bandit_a2.png","70","","70","test","1","","109","","","","square","circle","105","16","5","0.8952380952380953","","","","","","","",""
"null","196829","SARL_v6","SARL_v6zr2lvx8v","63d3f99eac52371a49e65825","freq_resp","","","img/blue_2bandit_a.png","70","img/blue_2bandit_a.png","70","test","","","","","","","","","","","5","","","","","","","","",""
"null","196998","SARL_v6","SARL_v6zr2lvx8v","63d3f99eac52371a49e65825","fixation","","","img/fixation.png","null","","","test","","","","","","","","","","","","","","","","","","","",""
"281.7000000476837","197289","SARL_v6","SARL_v6zr2lvx8v","63d3f99eac52371a49e65825","freq","","","img/blue_2bandit_a2.png","70","","70","test","1","","110","","","","square","circle","106","17","5","0.8962264150943396","","","","","","","",""
"null","197832","SARL_v6","SARL_v6zr2lvx8v","63d3f99eac52371a49e65825","freq_resp","","","img/blue_2bandit_a.png","70","img/blue_2bandit_a.png","70","test","","","","","","","","","","","5","","","","","","","","",""
"null","197999","SARL_v6","SARL_v6zr2lvx8v","63d3f99eac52371a49e65825","fixation","","","img/fixation.png","null","","","test","","","","","","","","","","","","","","","","","","","",""
"52.59999990463257","198061","SARL_v6","SARL_v6zr2lvx8v","63d3f99eac52371a49e65825","freq","","","img/blue_2bandit_a2.png","70","","70","test","1","","111","","","","square","circle","107","18","5","0.897196261682243","","","","","","","",""
"null","198824","SARL_v6","SARL_v6zr2lvx8v","63d3f99eac52371a49e65825","freq_resp","","","img/blue_2bandit_a.png","70","img/blue_2bandit_a.png","70","test","","","","","","","","","","","5","","","","","","","","",""
"null","198998","SARL_v6","SARL_v6zr2lvx8v","63d3f99eac52371a49e65825","fixation","","","img/fixation.png","null","","","test","","","","","","","","","","","","","","","","","","","",""
"531.5999999046326","199537","SARL_v6","SARL_v6zr2lvx8v","63d3f99eac52371a49e65825","infreq","","","img/orange_2bandit_a2.png","68","","68","test","1","","112","","","","square","circle","108","19","5","0.8981481481481481","","","","","","","",""
"null","199820","SARL_v6","SARL_v6zr2lvx8v","63d3f99eac52371a49e65825","infreq_resp","","","img/orange_2bandit_a.png","68","img/orange_2bandit_a.png","68","test","","","","","","","","","","","5","","","","","","","","",""
"null","199981","SARL_v6","SARL_v6zr2lvx8v","63d3f99eac52371a49e65825","fixation","","","img/fixation.png","null","","","test","","","","","","","","","","","","","","","","","","","",""
"282.7000000476837","200273","SARL_v6","SARL_v6zr2lvx8v","63d3f99eac52371a49e65825","infreq","","","img/orange_2bandit_a2.png","68","","68","test","1","","113","","","","square","circle","109","20","5","0.8990825688073395","","","","","","","",""
"null","200816","SARL_v6","SARL_v6zr2lvx8v","63d3f99eac52371a49e65825","infreq_resp","","","img/orange_2bandit_a.png","68","img/orange_2bandit_a.png","68","test","","","","","","","","","","","5","","","","","","","","",""
"null","200982","SARL_v6","SARL_v6zr2lvx8v","63d3f99eac52371a49e65825","fixation","","","img/fixation.png","null","","","test","","","","","","","","","","","","","","","","","","","",""
"61.19999980926514","201053","SARL_v6","SARL_v6zr2lvx8v","63d3f99eac52371a49e65825","freq","","","img/blue_2bandit_a2.png","68","","70","test","0","","114","","","","square","circle","110","21","5","0.8909090909090909","","","","","","","",""
"null","201807","SARL_v6","SARL_v6zr2lvx8v","63d3f99eac52371a49e65825","freq_resp","","","img/blue_2bandit_a.png","68","img/blue_2bandit_a.png","70","test","","","","","","","","","","","5","","","","","","","","",""
"null","201982","SARL_v6","SARL_v6zr2lvx8v","63d3f99eac52371a49e65825","fixation","","","img/fixation.png","null","","","test","","","","","","","","","","","","","","","","","","","",""
"371.2999999523163","202361","SARL_v6","SARL_v6zr2lvx8v","63d3f99eac52371a49e65825","freq","","","img/blue_2bandit_a2.png","70","","70","test","1","","115","","","","square","circle","111","22","5","0.8918918918918919","","","","","","","",""
"null","202803","SARL_v6","SARL_v6zr2lvx8v","63d3f99eac52371a49e65825","freq_resp","","","img/blue_2bandit_a.png","70","img/blue_2bandit_a.png","70","test","","","","","","","","","","","5","","","","","","","","",""
"null","202964","SARL_v6","SARL_v6zr2lvx8v","63d3f99eac52371a49e65825","fixation","","","img/fixation.png","null","","","test","","","","","","","","","","","","","","","","","","","",""
"87.60000014305115","203061","SARL_v6","SARL_v6zr2lvx8v","63d3f99eac52371a49e65825","freq","","","img/blue_2bandit_a2.png","70","","70","test","1","","116","","","","square","circle","112","23","5","0.8928571428571429","","","","","","","",""
"null","203792","SARL_v6","SARL_v6zr2lvx8v","63d3f99eac52371a49e65825","freq_resp","","","img/blue_2bandit_a.png","70","img/blue_2bandit_a.png","70","test","","","","","","","","","","","5","","","","","","","","",""
"null","203964","SARL_v6","SARL_v6zr2lvx8v","63d3f99eac52371a49e65825","fixation","","","img/fixation.png","null","","","test","","","","","","","","","","","","","","","","","","","",""
"672.2999999523163","204646","SARL_v6","SARL_v6zr2lvx8v","63d3f99eac52371a49e65825","freq","","","img/blue_2bandit_a2.png","70","","70","test","1","","117","","","","square","circle","113","24","5","0.8938053097345132","","","","","","","",""
"null","204799","SARL_v6","SARL_v6zr2lvx8v","63d3f99eac52371a49e65825","freq_resp","","","img/blue_2bandit_a.png","70","img/blue_2bandit_a.png","70","test","","","","","","","","","","","5","","","","","","","","",""
"null","204965","SARL_v6","SARL_v6zr2lvx8v","63d3f99eac52371a49e65825","fixation","","","img/fixation.png","null","","","test","","","","","","","","","","","","","","","","","","","",""
"null","206482","SARL_v6","SARL_v6zr2lvx8v","63d3f99eac52371a49e65825","rl","","","img/black_2bandit_a2.png","null","","0","test","","","118","","","0","square","circle","","0","5","","null","4","-7","-7","4","too slow","5","0"
"null","207255","SARL_v6","SARL_v6zr2lvx8v","63d3f99eac52371a49e65825","feedback","","","<div font size = 80> TOO SLOW  </div>","null","","na","test","","","NaN","","","","","","","","5","","null","","","","","","5",""
"null","208074","SARL_v6","SARL_v6zr2lvx8v","63d3f99eac52371a49e65825","freq","","","img/blue_2bandit_a2.png","null","","70","test","0","","119","","","","square","circle","114","1","6","0.8859649122807017","","","","","","","",""
"null","208248","SARL_v6","SARL_v6zr2lvx8v","63d3f99eac52371a49e65825","fixation","","","img/fixation.png","null","","","test","","","","","","","","","","","","","","","","","","","",""
"589","208847","SARL_v6","SARL_v6zr2lvx8v","63d3f99eac52371a49e65825","infreq","","","img/orange_2bandit_a2.png","68","","68","test","1","","120","","","","square","circle","115","2","6","0.8869565217391304","","","","","","","",""
"null","209078","SARL_v6","SARL_v6zr2lvx8v","63d3f99eac52371a49e65825","infreq_resp","","","img/orange_2bandit_a.png","68","img/orange_2bandit_a.png","68","test","","","","","","","","","","","6","","","","","","","","",""
"null","209246","SARL_v6","SARL_v6zr2lvx8v","63d3f99eac52371a49e65825","fixation","","","img/fixation.png","null","","","test","","","","","","","","","","","","","","","","","","","",""
"291.5","209545","SARL_v6","SARL_v6zr2lvx8v","63d3f99eac52371a49e65825","infreq","","","img/orange_2bandit_a2.png","68","","68","test","1","","121","","","","square","circle","116","3","6","0.8879310344827587","","","","","","","",""
"null","210067","SARL_v6","SARL_v6zr2lvx8v","63d3f99eac52371a49e65825","infreq_resp","","","img/orange_2bandit_a.png","68","img/orange_2bandit_a.png","68","test","","","","","","","","","","","6","","","","","","","","",""
"null","210231","SARL_v6","SARL_v6zr2lvx8v","63d3f99eac52371a49e65825","fixation","","","img/fixation.png","null","","","test","","","","","","","","","","","","","","","","","","","",""
"253.79999995231628","210494","SARL_v6","SARL_v6zr2lvx8v","63d3f99eac52371a49e65825","freq","","","img/blue_2bandit_a2.png","68","","70","test","0","","122","","","","square","circle","117","4","6","0.8803418803418803","","","","","","","",""
"null","211063","SARL_v6","SARL_v6zr2lvx8v","63d3f99eac52371a49e65825","freq_resp","","","img/blue_2bandit_a.png","68","img/blue_2bandit_a.png","70","test","","","","","","","","","","","6","","","","","","","","",""
"null","211228","SARL_v6","SARL_v6zr2lvx8v","63d3f99eac52371a49e65825","fixation","","","img/fixation.png","null","","","test","","","","","","","","","","","","","","","","","","","",""
"118.19999980926514","211354","SARL_v6","SARL_v6zr2lvx8v","63d3f99eac52371a49e65825","freq","","","img/blue_2bandit_a2.png","70","","70","test","1","","123","","","","square","circle","118","5","6","0.8813559322033898","","","","","","","",""
"null","212058","SARL_v6","SARL_v6zr2lvx8v","63d3f99eac52371a49e65825","freq_resp","","","img/blue_2bandit_a.png","70","img/blue_2bandit_a.png","70","test","","","","","","","","","","","6","","","","","","","","",""
"null","212230","SARL_v6","SARL_v6zr2lvx8v","63d3f99eac52371a49e65825","fixation","","","img/fixation.png","null","","","test","","","","","","","","","","","","","","","","","","","",""
"409.7000000476837","212647","SARL_v6","SARL_v6zr2lvx8v","63d3f99eac52371a49e65825","freq","","","img/blue_2bandit_a2.png","70","","70","test","1","","124","","","","square","circle","119","6","6","0.8823529411764706","","","","","","","",""
"null","213052","SARL_v6","SARL_v6zr2lvx8v","63d3f99eac52371a49e65825","freq_resp","","","img/blue_2bandit_a.png","70","img/blue_2bandit_a.png","70","test","","","","","","","","","","","6","","","","","","","","",""
"null","213211","SARL_v6","SARL_v6zr2lvx8v","63d3f99eac52371a49e65825","fixation","","","img/fixation.png","null","","","test","","","","","","","","","","","","","","","","","","","",""
"331.7000000476837","213552","SARL_v6","SARL_v6zr2lvx8v","63d3f99eac52371a49e65825","freq","","","img/blue_2bandit_a2.png","70","","70","test","1","","125","","","","square","circle","120","7","6","0.8833333333333333","","","","","","","",""
"null","214032","SARL_v6","SARL_v6zr2lvx8v","63d3f99eac52371a49e65825","freq_resp","","","img/blue_2bandit_a.png","70","img/blue_2bandit_a.png","70","test","","","","","","","","","","","6","","","","","","","","",""
"null","214197","SARL_v6","SARL_v6zr2lvx8v","63d3f99eac52371a49e65825","fixation","","","img/fixation.png","null","","","test","","","","","","","","","","","","","","","","","","","",""
"656.0999999046326","214863","SARL_v6","SARL_v6zr2lvx8v","63d3f99eac52371a49e65825","freq","","","img/blue_2bandit_a2.png","70","","70","test","1","","126","","","","square","circle","121","8","6","0.8842975206611571","","","","","","","",""
"null","215030","SARL_v6","SARL_v6zr2lvx8v","63d3f99eac52371a49e65825","freq_resp","","","img/blue_2bandit_a.png","70","img/blue_2bandit_a.png","70","test","","","","","","","","","","","6","","","","","","","","",""
"null","215197","SARL_v6","SARL_v6zr2lvx8v","63d3f99eac52371a49e65825","fixation","","","img/fixation.png","null","","","test","","","","","","","","","","","","","","","","","","","",""
"273.2000000476837","215480","SARL_v6","SARL_v6zr2lvx8v","63d3f99eac52371a49e65825","freq","","","img/blue_2bandit_a2.png","70","","70","test","1","","127","","","","square","circle","122","9","6","0.8852459016393442","","","","","","","",""
"null","216030","SARL_v6","SARL_v6zr2lvx8v","63d3f99eac52371a49e65825","freq_resp","","","img/blue_2bandit_a.png","70","img/blue_2bandit_a.png","70","test","","","","","","","","","","","6","","","","","","","","",""
"null","216198","SARL_v6","SARL_v6zr2lvx8v","63d3f99eac52371a49e65825","fixation","","","img/fixation.png","null","","","test","","","","","","","","","","","","","","","","","","","",""
"123.79999995231628","216332","SARL_v6","SARL_v6zr2lvx8v","63d3f99eac52371a49e65825","freq","","","img/blue_2bandit_a2.png","70","","70","test","1","","128","","","","square","circle","123","10","6","0.8861788617886179","","","","","","","",""
"null","217025","SARL_v6","SARL_v6zr2lvx8v","63d3f99eac52371a49e65825","freq_resp","","","img/blue_2bandit_a.png","70","img/blue_2bandit_a.png","70","test","","","","","","","","","","","6","","","","","","","","",""
"null","217195","SARL_v6","SARL_v6zr2lvx8v","63d3f99eac52371a49e65825","fixation","","","img/fixation.png","null","","","test","","","","","","","","","","","","","","","","","","","",""
"31.59999990463257","217234","SARL_v6","SARL_v6zr2lvx8v","63d3f99eac52371a49e65825","freq","","","img/blue_2bandit_a2.png","70","","70","test","1","","129","","","","square","circle","124","11","6","0.8870967741935484","","","","","","","",""
"null","218020","SARL_v6","SARL_v6zr2lvx8v","63d3f99eac52371a49e65825","freq_resp","","","img/blue_2bandit_a.png","70","img/blue_2bandit_a.png","70","test","","","","","","","","","","","6","","","","","","","","",""
"null","218180","SARL_v6","SARL_v6zr2lvx8v","63d3f99eac52371a49e65825","fixation","","","img/fixation.png","null","","","test","","","","","","","","","","","","","","","","","","","",""
"464.2000000476837","218654","SARL_v6","SARL_v6zr2lvx8v","63d3f99eac52371a49e65825","freq","","","img/blue_2bandit_a2.png","70","","70","test","1","","130","","","","square","circle","125","12","6","0.888","","","","","","","",""
"null","219005","SARL_v6","SARL_v6zr2lvx8v","63d3f99eac52371a49e65825","freq_resp","","","img/blue_2bandit_a.png","70","img/blue_2bandit_a.png","70","test","","","","","","","","","","","6","","","","","","","","",""
"null","219180","SARL_v6","SARL_v6zr2lvx8v","63d3f99eac52371a49e65825","fixation","","","img/fixation.png","null","","","test","","","","","","","","","","","","","","","","","","","",""
"237.5","219428","SARL_v6","SARL_v6zr2lvx8v","63d3f99eac52371a49e65825","freq","","","img/blue_2bandit_a2.png","70","","70","test","1","","131","","","","square","circle","126","13","6","0.8888888888888888","","","","","","","",""
"null","220012","SARL_v6","SARL_v6zr2lvx8v","63d3f99eac52371a49e65825","freq_resp","","","img/blue_2bandit_a.png","70","img/blue_2bandit_a.png","70","test","","","","","","","","","","","6","","","","","","","","",""
"null","220178","SARL_v6","SARL_v6zr2lvx8v","63d3f99eac52371a49e65825","fixation","","","img/fixation.png","null","","","test","","","","","","","","","","","","","","","","","","","",""
"191.79999995231628","220378","SARL_v6","SARL_v6zr2lvx8v","63d3f99eac52371a49e65825","freq","","","img/blue_2bandit_a2.png","70","","70","test","1","","132","","","","square","circle","127","14","6","0.889763779527559","","","","","","","",""
