"rt","time_elapsed","expId","subject","prolificID","trialType","rlType","attType","stimulus","key_press","stim","corrresp","phase","corr","pracCounter","trialNum","rewardOne","rewardTwo","reward","bandOne","bandTwo","attentionNum","attentionRunNum","blockNum","performance","bandChosen","circleVal","squareVal","bandOneVal","bandTwoVal","shapeChosen","rlNum","badFlag"
"4260.900000095367","4264","SARL_v6","SARL_v66h13uabq","5cd8a78e0f0de600018e782f","","","","","","","","","","","","","","","","","","","","","","","","","","","",""
"","6894","SARL_v6","SARL_v66h13uabq","5cd8a78e0f0de600018e782f","fullscreen","fullscreen","fullscreen","","","","","","","","","","","","","","","","","","","","","","","","",""
"704647.2999999523","711541","SARL_v6","SARL_v66h13uabq","5cd8a78e0f0de600018e782f","","","","","","","","","","","","","","","","","","","","","","","","","","","",""
"null","712355","SARL_v6","SARL_v66h13uabq","5cd8a78e0f0de600018e782f","freqPrac","","","img/orange_2bandit_b2.png","null","img/orange_2bandit_b2.png","70","prac","0","1","","","","","","","","","","","","","","","","","",""
"null","713368","SARL_v6","SARL_v66h13uabq","5cd8a78e0f0de600018e782f","feedback","","","img/tooSlow.png","null","","na","prac","","","","","","","","","","","","","","","","","","","",""
"null","713520","SARL_v6","SARL_v66h13uabq","5cd8a78e0f0de600018e782f","fixation","","","img/fixation.png","null","","","prac","","","","","","","","","","","","","","","","","","","",""
"379.5","713901","SARL_v6","SARL_v66h13uabq","5cd8a78e0f0de600018e782f","infreqPrac","","","img/blue_2bandit_b2.png","68","img/blue_2bandit_b2.png","68","prac","1","1","","","","","","","","","","","","","","","","","",""
"379.5","714329","SARL_v6","SARL_v66h13uabq","5cd8a78e0f0de600018e782f","infreqPrac_resp","","","img/blue_2bandit_b.png","68","img/blue_2bandit_b.png","68","prac","","","","","","","","","","","","","","","","","","","",""
"null","714483","SARL_v6","SARL_v66h13uabq","5cd8a78e0f0de600018e782f","fixation","","","img/fixation.png","null","","","prac","","","","","","","","","","","","","","","","","","","",""
"16.700000047683716","714501","SARL_v6","SARL_v66h13uabq","5cd8a78e0f0de600018e782f","freqPrac","","","img/orange_2bandit_b2.png","68","img/orange_2bandit_b2.png","70","prac","0","2","","","","","","","","","","","","","","","","","",""
"16.700000047683716","715293","SARL_v6","SARL_v66h13uabq","5cd8a78e0f0de600018e782f","freqPrac_resp","","","img/orange_2bandit_b.png","68","img/orange_2bandit_b.png","70","prac","","","","","","","","","","","","","","","","","","","",""
"null","716300","SARL_v6","SARL_v66h13uabq","5cd8a78e0f0de600018e782f","feedback","","","img/wrongKey.png","null","","na","prac","","","","","","","","","","","","","","","","","","","",""
"null","716452","SARL_v6","SARL_v66h13uabq","5cd8a78e0f0de600018e782f","fixation","","","img/fixation.png","null","","","prac","","","","","","","","","","","","","","","","","","","",""
"456.40000009536743","716910","SARL_v6","SARL_v66h13uabq","5cd8a78e0f0de600018e782f","infreqPrac","","","img/blue_2bandit_b2.png","68","img/blue_2bandit_b2.png","68","prac","1","2","","","","","","","","","","","","","","","","","",""
"456.40000009536743","717263","SARL_v6","SARL_v66h13uabq","5cd8a78e0f0de600018e782f","infreqPrac_resp","","","img/blue_2bandit_b.png","68","img/blue_2bandit_b.png","68","prac","","","","","","","","","","","","","","","","","","","",""
"141.20000004768372","717414","SARL_v6","SARL_v66h13uabq","5cd8a78e0f0de600018e782f","fixation","","","img/fixation.png","68","","","prac","","","","","","","","","","","","","","","","","","","",""
"542.7000000476837","717958","SARL_v6","SARL_v66h13uabq","5cd8a78e0f0de600018e782f","infreqPrac","","","img/blue_2bandit_b2.png","68","img/blue_2bandit_b2.png","68","prac","1","2","","","","","","","","","","","","","","","","","",""
"542.7000000476837","718231","SARL_v6","SARL_v66h13uabq","5cd8a78e0f0de600018e782f","infreqPrac_resp","","","img/blue_2bandit_b.png","68","img/blue_2bandit_b.png","68","prac","","","","","","","","","","","","","","","","","","","",""
"null","718382","SARL_v6","SARL_v66h13uabq","5cd8a78e0f0de600018e782f","fixation","","","img/fixation.png","null","","","prac","","","","","","","","","","","","","","","","","","","",""
"157.89999985694885","718542","SARL_v6","SARL_v66h13uabq","5cd8a78e0f0de600018e782f","infreqPrac","","","img/blue_2bandit_b2.png","68","img/blue_2bandit_b2.png","68","prac","1","2","","","","","","","","","","","","","","","","","",""
"157.89999985694885","719193","SARL_v6","SARL_v66h13uabq","5cd8a78e0f0de600018e782f","infreqPrac_resp","","","img/blue_2bandit_b.png","68","img/blue_2bandit_b.png","68","prac","","","","","","","","","","","","","","","","","","","",""
"null","719345","SARL_v6","SARL_v66h13uabq","5cd8a78e0f0de600018e782f","fixation","","","img/fixation.png","null","","","prac","","","","","","","","","","","","","","","","","","","",""
"99.39999985694885","719446","SARL_v6","SARL_v66h13uabq","5cd8a78e0f0de600018e782f","freqPrac","","","img/orange_2bandit_b2.png","68","img/orange_2bandit_b2.png","70","prac","0","3","","","","","","","","","","","","","","","","","",""
"99.39999985694885","720156","SARL_v6","SARL_v66h13uabq","5cd8a78e0f0de600018e782f","freqPrac_resp","","","img/orange_2bandit_b.png","68","img/orange_2bandit_b.png","70","prac","","","","","","","","","","","","","","","","","","","",""
"null","721168","SARL_v6","SARL_v66h13uabq","5cd8a78e0f0de600018e782f","feedback","","","img/wrongKey.png","null","","na","prac","","","","","","","","","","","","","","","","","","","",""
"null","721325","SARL_v6","SARL_v66h13uabq","5cd8a78e0f0de600018e782f","fixation","","","img/fixation.png","null","","","prac","","","","","","","","","","","","","","","","","","","",""
"480.89999985694885","721807","SARL_v6","SARL_v66h13uabq","5cd8a78e0f0de600018e782f","infreqPrac","","","img/blue_2bandit_b2.png","68","img/blue_2bandit_b2.png","68","prac","1","3","","","","","","","","","","","","","","","","","",""
"480.89999985694885","722131","SARL_v6","SARL_v66h13uabq","5cd8a78e0f0de600018e782f","infreqPrac_resp","","","img/blue_2bandit_b.png","68","img/blue_2bandit_b.png","68","prac","","","","","","","","","","","","","","","","","","","",""
"null","722286","SARL_v6","SARL_v66h13uabq","5cd8a78e0f0de600018e782f","fixation","","","img/fixation.png","null","","","prac","","","","","","","","","","","","","","","","","","","",""
"710.8000001907349","722998","SARL_v6","SARL_v66h13uabq","5cd8a78e0f0de600018e782f","freqPrac","","","img/orange_2bandit_b2.png","70","img/orange_2bandit_b2.png","70","prac","1","3","","","","","","","","","","","","","","","","","",""
"710.8000001907349","723090","SARL_v6","SARL_v66h13uabq","5cd8a78e0f0de600018e782f","freqPrac_resp","","","img/orange_2bandit_b.png","70","img/orange_2bandit_b.png","70","prac","","","","","","","","","","","","","","","","","","","",""
"null","723247","SARL_v6","SARL_v66h13uabq","5cd8a78e0f0de600018e782f","fixation","","","img/fixation.png","null","","","prac","","","","","","","","","","","","","","","","","","","",""
"390.2999999523163","723639","SARL_v6","SARL_v66h13uabq","5cd8a78e0f0de600018e782f","freqPrac","","","img/orange_2bandit_b2.png","70","img/orange_2bandit_b2.png","70","prac","1","3","","","","","","","","","","","","","","","","","",""
"390.2999999523163","724051","SARL_v6","SARL_v66h13uabq","5cd8a78e0f0de600018e782f","freqPrac_resp","","","img/orange_2bandit_b.png","70","img/orange_2bandit_b.png","70","prac","","","","","","","","","","","","","","","","","","","",""
"null","724206","SARL_v6","SARL_v66h13uabq","5cd8a78e0f0de600018e782f","fixation","","","img/fixation.png","null","","","prac","","","","","","","","","","","","","","","","","","","",""
"65530.799999952316","789738","SARL_v6","SARL_v66h13uabq","5cd8a78e0f0de600018e782f","","","","","","","","prac","","","","","","","","","","","","","","","","","","","",""
"null","791253","SARL_v6","SARL_v66h13uabq","5cd8a78e0f0de600018e782f","rlPractice","","","img/black_2bandit_b2.png","null","img/black_2bandit_b2.png","","prac","","","0","","","","","","","","","","","","","","","","",""
"null","792010","SARL_v6","SARL_v66h13uabq","5cd8a78e0f0de600018e782f","feedback","","","<div font size = 80> TOO SLOW  </div>","null","","na","prac","","","1","10","-14","10","","","","","","","","","","","","","",""
"null","792165","SARL_v6","SARL_v66h13uabq","5cd8a78e0f0de600018e782f","fixation","","","img/fixation.png","null","","","prac","","","","","","","","","","","","","","","","","","","",""
"275","792442","SARL_v6","SARL_v66h13uabq","5cd8a78e0f0de600018e782f","rlPractice","","","img/black_2bandit_b2.png","74","img/black_2bandit_b2.png","","prac","","","1","","","","","","","","","","","","","","","","",""
"null","793201","SARL_v6","SARL_v66h13uabq","5cd8a78e0f0de600018e782f","feedback","","","<div class=""veryhighPoints""> 5 </div>","null","","na","prac","","","2","5","-5","5","","","","","","","","","","","","","",""
"null","793356","SARL_v6","SARL_v66h13uabq","5cd8a78e0f0de600018e782f","fixation","","","img/fixation.png","null","","","prac","","","","","","","","","","","","","","","","","","","",""
"309.09999990463257","793666","SARL_v6","SARL_v66h13uabq","5cd8a78e0f0de600018e782f","rlPractice","","","img/black_2bandit_b2.png","74","img/black_2bandit_b2.png","","prac","","","2","","","","","","","","","","","","","","","","",""
"null","794429","SARL_v6","SARL_v66h13uabq","5cd8a78e0f0de600018e782f","feedback","","","<div class=""veryhighPoints""> 30 </div>","null","","na","prac","","","3","30","2","30","","","","","","","","","","","","","",""
"null","794586","SARL_v6","SARL_v66h13uabq","5cd8a78e0f0de600018e782f","fixation","","","img/fixation.png","null","","","prac","","","","","","","","","","","","","","","","","","","",""
"246.89999985694885","794834","SARL_v6","SARL_v66h13uabq","5cd8a78e0f0de600018e782f","rlPractice","","","img/black_2bandit_b2.png","74","img/black_2bandit_b2.png","","prac","","","3","","","","","","","","","","","","","","","","",""
"null","795594","SARL_v6","SARL_v66h13uabq","5cd8a78e0f0de600018e782f","feedback","","","<div class=""verylowPoints""> -2 </div>","null","","na","prac","","","4","-2","20","-2","","","","","","","","","","","","","",""
"null","795751","SARL_v6","SARL_v66h13uabq","5cd8a78e0f0de600018e782f","fixation","","","img/fixation.png","null","","","prac","","","","","","","","","","","","","","","","","","","",""
"37393.700000047684","833145","SARL_v6","SARL_v66h13uabq","5cd8a78e0f0de600018e782f","","","","","","","","prac","","","","","","","","","","","","","","","","","","","",""
"null","833952","SARL_v6","SARL_v66h13uabq","5cd8a78e0f0de600018e782f","mixAttFreqPrac","","","img/orange_2bandit_b2.png","null","img/orange_2bandit_b2.png","70","prac","","","1","","","","","","","","","","","","","","","","",""
"47","834110","SARL_v6","SARL_v66h13uabq","5cd8a78e0f0de600018e782f","fixation","","","img/fixation.png","70","","","prac","","","","","","","","","","","","","","","","","","","",""
"537.8000001907349","834649","SARL_v6","SARL_v66h13uabq","5cd8a78e0f0de600018e782f","mixAttInfreqPrac","","","img/blue_2bandit_b2.png","68","img/blue_2bandit_b2.png","68","prac","","","2","","","","","","","","","","","","","","","","",""
"537.8000001907349","834917","SARL_v6","SARL_v66h13uabq","5cd8a78e0f0de600018e782f","infreqPrac_resp","","","img/blue_2bandit_b.png","68","img/orange_2bandit_b.png","68","prac","","","2","","","","","","","","","","","","","","","","",""
"null","835069","SARL_v6","SARL_v66h13uabq","5cd8a78e0f0de600018e782f","fixation","","","img/fixation.png","null","","","prac","","","","","","","","","","","","","","","","","","","",""
"290.59999990463257","835361","SARL_v6","SARL_v66h13uabq","5cd8a78e0f0de600018e782f","mixAttInfreqPrac","","","img/blue_2bandit_b2.png","68","img/blue_2bandit_b2.png","68","prac","","","3","","","","","","","","","","","","","","","","",""
"290.59999990463257","835877","SARL_v6","SARL_v66h13uabq","5cd8a78e0f0de600018e782f","infreqPrac_resp","","","img/blue_2bandit_b.png","68","img/orange_2bandit_b.png","68","prac","","","3","","","","","","","","","","","","","","","","",""
"null","836029","SARL_v6","SARL_v66h13uabq","5cd8a78e0f0de600018e782f","fixation","","","img/fixation.png","null","","","prac","","","","","","","","","","","","","","","","","","","",""
"290.69999980926514","836321","SARL_v6","SARL_v66h13uabq","5cd8a78e0f0de600018e782f","mixAttInfreqPrac","","","img/blue_2bandit_b2.png","68","img/blue_2bandit_b2.png","68","prac","","","4","","","","","","","","","","","","","","","","",""
"290.69999980926514","836835","SARL_v6","SARL_v66h13uabq","5cd8a78e0f0de600018e782f","infreqPrac_resp","","","img/blue_2bandit_b.png","68","img/orange_2bandit_b.png","68","prac","","","4","","","","","","","","","","","","","","","","",""
"null","836987","SARL_v6","SARL_v66h13uabq","5cd8a78e0f0de600018e782f","fixation","","","img/fixation.png","null","","","prac","","","","","","","","","","","","","","","","","","","",""
"381.2999999523163","837370","SARL_v6","SARL_v66h13uabq","5cd8a78e0f0de600018e782f","mixAttFreqPrac","","","img/orange_2bandit_b2.png","70","img/orange_2bandit_b2.png","70","prac","","","5","","","","","","","","","","","","","","","","",""
"381.2999999523163","837800","SARL_v6","SARL_v66h13uabq","5cd8a78e0f0de600018e782f","freqPrac_resp","","","img/orange_2bandit_b.png","70","img/orange_2bandit_b.png","70","prac","","","5","","","","","","","","","","","","","","","","",""
"null","837954","SARL_v6","SARL_v66h13uabq","5cd8a78e0f0de600018e782f","fixation","","","img/fixation.png","null","","","prac","","","","","","","","","","","","","","","","","","","",""
"735.5","838691","SARL_v6","SARL_v66h13uabq","5cd8a78e0f0de600018e782f","mixRLPractice","","","img/black_2bandit_b2.png","74","img/black_2bandit_b2.png","","prac","","","5","","","","","","","","","","","","","","","","",""
"null","839453","SARL_v6","SARL_v66h13uabq","5cd8a78e0f0de600018e782f","feedback","","","<div class=""verylowPoints""> -14 </div>","null","","na","prac","","","6","-14","10","-14","","","","","","","","","","","","","",""
"null","839608","SARL_v6","SARL_v66h13uabq","5cd8a78e0f0de600018e782f","fixation","","","img/fixation.png","null","","","prac","","","","","","","","","","","","","","","","","","","",""
"null","840421","SARL_v6","SARL_v66h13uabq","5cd8a78e0f0de600018e782f","mixAttFreqPrac","","","img/orange_2bandit_b2.png","null","img/orange_2bandit_b2.png","70","prac","","","7","","","","","","","","","","","","","","","","",""
"108.29999995231628","840574","SARL_v6","SARL_v66h13uabq","5cd8a78e0f0de600018e782f","fixation","","","img/fixation.png","68","","","prac","","","","","","","","","","","","","","","","","","","",""
"419.60000014305115","840995","SARL_v6","SARL_v66h13uabq","5cd8a78e0f0de600018e782f","mixAttInfreqPrac","","","img/blue_2bandit_b2.png","70","img/blue_2bandit_b2.png","68","prac","","","8","","","","","","","","","","","","","","","","",""
"419.60000014305115","841378","SARL_v6","SARL_v66h13uabq","5cd8a78e0f0de600018e782f","infreqPrac_resp","","","img/blue_2bandit_b.png","70","img/orange_2bandit_b.png","68","prac","","","8","","","","","","","","","","","","","","","","",""
"null","841533","SARL_v6","SARL_v66h13uabq","5cd8a78e0f0de600018e782f","fixation","","","img/fixation.png","null","","","prac","","","","","","","","","","","","","","","","","","","",""
"212.69999980926514","841747","SARL_v6","SARL_v66h13uabq","5cd8a78e0f0de600018e782f","mixAttFreqPrac","","","img/orange_2bandit_b2.png","68","img/orange_2bandit_b2.png","70","prac","","","9","","","","","","","","","","","","","","","","",""
"212.69999980926514","842347","SARL_v6","SARL_v66h13uabq","5cd8a78e0f0de600018e782f","freqPrac_resp","","","img/orange_2bandit_b.png","68","img/orange_2bandit_b.png","70","prac","","","9","","","","","","","","","","","","","","","","",""
"null","842503","SARL_v6","SARL_v66h13uabq","5cd8a78e0f0de600018e782f","fixation","","","img/fixation.png","null","","","prac","","","","","","","","","","","","","","","","","","","",""
"387.7000000476837","842892","SARL_v6","SARL_v66h13uabq","5cd8a78e0f0de600018e782f","mixAttFreqPrac","","","img/orange_2bandit_b2.png","70","img/orange_2bandit_b2.png","70","prac","","","10","","","","","","","","","","","","","","","","",""
"387.7000000476837","843314","SARL_v6","SARL_v66h13uabq","5cd8a78e0f0de600018e782f","freqPrac_resp","","","img/orange_2bandit_b.png","70","img/orange_2bandit_b.png","70","prac","","","10","","","","","","","","","","","","","","","","",""
"null","843472","SARL_v6","SARL_v66h13uabq","5cd8a78e0f0de600018e782f","fixation","","","img/fixation.png","null","","","prac","","","","","","","","","","","","","","","","","","","",""
"370.5","843844","SARL_v6","SARL_v66h13uabq","5cd8a78e0f0de600018e782f","mixAttInfreqPrac","","","img/blue_2bandit_b2.png","68","img/blue_2bandit_b2.png","68","prac","","","11","","","","","","","","","","","","","","","","",""
"370.5","844283","SARL_v6","SARL_v66h13uabq","5cd8a78e0f0de600018e782f","infreqPrac_resp","","","img/blue_2bandit_b.png","68","img/orange_2bandit_b.png","68","prac","","","11","","","","","","","","","","","","","","","","",""
"null","844436","SARL_v6","SARL_v66h13uabq","5cd8a78e0f0de600018e782f","fixation","","","img/fixation.png","null","","","prac","","","","","","","","","","","","","","","","","","","",""
"655","845092","SARL_v6","SARL_v66h13uabq","5cd8a78e0f0de600018e782f","mixRLPractice","","","img/black_2bandit_b2.png","75","img/black_2bandit_b2.png","","prac","","","11","","","","","","","","","","","","","","","","",""
"null","845848","SARL_v6","SARL_v66h13uabq","5cd8a78e0f0de600018e782f","feedback","","","<div class=""verylowPoints_sq""> -5 </div>","null","","na","prac","","","12","5","-5","5","","","","","","","","","","","","","",""
"null","846002","SARL_v6","SARL_v66h13uabq","5cd8a78e0f0de600018e782f","fixation","","","img/fixation.png","null","","","prac","","","","","","","","","","","","","","","","","","","",""
"63338.700000047684","909342","SARL_v6","SARL_v66h13uabq","5cd8a78e0f0de600018e782f","","","","","","","","prac","","","","","","","","","","","","","","","","","","","",""
"463.09999990463257","909807","SARL_v6","SARL_v66h13uabq","5cd8a78e0f0de600018e782f","freq","","","img/orange_2bandit_b2.png","70","","70","test","1","","1","","","","circle","square","1","1","1","1","","","","","","","",""
"null","910148","SARL_v6","SARL_v66h13uabq","5cd8a78e0f0de600018e782f","freq_resp","","","img/orange_2bandit_b.png","70","img/orange_2bandit_b.png","70","test","","","","","","","","","","","1","","","","","","","","",""
"null","910305","SARL_v6","SARL_v66h13uabq","5cd8a78e0f0de600018e782f","fixation","","","img/fixation.png","null","","","test","","","","","","","","","","","","","","","","","","","",""
"11.799999952316284","910318","SARL_v6","SARL_v66h13uabq","5cd8a78e0f0de600018e782f","freq","","","img/orange_2bandit_b2.png","70","","70","test","1","","2","","","","circle","square","2","2","1","1","","","","","","","",""
"null","911116","SARL_v6","SARL_v66h13uabq","5cd8a78e0f0de600018e782f","freq_resp","","","img/orange_2bandit_b.png","70","img/orange_2bandit_b.png","70","test","","","","","","","","","","","1","","","","","","","","",""
"null","911270","SARL_v6","SARL_v66h13uabq","5cd8a78e0f0de600018e782f","fixation","","","img/fixation.png","null","","","test","","","","","","","","","","","","","","","","","","","",""
"366.7999999523163","911638","SARL_v6","SARL_v66h13uabq","5cd8a78e0f0de600018e782f","infreq","","","img/blue_2bandit_b2.png","68","","68","test","1","","3","","","","circle","square","3","3","1","1","","","","","","","",""
"null","912088","SARL_v6","SARL_v66h13uabq","5cd8a78e0f0de600018e782f","infreq_resp","","","img/blue_2bandit_b.png","68","img/blue_2bandit_b.png","68","test","","","","","","","","","","","1","","","","","","","","",""
"null","912245","SARL_v6","SARL_v66h13uabq","5cd8a78e0f0de600018e782f","fixation","","","img/fixation.png","null","","","test","","","","","","","","","","","","","","","","","","","",""
"432.2999999523163","912678","SARL_v6","SARL_v66h13uabq","5cd8a78e0f0de600018e782f","freq","","","img/orange_2bandit_b2.png","70","","70","test","1","","4","","","","circle","square","4","4","1","1","","","","","","","",""
"null","913053","SARL_v6","SARL_v66h13uabq","5cd8a78e0f0de600018e782f","freq_resp","","","img/orange_2bandit_b.png","70","img/orange_2bandit_b.png","70","test","","","","","","","","","","","1","","","","","","","","",""
"null","913210","SARL_v6","SARL_v66h13uabq","5cd8a78e0f0de600018e782f","fixation","","","img/fixation.png","null","","","test","","","","","","","","","","","","","","","","","","","",""
"428.09999990463257","913639","SARL_v6","SARL_v66h13uabq","5cd8a78e0f0de600018e782f","freq","","","img/orange_2bandit_b2.png","70","","70","test","1","","5","","","","circle","square","5","5","1","1","","","","","","","",""
"null","914022","SARL_v6","SARL_v66h13uabq","5cd8a78e0f0de600018e782f","freq_resp","","","img/orange_2bandit_b.png","70","img/orange_2bandit_b.png","70","test","","","","","","","","","","","1","","","","","","","","",""
"null","914180","SARL_v6","SARL_v66h13uabq","5cd8a78e0f0de600018e782f","fixation","","","img/fixation.png","null","","","test","","","","","","","","","","","","","","","","","","","",""
"546.5","914728","SARL_v6","SARL_v66h13uabq","5cd8a78e0f0de600018e782f","freq","","","img/orange_2bandit_b2.png","70","","70","test","1","","6","","","","circle","square","6","6","1","1","","","","","","","",""
"null","914992","SARL_v6","SARL_v66h13uabq","5cd8a78e0f0de600018e782f","freq_resp","","","img/orange_2bandit_b.png","70","img/orange_2bandit_b.png","70","test","","","","","","","","","","","1","","","","","","","","",""
"null","915145","SARL_v6","SARL_v66h13uabq","5cd8a78e0f0de600018e782f","fixation","","","img/fixation.png","null","","","test","","","","","","","","","","","","","","","","","","","",""
"436.89999985694885","915583","SARL_v6","SARL_v66h13uabq","5cd8a78e0f0de600018e782f","freq","","","img/orange_2bandit_b2.png","70","","70","test","1","","7","","","","circle","square","7","7","1","1","","","","","","","",""
"null","915955","SARL_v6","SARL_v66h13uabq","5cd8a78e0f0de600018e782f","freq_resp","","","img/orange_2bandit_b.png","70","img/orange_2bandit_b.png","70","test","","","","","","","","","","","1","","","","","","","","",""
"null","916112","SARL_v6","SARL_v66h13uabq","5cd8a78e0f0de600018e782f","fixation","","","img/fixation.png","null","","","test","","","","","","","","","","","","","","","","","","","",""
"357.7000000476837","916472","SARL_v6","SARL_v66h13uabq","5cd8a78e0f0de600018e782f","freq","","","img/orange_2bandit_b2.png","70","","70","test","1","","8","","","","circle","square","8","8","1","1","","","","","","","",""
"null","916924","SARL_v6","SARL_v66h13uabq","5cd8a78e0f0de600018e782f","freq_resp","","","img/orange_2bandit_b.png","70","img/orange_2bandit_b.png","70","test","","","","","","","","","","","1","","","","","","","","",""
"null","917076","SARL_v6","SARL_v66h13uabq","5cd8a78e0f0de600018e782f","fixation","","","img/fixation.png","null","","","test","","","","","","","","","","","","","","","","","","","",""
"346.2999999523163","917423","SARL_v6","SARL_v66h13uabq","5cd8a78e0f0de600018e782f","freq","","","img/orange_2bandit_b2.png","70","","70","test","1","","9","","","","circle","square","9","9","1","1","","","","","","","",""
"null","917892","SARL_v6","SARL_v66h13uabq","5cd8a78e0f0de600018e782f","freq_resp","","","img/orange_2bandit_b.png","70","img/orange_2bandit_b.png","70","test","","","","","","","","","","","1","","","","","","","","",""
"null","918044","SARL_v6","SARL_v66h13uabq","5cd8a78e0f0de600018e782f","fixation","","","img/fixation.png","null","","","test","","","","","","","","","","","","","","","","","","","",""
"321.89999985694885","918367","SARL_v6","SARL_v66h13uabq","5cd8a78e0f0de600018e782f","infreq","","","img/blue_2bandit_b2.png","70","","68","test","0","","10","","","","circle","square","10","10","1","0.9","","","","","","","",""
"null","918856","SARL_v6","SARL_v66h13uabq","5cd8a78e0f0de600018e782f","infreq_resp","","","img/blue_2bandit_b.png","70","img/blue_2bandit_b.png","68","test","","","","","","","","","","","1","","","","","","","","",""
"null","919008","SARL_v6","SARL_v66h13uabq","5cd8a78e0f0de600018e782f","fixation","","","img/fixation.png","null","","","test","","","","","","","","","","","","","","","","","","","",""
"430.7999999523163","919440","SARL_v6","SARL_v66h13uabq","5cd8a78e0f0de600018e782f","freq","","","img/orange_2bandit_b2.png","70","","70","test","1","","11","","","","circle","square","11","11","1","0.9090909090909091","","","","","","","",""
"null","919816","SARL_v6","SARL_v66h13uabq","5cd8a78e0f0de600018e782f","freq_resp","","","img/orange_2bandit_b.png","70","img/orange_2bandit_b.png","70","test","","","","","","","","","","","1","","","","","","","","",""
"null","919973","SARL_v6","SARL_v66h13uabq","5cd8a78e0f0de600018e782f","fixation","","","img/fixation.png","null","","","test","","","","","","","","","","","","","","","","","","","",""
"481.2000000476837","920456","SARL_v6","SARL_v66h13uabq","5cd8a78e0f0de600018e782f","freq","","","img/orange_2bandit_b2.png","70","","70","test","1","","12","","","","circle","square","12","12","1","0.9166666666666666","","","","","","","",""
"null","920783","SARL_v6","SARL_v66h13uabq","5cd8a78e0f0de600018e782f","freq_resp","","","img/orange_2bandit_b.png","70","img/orange_2bandit_b.png","70","test","","","","","","","","","","","1","","","","","","","","",""
"null","920934","SARL_v6","SARL_v66h13uabq","5cd8a78e0f0de600018e782f","fixation","","","img/fixation.png","null","","","test","","","","","","","","","","","","","","","","","","","",""
"384.60000014305115","921320","SARL_v6","SARL_v66h13uabq","5cd8a78e0f0de600018e782f","freq","","","img/orange_2bandit_b2.png","70","","70","test","1","","13","","","","circle","square","13","13","1","0.9230769230769231","","","","","","","",""
"null","921746","SARL_v6","SARL_v66h13uabq","5cd8a78e0f0de600018e782f","freq_resp","","","img/orange_2bandit_b.png","70","img/orange_2bandit_b.png","70","test","","","","","","","","","","","1","","","","","","","","",""
"null","921902","SARL_v6","SARL_v66h13uabq","5cd8a78e0f0de600018e782f","fixation","","","img/fixation.png","null","","","test","","","","","","","","","","","","","","","","","","","",""
"384.39999985694885","922288","SARL_v6","SARL_v66h13uabq","5cd8a78e0f0de600018e782f","infreq","","","img/blue_2bandit_b2.png","68","","68","test","1","","14","","","","circle","square","14","14","1","0.9285714285714286","","","","","","","",""
"null","922709","SARL_v6","SARL_v66h13uabq","5cd8a78e0f0de600018e782f","infreq_resp","","","img/blue_2bandit_b.png","68","img/blue_2bandit_b.png","68","test","","","","","","","","","","","1","","","","","","","","",""
"null","922863","SARL_v6","SARL_v66h13uabq","5cd8a78e0f0de600018e782f","fixation","","","img/fixation.png","null","","","test","","","","","","","","","","","","","","","","","","","",""
"472.2000000476837","923336","SARL_v6","SARL_v66h13uabq","5cd8a78e0f0de600018e782f","freq","","","img/orange_2bandit_b2.png","70","","70","test","1","","15","","","","circle","square","15","15","1","0.9333333333333333","","","","","","","",""
"null","923672","SARL_v6","SARL_v66h13uabq","5cd8a78e0f0de600018e782f","freq_resp","","","img/orange_2bandit_b.png","70","img/orange_2bandit_b.png","70","test","","","","","","","","","","","1","","","","","","","","",""
"null","923824","SARL_v6","SARL_v66h13uabq","5cd8a78e0f0de600018e782f","fixation","","","img/fixation.png","null","","","test","","","","","","","","","","","","","","","","","","","",""
"567","924392","SARL_v6","SARL_v66h13uabq","5cd8a78e0f0de600018e782f","freq","","","img/orange_2bandit_b2.png","70","","70","test","1","","16","","","","circle","square","16","16","1","0.9375","","","","","","","",""
"null","924634","SARL_v6","SARL_v66h13uabq","5cd8a78e0f0de600018e782f","freq_resp","","","img/orange_2bandit_b.png","70","img/orange_2bandit_b.png","70","test","","","","","","","","","","","1","","","","","","","","",""
"null","924791","SARL_v6","SARL_v66h13uabq","5cd8a78e0f0de600018e782f","fixation","","","img/fixation.png","null","","","test","","","","","","","","","","","","","","","","","","","",""
"null","925593","SARL_v6","SARL_v66h13uabq","5cd8a78e0f0de600018e782f","freq","","","img/orange_2bandit_b2.png","null","","70","test","0","","17","","","","circle","square","17","17","1","0.8823529411764706","","","","","","","",""
"null","925750","SARL_v6","SARL_v66h13uabq","5cd8a78e0f0de600018e782f","fixation","","","img/fixation.png","null","","","test","","","","","","","","","","","","","","","","","","","",""
"490.19999980926514","926241","SARL_v6","SARL_v66h13uabq","5cd8a78e0f0de600018e782f","freq","","","img/orange_2bandit_b2.png","70","","70","test","1","","18","","","","circle","square","18","18","1","0.8888888888888888","","","","","","","",""
"null","926559","SARL_v6","SARL_v66h13uabq","5cd8a78e0f0de600018e782f","freq_resp","","","img/orange_2bandit_b.png","70","img/orange_2bandit_b.png","70","test","","","","","","","","","","","1","","","","","","","","",""
"null","926711","SARL_v6","SARL_v66h13uabq","5cd8a78e0f0de600018e782f","fixation","","","img/fixation.png","null","","","test","","","","","","","","","","","","","","","","","","","",""
"473.60000014305115","927186","SARL_v6","SARL_v66h13uabq","5cd8a78e0f0de600018e782f","freq","","","img/orange_2bandit_b2.png","70","","70","test","1","","19","","","","circle","square","19","19","1","0.8947368421052632","","","","","","","",""
"null","927527","SARL_v6","SARL_v66h13uabq","5cd8a78e0f0de600018e782f","freq_resp","","","img/orange_2bandit_b.png","70","img/orange_2bandit_b.png","70","test","","","","","","","","","","","1","","","","","","","","",""
"null","927684","SARL_v6","SARL_v66h13uabq","5cd8a78e0f0de600018e782f","fixation","","","img/fixation.png","null","","","test","","","","","","","","","","","","","","","","","","","",""
"387.5","928073","SARL_v6","SARL_v66h13uabq","5cd8a78e0f0de600018e782f","freq","","","img/orange_2bandit_b2.png","70","","70","test","1","","20","","","","circle","square","20","20","1","0.9","","","","","","","",""
"null","928490","SARL_v6","SARL_v66h13uabq","5cd8a78e0f0de600018e782f","freq_resp","","","img/orange_2bandit_b.png","70","img/orange_2bandit_b.png","70","test","","","","","","","","","","","1","","","","","","","","",""
"null","928646","SARL_v6","SARL_v66h13uabq","5cd8a78e0f0de600018e782f","fixation","","","img/fixation.png","null","","","test","","","","","","","","","","","","","","","","","","","",""
"370.2000000476837","929017","SARL_v6","SARL_v66h13uabq","5cd8a78e0f0de600018e782f","freq","","","img/orange_2bandit_b2.png","70","","70","test","1","","21","","","","circle","square","21","21","1","0.9047619047619048","","","","","","","",""
"null","929457","SARL_v6","SARL_v66h13uabq","5cd8a78e0f0de600018e782f","freq_resp","","","img/orange_2bandit_b.png","70","img/orange_2bandit_b.png","70","test","","","","","","","","","","","1","","","","","","","","",""
"null","929614","SARL_v6","SARL_v66h13uabq","5cd8a78e0f0de600018e782f","fixation","","","img/fixation.png","null","","","test","","","","","","","","","","","","","","","","","","","",""
"499.2000000476837","930114","SARL_v6","SARL_v66h13uabq","5cd8a78e0f0de600018e782f","freq","","","img/orange_2bandit_b2.png","70","","70","test","1","","22","","","","circle","square","22","22","1","0.9090909090909091","","","","","","","",""
"null","930422","SARL_v6","SARL_v66h13uabq","5cd8a78e0f0de600018e782f","freq_resp","","","img/orange_2bandit_b.png","70","img/orange_2bandit_b.png","70","test","","","","","","","","","","","1","","","","","","","","",""
"null","930574","SARL_v6","SARL_v66h13uabq","5cd8a78e0f0de600018e782f","fixation","","","img/fixation.png","null","","","test","","","","","","","","","","","","","","","","","","","",""
"394.40000009536743","930970","SARL_v6","SARL_v66h13uabq","5cd8a78e0f0de600018e782f","freq","","","img/orange_2bandit_b2.png","70","","70","test","1","","23","","","","circle","square","23","23","1","0.9130434782608695","","","","","","","",""
"null","931387","SARL_v6","SARL_v66h13uabq","5cd8a78e0f0de600018e782f","freq_resp","","","img/orange_2bandit_b.png","70","img/orange_2bandit_b.png","70","test","","","","","","","","","","","1","","","","","","","","",""
"null","931540","SARL_v6","SARL_v66h13uabq","5cd8a78e0f0de600018e782f","fixation","","","img/fixation.png","null","","","test","","","","","","","","","","","","","","","","","","","",""
"780.1000001430511","932322","SARL_v6","SARL_v66h13uabq","5cd8a78e0f0de600018e782f","rl","","","img/black_2bandit_b2.png","75","","0","test","","","24","","","-3","circle","square","","0","1","","75","-3","-3","-3","-3","square","1","0"
"null","933080","SARL_v6","SARL_v66h13uabq","5cd8a78e0f0de600018e782f","feedback","","","<div class=""verylowPoints_sq""> -3 </div>","null","","na","test","","","NaN","","","","","","","","1","","75","","","","","","1",""
"584.7000000476837","933666","SARL_v6","SARL_v66h13uabq","5cd8a78e0f0de600018e782f","freq","","","img/orange_2bandit_b2.png","70","","70","test","1","","25","","","","circle","square","24","1","2","0.9166666666666666","","","","","","","",""
"null","933889","SARL_v6","SARL_v66h13uabq","5cd8a78e0f0de600018e782f","freq_resp","","","img/orange_2bandit_b.png","70","img/orange_2bandit_b.png","70","test","","","","","","","","","","","2","","","","","","","","",""
"null","934046","SARL_v6","SARL_v66h13uabq","5cd8a78e0f0de600018e782f","fixation","","","img/fixation.png","null","","","test","","","","","","","","","","","","","","","","","","","",""
"379.10000014305115","934426","SARL_v6","SARL_v66h13uabq","5cd8a78e0f0de600018e782f","freq","","","img/orange_2bandit_b2.png","70","","70","test","1","","26","","","","circle","square","25","2","2","0.92","","","","","","","",""
"null","934854","SARL_v6","SARL_v66h13uabq","5cd8a78e0f0de600018e782f","freq_resp","","","img/orange_2bandit_b.png","70","img/orange_2bandit_b.png","70","test","","","","","","","","","","","2","","","","","","","","",""
"null","935008","SARL_v6","SARL_v66h13uabq","5cd8a78e0f0de600018e782f","fixation","","","img/fixation.png","null","","","test","","","","","","","","","","","","","","","","","","","",""
"745.5","935755","SARL_v6","SARL_v66h13uabq","5cd8a78e0f0de600018e782f","infreq","","","img/blue_2bandit_b2.png","68","","68","test","1","","27","","","","circle","square","26","3","2","0.9230769230769231","","","","","","","",""
"null","935811","SARL_v6","SARL_v66h13uabq","5cd8a78e0f0de600018e782f","infreq_resp","","","img/blue_2bandit_b.png","68","img/blue_2bandit_b.png","68","test","","","","","","","","","","","2","","","","","","","","",""
"null","935971","SARL_v6","SARL_v66h13uabq","5cd8a78e0f0de600018e782f","fixation","","","img/fixation.png","null","","","test","","","","","","","","","","","","","","","","","","","",""
"750.2999999523163","936723","SARL_v6","SARL_v66h13uabq","5cd8a78e0f0de600018e782f","freq","","","img/orange_2bandit_b2.png","70","","70","test","1","","28","","","","circle","square","27","4","2","0.9259259259259259","","","","","","","",""
"null","936774","SARL_v6","SARL_v66h13uabq","5cd8a78e0f0de600018e782f","freq_resp","","","img/orange_2bandit_b.png","70","img/orange_2bandit_b.png","70","test","","","","","","","","","","","2","","","","","","","","",""
"null","936932","SARL_v6","SARL_v66h13uabq","5cd8a78e0f0de600018e782f","fixation","","","img/fixation.png","null","","","test","","","","","","","","","","","","","","","","","","","",""
"413.30000019073486","937347","SARL_v6","SARL_v66h13uabq","5cd8a78e0f0de600018e782f","freq","","","img/orange_2bandit_b2.png","70","","70","test","1","","29","","","","circle","square","28","5","2","0.9285714285714286","","","","","","","",""
"null","937737","SARL_v6","SARL_v66h13uabq","5cd8a78e0f0de600018e782f","freq_resp","","","img/orange_2bandit_b.png","70","img/orange_2bandit_b.png","70","test","","","","","","","","","","","2","","","","","","","","",""
"null","937892","SARL_v6","SARL_v66h13uabq","5cd8a78e0f0de600018e782f","fixation","","","img/fixation.png","null","","","test","","","","","","","","","","","","","","","","","","","",""
"477.10000014305115","938371","SARL_v6","SARL_v66h13uabq","5cd8a78e0f0de600018e782f","freq","","","img/orange_2bandit_b2.png","70","","70","test","1","","30","","","","circle","square","29","6","2","0.9310344827586207","","","","","","","",""
"null","938698","SARL_v6","SARL_v66h13uabq","5cd8a78e0f0de600018e782f","freq_resp","","","img/orange_2bandit_b.png","70","img/orange_2bandit_b.png","70","test","","","","","","","","","","","2","","","","","","","","",""
"null","938850","SARL_v6","SARL_v66h13uabq","5cd8a78e0f0de600018e782f","fixation","","","img/fixation.png","null","","","test","","","","","","","","","","","","","","","","","","","",""
"335.2000000476837","939187","SARL_v6","SARL_v66h13uabq","5cd8a78e0f0de600018e782f","freq","","","img/orange_2bandit_b2.png","70","","70","test","1","","31","","","","circle","square","30","7","2","0.9333333333333333","","","","","","","",""
"null","939659","SARL_v6","SARL_v66h13uabq","5cd8a78e0f0de600018e782f","freq_resp","","","img/orange_2bandit_b.png","70","img/orange_2bandit_b.png","70","test","","","","","","","","","","","2","","","","","","","","",""
"null","939811","SARL_v6","SARL_v66h13uabq","5cd8a78e0f0de600018e782f","fixation","","","img/fixation.png","null","","","test","","","","","","","","","","","","","","","","","","","",""
"342.69999980926514","940156","SARL_v6","SARL_v66h13uabq","5cd8a78e0f0de600018e782f","freq","","","img/orange_2bandit_b2.png","70","","70","test","1","","32","","","","circle","square","31","8","2","0.9354838709677419","","","","","","","",""
"null","940620","SARL_v6","SARL_v66h13uabq","5cd8a78e0f0de600018e782f","freq_resp","","","img/orange_2bandit_b.png","70","img/orange_2bandit_b.png","70","test","","","","","","","","","","","2","","","","","","","","",""
"null","940772","SARL_v6","SARL_v66h13uabq","5cd8a78e0f0de600018e782f","fixation","","","img/fixation.png","null","","","test","","","","","","","","","","","","","","","","","","","",""
"374.19999980926514","941147","SARL_v6","SARL_v66h13uabq","5cd8a78e0f0de600018e782f","freq","","","img/orange_2bandit_b2.png","70","","70","test","1","","33","","","","circle","square","32","9","2","0.9375","","","","","","","",""
"null","941578","SARL_v6","SARL_v66h13uabq","5cd8a78e0f0de600018e782f","freq_resp","","","img/orange_2bandit_b.png","70","img/orange_2bandit_b.png","70","test","","","","","","","","","","","2","","","","","","","","",""
"null","941733","SARL_v6","SARL_v66h13uabq","5cd8a78e0f0de600018e782f","fixation","","","img/fixation.png","null","","","test","","","","","","","","","","","","","","","","","","","",""
"341.2999999523163","942076","SARL_v6","SARL_v66h13uabq","5cd8a78e0f0de600018e782f","freq","","","img/orange_2bandit_b2.png","70","","70","test","1","","34","","","","circle","square","33","10","2","0.9393939393939394","","","","","","","",""
"null","942537","SARL_v6","SARL_v66h13uabq","5cd8a78e0f0de600018e782f","freq_resp","","","img/orange_2bandit_b.png","70","img/orange_2bandit_b.png","70","test","","","","","","","","","","","2","","","","","","","","",""
"null","942689","SARL_v6","SARL_v66h13uabq","5cd8a78e0f0de600018e782f","fixation","","","img/fixation.png","null","","","test","","","","","","","","","","","","","","","","","","","",""
"329.59999990463257","943020","SARL_v6","SARL_v66h13uabq","5cd8a78e0f0de600018e782f","freq","","","img/orange_2bandit_b2.png","70","","70","test","1","","35","","","","circle","square","34","11","2","0.9411764705882353","","","","","","","",""
"null","943494","SARL_v6","SARL_v66h13uabq","5cd8a78e0f0de600018e782f","freq_resp","","","img/orange_2bandit_b.png","70","img/orange_2bandit_b.png","70","test","","","","","","","","","","","2","","","","","","","","",""
"null","943647","SARL_v6","SARL_v66h13uabq","5cd8a78e0f0de600018e782f","fixation","","","img/fixation.png","null","","","test","","","","","","","","","","","","","","","","","","","",""
"340.39999985694885","943988","SARL_v6","SARL_v66h13uabq","5cd8a78e0f0de600018e782f","freq","","","img/orange_2bandit_b2.png","70","","70","test","1","","36","","","","circle","square","35","12","2","0.9428571428571428","","","","","","","",""
"null","944455","SARL_v6","SARL_v66h13uabq","5cd8a78e0f0de600018e782f","freq_resp","","","img/orange_2bandit_b.png","70","img/orange_2bandit_b.png","70","test","","","","","","","","","","","2","","","","","","","","",""
"null","944610","SARL_v6","SARL_v66h13uabq","5cd8a78e0f0de600018e782f","fixation","","","img/fixation.png","null","","","test","","","","","","","","","","","","","","","","","","","",""
"344","944956","SARL_v6","SARL_v66h13uabq","5cd8a78e0f0de600018e782f","freq","","","img/orange_2bandit_b2.png","70","","70","test","1","","37","","","","circle","square","36","13","2","0.9444444444444444","","","","","","","",""
"null","945417","SARL_v6","SARL_v66h13uabq","5cd8a78e0f0de600018e782f","freq_resp","","","img/orange_2bandit_b.png","70","img/orange_2bandit_b.png","70","test","","","","","","","","","","","2","","","","","","","","",""
"null","945572","SARL_v6","SARL_v66h13uabq","5cd8a78e0f0de600018e782f","fixation","","","img/fixation.png","null","","","test","","","","","","","","","","","","","","","","","","","",""
"286.2000000476837","945860","SARL_v6","SARL_v66h13uabq","5cd8a78e0f0de600018e782f","freq","","","img/orange_2bandit_b2.png","70","","70","test","1","","38","","","","circle","square","37","14","2","0.9459459459459459","","","","","","","",""
"null","946380","SARL_v6","SARL_v66h13uabq","5cd8a78e0f0de600018e782f","freq_resp","","","img/orange_2bandit_b.png","70","img/orange_2bandit_b.png","70","test","","","","","","","","","","","2","","","","","","","","",""
"null","946533","SARL_v6","SARL_v66h13uabq","5cd8a78e0f0de600018e782f","fixation","","","img/fixation.png","null","","","test","","","","","","","","","","","","","","","","","","","",""
"302.39999985694885","946836","SARL_v6","SARL_v66h13uabq","5cd8a78e0f0de600018e782f","freq","","","img/orange_2bandit_b2.png","70","","70","test","1","","39","","","","circle","square","38","15","2","0.9473684210526315","","","","","","","",""
"null","947342","SARL_v6","SARL_v66h13uabq","5cd8a78e0f0de600018e782f","freq_resp","","","img/orange_2bandit_b.png","70","img/orange_2bandit_b.png","70","test","","","","","","","","","","","2","","","","","","","","",""
"null","947499","SARL_v6","SARL_v66h13uabq","5cd8a78e0f0de600018e782f","fixation","","","img/fixation.png","null","","","test","","","","","","","","","","","","","","","","","","","",""
"328.2999999523163","947828","SARL_v6","SARL_v66h13uabq","5cd8a78e0f0de600018e782f","freq","","","img/orange_2bandit_b2.png","70","","70","test","1","","40","","","","circle","square","39","16","2","0.9487179487179487","","","","","","","",""
"null","948309","SARL_v6","SARL_v66h13uabq","5cd8a78e0f0de600018e782f","freq_resp","","","img/orange_2bandit_b.png","70","img/orange_2bandit_b.png","70","test","","","","","","","","","","","2","","","","","","","","",""
"null","948461","SARL_v6","SARL_v66h13uabq","5cd8a78e0f0de600018e782f","fixation","","","img/fixation.png","null","","","test","","","","","","","","","","","","","","","","","","","",""
"302.2000000476837","948765","SARL_v6","SARL_v66h13uabq","5cd8a78e0f0de600018e782f","freq","","","img/orange_2bandit_b2.png","70","","70","test","1","","41","","","","circle","square","40","17","2","0.95","","","","","","","",""
"null","949271","SARL_v6","SARL_v66h13uabq","5cd8a78e0f0de600018e782f","freq_resp","","","img/orange_2bandit_b.png","70","img/orange_2bandit_b.png","70","test","","","","","","","","","","","2","","","","","","","","",""
"null","949424","SARL_v6","SARL_v66h13uabq","5cd8a78e0f0de600018e782f","fixation","","","img/fixation.png","null","","","test","","","","","","","","","","","","","","","","","","","",""
"315.40000009536743","949741","SARL_v6","SARL_v66h13uabq","5cd8a78e0f0de600018e782f","freq","","","img/orange_2bandit_b2.png","70","","70","test","1","","42","","","","circle","square","41","18","2","0.9512195121951219","","","","","","","",""
"null","950238","SARL_v6","SARL_v66h13uabq","5cd8a78e0f0de600018e782f","freq_resp","","","img/orange_2bandit_b.png","70","img/orange_2bandit_b.png","70","test","","","","","","","","","","","2","","","","","","","","",""
"null","950390","SARL_v6","SARL_v66h13uabq","5cd8a78e0f0de600018e782f","fixation","","","img/fixation.png","null","","","test","","","","","","","","","","","","","","","","","","","",""
"318.2000000476837","950709","SARL_v6","SARL_v66h13uabq","5cd8a78e0f0de600018e782f","infreq","","","img/blue_2bandit_b2.png","70","","68","test","0","","43","","","","circle","square","42","19","2","0.9285714285714286","","","","","","","",""
"null","951199","SARL_v6","SARL_v66h13uabq","5cd8a78e0f0de600018e782f","infreq_resp","","","img/blue_2bandit_b.png","70","img/blue_2bandit_b.png","68","test","","","","","","","","","","","2","","","","","","","","",""
"null","951351","SARL_v6","SARL_v66h13uabq","5cd8a78e0f0de600018e782f","fixation","","","img/fixation.png","null","","","test","","","","","","","","","","","","","","","","","","","",""
"452.90000009536743","951805","SARL_v6","SARL_v66h13uabq","5cd8a78e0f0de600018e782f","freq","","","img/orange_2bandit_b2.png","70","","70","test","1","","44","","","","circle","square","43","20","2","0.9302325581395349","","","","","","","",""
"null","952161","SARL_v6","SARL_v66h13uabq","5cd8a78e0f0de600018e782f","freq_resp","","","img/orange_2bandit_b.png","70","img/orange_2bandit_b.png","70","test","","","","","","","","","","","2","","","","","","","","",""
"null","952318","SARL_v6","SARL_v66h13uabq","5cd8a78e0f0de600018e782f","fixation","","","img/fixation.png","null","","","test","","","","","","","","","","","","","","","","","","","",""
"910.1000001430511","953229","SARL_v6","SARL_v66h13uabq","5cd8a78e0f0de600018e782f","rl","","","img/black_2bandit_b2.png","75","","0","test","","","45","","","-8","circle","square","","0","2","","75","-5","-8","-5","-8","square","2","0"
"null","953993","SARL_v6","SARL_v66h13uabq","5cd8a78e0f0de600018e782f","feedback","","","<div class=""verylowPoints_sq""> -8 </div>","null","","na","test","","","NaN","","","","","","","","2","","75","","","","","","2",""
"659.2999999523163","954654","SARL_v6","SARL_v66h13uabq","5cd8a78e0f0de600018e782f","freq","","","img/orange_2bandit_b2.png","70","","70","test","1","","46","","","","circle","square","44","1","3","0.9318181818181818","","","","","","","",""
"null","954798","SARL_v6","SARL_v66h13uabq","5cd8a78e0f0de600018e782f","freq_resp","","","img/orange_2bandit_b.png","70","img/orange_2bandit_b.png","70","test","","","","","","","","","","","3","","","","","","","","",""
"null","954956","SARL_v6","SARL_v66h13uabq","5cd8a78e0f0de600018e782f","fixation","","","img/fixation.png","null","","","test","","","","","","","","","","","","","","","","","","","",""
"408.09999990463257","955366","SARL_v6","SARL_v66h13uabq","5cd8a78e0f0de600018e782f","freq","","","img/orange_2bandit_b2.png","70","","70","test","1","","47","","","","circle","square","45","2","3","0.9333333333333333","","","","","","","",""
"null","955765","SARL_v6","SARL_v66h13uabq","5cd8a78e0f0de600018e782f","freq_resp","","","img/orange_2bandit_b.png","70","img/orange_2bandit_b.png","70","test","","","","","","","","","","","3","","","","","","","","",""
"null","955918","SARL_v6","SARL_v66h13uabq","5cd8a78e0f0de600018e782f","fixation","","","img/fixation.png","null","","","test","","","","","","","","","","","","","","","","","","","",""
"357.89999985694885","956278","SARL_v6","SARL_v66h13uabq","5cd8a78e0f0de600018e782f","freq","","","img/orange_2bandit_b2.png","70","","70","test","1","","48","","","","circle","square","46","3","3","0.9347826086956522","","","","","","","",""
"null","956724","SARL_v6","SARL_v66h13uabq","5cd8a78e0f0de600018e782f","freq_resp","","","img/orange_2bandit_b.png","70","img/orange_2bandit_b.png","70","test","","","","","","","","","","","3","","","","","","","","",""
"null","956880","SARL_v6","SARL_v66h13uabq","5cd8a78e0f0de600018e782f","fixation","","","img/fixation.png","null","","","test","","","","","","","","","","","","","","","","","","","",""
"436.80000019073486","957318","SARL_v6","SARL_v66h13uabq","5cd8a78e0f0de600018e782f","infreq","","","img/blue_2bandit_b2.png","68","","68","test","1","","49","","","","circle","square","47","4","3","0.9361702127659575","","","","","","","",""
"null","957683","SARL_v6","SARL_v66h13uabq","5cd8a78e0f0de600018e782f","infreq_resp","","","img/blue_2bandit_b.png","68","img/blue_2bandit_b.png","68","test","","","","","","","","","","","3","","","","","","","","",""
"null","957840","SARL_v6","SARL_v66h13uabq","5cd8a78e0f0de600018e782f","fixation","","","img/fixation.png","null","","","test","","","","","","","","","","","","","","","","","","","",""
"429.09999990463257","958270","SARL_v6","SARL_v66h13uabq","5cd8a78e0f0de600018e782f","freq","","","img/orange_2bandit_b2.png","70","","70","test","1","","50","","","","circle","square","48","5","3","0.9375","","","","","","","",""
"null","958649","SARL_v6","SARL_v66h13uabq","5cd8a78e0f0de600018e782f","freq_resp","","","img/orange_2bandit_b.png","70","img/orange_2bandit_b.png","70","test","","","","","","","","","","","3","","","","","","","","",""
"null","958805","SARL_v6","SARL_v66h13uabq","5cd8a78e0f0de600018e782f","fixation","","","img/fixation.png","null","","","test","","","","","","","","","","","","","","","","","","","",""
"400.7000000476837","959207","SARL_v6","SARL_v66h13uabq","5cd8a78e0f0de600018e782f","freq","","","img/orange_2bandit_b2.png","70","","70","test","1","","51","","","","circle","square","49","6","3","0.9387755102040817","","","","","","","",""
"null","959613","SARL_v6","SARL_v66h13uabq","5cd8a78e0f0de600018e782f","freq_resp","","","img/orange_2bandit_b.png","70","img/orange_2bandit_b.png","70","test","","","","","","","","","","","3","","","","","","","","",""
"null","959766","SARL_v6","SARL_v66h13uabq","5cd8a78e0f0de600018e782f","fixation","","","img/fixation.png","null","","","test","","","","","","","","","","","","","","","","","","","",""
"367.10000014305115","960134","SARL_v6","SARL_v66h13uabq","5cd8a78e0f0de600018e782f","freq","","","img/orange_2bandit_b2.png","70","","70","test","1","","52","","","","circle","square","50","7","3","0.94","","","","","","","",""
"null","960573","SARL_v6","SARL_v66h13uabq","5cd8a78e0f0de600018e782f","freq_resp","","","img/orange_2bandit_b.png","70","img/orange_2bandit_b.png","70","test","","","","","","","","","","","3","","","","","","","","",""
"null","960730","SARL_v6","SARL_v66h13uabq","5cd8a78e0f0de600018e782f","fixation","","","img/fixation.png","null","","","test","","","","","","","","","","","","","","","","","","","",""
"356","961087","SARL_v6","SARL_v66h13uabq","5cd8a78e0f0de600018e782f","freq","","","img/orange_2bandit_b2.png","70","","70","test","1","","53","","","","circle","square","51","8","3","0.9411764705882353","","","","","","","",""
"null","961536","SARL_v6","SARL_v66h13uabq","5cd8a78e0f0de600018e782f","freq_resp","","","img/orange_2bandit_b.png","70","img/orange_2bandit_b.png","70","test","","","","","","","","","","","3","","","","","","","","",""
"null","961692","SARL_v6","SARL_v66h13uabq","5cd8a78e0f0de600018e782f","fixation","","","img/fixation.png","null","","","test","","","","","","","","","","","","","","","","","","","",""
"401.69999980926514","962095","SARL_v6","SARL_v66h13uabq","5cd8a78e0f0de600018e782f","freq","","","img/orange_2bandit_b2.png","70","","70","test","1","","54","","","","circle","square","52","9","3","0.9423076923076923","","","","","","","",""
"null","962502","SARL_v6","SARL_v66h13uabq","5cd8a78e0f0de600018e782f","freq_resp","","","img/orange_2bandit_b.png","70","img/orange_2bandit_b.png","70","test","","","","","","","","","","","3","","","","","","","","",""
"null","962657","SARL_v6","SARL_v66h13uabq","5cd8a78e0f0de600018e782f","fixation","","","img/fixation.png","null","","","test","","","","","","","","","","","","","","","","","","","",""
"356.7000000476837","963015","SARL_v6","SARL_v66h13uabq","5cd8a78e0f0de600018e782f","freq","","","img/orange_2bandit_b2.png","70","","70","test","1","","55","","","","circle","square","53","10","3","0.9433962264150944","","","","","","","",""
"null","963463","SARL_v6","SARL_v66h13uabq","5cd8a78e0f0de600018e782f","freq_resp","","","img/orange_2bandit_b.png","70","img/orange_2bandit_b.png","70","test","","","","","","","","","","","3","","","","","","","","",""
"null","963623","SARL_v6","SARL_v66h13uabq","5cd8a78e0f0de600018e782f","fixation","","","img/fixation.png","null","","","test","","","","","","","","","","","","","","","","","","","",""
"471.39999985694885","964095","SARL_v6","SARL_v66h13uabq","5cd8a78e0f0de600018e782f","freq","","","img/orange_2bandit_b2.png","70","","70","test","1","","56","","","","circle","square","54","11","3","0.9444444444444444","","","","","","","",""
"null","964432","SARL_v6","SARL_v66h13uabq","5cd8a78e0f0de600018e782f","freq_resp","","","img/orange_2bandit_b.png","70","img/orange_2bandit_b.png","70","test","","","","","","","","","","","3","","","","","","","","",""
"null","964584","SARL_v6","SARL_v66h13uabq","5cd8a78e0f0de600018e782f","fixation","","","img/fixation.png","null","","","test","","","","","","","","","","","","","","","","","","","",""
"334.09999990463257","964920","SARL_v6","SARL_v66h13uabq","5cd8a78e0f0de600018e782f","freq","","","img/orange_2bandit_b2.png","70","","70","test","1","","57","","","","circle","square","55","12","3","0.9454545454545454","","","","","","","",""
"null","965390","SARL_v6","SARL_v66h13uabq","5cd8a78e0f0de600018e782f","freq_resp","","","img/orange_2bandit_b.png","70","img/orange_2bandit_b.png","70","test","","","","","","","","","","","3","","","","","","","","",""
"null","965548","SARL_v6","SARL_v66h13uabq","5cd8a78e0f0de600018e782f","fixation","","","img/fixation.png","null","","","test","","","","","","","","","","","","","","","","","","","",""
"363.2999999523163","965912","SARL_v6","SARL_v66h13uabq","5cd8a78e0f0de600018e782f","freq","","","img/orange_2bandit_b2.png","70","","70","test","1","","58","","","","circle","square","56","13","3","0.9464285714285714","","","","","","","",""
"null","966352","SARL_v6","SARL_v66h13uabq","5cd8a78e0f0de600018e782f","freq_resp","","","img/orange_2bandit_b.png","70","img/orange_2bandit_b.png","70","test","","","","","","","","","","","3","","","","","","","","",""
"null","966508","SARL_v6","SARL_v66h13uabq","5cd8a78e0f0de600018e782f","fixation","","","img/fixation.png","null","","","test","","","","","","","","","","","","","","","","","","","",""
"314","966824","SARL_v6","SARL_v66h13uabq","5cd8a78e0f0de600018e782f","freq","","","img/orange_2bandit_b2.png","70","","70","test","1","","59","","","","circle","square","57","14","3","0.9473684210526315","","","","","","","",""
"null","967314","SARL_v6","SARL_v66h13uabq","5cd8a78e0f0de600018e782f","freq_resp","","","img/orange_2bandit_b.png","70","img/orange_2bandit_b.png","70","test","","","","","","","","","","","3","","","","","","","","",""
"null","967466","SARL_v6","SARL_v66h13uabq","5cd8a78e0f0de600018e782f","fixation","","","img/fixation.png","null","","","test","","","","","","","","","","","","","","","","","","","",""
"348.39999985694885","967816","SARL_v6","SARL_v66h13uabq","5cd8a78e0f0de600018e782f","freq","","","img/orange_2bandit_b2.png","70","","70","test","1","","60","","","","circle","square","58","15","3","0.9482758620689655","","","","","","","",""
"null","968277","SARL_v6","SARL_v66h13uabq","5cd8a78e0f0de600018e782f","freq_resp","","","img/orange_2bandit_b.png","70","img/orange_2bandit_b.png","70","test","","","","","","","","","","","3","","","","","","","","",""
"null","968429","SARL_v6","SARL_v66h13uabq","5cd8a78e0f0de600018e782f","fixation","","","img/fixation.png","null","","","test","","","","","","","","","","","","","","","","","","","",""
"354","968784","SARL_v6","SARL_v66h13uabq","5cd8a78e0f0de600018e782f","freq","","","img/orange_2bandit_b2.png","70","","70","test","1","","61","","","","circle","square","59","16","3","0.9491525423728814","","","","","","","",""
"null","969240","SARL_v6","SARL_v66h13uabq","5cd8a78e0f0de600018e782f","freq_resp","","","img/orange_2bandit_b.png","70","img/orange_2bandit_b.png","70","test","","","","","","","","","","","3","","","","","","","","",""
"null","969392","SARL_v6","SARL_v66h13uabq","5cd8a78e0f0de600018e782f","fixation","","","img/fixation.png","null","","","test","","","","","","","","","","","","","","","","","","","",""
"366.30000019073486","969760","SARL_v6","SARL_v66h13uabq","5cd8a78e0f0de600018e782f","freq","","","img/orange_2bandit_b2.png","70","","70","test","1","","62","","","","circle","square","60","17","3","0.95","","","","","","","",""
"null","970201","SARL_v6","SARL_v66h13uabq","5cd8a78e0f0de600018e782f","freq_resp","","","img/orange_2bandit_b.png","70","img/orange_2bandit_b.png","70","test","","","","","","","","","","","3","","","","","","","","",""
"null","970356","SARL_v6","SARL_v66h13uabq","5cd8a78e0f0de600018e782f","fixation","","","img/fixation.png","null","","","test","","","","","","","","","","","","","","","","","","","",""
"314.59999990463257","970672","SARL_v6","SARL_v66h13uabq","5cd8a78e0f0de600018e782f","freq","","","img/orange_2bandit_b2.png","70","","70","test","1","","63","","","","circle","square","61","18","3","0.9508196721311475","","","","","","","",""
"null","971162","SARL_v6","SARL_v66h13uabq","5cd8a78e0f0de600018e782f","freq_resp","","","img/orange_2bandit_b.png","70","img/orange_2bandit_b.png","70","test","","","","","","","","","","","3","","","","","","","","",""
"null","971313","SARL_v6","SARL_v66h13uabq","5cd8a78e0f0de600018e782f","fixation","","","img/fixation.png","null","","","test","","","","","","","","","","","","","","","","","","","",""
"309.80000019073486","971625","SARL_v6","SARL_v66h13uabq","5cd8a78e0f0de600018e782f","freq","","","img/orange_2bandit_b2.png","70","","70","test","1","","64","","","","circle","square","62","19","3","0.9516129032258065","","","","","","","",""
"null","972121","SARL_v6","SARL_v66h13uabq","5cd8a78e0f0de600018e782f","freq_resp","","","img/orange_2bandit_b.png","70","img/orange_2bandit_b.png","70","test","","","","","","","","","","","3","","","","","","","","",""
"null","972273","SARL_v6","SARL_v66h13uabq","5cd8a78e0f0de600018e782f","fixation","","","img/fixation.png","null","","","test","","","","","","","","","","","","","","","","","","","",""
"350.90000009536743","972625","SARL_v6","SARL_v66h13uabq","5cd8a78e0f0de600018e782f","freq","","","img/orange_2bandit_b2.png","70","","70","test","1","","65","","","","circle","square","63","20","3","0.9523809523809523","","","","","","","",""
"null","973086","SARL_v6","SARL_v66h13uabq","5cd8a78e0f0de600018e782f","freq_resp","","","img/orange_2bandit_b.png","70","img/orange_2bandit_b.png","70","test","","","","","","","","","","","3","","","","","","","","",""
"null","973237","SARL_v6","SARL_v66h13uabq","5cd8a78e0f0de600018e782f","fixation","","","img/fixation.png","null","","","test","","","","","","","","","","","","","","","","","","","",""
"362.09999990463257","973601","SARL_v6","SARL_v66h13uabq","5cd8a78e0f0de600018e782f","freq","","","img/orange_2bandit_b2.png","70","","70","test","1","","66","","","","circle","square","64","21","3","0.953125","","","","","","","",""
"null","974052","SARL_v6","SARL_v66h13uabq","5cd8a78e0f0de600018e782f","freq_resp","","","img/orange_2bandit_b.png","70","img/orange_2bandit_b.png","70","test","","","","","","","","","","","3","","","","","","","","",""
"null","974206","SARL_v6","SARL_v66h13uabq","5cd8a78e0f0de600018e782f","fixation","","","img/fixation.png","null","","","test","","","","","","","","","","","","","","","","","","","",""
"361.90000009536743","974569","SARL_v6","SARL_v66h13uabq","5cd8a78e0f0de600018e782f","freq","","","img/orange_2bandit_b2.png","70","","70","test","1","","67","","","","circle","square","65","22","3","0.9538461538461539","","","","","","","",""
"null","975016","SARL_v6","SARL_v66h13uabq","5cd8a78e0f0de600018e782f","freq_resp","","","img/orange_2bandit_b.png","70","img/orange_2bandit_b.png","70","test","","","","","","","","","","","3","","","","","","","","",""
"null","975174","SARL_v6","SARL_v66h13uabq","5cd8a78e0f0de600018e782f","fixation","","","img/fixation.png","null","","","test","","","","","","","","","","","","","","","","","","","",""
"313.7999999523163","975489","SARL_v6","SARL_v66h13uabq","5cd8a78e0f0de600018e782f","freq","","","img/orange_2bandit_b2.png","70","","70","test","1","","68","","","","circle","square","66","23","3","0.9545454545454546","","","","","","","",""
"null","975980","SARL_v6","SARL_v66h13uabq","5cd8a78e0f0de600018e782f","freq_resp","","","img/orange_2bandit_b.png","70","img/orange_2bandit_b.png","70","test","","","","","","","","","","","3","","","","","","","","",""
"null","976131","SARL_v6","SARL_v66h13uabq","5cd8a78e0f0de600018e782f","fixation","","","img/fixation.png","null","","","test","","","","","","","","","","","","","","","","","","","",""
"308.5","976441","SARL_v6","SARL_v66h13uabq","5cd8a78e0f0de600018e782f","infreq","","","img/blue_2bandit_b2.png","70","","68","test","0","","69","","","","circle","square","67","24","3","0.9402985074626866","","","","","","","",""
"null","976940","SARL_v6","SARL_v66h13uabq","5cd8a78e0f0de600018e782f","infreq_resp","","","img/blue_2bandit_b.png","70","img/blue_2bandit_b.png","68","test","","","","","","","","","","","3","","","","","","","","",""
"null","977096","SARL_v6","SARL_v66h13uabq","5cd8a78e0f0de600018e782f","fixation","","","img/fixation.png","null","","","test","","","","","","","","","","","","","","","","","","","",""
"544.7000000476837","977642","SARL_v6","SARL_v66h13uabq","5cd8a78e0f0de600018e782f","freq","","","img/orange_2bandit_b2.png","70","","70","test","1","","70","","","","circle","square","68","25","3","0.9411764705882353","","","","","","","",""
"null","977912","SARL_v6","SARL_v66h13uabq","5cd8a78e0f0de600018e782f","freq_resp","","","img/orange_2bandit_b.png","70","img/orange_2bandit_b.png","70","test","","","","","","","","","","","3","","","","","","","","",""
"null","978069","SARL_v6","SARL_v66h13uabq","5cd8a78e0f0de600018e782f","fixation","","","img/fixation.png","null","","","test","","","","","","","","","","","","","","","","","","","",""
"331.2999999523163","978402","SARL_v6","SARL_v66h13uabq","5cd8a78e0f0de600018e782f","freq","","","img/orange_2bandit_b2.png","70","","70","test","1","","71","","","","circle","square","69","26","3","0.9420289855072463","","","","","","","",""
"null","978880","SARL_v6","SARL_v66h13uabq","5cd8a78e0f0de600018e782f","freq_resp","","","img/orange_2bandit_b.png","70","img/orange_2bandit_b.png","70","test","","","","","","","","","","","3","","","","","","","","",""
"null","979033","SARL_v6","SARL_v66h13uabq","5cd8a78e0f0de600018e782f","fixation","","","img/fixation.png","null","","","test","","","","","","","","","","","","","","","","","","","",""
"800.1999998092651","979834","SARL_v6","SARL_v66h13uabq","5cd8a78e0f0de600018e782f","rl","","","img/black_2bandit_b2.png","74","","0","test","","","72","","","-4","circle","square","","0","3","","74","-4","-8","-4","-8","circle","3","0"
"null","980595","SARL_v6","SARL_v66h13uabq","5cd8a78e0f0de600018e782f","feedback","","","<div class=""verylowPoints""> -4 </div>","null","","na","test","","","NaN","","","","","","","","3","","74","","","","","","3",""
"670.0999999046326","981267","SARL_v6","SARL_v66h13uabq","5cd8a78e0f0de600018e782f","freq","","","img/orange_2bandit_b2.png","70","","70","test","1","","73","","","","circle","square","70","1","4","0.9428571428571428","","","","","","","",""
"null","981408","SARL_v6","SARL_v66h13uabq","5cd8a78e0f0de600018e782f","freq_resp","","","img/orange_2bandit_b.png","70","img/orange_2bandit_b.png","70","test","","","","","","","","","","","4","","","","","","","","",""
"null","981564","SARL_v6","SARL_v66h13uabq","5cd8a78e0f0de600018e782f","fixation","","","img/fixation.png","null","","","test","","","","","","","","","","","","","","","","","","","",""
"494.2999999523163","982059","SARL_v6","SARL_v66h13uabq","5cd8a78e0f0de600018e782f","infreq","","","img/blue_2bandit_b2.png","68","","68","test","1","","74","","","","circle","square","71","2","4","0.9436619718309859","","","","","","","",""
"null","982377","SARL_v6","SARL_v66h13uabq","5cd8a78e0f0de600018e782f","infreq_resp","","","img/blue_2bandit_b.png","68","img/blue_2bandit_b.png","68","test","","","","","","","","","","","4","","","","","","","","",""
"null","982529","SARL_v6","SARL_v66h13uabq","5cd8a78e0f0de600018e782f","fixation","","","img/fixation.png","null","","","test","","","","","","","","","","","","","","","","","","","",""
"608.4000000953674","983139","SARL_v6","SARL_v66h13uabq","5cd8a78e0f0de600018e782f","freq","","","img/orange_2bandit_b2.png","70","","70","test","1","","75","","","","circle","square","72","3","4","0.9444444444444444","","","","","","","",""
"null","983345","SARL_v6","SARL_v66h13uabq","5cd8a78e0f0de600018e782f","freq_resp","","","img/orange_2bandit_b.png","70","img/orange_2bandit_b.png","70","test","","","","","","","","","","","4","","","","","","","","",""
"null","983502","SARL_v6","SARL_v66h13uabq","5cd8a78e0f0de600018e782f","fixation","","","img/fixation.png","null","","","test","","","","","","","","","","","","","","","","","","","",""
"484.40000009536743","983988","SARL_v6","SARL_v66h13uabq","5cd8a78e0f0de600018e782f","freq","","","img/orange_2bandit_b2.png","70","","70","test","1","","76","","","","circle","square","73","4","4","0.9452054794520548","","","","","","","",""
"null","984316","SARL_v6","SARL_v66h13uabq","5cd8a78e0f0de600018e782f","freq_resp","","","img/orange_2bandit_b.png","70","img/orange_2bandit_b.png","70","test","","","","","","","","","","","4","","","","","","","","",""
"null","984471","SARL_v6","SARL_v66h13uabq","5cd8a78e0f0de600018e782f","fixation","","","img/fixation.png","null","","","test","","","","","","","","","","","","","","","","","","","",""
"395.2000000476837","984867","SARL_v6","SARL_v66h13uabq","5cd8a78e0f0de600018e782f","freq","","","img/orange_2bandit_b2.png","70","","70","test","1","","77","","","","circle","square","74","5","4","0.9459459459459459","","","","","","","",""
"null","985287","SARL_v6","SARL_v66h13uabq","5cd8a78e0f0de600018e782f","freq_resp","","","img/orange_2bandit_b.png","70","img/orange_2bandit_b.png","70","test","","","","","","","","","","","4","","","","","","","","",""
"null","985444","SARL_v6","SARL_v66h13uabq","5cd8a78e0f0de600018e782f","fixation","","","img/fixation.png","null","","","test","","","","","","","","","","","","","","","","","","","",""
"326.7000000476837","985772","SARL_v6","SARL_v66h13uabq","5cd8a78e0f0de600018e782f","freq","","","img/orange_2bandit_b2.png","70","","70","test","1","","78","","","","circle","square","75","6","4","0.9466666666666667","","","","","","","",""
"null","986257","SARL_v6","SARL_v66h13uabq","5cd8a78e0f0de600018e782f","freq_resp","","","img/orange_2bandit_b.png","70","img/orange_2bandit_b.png","70","test","","","","","","","","","","","4","","","","","","","","",""
"null","986409","SARL_v6","SARL_v66h13uabq","5cd8a78e0f0de600018e782f","fixation","","","img/fixation.png","null","","","test","","","","","","","","","","","","","","","","","","","",""
"345.10000014305115","986756","SARL_v6","SARL_v66h13uabq","5cd8a78e0f0de600018e782f","freq","","","img/orange_2bandit_b2.png","70","","70","test","1","","79","","","","circle","square","76","7","4","0.9473684210526315","","","","","","","",""
"null","987222","SARL_v6","SARL_v66h13uabq","5cd8a78e0f0de600018e782f","freq_resp","","","img/orange_2bandit_b.png","70","img/orange_2bandit_b.png","70","test","","","","","","","","","","","4","","","","","","","","",""
"null","987374","SARL_v6","SARL_v66h13uabq","5cd8a78e0f0de600018e782f","fixation","","","img/fixation.png","null","","","test","","","","","","","","","","","","","","","","","","","",""
"340.30000019073486","987716","SARL_v6","SARL_v66h13uabq","5cd8a78e0f0de600018e782f","freq","","","img/orange_2bandit_b2.png","70","","70","test","1","","80","","","","circle","square","77","8","4","0.948051948051948","","","","","","","",""
"null","988188","SARL_v6","SARL_v66h13uabq","5cd8a78e0f0de600018e782f","freq_resp","","","img/orange_2bandit_b.png","70","img/orange_2bandit_b.png","70","test","","","","","","","","","","","4","","","","","","","","",""
"null","988340","SARL_v6","SARL_v66h13uabq","5cd8a78e0f0de600018e782f","fixation","","","img/fixation.png","null","","","test","","","","","","","","","","","","","","","","","","","",""
"350.7999999523163","988692","SARL_v6","SARL_v66h13uabq","5cd8a78e0f0de600018e782f","freq","","","img/orange_2bandit_b2.png","70","","70","test","1","","81","","","","circle","square","78","9","4","0.9487179487179487","","","","","","","",""
"null","989156","SARL_v6","SARL_v66h13uabq","5cd8a78e0f0de600018e782f","freq_resp","","","img/orange_2bandit_b.png","70","img/orange_2bandit_b.png","70","test","","","","","","","","","","","4","","","","","","","","",""
"null","989308","SARL_v6","SARL_v66h13uabq","5cd8a78e0f0de600018e782f","fixation","","","img/fixation.png","null","","","test","","","","","","","","","","","","","","","","","","","",""
"574.2999999523163","989884","SARL_v6","SARL_v66h13uabq","5cd8a78e0f0de600018e782f","freq","","","img/orange_2bandit_b2.png","70","","70","test","1","","82","","","","circle","square","79","10","4","0.9493670886075949","","","","","","","",""
"null","990111","SARL_v6","SARL_v66h13uabq","5cd8a78e0f0de600018e782f","freq_resp","","","img/orange_2bandit_b.png","70","img/orange_2bandit_b.png","70","test","","","","","","","","","","","4","","","","","","","","",""
"null","990266","SARL_v6","SARL_v66h13uabq","5cd8a78e0f0de600018e782f","fixation","","","img/fixation.png","null","","","test","","","","","","","","","","","","","","","","","","","",""
"368.59999990463257","990636","SARL_v6","SARL_v66h13uabq","5cd8a78e0f0de600018e782f","freq","","","img/orange_2bandit_b2.png","70","","70","test","1","","83","","","","circle","square","80","11","4","0.95","","","","","","","",""
"null","991074","SARL_v6","SARL_v66h13uabq","5cd8a78e0f0de600018e782f","freq_resp","","","img/orange_2bandit_b.png","70","img/orange_2bandit_b.png","70","test","","","","","","","","","","","4","","","","","","","","",""
"null","991233","SARL_v6","SARL_v66h13uabq","5cd8a78e0f0de600018e782f","fixation","","","img/fixation.png","null","","","test","","","","","","","","","","","","","","","","","","","",""
"538.1000001430511","991773","SARL_v6","SARL_v66h13uabq","5cd8a78e0f0de600018e782f","freq","","","img/orange_2bandit_b2.png","70","","70","test","1","","84","","","","circle","square","81","12","4","0.9506172839506173","","","","","","","",""
"null","992046","SARL_v6","SARL_v66h13uabq","5cd8a78e0f0de600018e782f","freq_resp","","","img/orange_2bandit_b.png","70","img/orange_2bandit_b.png","70","test","","","","","","","","","","","4","","","","","","","","",""
"null","992198","SARL_v6","SARL_v66h13uabq","5cd8a78e0f0de600018e782f","fixation","","","img/fixation.png","null","","","test","","","","","","","","","","","","","","","","","","","",""
"477.2999999523163","992676","SARL_v6","SARL_v66h13uabq","5cd8a78e0f0de600018e782f","freq","","","img/orange_2bandit_b2.png","70","","70","test","1","","85","","","","circle","square","82","13","4","0.9512195121951219","","","","","","","",""
"null","993006","SARL_v6","SARL_v66h13uabq","5cd8a78e0f0de600018e782f","freq_resp","","","img/orange_2bandit_b.png","70","img/orange_2bandit_b.png","70","test","","","","","","","","","","","4","","","","","","","","",""
"null","993158","SARL_v6","SARL_v66h13uabq","5cd8a78e0f0de600018e782f","fixation","","","img/fixation.png","null","","","test","","","","","","","","","","","","","","","","","","","",""
"413.09999990463257","993572","SARL_v6","SARL_v66h13uabq","5cd8a78e0f0de600018e782f","infreq","","","img/blue_2bandit_b2.png","68","","68","test","1","","86","","","","circle","square","83","14","4","0.9518072289156626","","","","","","","",""
"null","993969","SARL_v6","SARL_v66h13uabq","5cd8a78e0f0de600018e782f","infreq_resp","","","img/blue_2bandit_b.png","68","img/blue_2bandit_b.png","68","test","","","","","","","","","","","4","","","","","","","","",""
"null","994125","SARL_v6","SARL_v66h13uabq","5cd8a78e0f0de600018e782f","fixation","","","img/fixation.png","null","","","test","","","","","","","","","","","","","","","","","","","",""
"454.2999999523163","994581","SARL_v6","SARL_v66h13uabq","5cd8a78e0f0de600018e782f","freq","","","img/orange_2bandit_b2.png","70","","70","test","1","","87","","","","circle","square","84","15","4","0.9523809523809523","","","","","","","",""
"null","994934","SARL_v6","SARL_v66h13uabq","5cd8a78e0f0de600018e782f","freq_resp","","","img/orange_2bandit_b.png","70","img/orange_2bandit_b.png","70","test","","","","","","","","","","","4","","","","","","","","",""
"null","995088","SARL_v6","SARL_v66h13uabq","5cd8a78e0f0de600018e782f","fixation","","","img/fixation.png","null","","","test","","","","","","","","","","","","","","","","","","","",""
"410.89999985694885","995501","SARL_v6","SARL_v66h13uabq","5cd8a78e0f0de600018e782f","freq","","","img/orange_2bandit_b2.png","70","","70","test","1","","88","","","","circle","square","85","16","4","0.9529411764705882","","","","","","","",""
"null","995898","SARL_v6","SARL_v66h13uabq","5cd8a78e0f0de600018e782f","freq_resp","","","img/orange_2bandit_b.png","70","img/orange_2bandit_b.png","70","test","","","","","","","","","","","4","","","","","","","","",""
"null","996054","SARL_v6","SARL_v66h13uabq","5cd8a78e0f0de600018e782f","fixation","","","img/fixation.png","null","","","test","","","","","","","","","","","","","","","","","","","",""
"381.7999999523163","996437","SARL_v6","SARL_v66h13uabq","5cd8a78e0f0de600018e782f","freq","","","img/orange_2bandit_b2.png","70","","70","test","1","","89","","","","circle","square","86","17","4","0.9534883720930233","","","","","","","",""
"null","996865","SARL_v6","SARL_v66h13uabq","5cd8a78e0f0de600018e782f","freq_resp","","","img/orange_2bandit_b.png","70","img/orange_2bandit_b.png","70","test","","","","","","","","","","","4","","","","","","","","",""
"null","997020","SARL_v6","SARL_v66h13uabq","5cd8a78e0f0de600018e782f","fixation","","","img/fixation.png","null","","","test","","","","","","","","","","","","","","","","","","","",""
"431.40000009536743","997453","SARL_v6","SARL_v66h13uabq","5cd8a78e0f0de600018e782f","freq","","","img/orange_2bandit_b2.png","70","","70","test","1","","90","","","","circle","square","87","18","4","0.9540229885057471","","","","","","","",""
"null","997834","SARL_v6","SARL_v66h13uabq","5cd8a78e0f0de600018e782f","freq_resp","","","img/orange_2bandit_b.png","70","img/orange_2bandit_b.png","70","test","","","","","","","","","","","4","","","","","","","","",""
"null","997991","SARL_v6","SARL_v66h13uabq","5cd8a78e0f0de600018e782f","fixation","","","img/fixation.png","null","","","test","","","","","","","","","","","","","","","","","","","",""
"332.5","998325","SARL_v6","SARL_v66h13uabq","5cd8a78e0f0de600018e782f","freq","","","img/orange_2bandit_b2.png","70","","70","test","1","","91","","","","circle","square","88","19","4","0.9545454545454546","","","","","","","",""
"null","998798","SARL_v6","SARL_v66h13uabq","5cd8a78e0f0de600018e782f","freq_resp","","","img/orange_2bandit_b.png","70","img/orange_2bandit_b.png","70","test","","","","","","","","","","","4","","","","","","","","",""
"null","998953","SARL_v6","SARL_v66h13uabq","5cd8a78e0f0de600018e782f","fixation","","","img/fixation.png","null","","","test","","","","","","","","","","","","","","","","","","","",""
"362.90000009536743","999317","SARL_v6","SARL_v66h13uabq","5cd8a78e0f0de600018e782f","freq","","","img/orange_2bandit_b2.png","70","","70","test","1","","92","","","","circle","square","89","20","4","0.9550561797752809","","","","","","","",""
"null","999761","SARL_v6","SARL_v66h13uabq","5cd8a78e0f0de600018e782f","freq_resp","","","img/orange_2bandit_b.png","70","img/orange_2bandit_b.png","70","test","","","","","","","","","","","4","","","","","","","","",""
"null","999917","SARL_v6","SARL_v66h13uabq","5cd8a78e0f0de600018e782f","fixation","","","img/fixation.png","null","","","test","","","","","","","","","","","","","","","","","","","",""
"678.6000001430511","1000598","SARL_v6","SARL_v66h13uabq","5cd8a78e0f0de600018e782f","rl","","","img/black_2bandit_b2.png","74","","0","test","","","93","","","0","circle","square","","0","4","","74","0","-12","0","-12","circle","4","0"
"null","1001352","SARL_v6","SARL_v66h13uabq","5cd8a78e0f0de600018e782f","feedback","","","<div class=""verylowPoints""> 0 </div>","null","","na","test","","","NaN","","","","","","","","4","","74","","","","","","4",""
"700.7000000476837","1002054","SARL_v6","SARL_v66h13uabq","5cd8a78e0f0de600018e782f","freq","","","img/orange_2bandit_b2.png","70","","70","test","1","","94","","","","circle","square","90","1","5","0.9555555555555556","","","","","","","",""
"null","1002166","SARL_v6","SARL_v66h13uabq","5cd8a78e0f0de600018e782f","freq_resp","","","img/orange_2bandit_b.png","70","img/orange_2bandit_b.png","70","test","","","","","","","","","","","5","","","","","","","","",""
"null","1002323","SARL_v6","SARL_v66h13uabq","5cd8a78e0f0de600018e782f","fixation","","","img/fixation.png","null","","","test","","","","","","","","","","","","","","","","","","","",""
"377.2000000476837","1002702","SARL_v6","SARL_v66h13uabq","5cd8a78e0f0de600018e782f","freq","","","img/orange_2bandit_b2.png","70","","70","test","1","","95","","","","circle","square","91","2","5","0.9560439560439561","","","","","","","",""
"null","1003133","SARL_v6","SARL_v66h13uabq","5cd8a78e0f0de600018e782f","freq_resp","","","img/orange_2bandit_b.png","70","img/orange_2bandit_b.png","70","test","","","","","","","","","","","5","","","","","","","","",""
"null","1003288","SARL_v6","SARL_v66h13uabq","5cd8a78e0f0de600018e782f","fixation","","","img/fixation.png","null","","","test","","","","","","","","","","","","","","","","","","","",""
"380.5","1003670","SARL_v6","SARL_v66h13uabq","5cd8a78e0f0de600018e782f","freq","","","img/orange_2bandit_b2.png","70","","70","test","1","","96","","","","circle","square","92","3","5","0.9565217391304348","","","","","","","",""
"null","1004099","SARL_v6","SARL_v66h13uabq","5cd8a78e0f0de600018e782f","freq_resp","","","img/orange_2bandit_b.png","70","img/orange_2bandit_b.png","70","test","","","","","","","","","","","5","","","","","","","","",""
"null","1004255","SARL_v6","SARL_v66h13uabq","5cd8a78e0f0de600018e782f","fixation","","","img/fixation.png","null","","","test","","","","","","","","","","","","","","","","","","","",""
"350.2999999523163","1004607","SARL_v6","SARL_v66h13uabq","5cd8a78e0f0de600018e782f","freq","","","img/orange_2bandit_b2.png","70","","70","test","1","","97","","","","circle","square","93","4","5","0.956989247311828","","","","","","","",""
"null","1005069","SARL_v6","SARL_v66h13uabq","5cd8a78e0f0de600018e782f","freq_resp","","","img/orange_2bandit_b.png","70","img/orange_2bandit_b.png","70","test","","","","","","","","","","","5","","","","","","","","",""
"null","1005222","SARL_v6","SARL_v66h13uabq","5cd8a78e0f0de600018e782f","fixation","","","img/fixation.png","null","","","test","","","","","","","","","","","","","","","","","","","",""
"311.7000000476837","1005535","SARL_v6","SARL_v66h13uabq","5cd8a78e0f0de600018e782f","freq","","","img/orange_2bandit_b2.png","70","","70","test","1","","98","","","","circle","square","94","5","5","0.9574468085106383","","","","","","","",""
"null","1006032","SARL_v6","SARL_v66h13uabq","5cd8a78e0f0de600018e782f","freq_resp","","","img/orange_2bandit_b.png","70","img/orange_2bandit_b.png","70","test","","","","","","","","","","","5","","","","","","","","",""
"null","1006184","SARL_v6","SARL_v66h13uabq","5cd8a78e0f0de600018e782f","fixation","","","img/fixation.png","null","","","test","","","","","","","","","","","","","","","","","","","",""
"325.7000000476837","1006511","SARL_v6","SARL_v66h13uabq","5cd8a78e0f0de600018e782f","infreq","","","img/blue_2bandit_b2.png","70","","68","test","0","","99","","","","circle","square","95","6","5","0.9473684210526315","","","","","","","",""
"null","1006997","SARL_v6","SARL_v66h13uabq","5cd8a78e0f0de600018e782f","infreq_resp","","","img/blue_2bandit_b.png","70","img/blue_2bandit_b.png","68","test","","","","","","","","","","","5","","","","","","","","",""
"null","1007149","SARL_v6","SARL_v66h13uabq","5cd8a78e0f0de600018e782f","fixation","","","img/fixation.png","null","","","test","","","","","","","","","","","","","","","","","","","",""
"369.09999990463257","1007519","SARL_v6","SARL_v66h13uabq","5cd8a78e0f0de600018e782f","freq","","","img/orange_2bandit_b2.png","70","","70","test","1","","100","","","","circle","square","96","7","5","0.9479166666666666","","","","","","","",""
"null","1007963","SARL_v6","SARL_v66h13uabq","5cd8a78e0f0de600018e782f","freq_resp","","","img/orange_2bandit_b.png","70","img/orange_2bandit_b.png","70","test","","","","","","","","","","","5","","","","","","","","",""
"null","1008120","SARL_v6","SARL_v66h13uabq","5cd8a78e0f0de600018e782f","fixation","","","img/fixation.png","null","","","test","","","","","","","","","","","","","","","","","","","",""
"389.5","1008511","SARL_v6","SARL_v66h13uabq","5cd8a78e0f0de600018e782f","freq","","","img/orange_2bandit_b2.png","70","","70","test","1","","101","","","","circle","square","97","8","5","0.9484536082474226","","","","","","","",""
"null","1008927","SARL_v6","SARL_v66h13uabq","5cd8a78e0f0de600018e782f","freq_resp","","","img/orange_2bandit_b.png","70","img/orange_2bandit_b.png","70","test","","","","","","","","","","","5","","","","","","","","",""
"null","1009083","SARL_v6","SARL_v66h13uabq","5cd8a78e0f0de600018e782f","fixation","","","img/fixation.png","null","","","test","","","","","","","","","","","","","","","","","","","",""
"314.59999990463257","1009399","SARL_v6","SARL_v66h13uabq","5cd8a78e0f0de600018e782f","freq","","","img/orange_2bandit_b2.png","70","","70","test","1","","102","","","","circle","square","98","9","5","0.9489795918367347","","","","","","","",""
"null","1009892","SARL_v6","SARL_v66h13uabq","5cd8a78e0f0de600018e782f","freq_resp","","","img/orange_2bandit_b.png","70","img/orange_2bandit_b.png","70","test","","","","","","","","","","","5","","","","","","","","",""
"null","1010047","SARL_v6","SARL_v66h13uabq","5cd8a78e0f0de600018e782f","fixation","","","img/fixation.png","null","","","test","","","","","","","","","","","","","","","","","","","",""
"670.7000000476837","1010720","SARL_v6","SARL_v66h13uabq","5cd8a78e0f0de600018e782f","infreq","","","img/blue_2bandit_b2.png","68","","68","test","1","","103","","","","circle","square","99","10","5","0.9494949494949495","","","","","","","",""
"null","1010859","SARL_v6","SARL_v66h13uabq","5cd8a78e0f0de600018e782f","infreq_resp","","","img/blue_2bandit_b.png","68","img/blue_2bandit_b.png","68","test","","","","","","","","","","","5","","","","","","","","",""
"null","1011019","SARL_v6","SARL_v66h13uabq","5cd8a78e0f0de600018e782f","fixation","","","img/fixation.png","null","","","test","","","","","","","","","","","","","","","","","","","",""
"539.5","1011560","SARL_v6","SARL_v66h13uabq","5cd8a78e0f0de600018e782f","freq","","","img/orange_2bandit_b2.png","70","","70","test","1","","104","","","","circle","square","100","11","5","0.95","","","","","","","",""
"null","1011829","SARL_v6","SARL_v66h13uabq","5cd8a78e0f0de600018e782f","freq_resp","","","img/orange_2bandit_b.png","70","img/orange_2bandit_b.png","70","test","","","","","","","","","","","5","","","","","","","","",""
"null","1011985","SARL_v6","SARL_v66h13uabq","5cd8a78e0f0de600018e782f","fixation","","","img/fixation.png","null","","","test","","","","","","","","","","","","","","","","","","","",""
"372.89999985694885","1012360","SARL_v6","SARL_v66h13uabq","5cd8a78e0f0de600018e782f","freq","","","img/orange_2bandit_b2.png","70","","70","test","1","","105","","","","circle","square","101","12","5","0.9504950495049505","","","","","","","",""
"null","1012794","SARL_v6","SARL_v66h13uabq","5cd8a78e0f0de600018e782f","freq_resp","","","img/orange_2bandit_b.png","70","img/orange_2bandit_b.png","70","test","","","","","","","","","","","5","","","","","","","","",""
"null","1012948","SARL_v6","SARL_v66h13uabq","5cd8a78e0f0de600018e782f","fixation","","","img/fixation.png","null","","","test","","","","","","","","","","","","","","","","","","","",""
"378.59999990463257","1013328","SARL_v6","SARL_v66h13uabq","5cd8a78e0f0de600018e782f","freq","","","img/orange_2bandit_b2.png","70","","70","test","1","","106","","","","circle","square","102","13","5","0.9509803921568627","","","","","","","",""
"null","1013756","SARL_v6","SARL_v66h13uabq","5cd8a78e0f0de600018e782f","freq_resp","","","img/orange_2bandit_b.png","70","img/orange_2bandit_b.png","70","test","","","","","","","","","","","5","","","","","","","","",""
"null","1013912","SARL_v6","SARL_v66h13uabq","5cd8a78e0f0de600018e782f","fixation","","","img/fixation.png","null","","","test","","","","","","","","","","","","","","","","","","","",""
"462.69999980926514","1014376","SARL_v6","SARL_v66h13uabq","5cd8a78e0f0de600018e782f","freq","","","img/orange_2bandit_b2.png","70","","70","test","1","","107","","","","circle","square","103","14","5","0.9514563106796117","","","","","","","",""
"null","1014716","SARL_v6","SARL_v66h13uabq","5cd8a78e0f0de600018e782f","freq_resp","","","img/orange_2bandit_b.png","70","img/orange_2bandit_b.png","70","test","","","","","","","","","","","5","","","","","","","","",""
"null","1014868","SARL_v6","SARL_v66h13uabq","5cd8a78e0f0de600018e782f","fixation","","","img/fixation.png","null","","","test","","","","","","","","","","","","","","","","","","","",""
"466.5","1015336","SARL_v6","SARL_v66h13uabq","5cd8a78e0f0de600018e782f","freq","","","img/orange_2bandit_b2.png","70","","70","test","1","","108","","","","circle","square","104","15","5","0.9519230769230769","","","","","","","",""
"null","1015681","SARL_v6","SARL_v66h13uabq","5cd8a78e0f0de600018e782f","freq_resp","","","img/orange_2bandit_b.png","70","img/orange_2bandit_b.png","70","test","","","","","","","","","","","5","","","","","","","","",""
"null","1015833","SARL_v6","SARL_v66h13uabq","5cd8a78e0f0de600018e782f","fixation","","","img/fixation.png","null","","","test","","","","","","","","","","","","","","","","","","","",""
"null","1016649","SARL_v6","SARL_v66h13uabq","5cd8a78e0f0de600018e782f","freq","","","img/orange_2bandit_b2.png","null","","70","test","0","","109","","","","circle","square","105","16","5","0.9428571428571428","","","","","","","",""
"null","1016805","SARL_v6","SARL_v66h13uabq","5cd8a78e0f0de600018e782f","fixation","","","img/fixation.png","null","","","test","","","","","","","","","","","","","","","","","","","",""
"null","1017614","SARL_v6","SARL_v66h13uabq","5cd8a78e0f0de600018e782f","freq","","","img/orange_2bandit_b2.png","null","","70","test","0","","110","","","","circle","square","106","17","5","0.9339622641509434","","","","","","","",""
"null","1017770","SARL_v6","SARL_v66h13uabq","5cd8a78e0f0de600018e782f","fixation","","","img/fixation.png","null","","","test","","","","","","","","","","","","","","","","","","","",""
"508.59999990463257","1018280","SARL_v6","SARL_v66h13uabq","5cd8a78e0f0de600018e782f","infreq","","","img/blue_2bandit_b2.png","68","","68","test","1","","111","","","","circle","square","107","18","5","0.9345794392523364","","","","","","","",""
"null","1018579","SARL_v6","SARL_v66h13uabq","5cd8a78e0f0de600018e782f","infreq_resp","","","img/blue_2bandit_b.png","68","img/blue_2bandit_b.png","68","test","","","","","","","","","","","5","","","","","","","","",""
"null","1018731","SARL_v6","SARL_v66h13uabq","5cd8a78e0f0de600018e782f","fixation","","","img/fixation.png","null","","","test","","","","","","","","","","","","","","","","","","","",""
"null","1019544","SARL_v6","SARL_v66h13uabq","5cd8a78e0f0de600018e782f","freq","","","img/orange_2bandit_b2.png","null","","70","test","0","","112","","","","circle","square","108","19","5","0.9259259259259259","","","","","","","",""
"null","1019699","SARL_v6","SARL_v66h13uabq","5cd8a78e0f0de600018e782f","fixation","","","img/fixation.png","null","","","test","","","","","","","","","","","","","","","","","","","",""
"613.2999999523163","1020313","SARL_v6","SARL_v66h13uabq","5cd8a78e0f0de600018e782f","freq","","","img/orange_2bandit_b2.png","70","","70","test","1","","113","","","","circle","square","109","20","5","0.926605504587156","","","","","","","",""
"null","1020508","SARL_v6","SARL_v66h13uabq","5cd8a78e0f0de600018e782f","freq_resp","","","img/orange_2bandit_b.png","70","img/orange_2bandit_b.png","70","test","","","","","","","","","","","5","","","","","","","","",""
"null","1020665","SARL_v6","SARL_v66h13uabq","5cd8a78e0f0de600018e782f","fixation","","","img/fixation.png","null","","","test","","","","","","","","","","","","","","","","","","","",""
"399.5","1021066","SARL_v6","SARL_v66h13uabq","5cd8a78e0f0de600018e782f","freq","","","img/orange_2bandit_b2.png","70","","70","test","1","","114","","","","circle","square","110","21","5","0.9272727272727272","","","","","","","",""
"null","1021476","SARL_v6","SARL_v66h13uabq","5cd8a78e0f0de600018e782f","freq_resp","","","img/orange_2bandit_b.png","70","img/orange_2bandit_b.png","70","test","","","","","","","","","","","5","","","","","","","","",""
"null","1021632","SARL_v6","SARL_v66h13uabq","5cd8a78e0f0de600018e782f","fixation","","","img/fixation.png","null","","","test","","","","","","","","","","","","","","","","","","","",""
"null","1022445","SARL_v6","SARL_v66h13uabq","5cd8a78e0f0de600018e782f","freq","","","img/orange_2bandit_b2.png","null","","70","test","0","","115","","","","circle","square","111","22","5","0.918918918918919","","","","","","","",""
"null","1022602","SARL_v6","SARL_v66h13uabq","5cd8a78e0f0de600018e782f","fixation","","","img/fixation.png","null","","","test","","","","","","","","","","","","","","","","","","","",""
"518.1000001430511","1023122","SARL_v6","SARL_v66h13uabq","5cd8a78e0f0de600018e782f","freq","","","img/orange_2bandit_b2.png","70","","70","test","1","","116","","","","circle","square","112","23","5","0.9196428571428571","","","","","","","",""
"null","1023412","SARL_v6","SARL_v66h13uabq","5cd8a78e0f0de600018e782f","freq_resp","","","img/orange_2bandit_b.png","70","img/orange_2bandit_b.png","70","test","","","","","","","","","","","5","","","","","","","","",""
"null","1023567","SARL_v6","SARL_v66h13uabq","5cd8a78e0f0de600018e782f","fixation","","","img/fixation.png","null","","","test","","","","","","","","","","","","","","","","","","","",""
"649.5999999046326","1024218","SARL_v6","SARL_v66h13uabq","5cd8a78e0f0de600018e782f","rl","","","img/black_2bandit_b2.png","74","","0","test","","","117","","","4","circle","square","","0","5","","74","4","-7","4","-7","circle","5","0"
"null","1024983","SARL_v6","SARL_v66h13uabq","5cd8a78e0f0de600018e782f","feedback","","","<div class=""veryhighPoints""> 4 </div>","null","","na","test","","","NaN","","","","","","","","5","","74","","","","","","5",""
"610","1025594","SARL_v6","SARL_v66h13uabq","5cd8a78e0f0de600018e782f","freq","","","img/orange_2bandit_b2.png","70","","70","test","1","","118","","","","circle","square","113","1","6","0.9203539823008849","","","","","","","",""
"null","1025790","SARL_v6","SARL_v66h13uabq","5cd8a78e0f0de600018e782f","freq_resp","","","img/orange_2bandit_b.png","70","img/orange_2bandit_b.png","70","test","","","","","","","","","","","6","","","","","","","","",""
"null","1025945","SARL_v6","SARL_v66h13uabq","5cd8a78e0f0de600018e782f","fixation","","","img/fixation.png","null","","","test","","","","","","","","","","","","","","","","","","","",""
"319.7999999523163","1026266","SARL_v6","SARL_v66h13uabq","5cd8a78e0f0de600018e782f","freq","","","img/orange_2bandit_b2.png","70","","70","test","1","","119","","","","circle","square","114","2","6","0.9210526315789473","","","","","","","",""
"null","1026748","SARL_v6","SARL_v66h13uabq","5cd8a78e0f0de600018e782f","freq_resp","","","img/orange_2bandit_b.png","70","img/orange_2bandit_b.png","70","test","","","","","","","","","","","6","","","","","","","","",""
"null","1026900","SARL_v6","SARL_v66h13uabq","5cd8a78e0f0de600018e782f","fixation","","","img/fixation.png","null","","","test","","","","","","","","","","","","","","","","","","","",""
"316.69999980926514","1027218","SARL_v6","SARL_v66h13uabq","5cd8a78e0f0de600018e782f","freq","","","img/orange_2bandit_b2.png","70","","70","test","1","","120","","","","circle","square","115","3","6","0.9217391304347826","","","","","","","",""
"null","1027709","SARL_v6","SARL_v66h13uabq","5cd8a78e0f0de600018e782f","freq_resp","","","img/orange_2bandit_b.png","70","img/orange_2bandit_b.png","70","test","","","","","","","","","","","6","","","","","","","","",""
"null","1027861","SARL_v6","SARL_v66h13uabq","5cd8a78e0f0de600018e782f","fixation","","","img/fixation.png","null","","","test","","","","","","","","","","","","","","","","","","","",""
"275.7000000476837","1028138","SARL_v6","SARL_v66h13uabq","5cd8a78e0f0de600018e782f","freq","","","img/orange_2bandit_b2.png","70","","70","test","1","","121","","","","circle","square","116","4","6","0.9224137931034483","","","","","","","",""
"null","1028675","SARL_v6","SARL_v66h13uabq","5cd8a78e0f0de600018e782f","freq_resp","","","img/orange_2bandit_b.png","70","img/orange_2bandit_b.png","70","test","","","","","","","","","","","6","","","","","","","","",""
"null","1028828","SARL_v6","SARL_v66h13uabq","5cd8a78e0f0de600018e782f","fixation","","","img/fixation.png","null","","","test","","","","","","","","","","","","","","","","","","","",""
"294","1029123","SARL_v6","SARL_v66h13uabq","5cd8a78e0f0de600018e782f","infreq","","","img/blue_2bandit_b2.png","70","","68","test","0","","122","","","","circle","square","117","5","6","0.9145299145299145","","","","","","","",""
"null","1029640","SARL_v6","SARL_v66h13uabq","5cd8a78e0f0de600018e782f","infreq_resp","","","img/blue_2bandit_b.png","70","img/blue_2bandit_b.png","68","test","","","","","","","","","","","6","","","","","","","","",""
"null","1029797","SARL_v6","SARL_v66h13uabq","5cd8a78e0f0de600018e782f","fixation","","","img/fixation.png","null","","","test","","","","","","","","","","","","","","","","","","","",""
"427.5","1030226","SARL_v6","SARL_v66h13uabq","5cd8a78e0f0de600018e782f","infreq","","","img/blue_2bandit_b2.png","68","","68","test","1","","123","","","","circle","square","118","6","6","0.9152542372881356","","","","","","","",""
"null","1030603","SARL_v6","SARL_v66h13uabq","5cd8a78e0f0de600018e782f","infreq_resp","","","img/blue_2bandit_b.png","68","img/blue_2bandit_b.png","68","test","","","","","","","","","","","6","","","","","","","","",""
"null","1030759","SARL_v6","SARL_v66h13uabq","5cd8a78e0f0de600018e782f","fixation","","","img/fixation.png","null","","","test","","","","","","","","","","","","","","","","","","","",""
"537.2999999523163","1031298","SARL_v6","SARL_v66h13uabq","5cd8a78e0f0de600018e782f","freq","","","img/orange_2bandit_b2.png","70","","70","test","1","","124","","","","circle","square","119","7","6","0.9159663865546218","","","","","","","",""
"null","1031565","SARL_v6","SARL_v66h13uabq","5cd8a78e0f0de600018e782f","freq_resp","","","img/orange_2bandit_b.png","70","img/orange_2bandit_b.png","70","test","","","","","","","","","","","6","","","","","","","","",""
"null","1031722","SARL_v6","SARL_v66h13uabq","5cd8a78e0f0de600018e782f","fixation","","","img/fixation.png","null","","","test","","","","","","","","","","","","","","","","","","","",""
"502.59999990463257","1032226","SARL_v6","SARL_v66h13uabq","5cd8a78e0f0de600018e782f","freq","","","img/orange_2bandit_b2.png","70","","70","test","1","","125","","","","circle","square","120","8","6","0.9166666666666666","","","","","","","",""
"null","1032539","SARL_v6","SARL_v66h13uabq","5cd8a78e0f0de600018e782f","freq_resp","","","img/orange_2bandit_b.png","70","img/orange_2bandit_b.png","70","test","","","","","","","","","","","6","","","","","","","","",""
"null","1032690","SARL_v6","SARL_v66h13uabq","5cd8a78e0f0de600018e782f","fixation","","","img/fixation.png","null","","","test","","","","","","","","","","","","","","","","","","","",""
"334.59999990463257","1033026","SARL_v6","SARL_v66h13uabq","5cd8a78e0f0de600018e782f","freq","","","img/orange_2bandit_b2.png","70","","70","test","1","","126","","","","circle","square","121","9","6","0.9173553719008265","","","","","","","",""
"null","1033497","SARL_v6","SARL_v66h13uabq","5cd8a78e0f0de600018e782f","freq_resp","","","img/orange_2bandit_b.png","70","img/orange_2bandit_b.png","70","test","","","","","","","","","","","6","","","","","","","","",""
"null","1033649","SARL_v6","SARL_v66h13uabq","5cd8a78e0f0de600018e782f","fixation","","","img/fixation.png","null","","","test","","","","","","","","","","","","","","","","","","","",""
"327.7000000476837","1033978","SARL_v6","SARL_v66h13uabq","5cd8a78e0f0de600018e782f","freq","","","img/orange_2bandit_b2.png","70","","70","test","1","","127","","","","circle","square","122","10","6","0.9180327868852459","","","","","","","",""
"null","1034458","SARL_v6","SARL_v66h13uabq","5cd8a78e0f0de600018e782f","freq_resp","","","img/orange_2bandit_b.png","70","img/orange_2bandit_b.png","70","test","","","","","","","","","","","6","","","","","","","","",""
"null","1034610","SARL_v6","SARL_v66h13uabq","5cd8a78e0f0de600018e782f","fixation","","","img/fixation.png","null","","","test","","","","","","","","","","","","","","","","","","","",""
"303.2999999523163","1034915","SARL_v6","SARL_v66h13uabq","5cd8a78e0f0de600018e782f","freq","","","img/orange_2bandit_b2.png","70","","70","test","1","","128","","","","circle","square","123","11","6","0.9186991869918699","","","","","","","",""
"null","1035424","SARL_v6","SARL_v66h13uabq","5cd8a78e0f0de600018e782f","freq_resp","","","img/orange_2bandit_b.png","70","img/orange_2bandit_b.png","70","test","","","","","","","","","","","6","","","","","","","","",""
"null","1035576","SARL_v6","SARL_v66h13uabq","5cd8a78e0f0de600018e782f","fixation","","","img/fixation.png","null","","","test","","","","","","","","","","","","","","","","","","","",""
"313.89999985694885","1035891","SARL_v6","SARL_v66h13uabq","5cd8a78e0f0de600018e782f","freq","","","img/orange_2bandit_b2.png","70","","70","test","1","","129","","","","circle","square","124","12","6","0.9193548387096774","","","","","","","",""
"null","1036388","SARL_v6","SARL_v66h13uabq","5cd8a78e0f0de600018e782f","freq_resp","","","img/orange_2bandit_b.png","70","img/orange_2bandit_b.png","70","test","","","","","","","","","","","6","","","","","","","","",""
"null","1036541","SARL_v6","SARL_v66h13uabq","5cd8a78e0f0de600018e782f","fixation","","","img/fixation.png","null","","","test","","","","","","","","","","","","","","","","","","","",""
"397.09999990463257","1036939","SARL_v6","SARL_v66h13uabq","5cd8a78e0f0de600018e782f","freq","","","img/orange_2bandit_b2.png","70","","70","test","1","","130","","","","circle","square","125","13","6","0.92","","","","","","","",""
