"rt","time_elapsed","expId","subject","prolificID","trialType","rlType","attType","stimulus","key_press","stim","corrresp","phase","corr","pracCounter","trialNum","rewardOne","rewardTwo","reward","bandOne","bandTwo","attentionNum","attentionRunNum","blockNum","performance","bandChosen","circleVal","squareVal","bandOneVal","bandTwoVal","shapeChosen","rlNum","badFlag"
"3393.5","3397","SARL_v6","SARL_v6ol938fde","6074b929f753216d88c77e88","","","","","","","","","","","","","","","","","","","","","","","","","","","",""
"","5647","SARL_v6","SARL_v6ol938fde","6074b929f753216d88c77e88","fullscreen","fullscreen","fullscreen","","","","","","","","","","","","","","","","","","","","","","","","",""
"136678.59999999404","142327","SARL_v6","SARL_v6ol938fde","6074b929f753216d88c77e88","","","","","","","","","","","","","","","","","","","","","","","","","","","",""
"null","143145","SARL_v6","SARL_v6ol938fde","6074b929f753216d88c77e88","freqPrac","","","img/orange_2bandit_b2.png","null","img/orange_2bandit_b2.png","70","prac","0","1","","","","","","","","","","","","","","","","","",""
"null","144161","SARL_v6","SARL_v6ol938fde","6074b929f753216d88c77e88","feedback","","","img/tooSlow.png","null","","na","prac","","","","","","","","","","","","","","","","","","","",""
"null","144318","SARL_v6","SARL_v6ol938fde","6074b929f753216d88c77e88","fixation","","","img/fixation.png","null","","","prac","","","","","","","","","","","","","","","","","","","",""
"711.9000000059605","145032","SARL_v6","SARL_v6ol938fde","6074b929f753216d88c77e88","infreqPrac","","","img/blue_2bandit_b2.png","68","img/blue_2bandit_b2.png","68","prac","1","1","","","","","","","","","","","","","","","","","",""
"711.9000000059605","145130","SARL_v6","SARL_v6ol938fde","6074b929f753216d88c77e88","infreqPrac_resp","","","img/blue_2bandit_b.png","68","img/blue_2bandit_b.png","68","prac","","","","","","","","","","","","","","","","","","","",""
"null","145287","SARL_v6","SARL_v6ol938fde","6074b929f753216d88c77e88","fixation","","","img/fixation.png","null","","","prac","","","","","","","","","","","","","","","","","","","",""
"470.29999999701977","145759","SARL_v6","SARL_v6ol938fde","6074b929f753216d88c77e88","freqPrac","","","img/orange_2bandit_b2.png","70","img/orange_2bandit_b2.png","70","prac","1","1","","","","","","","","","","","","","","","","","",""
"470.29999999701977","146100","SARL_v6","SARL_v6ol938fde","6074b929f753216d88c77e88","freqPrac_resp","","","img/orange_2bandit_b.png","70","img/orange_2bandit_b.png","70","prac","","","","","","","","","","","","","","","","","","","",""
"null","146258","SARL_v6","SARL_v6ol938fde","6074b929f753216d88c77e88","fixation","","","img/fixation.png","null","","","prac","","","","","","","","","","","","","","","","","","","",""
"659","146918","SARL_v6","SARL_v6ol938fde","6074b929f753216d88c77e88","infreqPrac","","","img/blue_2bandit_b2.png","68","img/blue_2bandit_b2.png","68","prac","1","1","","","","","","","","","","","","","","","","","",""
"659","147076","SARL_v6","SARL_v6ol938fde","6074b929f753216d88c77e88","infreqPrac_resp","","","img/blue_2bandit_b.png","68","img/blue_2bandit_b.png","68","prac","","","","","","","","","","","","","","","","","","","",""
"null","147232","SARL_v6","SARL_v6ol938fde","6074b929f753216d88c77e88","fixation","","","img/fixation.png","null","","","prac","","","","","","","","","","","","","","","","","","","",""
"366.69999999552965","147601","SARL_v6","SARL_v6ol938fde","6074b929f753216d88c77e88","infreqPrac","","","img/blue_2bandit_b2.png","68","img/blue_2bandit_b2.png","68","prac","1","1","","","","","","","","","","","","","","","","","",""
"366.69999999552965","148046","SARL_v6","SARL_v6ol938fde","6074b929f753216d88c77e88","infreqPrac_resp","","","img/blue_2bandit_b.png","68","img/blue_2bandit_b.png","68","prac","","","","","","","","","","","","","","","","","","","",""
"null","148203","SARL_v6","SARL_v6ol938fde","6074b929f753216d88c77e88","fixation","","","img/fixation.png","null","","","prac","","","","","","","","","","","","","","","","","","","",""
"404.19999999552965","148609","SARL_v6","SARL_v6ol938fde","6074b929f753216d88c77e88","infreqPrac","","","img/blue_2bandit_b2.png","68","img/blue_2bandit_b2.png","68","prac","1","1","","","","","","","","","","","","","","","","","",""
"404.19999999552965","149020","SARL_v6","SARL_v6ol938fde","6074b929f753216d88c77e88","infreqPrac_resp","","","img/blue_2bandit_b.png","68","img/blue_2bandit_b.png","68","prac","","","","","","","","","","","","","","","","","","","",""
"null","149178","SARL_v6","SARL_v6ol938fde","6074b929f753216d88c77e88","fixation","","","img/fixation.png","null","","","prac","","","","","","","","","","","","","","","","","","","",""
"395.8999999985099","149575","SARL_v6","SARL_v6ol938fde","6074b929f753216d88c77e88","freqPrac","","","img/orange_2bandit_b2.png","70","img/orange_2bandit_b2.png","70","prac","1","1","","","","","","","","","","","","","","","","","",""
"395.8999999985099","149989","SARL_v6","SARL_v6ol938fde","6074b929f753216d88c77e88","freqPrac_resp","","","img/orange_2bandit_b.png","70","img/orange_2bandit_b.png","70","prac","","","","","","","","","","","","","","","","","","","",""
"null","150145","SARL_v6","SARL_v6ol938fde","6074b929f753216d88c77e88","fixation","","","img/fixation.png","null","","","prac","","","","","","","","","","","","","","","","","","","",""
"478","150625","SARL_v6","SARL_v6ol938fde","6074b929f753216d88c77e88","infreqPrac","","","img/blue_2bandit_b2.png","68","img/blue_2bandit_b2.png","68","prac","1","1","","","","","","","","","","","","","","","","","",""
"478","150959","SARL_v6","SARL_v6ol938fde","6074b929f753216d88c77e88","infreqPrac_resp","","","img/blue_2bandit_b.png","68","img/blue_2bandit_b.png","68","prac","","","","","","","","","","","","","","","","","","","",""
"null","151116","SARL_v6","SARL_v6ol938fde","6074b929f753216d88c77e88","fixation","","","img/fixation.png","null","","","prac","","","","","","","","","","","","","","","","","","","",""
"385.30000000447035","151503","SARL_v6","SARL_v6ol938fde","6074b929f753216d88c77e88","freqPrac","","","img/orange_2bandit_b2.png","68","img/orange_2bandit_b2.png","70","prac","0","2","","","","","","","","","","","","","","","","","",""
"385.30000000447035","151926","SARL_v6","SARL_v6ol938fde","6074b929f753216d88c77e88","freqPrac_resp","","","img/orange_2bandit_b.png","68","img/orange_2bandit_b.png","70","prac","","","","","","","","","","","","","","","","","","","",""
"null","152929","SARL_v6","SARL_v6ol938fde","6074b929f753216d88c77e88","feedback","","","img/wrongKey.png","null","","na","prac","","","","","","","","","","","","","","","","","","","",""
"null","153086","SARL_v6","SARL_v6ol938fde","6074b929f753216d88c77e88","fixation","","","img/fixation.png","null","","","prac","","","","","","","","","","","","","","","","","","","",""
"585.5","153673","SARL_v6","SARL_v6ol938fde","6074b929f753216d88c77e88","freqPrac","","","img/orange_2bandit_b2.png","70","img/orange_2bandit_b2.png","70","prac","1","2","","","","","","","","","","","","","","","","","",""
"585.5","153903","SARL_v6","SARL_v6ol938fde","6074b929f753216d88c77e88","freqPrac_resp","","","img/orange_2bandit_b.png","70","img/orange_2bandit_b.png","70","prac","","","","","","","","","","","","","","","","","","","",""
"null","154062","SARL_v6","SARL_v6ol938fde","6074b929f753216d88c77e88","fixation","","","img/fixation.png","null","","","prac","","","","","","","","","","","","","","","","","","","",""
"43176.20000000298","197240","SARL_v6","SARL_v6ol938fde","6074b929f753216d88c77e88","","","","","","","","prac","","","","","","","","","","","","","","","","","","","",""
"985.1000000014901","198227","SARL_v6","SARL_v6ol938fde","6074b929f753216d88c77e88","rlPractice","","","img/black_2bandit_b2.png","74","img/black_2bandit_b2.png","","prac","","","0","","","","","","","","","","","","","","","","",""
"null","198986","SARL_v6","SARL_v6ol938fde","6074b929f753216d88c77e88","feedback","","","<div class=""veryhighPoints""> 10 </div>","null","","na","prac","","","1","10","-14","10","","","","","","","","","","","","","",""
"null","199142","SARL_v6","SARL_v6ol938fde","6074b929f753216d88c77e88","fixation","","","img/fixation.png","null","","","prac","","","","","","","","","","","","","","","","","","","",""
"809.8999999985099","199954","SARL_v6","SARL_v6ol938fde","6074b929f753216d88c77e88","rlPractice","","","img/black_2bandit_b2.png","75","img/black_2bandit_b2.png","","prac","","","1","","","","","","","","","","","","","","","","",""
"null","200710","SARL_v6","SARL_v6ol938fde","6074b929f753216d88c77e88","feedback","","","<div class=""verylowPoints_sq""> -5 </div>","null","","na","prac","","","2","5","-5","5","","","","","","","","","","","","","",""
"null","200865","SARL_v6","SARL_v6ol938fde","6074b929f753216d88c77e88","fixation","","","img/fixation.png","null","","","prac","","","","","","","","","","","","","","","","","","","",""
"616.1999999955297","201483","SARL_v6","SARL_v6ol938fde","6074b929f753216d88c77e88","rlPractice","","","img/black_2bandit_b2.png","74","img/black_2bandit_b2.png","","prac","","","2","","","","","","","","","","","","","","","","",""
"null","202240","SARL_v6","SARL_v6ol938fde","6074b929f753216d88c77e88","feedback","","","<div class=""veryhighPoints""> 30 </div>","null","","na","prac","","","3","30","2","30","","","","","","","","","","","","","",""
"null","202396","SARL_v6","SARL_v6ol938fde","6074b929f753216d88c77e88","fixation","","","img/fixation.png","null","","","prac","","","","","","","","","","","","","","","","","","","",""
"418.1000000014901","202815","SARL_v6","SARL_v6ol938fde","6074b929f753216d88c77e88","rlPractice","","","img/black_2bandit_b2.png","74","img/black_2bandit_b2.png","","prac","","","3","","","","","","","","","","","","","","","","",""
"null","203581","SARL_v6","SARL_v6ol938fde","6074b929f753216d88c77e88","feedback","","","<div class=""verylowPoints""> -2 </div>","null","","na","prac","","","4","-2","20","-2","","","","","","","","","","","","","",""
"null","203739","SARL_v6","SARL_v6ol938fde","6074b929f753216d88c77e88","fixation","","","img/fixation.png","null","","","prac","","","","","","","","","","","","","","","","","","","",""
"4936.30000000447","208677","SARL_v6","SARL_v6ol938fde","6074b929f753216d88c77e88","","","","","","","","prac","","","","","","","","","","","","","","","","","","","",""
"null","209490","SARL_v6","SARL_v6ol938fde","6074b929f753216d88c77e88","mixAttFreqPrac","","","img/orange_2bandit_b2.png","null","img/orange_2bandit_b2.png","70","prac","","","1","","","","","","","","","","","","","","","","",""
"null","209646","SARL_v6","SARL_v6ol938fde","6074b929f753216d88c77e88","fixation","","","img/fixation.png","null","","","prac","","","","","","","","","","","","","","","","","","","",""
"693.2999999970198","210341","SARL_v6","SARL_v6ol938fde","6074b929f753216d88c77e88","mixAttInfreqPrac","","","img/blue_2bandit_b2.png","68","img/blue_2bandit_b2.png","68","prac","","","2","","","","","","","","","","","","","","","","",""
"693.2999999970198","210456","SARL_v6","SARL_v6ol938fde","6074b929f753216d88c77e88","infreqPrac_resp","","","img/blue_2bandit_b.png","68","img/orange_2bandit_b.png","68","prac","","","2","","","","","","","","","","","","","","","","",""
"null","210609","SARL_v6","SARL_v6ol938fde","6074b929f753216d88c77e88","fixation","","","img/fixation.png","null","","","prac","","","","","","","","","","","","","","","","","","","",""
"433.59999999403954","211045","SARL_v6","SARL_v6ol938fde","6074b929f753216d88c77e88","mixAttInfreqPrac","","","img/blue_2bandit_b2.png","68","img/blue_2bandit_b2.png","68","prac","","","3","","","","","","","","","","","","","","","","",""
"433.59999999403954","211426","SARL_v6","SARL_v6ol938fde","6074b929f753216d88c77e88","infreqPrac_resp","","","img/blue_2bandit_b.png","68","img/orange_2bandit_b.png","68","prac","","","3","","","","","","","","","","","","","","","","",""
"null","211583","SARL_v6","SARL_v6ol938fde","6074b929f753216d88c77e88","fixation","","","img/fixation.png","null","","","prac","","","","","","","","","","","","","","","","","","","",""
"424.69999999552965","212010","SARL_v6","SARL_v6ol938fde","6074b929f753216d88c77e88","mixAttInfreqPrac","","","img/blue_2bandit_b2.png","68","img/blue_2bandit_b2.png","68","prac","","","4","","","","","","","","","","","","","","","","",""
"424.69999999552965","212401","SARL_v6","SARL_v6ol938fde","6074b929f753216d88c77e88","infreqPrac_resp","","","img/blue_2bandit_b.png","68","img/orange_2bandit_b.png","68","prac","","","4","","","","","","","","","","","","","","","","",""
"null","212557","SARL_v6","SARL_v6ol938fde","6074b929f753216d88c77e88","fixation","","","img/fixation.png","null","","","prac","","","","","","","","","","","","","","","","","","","",""
"440.1000000014901","212999","SARL_v6","SARL_v6ol938fde","6074b929f753216d88c77e88","mixAttFreqPrac","","","img/orange_2bandit_b2.png","70","img/orange_2bandit_b2.png","70","prac","","","5","","","","","","","","","","","","","","","","",""
"440.1000000014901","213375","SARL_v6","SARL_v6ol938fde","6074b929f753216d88c77e88","freqPrac_resp","","","img/orange_2bandit_b.png","70","img/orange_2bandit_b.png","70","prac","","","5","","","","","","","","","","","","","","","","",""
"null","213533","SARL_v6","SARL_v6ol938fde","6074b929f753216d88c77e88","fixation","","","img/fixation.png","null","","","prac","","","","","","","","","","","","","","","","","","","",""
"519.7000000029802","214054","SARL_v6","SARL_v6ol938fde","6074b929f753216d88c77e88","mixRLPractice","","","img/black_2bandit_b2.png","74","img/black_2bandit_b2.png","","prac","","","5","","","","","","","","","","","","","","","","",""
"null","214815","SARL_v6","SARL_v6ol938fde","6074b929f753216d88c77e88","feedback","","","<div class=""verylowPoints""> -14 </div>","null","","na","prac","","","6","-14","10","-14","","","","","","","","","","","","","",""
"null","214974","SARL_v6","SARL_v6ol938fde","6074b929f753216d88c77e88","fixation","","","img/fixation.png","null","","","prac","","","","","","","","","","","","","","","","","","","",""
"777.1000000014901","215753","SARL_v6","SARL_v6ol938fde","6074b929f753216d88c77e88","mixAttFreqPrac","","","img/orange_2bandit_b2.png","68","img/orange_2bandit_b2.png","70","prac","","","7","","","","","","","","","","","","","","","","",""
"777.1000000014901","215777","SARL_v6","SARL_v6ol938fde","6074b929f753216d88c77e88","freqPrac_resp","","","img/orange_2bandit_b.png","68","img/orange_2bandit_b.png","70","prac","","","7","","","","","","","","","","","","","","","","",""
"null","215930","SARL_v6","SARL_v6ol938fde","6074b929f753216d88c77e88","fixation","","","img/fixation.png","null","","","prac","","","","","","","","","","","","","","","","","","","",""
"764","216696","SARL_v6","SARL_v6ol938fde","6074b929f753216d88c77e88","mixAttInfreqPrac","","","img/blue_2bandit_b2.png","68","img/blue_2bandit_b2.png","68","prac","","","8","","","","","","","","","","","","","","","","",""
"764","216739","SARL_v6","SARL_v6ol938fde","6074b929f753216d88c77e88","infreqPrac_resp","","","img/blue_2bandit_b.png","68","img/orange_2bandit_b.png","68","prac","","","8","","","","","","","","","","","","","","","","",""
"null","216896","SARL_v6","SARL_v6ol938fde","6074b929f753216d88c77e88","fixation","","","img/fixation.png","null","","","prac","","","","","","","","","","","","","","","","","","","",""
"568.8000000044703","217466","SARL_v6","SARL_v6ol938fde","6074b929f753216d88c77e88","mixAttFreqPrac","","","img/orange_2bandit_b2.png","70","img/orange_2bandit_b2.png","70","prac","","","9","","","","","","","","","","","","","","","","",""
"568.8000000044703","217707","SARL_v6","SARL_v6ol938fde","6074b929f753216d88c77e88","freqPrac_resp","","","img/orange_2bandit_b.png","70","img/orange_2bandit_b.png","70","prac","","","9","","","","","","","","","","","","","","","","",""
"null","217863","SARL_v6","SARL_v6ol938fde","6074b929f753216d88c77e88","fixation","","","img/fixation.png","null","","","prac","","","","","","","","","","","","","","","","","","","",""
"435","218300","SARL_v6","SARL_v6ol938fde","6074b929f753216d88c77e88","mixAttFreqPrac","","","img/orange_2bandit_b2.png","70","img/orange_2bandit_b2.png","70","prac","","","10","","","","","","","","","","","","","","","","",""
"435","218676","SARL_v6","SARL_v6ol938fde","6074b929f753216d88c77e88","freqPrac_resp","","","img/orange_2bandit_b.png","70","img/orange_2bandit_b.png","70","prac","","","10","","","","","","","","","","","","","","","","",""
"null","218833","SARL_v6","SARL_v6ol938fde","6074b929f753216d88c77e88","fixation","","","img/fixation.png","null","","","prac","","","","","","","","","","","","","","","","","","","",""
"472.90000000596046","219308","SARL_v6","SARL_v6ol938fde","6074b929f753216d88c77e88","mixAttInfreqPrac","","","img/blue_2bandit_b2.png","68","img/blue_2bandit_b2.png","68","prac","","","11","","","","","","","","","","","","","","","","",""
"472.90000000596046","219648","SARL_v6","SARL_v6ol938fde","6074b929f753216d88c77e88","infreqPrac_resp","","","img/blue_2bandit_b.png","68","img/orange_2bandit_b.png","68","prac","","","11","","","","","","","","","","","","","","","","",""
"null","219803","SARL_v6","SARL_v6ol938fde","6074b929f753216d88c77e88","fixation","","","img/fixation.png","null","","","prac","","","","","","","","","","","","","","","","","","","",""
"799","220604","SARL_v6","SARL_v6ol938fde","6074b929f753216d88c77e88","mixRLPractice","","","img/black_2bandit_b2.png","74","img/black_2bandit_b2.png","","prac","","","11","","","","","","","","","","","","","","","","",""
"null","221358","SARL_v6","SARL_v6ol938fde","6074b929f753216d88c77e88","feedback","","","<div class=""veryhighPoints""> 5 </div>","null","","na","prac","","","12","5","-5","5","","","","","","","","","","","","","",""
"null","221514","SARL_v6","SARL_v6ol938fde","6074b929f753216d88c77e88","fixation","","","img/fixation.png","null","","","prac","","","","","","","","","","","","","","","","","","","",""
"19682.59999999404","241197","SARL_v6","SARL_v6ol938fde","6074b929f753216d88c77e88","","","","","","","","prac","","","","","","","","","","","","","","","","","","","",""
"null","242005","SARL_v6","SARL_v6ol938fde","6074b929f753216d88c77e88","freq","","","img/orange_2bandit_b2.png","null","","70","test","0","","1","","","","circle","square","1","1","1","0","","","","","","","",""
"null","242161","SARL_v6","SARL_v6ol938fde","6074b929f753216d88c77e88","fixation","","","img/fixation.png","null","","","test","","","","","","","","","","","","","","","","","","","",""
"461.1000000014901","242624","SARL_v6","SARL_v6ol938fde","6074b929f753216d88c77e88","freq","","","img/orange_2bandit_b2.png","70","","70","test","1","","2","","","","circle","square","2","2","1","0.5","","","","","","","",""
"null","242978","SARL_v6","SARL_v6ol938fde","6074b929f753216d88c77e88","freq_resp","","","img/orange_2bandit_b.png","70","img/orange_2bandit_b.png","70","test","","","","","","","","","","","1","","","","","","","","",""
"null","243134","SARL_v6","SARL_v6ol938fde","6074b929f753216d88c77e88","fixation","","","img/fixation.png","null","","","test","","","","","","","","","","","","","","","","","","","",""
"388","243524","SARL_v6","SARL_v6ol938fde","6074b929f753216d88c77e88","freq","","","img/orange_2bandit_b2.png","70","","70","test","1","","3","","","","circle","square","3","3","1","0.6666666666666666","","","","","","","",""
"null","243943","SARL_v6","SARL_v6ol938fde","6074b929f753216d88c77e88","freq_resp","","","img/orange_2bandit_b.png","70","img/orange_2bandit_b.png","70","test","","","","","","","","","","","1","","","","","","","","",""
"null","244099","SARL_v6","SARL_v6ol938fde","6074b929f753216d88c77e88","fixation","","","img/fixation.png","null","","","test","","","","","","","","","","","","","","","","","","","",""
"452.79999999701977","244554","SARL_v6","SARL_v6ol938fde","6074b929f753216d88c77e88","freq","","","img/orange_2bandit_b2.png","70","","70","test","1","","4","","","","circle","square","4","4","1","0.75","","","","","","","",""
"null","244915","SARL_v6","SARL_v6ol938fde","6074b929f753216d88c77e88","freq_resp","","","img/orange_2bandit_b.png","70","img/orange_2bandit_b.png","70","test","","","","","","","","","","","1","","","","","","","","",""
"null","245071","SARL_v6","SARL_v6ol938fde","6074b929f753216d88c77e88","fixation","","","img/fixation.png","null","","","test","","","","","","","","","","","","","","","","","","","",""
"380.79999999701977","245454","SARL_v6","SARL_v6ol938fde","6074b929f753216d88c77e88","freq","","","img/orange_2bandit_b2.png","70","","70","test","1","","5","","","","circle","square","5","5","1","0.8","","","","","","","",""
"null","245888","SARL_v6","SARL_v6ol938fde","6074b929f753216d88c77e88","freq_resp","","","img/orange_2bandit_b.png","70","img/orange_2bandit_b.png","70","test","","","","","","","","","","","1","","","","","","","","",""
"null","246044","SARL_v6","SARL_v6ol938fde","6074b929f753216d88c77e88","fixation","","","img/fixation.png","null","","","test","","","","","","","","","","","","","","","","","","","",""
"566.2999999970198","246612","SARL_v6","SARL_v6ol938fde","6074b929f753216d88c77e88","infreq","","","img/blue_2bandit_b2.png","68","","68","test","1","","6","","","","circle","square","6","6","1","0.8333333333333334","","","","","","","",""
"null","246859","SARL_v6","SARL_v6ol938fde","6074b929f753216d88c77e88","infreq_resp","","","img/blue_2bandit_b.png","68","img/blue_2bandit_b.png","68","test","","","","","","","","","","","1","","","","","","","","",""
"null","247015","SARL_v6","SARL_v6ol938fde","6074b929f753216d88c77e88","fixation","","","img/fixation.png","null","","","test","","","","","","","","","","","","","","","","","","","",""
"411.1000000014901","247428","SARL_v6","SARL_v6ol938fde","6074b929f753216d88c77e88","freq","","","img/orange_2bandit_b2.png","70","","70","test","1","","7","","","","circle","square","7","7","1","0.8571428571428571","","","","","","","",""
"null","247828","SARL_v6","SARL_v6ol938fde","6074b929f753216d88c77e88","freq_resp","","","img/orange_2bandit_b.png","70","img/orange_2bandit_b.png","70","test","","","","","","","","","","","1","","","","","","","","",""
"null","247987","SARL_v6","SARL_v6ol938fde","6074b929f753216d88c77e88","fixation","","","img/fixation.png","null","","","test","","","","","","","","","","","","","","","","","","","",""
"null","248803","SARL_v6","SARL_v6ol938fde","6074b929f753216d88c77e88","freq","","","img/orange_2bandit_b2.png","null","","70","test","0","","8","","","","circle","square","8","8","1","0.75","","","","","","","",""
"null","248960","SARL_v6","SARL_v6ol938fde","6074b929f753216d88c77e88","fixation","","","img/fixation.png","null","","","test","","","","","","","","","","","","","","","","","","","",""
"483.20000000298023","249445","SARL_v6","SARL_v6ol938fde","6074b929f753216d88c77e88","freq","","","img/orange_2bandit_b2.png","70","","70","test","1","","9","","","","circle","square","9","9","1","0.7777777777777778","","","","","","","",""
"null","249776","SARL_v6","SARL_v6ol938fde","6074b929f753216d88c77e88","freq_resp","","","img/orange_2bandit_b.png","70","img/orange_2bandit_b.png","70","test","","","","","","","","","","","1","","","","","","","","",""
"null","249934","SARL_v6","SARL_v6ol938fde","6074b929f753216d88c77e88","fixation","","","img/fixation.png","null","","","test","","","","","","","","","","","","","","","","","","","",""
"408.19999999552965","250344","SARL_v6","SARL_v6ol938fde","6074b929f753216d88c77e88","freq","","","img/orange_2bandit_b2.png","70","","70","test","1","","10","","","","circle","square","10","10","1","0.8","","","","","","","",""
"null","250752","SARL_v6","SARL_v6ol938fde","6074b929f753216d88c77e88","freq_resp","","","img/orange_2bandit_b.png","70","img/orange_2bandit_b.png","70","test","","","","","","","","","","","1","","","","","","","","",""
"null","250908","SARL_v6","SARL_v6ol938fde","6074b929f753216d88c77e88","fixation","","","img/fixation.png","null","","","test","","","","","","","","","","","","","","","","","","","",""
"420.80000000447035","251331","SARL_v6","SARL_v6ol938fde","6074b929f753216d88c77e88","freq","","","img/orange_2bandit_b2.png","70","","70","test","1","","11","","","","circle","square","11","11","1","0.8181818181818182","","","","","","","",""
"null","251718","SARL_v6","SARL_v6ol938fde","6074b929f753216d88c77e88","freq_resp","","","img/orange_2bandit_b.png","70","img/orange_2bandit_b.png","70","test","","","","","","","","","","","1","","","","","","","","",""
"null","251873","SARL_v6","SARL_v6ol938fde","6074b929f753216d88c77e88","fixation","","","img/fixation.png","null","","","test","","","","","","","","","","","","","","","","","","","",""
"421.30000000447035","252296","SARL_v6","SARL_v6ol938fde","6074b929f753216d88c77e88","freq","","","img/orange_2bandit_b2.png","70","","70","test","1","","12","","","","circle","square","12","12","1","0.8333333333333334","","","","","","","",""
"null","252686","SARL_v6","SARL_v6ol938fde","6074b929f753216d88c77e88","freq_resp","","","img/orange_2bandit_b.png","70","img/orange_2bandit_b.png","70","test","","","","","","","","","","","1","","","","","","","","",""
"null","252842","SARL_v6","SARL_v6ol938fde","6074b929f753216d88c77e88","fixation","","","img/fixation.png","null","","","test","","","","","","","","","","","","","","","","","","","",""
"438.6000000014901","253282","SARL_v6","SARL_v6ol938fde","6074b929f753216d88c77e88","freq","","","img/orange_2bandit_b2.png","70","","70","test","1","","13","","","","circle","square","13","13","1","0.8461538461538461","","","","","","","",""
"null","253655","SARL_v6","SARL_v6ol938fde","6074b929f753216d88c77e88","freq_resp","","","img/orange_2bandit_b.png","70","img/orange_2bandit_b.png","70","test","","","","","","","","","","","1","","","","","","","","",""
"null","253813","SARL_v6","SARL_v6ol938fde","6074b929f753216d88c77e88","fixation","","","img/fixation.png","null","","","test","","","","","","","","","","","","","","","","","","","",""
"410.8999999985099","254225","SARL_v6","SARL_v6ol938fde","6074b929f753216d88c77e88","freq","","","img/orange_2bandit_b2.png","70","","70","test","1","","14","","","","circle","square","14","14","1","0.8571428571428571","","","","","","","",""
"null","254626","SARL_v6","SARL_v6ol938fde","6074b929f753216d88c77e88","freq_resp","","","img/orange_2bandit_b.png","70","img/orange_2bandit_b.png","70","test","","","","","","","","","","","1","","","","","","","","",""
"null","254783","SARL_v6","SARL_v6ol938fde","6074b929f753216d88c77e88","fixation","","","img/fixation.png","null","","","test","","","","","","","","","","","","","","","","","","","",""
"405.5","255190","SARL_v6","SARL_v6ol938fde","6074b929f753216d88c77e88","freq","","","img/orange_2bandit_b2.png","70","","70","test","1","","15","","","","circle","square","15","15","1","0.8666666666666667","","","","","","","",""
"null","255587","SARL_v6","SARL_v6ol938fde","6074b929f753216d88c77e88","freq_resp","","","img/orange_2bandit_b.png","70","img/orange_2bandit_b.png","70","test","","","","","","","","","","","1","","","","","","","","",""
"null","255744","SARL_v6","SARL_v6ol938fde","6074b929f753216d88c77e88","fixation","","","img/fixation.png","null","","","test","","","","","","","","","","","","","","","","","","","",""
"388.59999999403954","256135","SARL_v6","SARL_v6ol938fde","6074b929f753216d88c77e88","freq","","","img/orange_2bandit_b2.png","70","","70","test","1","","16","","","","circle","square","16","16","1","0.875","","","","","","","",""
"null","256559","SARL_v6","SARL_v6ol938fde","6074b929f753216d88c77e88","freq_resp","","","img/orange_2bandit_b.png","70","img/orange_2bandit_b.png","70","test","","","","","","","","","","","1","","","","","","","","",""
"null","256717","SARL_v6","SARL_v6ol938fde","6074b929f753216d88c77e88","fixation","","","img/fixation.png","null","","","test","","","","","","","","","","","","","","","","","","","",""
"402.5","257121","SARL_v6","SARL_v6ol938fde","6074b929f753216d88c77e88","freq","","","img/orange_2bandit_b2.png","70","","70","test","1","","17","","","","circle","square","17","17","1","0.8823529411764706","","","","","","","",""
"null","257534","SARL_v6","SARL_v6ol938fde","6074b929f753216d88c77e88","freq_resp","","","img/orange_2bandit_b.png","70","img/orange_2bandit_b.png","70","test","","","","","","","","","","","1","","","","","","","","",""
"null","257689","SARL_v6","SARL_v6ol938fde","6074b929f753216d88c77e88","fixation","","","img/fixation.png","null","","","test","","","","","","","","","","","","","","","","","","","",""
"351.19999999552965","258042","SARL_v6","SARL_v6ol938fde","6074b929f753216d88c77e88","freq","","","img/orange_2bandit_b2.png","70","","70","test","1","","18","","","","circle","square","18","18","1","0.8888888888888888","","","","","","","",""
"null","258506","SARL_v6","SARL_v6ol938fde","6074b929f753216d88c77e88","freq_resp","","","img/orange_2bandit_b.png","70","img/orange_2bandit_b.png","70","test","","","","","","","","","","","1","","","","","","","","",""
"null","258663","SARL_v6","SARL_v6ol938fde","6074b929f753216d88c77e88","fixation","","","img/fixation.png","null","","","test","","","","","","","","","","","","","","","","","","","",""
"471.40000000596046","259137","SARL_v6","SARL_v6ol938fde","6074b929f753216d88c77e88","infreq","","","img/blue_2bandit_b2.png","68","","68","test","1","","19","","","","circle","square","19","19","1","0.8947368421052632","","","","","","","",""
"null","259479","SARL_v6","SARL_v6ol938fde","6074b929f753216d88c77e88","infreq_resp","","","img/blue_2bandit_b.png","68","img/blue_2bandit_b.png","68","test","","","","","","","","","","","1","","","","","","","","",""
"null","259636","SARL_v6","SARL_v6ol938fde","6074b929f753216d88c77e88","fixation","","","img/fixation.png","null","","","test","","","","","","","","","","","","","","","","","","","",""
"551.1999999955297","260190","SARL_v6","SARL_v6ol938fde","6074b929f753216d88c77e88","freq","","","img/orange_2bandit_b2.png","70","","70","test","1","","20","","","","circle","square","20","20","1","0.9","","","","","","","",""
"null","260452","SARL_v6","SARL_v6ol938fde","6074b929f753216d88c77e88","freq_resp","","","img/orange_2bandit_b.png","70","img/orange_2bandit_b.png","70","test","","","","","","","","","","","1","","","","","","","","",""
"null","260606","SARL_v6","SARL_v6ol938fde","6074b929f753216d88c77e88","fixation","","","img/fixation.png","null","","","test","","","","","","","","","","","","","","","","","","","",""
"525.6999999955297","261133","SARL_v6","SARL_v6ol938fde","6074b929f753216d88c77e88","freq","","","img/orange_2bandit_b2.png","70","","70","test","1","","21","","","","circle","square","21","21","1","0.9047619047619048","","","","","","","",""
"null","261411","SARL_v6","SARL_v6ol938fde","6074b929f753216d88c77e88","freq_resp","","","img/orange_2bandit_b.png","70","img/orange_2bandit_b.png","70","test","","","","","","","","","","","1","","","","","","","","",""
"null","261567","SARL_v6","SARL_v6ol938fde","6074b929f753216d88c77e88","fixation","","","img/fixation.png","null","","","test","","","","","","","","","","","","","","","","","","","",""
"486.3999999985099","262055","SARL_v6","SARL_v6ol938fde","6074b929f753216d88c77e88","freq","","","img/orange_2bandit_b2.png","70","","70","test","1","","22","","","","circle","square","22","22","1","0.9090909090909091","","","","","","","",""
"null","262383","SARL_v6","SARL_v6ol938fde","6074b929f753216d88c77e88","freq_resp","","","img/orange_2bandit_b.png","70","img/orange_2bandit_b.png","70","test","","","","","","","","","","","1","","","","","","","","",""
"null","262539","SARL_v6","SARL_v6ol938fde","6074b929f753216d88c77e88","fixation","","","img/fixation.png","null","","","test","","","","","","","","","","","","","","","","","","","",""
"435.29999999701977","262976","SARL_v6","SARL_v6ol938fde","6074b929f753216d88c77e88","freq","","","img/orange_2bandit_b2.png","70","","70","test","1","","23","","","","circle","square","23","23","1","0.9130434782608695","","","","","","","",""
"null","263356","SARL_v6","SARL_v6ol938fde","6074b929f753216d88c77e88","freq_resp","","","img/orange_2bandit_b.png","70","img/orange_2bandit_b.png","70","test","","","","","","","","","","","1","","","","","","","","",""
"null","263512","SARL_v6","SARL_v6ol938fde","6074b929f753216d88c77e88","fixation","","","img/fixation.png","null","","","test","","","","","","","","","","","","","","","","","","","",""
"384.1000000014901","263898","SARL_v6","SARL_v6ol938fde","6074b929f753216d88c77e88","freq","","","img/orange_2bandit_b2.png","70","","70","test","1","","24","","","","circle","square","24","24","1","0.9166666666666666","","","","","","","",""
"null","264329","SARL_v6","SARL_v6ol938fde","6074b929f753216d88c77e88","freq_resp","","","img/orange_2bandit_b.png","70","img/orange_2bandit_b.png","70","test","","","","","","","","","","","1","","","","","","","","",""
"null","264486","SARL_v6","SARL_v6ol938fde","6074b929f753216d88c77e88","fixation","","","img/fixation.png","null","","","test","","","","","","","","","","","","","","","","","","","",""
"354","264842","SARL_v6","SARL_v6ol938fde","6074b929f753216d88c77e88","freq","","","img/orange_2bandit_b2.png","70","","70","test","1","","25","","","","circle","square","25","25","1","0.92","","","","","","","",""
"null","265300","SARL_v6","SARL_v6ol938fde","6074b929f753216d88c77e88","freq_resp","","","img/orange_2bandit_b.png","70","img/orange_2bandit_b.png","70","test","","","","","","","","","","","1","","","","","","","","",""
"null","265457","SARL_v6","SARL_v6ol938fde","6074b929f753216d88c77e88","fixation","","","img/fixation.png","null","","","test","","","","","","","","","","","","","","","","","","","",""
"348.30000000447035","265807","SARL_v6","SARL_v6ol938fde","6074b929f753216d88c77e88","freq","","","img/orange_2bandit_b2.png","70","","70","test","1","","26","","","","circle","square","26","26","1","0.9230769230769231","","","","","","","",""
"null","266270","SARL_v6","SARL_v6ol938fde","6074b929f753216d88c77e88","freq_resp","","","img/orange_2bandit_b.png","70","img/orange_2bandit_b.png","70","test","","","","","","","","","","","1","","","","","","","","",""
"null","266428","SARL_v6","SARL_v6ol938fde","6074b929f753216d88c77e88","fixation","","","img/fixation.png","null","","","test","","","","","","","","","","","","","","","","","","","",""
"831.8999999985099","267262","SARL_v6","SARL_v6ol938fde","6074b929f753216d88c77e88","rl","","","img/black_2bandit_b2.png","74","","0","test","","","27","","","-3","circle","square","","0","1","","74","-3","-3","-3","-3","circle","1","0"
"null","268028","SARL_v6","SARL_v6ol938fde","6074b929f753216d88c77e88","feedback","","","<div class=""verylowPoints""> -3 </div>","null","","na","test","","","NaN","","","","","","","","1","","74","","","","","","1",""
"null","268832","SARL_v6","SARL_v6ol938fde","6074b929f753216d88c77e88","freq","","","img/orange_2bandit_b2.png","null","","70","test","0","","28","","","","circle","square","27","1","2","0.8888888888888888","","","","","","","",""
"null","268987","SARL_v6","SARL_v6ol938fde","6074b929f753216d88c77e88","fixation","","","img/fixation.png","null","","","test","","","","","","","","","","","","","","","","","","","",""
"590.5","269579","SARL_v6","SARL_v6ol938fde","6074b929f753216d88c77e88","freq","","","img/orange_2bandit_b2.png","70","","70","test","1","","29","","","","circle","square","28","2","2","0.8928571428571429","","","","","","","",""
"null","269804","SARL_v6","SARL_v6ol938fde","6074b929f753216d88c77e88","freq_resp","","","img/orange_2bandit_b.png","70","img/orange_2bandit_b.png","70","test","","","","","","","","","","","2","","","","","","","","",""
"null","269959","SARL_v6","SARL_v6ol938fde","6074b929f753216d88c77e88","fixation","","","img/fixation.png","null","","","test","","","","","","","","","","","","","","","","","","","",""
"431.70000000298023","270392","SARL_v6","SARL_v6ol938fde","6074b929f753216d88c77e88","freq","","","img/orange_2bandit_b2.png","70","","70","test","1","","30","","","","circle","square","29","3","2","0.896551724137931","","","","","","","",""
"null","270772","SARL_v6","SARL_v6ol938fde","6074b929f753216d88c77e88","freq_resp","","","img/orange_2bandit_b.png","70","img/orange_2bandit_b.png","70","test","","","","","","","","","","","2","","","","","","","","",""
"null","270928","SARL_v6","SARL_v6ol938fde","6074b929f753216d88c77e88","fixation","","","img/fixation.png","null","","","test","","","","","","","","","","","","","","","","","","","",""
"406.5","271336","SARL_v6","SARL_v6ol938fde","6074b929f753216d88c77e88","freq","","","img/orange_2bandit_b2.png","70","","70","test","1","","31","","","","circle","square","30","4","2","0.9","","","","","","","",""
"null","271741","SARL_v6","SARL_v6ol938fde","6074b929f753216d88c77e88","freq_resp","","","img/orange_2bandit_b.png","70","img/orange_2bandit_b.png","70","test","","","","","","","","","","","2","","","","","","","","",""
"null","271896","SARL_v6","SARL_v6ol938fde","6074b929f753216d88c77e88","fixation","","","img/fixation.png","null","","","test","","","","","","","","","","","","","","","","","","","",""
"403.8999999985099","272302","SARL_v6","SARL_v6ol938fde","6074b929f753216d88c77e88","freq","","","img/orange_2bandit_b2.png","70","","70","test","1","","32","","","","circle","square","31","5","2","0.9032258064516129","","","","","","","",""
"null","272709","SARL_v6","SARL_v6ol938fde","6074b929f753216d88c77e88","freq_resp","","","img/orange_2bandit_b.png","70","img/orange_2bandit_b.png","70","test","","","","","","","","","","","2","","","","","","","","",""
"null","272866","SARL_v6","SARL_v6ol938fde","6074b929f753216d88c77e88","fixation","","","img/fixation.png","null","","","test","","","","","","","","","","","","","","","","","","","",""
"354.8999999985099","273222","SARL_v6","SARL_v6ol938fde","6074b929f753216d88c77e88","freq","","","img/orange_2bandit_b2.png","70","","70","test","1","","33","","","","circle","square","32","6","2","0.90625","","","","","","","",""
"null","273677","SARL_v6","SARL_v6ol938fde","6074b929f753216d88c77e88","freq_resp","","","img/orange_2bandit_b.png","70","img/orange_2bandit_b.png","70","test","","","","","","","","","","","2","","","","","","","","",""
"null","273833","SARL_v6","SARL_v6ol938fde","6074b929f753216d88c77e88","fixation","","","img/fixation.png","null","","","test","","","","","","","","","","","","","","","","","","","",""
"396.29999999701977","274231","SARL_v6","SARL_v6ol938fde","6074b929f753216d88c77e88","freq","","","img/orange_2bandit_b2.png","70","","70","test","1","","34","","","","circle","square","33","7","2","0.9090909090909091","","","","","","","",""
"null","274646","SARL_v6","SARL_v6ol938fde","6074b929f753216d88c77e88","freq_resp","","","img/orange_2bandit_b.png","70","img/orange_2bandit_b.png","70","test","","","","","","","","","","","2","","","","","","","","",""
"null","274802","SARL_v6","SARL_v6ol938fde","6074b929f753216d88c77e88","fixation","","","img/fixation.png","null","","","test","","","","","","","","","","","","","","","","","","","",""
"435.79999999701977","275240","SARL_v6","SARL_v6ol938fde","6074b929f753216d88c77e88","freq","","","img/orange_2bandit_b2.png","70","","70","test","1","","35","","","","circle","square","34","8","2","0.9117647058823529","","","","","","","",""
"null","275614","SARL_v6","SARL_v6ol938fde","6074b929f753216d88c77e88","freq_resp","","","img/orange_2bandit_b.png","70","img/orange_2bandit_b.png","70","test","","","","","","","","","","","2","","","","","","","","",""
"null","275771","SARL_v6","SARL_v6ol938fde","6074b929f753216d88c77e88","fixation","","","img/fixation.png","null","","","test","","","","","","","","","","","","","","","","","","","",""
"429.5","276202","SARL_v6","SARL_v6ol938fde","6074b929f753216d88c77e88","infreq","","","img/blue_2bandit_b2.png","68","","68","test","1","","36","","","","circle","square","35","9","2","0.9142857142857143","","","","","","","",""
"null","276582","SARL_v6","SARL_v6ol938fde","6074b929f753216d88c77e88","infreq_resp","","","img/blue_2bandit_b.png","68","img/blue_2bandit_b.png","68","test","","","","","","","","","","","2","","","","","","","","",""
"null","276738","SARL_v6","SARL_v6ol938fde","6074b929f753216d88c77e88","fixation","","","img/fixation.png","null","","","test","","","","","","","","","","","","","","","","","","","",""
"538.1999999955297","277278","SARL_v6","SARL_v6ol938fde","6074b929f753216d88c77e88","freq","","","img/orange_2bandit_b2.png","70","","70","test","1","","37","","","","circle","square","36","10","2","0.9166666666666666","","","","","","","",""
"null","277554","SARL_v6","SARL_v6ol938fde","6074b929f753216d88c77e88","freq_resp","","","img/orange_2bandit_b.png","70","img/orange_2bandit_b.png","70","test","","","","","","","","","","","2","","","","","","","","",""
"null","277709","SARL_v6","SARL_v6ol938fde","6074b929f753216d88c77e88","fixation","","","img/fixation.png","null","","","test","","","","","","","","","","","","","","","","","","","",""
"511","278222","SARL_v6","SARL_v6ol938fde","6074b929f753216d88c77e88","freq","","","img/orange_2bandit_b2.png","70","","70","test","1","","38","","","","circle","square","37","11","2","0.918918918918919","","","","","","","",""
"null","278520","SARL_v6","SARL_v6ol938fde","6074b929f753216d88c77e88","freq_resp","","","img/orange_2bandit_b.png","70","img/orange_2bandit_b.png","70","test","","","","","","","","","","","2","","","","","","","","",""
"null","278675","SARL_v6","SARL_v6ol938fde","6074b929f753216d88c77e88","fixation","","","img/fixation.png","null","","","test","","","","","","","","","","","","","","","","","","","",""
"380.19999999552965","279057","SARL_v6","SARL_v6ol938fde","6074b929f753216d88c77e88","freq","","","img/orange_2bandit_b2.png","70","","70","test","1","","39","","","","circle","square","38","12","2","0.9210526315789473","","","","","","","",""
"null","279489","SARL_v6","SARL_v6ol938fde","6074b929f753216d88c77e88","freq_resp","","","img/orange_2bandit_b.png","70","img/orange_2bandit_b.png","70","test","","","","","","","","","","","2","","","","","","","","",""
"null","279646","SARL_v6","SARL_v6ol938fde","6074b929f753216d88c77e88","fixation","","","img/fixation.png","null","","","test","","","","","","","","","","","","","","","","","","","",""
"548.8999999985099","280196","SARL_v6","SARL_v6ol938fde","6074b929f753216d88c77e88","freq","","","img/orange_2bandit_b2.png","70","","70","test","1","","40","","","","circle","square","39","13","2","0.9230769230769231","","","","","","","",""
"null","280459","SARL_v6","SARL_v6ol938fde","6074b929f753216d88c77e88","freq_resp","","","img/orange_2bandit_b.png","70","img/orange_2bandit_b.png","70","test","","","","","","","","","","","2","","","","","","","","",""
"null","280614","SARL_v6","SARL_v6ol938fde","6074b929f753216d88c77e88","fixation","","","img/fixation.png","null","","","test","","","","","","","","","","","","","","","","","","","",""
"436.6000000014901","281052","SARL_v6","SARL_v6ol938fde","6074b929f753216d88c77e88","freq","","","img/orange_2bandit_b2.png","70","","70","test","1","","41","","","","circle","square","40","14","2","0.925","","","","","","","",""
"null","281429","SARL_v6","SARL_v6ol938fde","6074b929f753216d88c77e88","freq_resp","","","img/orange_2bandit_b.png","70","img/orange_2bandit_b.png","70","test","","","","","","","","","","","2","","","","","","","","",""
"null","281583","SARL_v6","SARL_v6ol938fde","6074b929f753216d88c77e88","fixation","","","img/fixation.png","null","","","test","","","","","","","","","","","","","","","","","","","",""
"475.19999999552965","282060","SARL_v6","SARL_v6ol938fde","6074b929f753216d88c77e88","freq","","","img/orange_2bandit_b2.png","70","","70","test","1","","42","","","","circle","square","41","15","2","0.926829268292683","","","","","","","",""
"null","282395","SARL_v6","SARL_v6ol938fde","6074b929f753216d88c77e88","freq_resp","","","img/orange_2bandit_b.png","70","img/orange_2bandit_b.png","70","test","","","","","","","","","","","2","","","","","","","","",""
"null","282552","SARL_v6","SARL_v6ol938fde","6074b929f753216d88c77e88","fixation","","","img/fixation.png","null","","","test","","","","","","","","","","","","","","","","","","","",""
"385.8999999985099","282940","SARL_v6","SARL_v6ol938fde","6074b929f753216d88c77e88","freq","","","img/orange_2bandit_b2.png","70","","70","test","1","","43","","","","circle","square","42","16","2","0.9285714285714286","","","","","","","",""
"null","283364","SARL_v6","SARL_v6ol938fde","6074b929f753216d88c77e88","freq_resp","","","img/orange_2bandit_b.png","70","img/orange_2bandit_b.png","70","test","","","","","","","","","","","2","","","","","","","","",""
"null","283519","SARL_v6","SARL_v6ol938fde","6074b929f753216d88c77e88","fixation","","","img/fixation.png","null","","","test","","","","","","","","","","","","","","","","","","","",""
"447","283968","SARL_v6","SARL_v6ol938fde","6074b929f753216d88c77e88","infreq","","","img/blue_2bandit_b2.png","68","","68","test","1","","44","","","","circle","square","43","17","2","0.9302325581395349","","","","","","","",""
"null","284330","SARL_v6","SARL_v6ol938fde","6074b929f753216d88c77e88","infreq_resp","","","img/blue_2bandit_b.png","68","img/blue_2bandit_b.png","68","test","","","","","","","","","","","2","","","","","","","","",""
"null","284487","SARL_v6","SARL_v6ol938fde","6074b929f753216d88c77e88","fixation","","","img/fixation.png","null","","","test","","","","","","","","","","","","","","","","","","","",""
"509.69999999552965","284998","SARL_v6","SARL_v6ol938fde","6074b929f753216d88c77e88","infreq","","","img/blue_2bandit_b2.png","68","","68","test","1","","45","","","","circle","square","44","18","2","0.9318181818181818","","","","","","","",""
"null","285298","SARL_v6","SARL_v6ol938fde","6074b929f753216d88c77e88","infreq_resp","","","img/blue_2bandit_b.png","68","img/blue_2bandit_b.png","68","test","","","","","","","","","","","2","","","","","","","","",""
"null","285456","SARL_v6","SARL_v6ol938fde","6074b929f753216d88c77e88","fixation","","","img/fixation.png","null","","","test","","","","","","","","","","","","","","","","","","","",""
"572.2000000029802","286030","SARL_v6","SARL_v6ol938fde","6074b929f753216d88c77e88","freq","","","img/orange_2bandit_b2.png","70","","70","test","1","","46","","","","circle","square","45","19","2","0.9333333333333333","","","","","","","",""
"null","286269","SARL_v6","SARL_v6ol938fde","6074b929f753216d88c77e88","freq_resp","","","img/orange_2bandit_b.png","70","img/orange_2bandit_b.png","70","test","","","","","","","","","","","2","","","","","","","","",""
"null","286425","SARL_v6","SARL_v6ol938fde","6074b929f753216d88c77e88","fixation","","","img/fixation.png","null","","","test","","","","","","","","","","","","","","","","","","","",""
"null","287240","SARL_v6","SARL_v6ol938fde","6074b929f753216d88c77e88","freq","","","img/orange_2bandit_b2.png","null","","70","test","0","","47","","","","circle","square","46","20","2","0.9130434782608695","","","","","","","",""
"null","287395","SARL_v6","SARL_v6ol938fde","6074b929f753216d88c77e88","fixation","","","img/fixation.png","null","","","test","","","","","","","","","","","","","","","","","","","",""
"433.09999999403954","287830","SARL_v6","SARL_v6ol938fde","6074b929f753216d88c77e88","freq","","","img/orange_2bandit_b2.png","70","","70","test","1","","48","","","","circle","square","47","21","2","0.9148936170212766","","","","","","","",""
"null","288208","SARL_v6","SARL_v6ol938fde","6074b929f753216d88c77e88","freq_resp","","","img/orange_2bandit_b.png","70","img/orange_2bandit_b.png","70","test","","","","","","","","","","","2","","","","","","","","",""
"null","288364","SARL_v6","SARL_v6ol938fde","6074b929f753216d88c77e88","fixation","","","img/fixation.png","null","","","test","","","","","","","","","","","","","","","","","","","",""
"759.5","289125","SARL_v6","SARL_v6ol938fde","6074b929f753216d88c77e88","rl","","","img/black_2bandit_b2.png","74","","0","test","","","49","","","-8","circle","square","","0","2","","74","-8","-5","-8","-5","circle","2","0"
"null","289888","SARL_v6","SARL_v6ol938fde","6074b929f753216d88c77e88","feedback","","","<div class=""verylowPoints""> -8 </div>","null","","na","test","","","NaN","","","","","","","","2","","74","","","","","","2",""
"null","290690","SARL_v6","SARL_v6ol938fde","6074b929f753216d88c77e88","freq","","","img/orange_2bandit_b2.png","null","","70","test","0","","50","","","","circle","square","48","1","3","0.8958333333333334","","","","","","","",""
"null","290847","SARL_v6","SARL_v6ol938fde","6074b929f753216d88c77e88","fixation","","","img/fixation.png","null","","","test","","","","","","","","","","","","","","","","","","","",""
"767.6999999955297","291616","SARL_v6","SARL_v6ol938fde","6074b929f753216d88c77e88","freq","","","img/orange_2bandit_b2.png","70","","70","test","1","","51","","","","circle","square","49","2","3","0.8979591836734694","","","","","","","",""
"null","291651","SARL_v6","SARL_v6ol938fde","6074b929f753216d88c77e88","freq_resp","","","img/orange_2bandit_b.png","70","img/orange_2bandit_b.png","70","test","","","","","","","","","","","3","","","","","","","","",""
"null","291815","SARL_v6","SARL_v6ol938fde","6074b929f753216d88c77e88","fixation","","","img/fixation.png","null","","","test","","","","","","","","","","","","","","","","","","","",""
"460.29999999701977","292277","SARL_v6","SARL_v6ol938fde","6074b929f753216d88c77e88","freq","","","img/orange_2bandit_b2.png","70","","70","test","1","","52","","","","circle","square","50","3","3","0.9","","","","","","","",""
"null","292628","SARL_v6","SARL_v6ol938fde","6074b929f753216d88c77e88","freq_resp","","","img/orange_2bandit_b.png","70","img/orange_2bandit_b.png","70","test","","","","","","","","","","","3","","","","","","","","",""
"null","292784","SARL_v6","SARL_v6ol938fde","6074b929f753216d88c77e88","fixation","","","img/fixation.png","null","","","test","","","","","","","","","","","","","","","","","","","",""
"391.5","293177","SARL_v6","SARL_v6ol938fde","6074b929f753216d88c77e88","freq","","","img/orange_2bandit_b2.png","70","","70","test","1","","53","","","","circle","square","51","4","3","0.9019607843137255","","","","","","","",""
"null","293596","SARL_v6","SARL_v6ol938fde","6074b929f753216d88c77e88","freq_resp","","","img/orange_2bandit_b.png","70","img/orange_2bandit_b.png","70","test","","","","","","","","","","","3","","","","","","","","",""
"null","293754","SARL_v6","SARL_v6ol938fde","6074b929f753216d88c77e88","fixation","","","img/fixation.png","null","","","test","","","","","","","","","","","","","","","","","","","",""
"409.3999999985099","294164","SARL_v6","SARL_v6ol938fde","6074b929f753216d88c77e88","freq","","","img/orange_2bandit_b2.png","70","","70","test","1","","54","","","","circle","square","52","5","3","0.9038461538461539","","","","","","","",""
"null","294564","SARL_v6","SARL_v6ol938fde","6074b929f753216d88c77e88","freq_resp","","","img/orange_2bandit_b.png","70","img/orange_2bandit_b.png","70","test","","","","","","","","","","","3","","","","","","","","",""
"null","294720","SARL_v6","SARL_v6ol938fde","6074b929f753216d88c77e88","fixation","","","img/fixation.png","null","","","test","","","","","","","","","","","","","","","","","","","",""
"341.79999999701977","295063","SARL_v6","SARL_v6ol938fde","6074b929f753216d88c77e88","freq","","","img/orange_2bandit_b2.png","70","","70","test","1","","55","","","","circle","square","53","6","3","0.9056603773584906","","","","","","","",""
"null","295532","SARL_v6","SARL_v6ol938fde","6074b929f753216d88c77e88","freq_resp","","","img/orange_2bandit_b.png","70","img/orange_2bandit_b.png","70","test","","","","","","","","","","","3","","","","","","","","",""
"null","295687","SARL_v6","SARL_v6ol938fde","6074b929f753216d88c77e88","fixation","","","img/fixation.png","null","","","test","","","","","","","","","","","","","","","","","","","",""
"361.19999999552965","296050","SARL_v6","SARL_v6ol938fde","6074b929f753216d88c77e88","freq","","","img/orange_2bandit_b2.png","70","","70","test","1","","56","","","","circle","square","54","7","3","0.9074074074074074","","","","","","","",""
"null","296502","SARL_v6","SARL_v6ol938fde","6074b929f753216d88c77e88","freq_resp","","","img/orange_2bandit_b.png","70","img/orange_2bandit_b.png","70","test","","","","","","","","","","","3","","","","","","","","",""
"null","296659","SARL_v6","SARL_v6ol938fde","6074b929f753216d88c77e88","fixation","","","img/fixation.png","null","","","test","","","","","","","","","","","","","","","","","","","",""
"376.29999999701977","297037","SARL_v6","SARL_v6ol938fde","6074b929f753216d88c77e88","freq","","","img/orange_2bandit_b2.png","70","","70","test","1","","57","","","","circle","square","55","8","3","0.9090909090909091","","","","","","","",""
"null","297473","SARL_v6","SARL_v6ol938fde","6074b929f753216d88c77e88","freq_resp","","","img/orange_2bandit_b.png","70","img/orange_2bandit_b.png","70","test","","","","","","","","","","","3","","","","","","","","",""
"null","297630","SARL_v6","SARL_v6ol938fde","6074b929f753216d88c77e88","fixation","","","img/fixation.png","null","","","test","","","","","","","","","","","","","","","","","","","",""
"348.29999999701977","297980","SARL_v6","SARL_v6ol938fde","6074b929f753216d88c77e88","freq","","","img/orange_2bandit_b2.png","70","","70","test","1","","58","","","","circle","square","56","9","3","0.9107142857142857","","","","","","","",""
"null","298442","SARL_v6","SARL_v6ol938fde","6074b929f753216d88c77e88","freq_resp","","","img/orange_2bandit_b.png","70","img/orange_2bandit_b.png","70","test","","","","","","","","","","","3","","","","","","","","",""
"null","298597","SARL_v6","SARL_v6ol938fde","6074b929f753216d88c77e88","fixation","","","img/fixation.png","null","","","test","","","","","","","","","","","","","","","","","","","",""
"410.1000000014901","299009","SARL_v6","SARL_v6ol938fde","6074b929f753216d88c77e88","infreq","","","img/blue_2bandit_b2.png","68","","68","test","1","","59","","","","circle","square","57","10","3","0.9122807017543859","","","","","","","",""
"null","299410","SARL_v6","SARL_v6ol938fde","6074b929f753216d88c77e88","infreq_resp","","","img/blue_2bandit_b.png","68","img/blue_2bandit_b.png","68","test","","","","","","","","","","","3","","","","","","","","",""
"null","299566","SARL_v6","SARL_v6ol938fde","6074b929f753216d88c77e88","fixation","","","img/fixation.png","null","","","test","","","","","","","","","","","","","","","","","","","",""
"340.69999999552965","299908","SARL_v6","SARL_v6ol938fde","6074b929f753216d88c77e88","infreq","","","img/blue_2bandit_b2.png","68","","68","test","1","","60","","","","circle","square","58","11","3","0.9137931034482759","","","","","","","",""
"null","300383","SARL_v6","SARL_v6ol938fde","6074b929f753216d88c77e88","infreq_resp","","","img/blue_2bandit_b.png","68","img/blue_2bandit_b.png","68","test","","","","","","","","","","","3","","","","","","","","",""
"null","300539","SARL_v6","SARL_v6ol938fde","6074b929f753216d88c77e88","fixation","","","img/fixation.png","null","","","test","","","","","","","","","","","","","","","","","","","",""
"660.6999999955297","301201","SARL_v6","SARL_v6ol938fde","6074b929f753216d88c77e88","freq","","","img/orange_2bandit_b2.png","70","","70","test","1","","61","","","","circle","square","59","12","3","0.9152542372881356","","","","","","","",""
"null","301350","SARL_v6","SARL_v6ol938fde","6074b929f753216d88c77e88","freq_resp","","","img/orange_2bandit_b.png","70","img/orange_2bandit_b.png","70","test","","","","","","","","","","","3","","","","","","","","",""
"null","301505","SARL_v6","SARL_v6ol938fde","6074b929f753216d88c77e88","fixation","","","img/fixation.png","null","","","test","","","","","","","","","","","","","","","","","","","",""
"528.3999999985099","302036","SARL_v6","SARL_v6ol938fde","6074b929f753216d88c77e88","freq","","","img/orange_2bandit_b2.png","70","","70","test","1","","62","","","","circle","square","60","13","3","0.9166666666666666","","","","","","","",""
"null","302320","SARL_v6","SARL_v6ol938fde","6074b929f753216d88c77e88","freq_resp","","","img/orange_2bandit_b.png","70","img/orange_2bandit_b.png","70","test","","","","","","","","","","","3","","","","","","","","",""
"null","302478","SARL_v6","SARL_v6ol938fde","6074b929f753216d88c77e88","fixation","","","img/fixation.png","null","","","test","","","","","","","","","","","","","","","","","","","",""
"629.7999999970198","303109","SARL_v6","SARL_v6ol938fde","6074b929f753216d88c77e88","freq","","","img/orange_2bandit_b2.png","70","","70","test","1","","63","","","","circle","square","61","14","3","0.9180327868852459","","","","","","","",""
"null","303297","SARL_v6","SARL_v6ol938fde","6074b929f753216d88c77e88","freq_resp","","","img/orange_2bandit_b.png","70","img/orange_2bandit_b.png","70","test","","","","","","","","","","","3","","","","","","","","",""
"null","303453","SARL_v6","SARL_v6ol938fde","6074b929f753216d88c77e88","fixation","","","img/fixation.png","null","","","test","","","","","","","","","","","","","","","","","","","",""
"663.5","304119","SARL_v6","SARL_v6ol938fde","6074b929f753216d88c77e88","freq","","","img/orange_2bandit_b2.png","70","","70","test","1","","64","","","","circle","square","62","15","3","0.9193548387096774","","","","","","","",""
"null","304266","SARL_v6","SARL_v6ol938fde","6074b929f753216d88c77e88","freq_resp","","","img/orange_2bandit_b.png","70","img/orange_2bandit_b.png","70","test","","","","","","","","","","","3","","","","","","","","",""
"null","304422","SARL_v6","SARL_v6ol938fde","6074b929f753216d88c77e88","fixation","","","img/fixation.png","null","","","test","","","","","","","","","","","","","","","","","","","",""
"485.5","304909","SARL_v6","SARL_v6ol938fde","6074b929f753216d88c77e88","freq","","","img/orange_2bandit_b2.png","70","","70","test","1","","65","","","","circle","square","63","16","3","0.9206349206349206","","","","","","","",""
"null","305238","SARL_v6","SARL_v6ol938fde","6074b929f753216d88c77e88","freq_resp","","","img/orange_2bandit_b.png","70","img/orange_2bandit_b.png","70","test","","","","","","","","","","","3","","","","","","","","",""
"null","305393","SARL_v6","SARL_v6ol938fde","6074b929f753216d88c77e88","fixation","","","img/fixation.png","null","","","test","","","","","","","","","","","","","","","","","","","",""
"435.1000000014901","305830","SARL_v6","SARL_v6ol938fde","6074b929f753216d88c77e88","freq","","","img/orange_2bandit_b2.png","70","","70","test","1","","66","","","","circle","square","64","17","3","0.921875","","","","","","","",""
"null","306209","SARL_v6","SARL_v6ol938fde","6074b929f753216d88c77e88","freq_resp","","","img/orange_2bandit_b.png","70","img/orange_2bandit_b.png","70","test","","","","","","","","","","","3","","","","","","","","",""
"null","306364","SARL_v6","SARL_v6ol938fde","6074b929f753216d88c77e88","fixation","","","img/fixation.png","null","","","test","","","","","","","","","","","","","","","","","","","",""
"451.3999999985099","306818","SARL_v6","SARL_v6ol938fde","6074b929f753216d88c77e88","freq","","","img/orange_2bandit_b2.png","70","","70","test","1","","67","","","","circle","square","65","18","3","0.9230769230769231","","","","","","","",""
"null","307177","SARL_v6","SARL_v6ol938fde","6074b929f753216d88c77e88","freq_resp","","","img/orange_2bandit_b.png","70","img/orange_2bandit_b.png","70","test","","","","","","","","","","","3","","","","","","","","",""
"null","307333","SARL_v6","SARL_v6ol938fde","6074b929f753216d88c77e88","fixation","","","img/fixation.png","null","","","test","","","","","","","","","","","","","","","","","","","",""
"425.5","307760","SARL_v6","SARL_v6ol938fde","6074b929f753216d88c77e88","freq","","","img/orange_2bandit_b2.png","70","","70","test","1","","68","","","","circle","square","66","19","3","0.9242424242424242","","","","","","","",""
"null","308147","SARL_v6","SARL_v6ol938fde","6074b929f753216d88c77e88","freq_resp","","","img/orange_2bandit_b.png","70","img/orange_2bandit_b.png","70","test","","","","","","","","","","","3","","","","","","","","",""
"null","308302","SARL_v6","SARL_v6ol938fde","6074b929f753216d88c77e88","fixation","","","img/fixation.png","null","","","test","","","","","","","","","","","","","","","","","","","",""
"420.70000000298023","308724","SARL_v6","SARL_v6ol938fde","6074b929f753216d88c77e88","freq","","","img/orange_2bandit_b2.png","70","","70","test","1","","69","","","","circle","square","67","20","3","0.9253731343283582","","","","","","","",""
"null","309114","SARL_v6","SARL_v6ol938fde","6074b929f753216d88c77e88","freq_resp","","","img/orange_2bandit_b.png","70","img/orange_2bandit_b.png","70","test","","","","","","","","","","","3","","","","","","","","",""
"null","309271","SARL_v6","SARL_v6ol938fde","6074b929f753216d88c77e88","fixation","","","img/fixation.png","null","","","test","","","","","","","","","","","","","","","","","","","",""
"395.09999999403954","309668","SARL_v6","SARL_v6ol938fde","6074b929f753216d88c77e88","freq","","","img/orange_2bandit_b2.png","70","","70","test","1","","70","","","","circle","square","68","21","3","0.9264705882352942","","","","","","","",""
"null","310080","SARL_v6","SARL_v6ol938fde","6074b929f753216d88c77e88","freq_resp","","","img/orange_2bandit_b.png","70","img/orange_2bandit_b.png","70","test","","","","","","","","","","","3","","","","","","","","",""
"null","310238","SARL_v6","SARL_v6ol938fde","6074b929f753216d88c77e88","fixation","","","img/fixation.png","null","","","test","","","","","","","","","","","","","","","","","","","",""
"776.8999999985099","311016","SARL_v6","SARL_v6ol938fde","6074b929f753216d88c77e88","rl","","","img/black_2bandit_b2.png","75","","0","test","","","71","","","-4","circle","square","","0","3","","75","-8","-4","-8","-4","square","3","0"
"null","311772","SARL_v6","SARL_v6ol938fde","6074b929f753216d88c77e88","feedback","","","<div class=""verylowPoints_sq""> -4 </div>","null","","na","test","","","NaN","","","","","","","","3","","75","","","","","","3",""
"null","312574","SARL_v6","SARL_v6ol938fde","6074b929f753216d88c77e88","freq","","","img/orange_2bandit_b2.png","null","","70","test","0","","72","","","","circle","square","69","1","4","0.9130434782608695","","","","","","","",""
"null","312732","SARL_v6","SARL_v6ol938fde","6074b929f753216d88c77e88","fixation","","","img/fixation.png","null","","","test","","","","","","","","","","","","","","","","","","","",""
"null","313545","SARL_v6","SARL_v6ol938fde","6074b929f753216d88c77e88","freq","","","img/orange_2bandit_b2.png","null","","70","test","0","","73","","","","circle","square","70","2","4","0.9","","","","","","","",""
"null","313702","SARL_v6","SARL_v6ol938fde","6074b929f753216d88c77e88","fixation","","","img/fixation.png","null","","","test","","","","","","","","","","","","","","","","","","","",""
"419","314123","SARL_v6","SARL_v6ol938fde","6074b929f753216d88c77e88","freq","","","img/orange_2bandit_b2.png","70","","70","test","1","","74","","","","circle","square","71","3","4","0.9014084507042254","","","","","","","",""
"null","314521","SARL_v6","SARL_v6ol938fde","6074b929f753216d88c77e88","freq_resp","","","img/orange_2bandit_b.png","70","img/orange_2bandit_b.png","70","test","","","","","","","","","","","4","","","","","","","","",""
"null","314678","SARL_v6","SARL_v6ol938fde","6074b929f753216d88c77e88","fixation","","","img/fixation.png","null","","","test","","","","","","","","","","","","","","","","","","","",""
"495","315175","SARL_v6","SARL_v6ol938fde","6074b929f753216d88c77e88","freq","","","img/orange_2bandit_b2.png","70","","70","test","1","","75","","","","circle","square","72","4","4","0.9027777777777778","","","","","","","",""
"null","315489","SARL_v6","SARL_v6ol938fde","6074b929f753216d88c77e88","freq_resp","","","img/orange_2bandit_b.png","70","img/orange_2bandit_b.png","70","test","","","","","","","","","","","4","","","","","","","","",""
"null","315644","SARL_v6","SARL_v6ol938fde","6074b929f753216d88c77e88","fixation","","","img/fixation.png","null","","","test","","","","","","","","","","","","","","","","","","","",""
"493.8999999985099","316139","SARL_v6","SARL_v6ol938fde","6074b929f753216d88c77e88","freq","","","img/orange_2bandit_b2.png","70","","70","test","1","","76","","","","circle","square","73","5","4","0.9041095890410958","","","","","","","",""
"null","316463","SARL_v6","SARL_v6ol938fde","6074b929f753216d88c77e88","freq_resp","","","img/orange_2bandit_b.png","70","img/orange_2bandit_b.png","70","test","","","","","","","","","","","4","","","","","","","","",""
"null","316619","SARL_v6","SARL_v6ol938fde","6074b929f753216d88c77e88","fixation","","","img/fixation.png","null","","","test","","","","","","","","","","","","","","","","","","","",""
"396.5","317017","SARL_v6","SARL_v6ol938fde","6074b929f753216d88c77e88","freq","","","img/orange_2bandit_b2.png","70","","70","test","1","","77","","","","circle","square","74","6","4","0.9054054054054054","","","","","","","",""
"null","317433","SARL_v6","SARL_v6ol938fde","6074b929f753216d88c77e88","freq_resp","","","img/orange_2bandit_b.png","70","img/orange_2bandit_b.png","70","test","","","","","","","","","","","4","","","","","","","","",""
"null","317590","SARL_v6","SARL_v6ol938fde","6074b929f753216d88c77e88","fixation","","","img/fixation.png","null","","","test","","","","","","","","","","","","","","","","","","","",""
"476.19999999552965","318068","SARL_v6","SARL_v6ol938fde","6074b929f753216d88c77e88","infreq","","","img/blue_2bandit_b2.png","68","","68","test","1","","78","","","","circle","square","75","7","4","0.9066666666666666","","","","","","","",""
"null","318403","SARL_v6","SARL_v6ol938fde","6074b929f753216d88c77e88","infreq_resp","","","img/blue_2bandit_b.png","68","img/blue_2bandit_b.png","68","test","","","","","","","","","","","4","","","","","","","","",""
"null","318558","SARL_v6","SARL_v6ol938fde","6074b929f753216d88c77e88","fixation","","","img/fixation.png","null","","","test","","","","","","","","","","","","","","","","","","","",""
"584","319143","SARL_v6","SARL_v6ol938fde","6074b929f753216d88c77e88","freq","","","img/orange_2bandit_b2.png","70","","70","test","1","","79","","","","circle","square","76","8","4","0.9078947368421053","","","","","","","",""
"null","319369","SARL_v6","SARL_v6ol938fde","6074b929f753216d88c77e88","freq_resp","","","img/orange_2bandit_b.png","70","img/orange_2bandit_b.png","70","test","","","","","","","","","","","4","","","","","","","","",""
"null","319526","SARL_v6","SARL_v6ol938fde","6074b929f753216d88c77e88","fixation","","","img/fixation.png","null","","","test","","","","","","","","","","","","","","","","","","","",""
"471.6000000014901","319999","SARL_v6","SARL_v6ol938fde","6074b929f753216d88c77e88","freq","","","img/orange_2bandit_b2.png","70","","70","test","1","","80","","","","circle","square","77","9","4","0.9090909090909091","","","","","","","",""
"null","320339","SARL_v6","SARL_v6ol938fde","6074b929f753216d88c77e88","freq_resp","","","img/orange_2bandit_b.png","70","img/orange_2bandit_b.png","70","test","","","","","","","","","","","4","","","","","","","","",""
"null","320496","SARL_v6","SARL_v6ol938fde","6074b929f753216d88c77e88","fixation","","","img/fixation.png","null","","","test","","","","","","","","","","","","","","","","","","","",""
"443.79999999701977","320941","SARL_v6","SARL_v6ol938fde","6074b929f753216d88c77e88","freq","","","img/orange_2bandit_b2.png","70","","70","test","1","","81","","","","circle","square","78","10","4","0.9102564102564102","","","","","","","",""
"null","321312","SARL_v6","SARL_v6ol938fde","6074b929f753216d88c77e88","freq_resp","","","img/orange_2bandit_b.png","70","img/orange_2bandit_b.png","70","test","","","","","","","","","","","4","","","","","","","","",""
"null","321468","SARL_v6","SARL_v6ol938fde","6074b929f753216d88c77e88","fixation","","","img/fixation.png","null","","","test","","","","","","","","","","","","","","","","","","","",""
"395","321864","SARL_v6","SARL_v6ol938fde","6074b929f753216d88c77e88","freq","","","img/orange_2bandit_b2.png","70","","70","test","1","","82","","","","circle","square","79","11","4","0.9113924050632911","","","","","","","",""
"null","322282","SARL_v6","SARL_v6ol938fde","6074b929f753216d88c77e88","freq_resp","","","img/orange_2bandit_b.png","70","img/orange_2bandit_b.png","70","test","","","","","","","","","","","4","","","","","","","","",""
"null","322438","SARL_v6","SARL_v6ol938fde","6074b929f753216d88c77e88","fixation","","","img/fixation.png","null","","","test","","","","","","","","","","","","","","","","","","","",""
"344.5","322786","SARL_v6","SARL_v6ol938fde","6074b929f753216d88c77e88","freq","","","img/orange_2bandit_b2.png","70","","70","test","1","","83","","","","circle","square","80","12","4","0.9125","","","","","","","",""
"null","323252","SARL_v6","SARL_v6ol938fde","6074b929f753216d88c77e88","freq_resp","","","img/orange_2bandit_b.png","70","img/orange_2bandit_b.png","70","test","","","","","","","","","","","4","","","","","","","","",""
"null","323409","SARL_v6","SARL_v6ol938fde","6074b929f753216d88c77e88","fixation","","","img/fixation.png","null","","","test","","","","","","","","","","","","","","","","","","","",""
"361.40000000596046","323774","SARL_v6","SARL_v6ol938fde","6074b929f753216d88c77e88","freq","","","img/orange_2bandit_b2.png","70","","70","test","1","","84","","","","circle","square","81","13","4","0.9135802469135802","","","","","","","",""
"null","324228","SARL_v6","SARL_v6ol938fde","6074b929f753216d88c77e88","freq_resp","","","img/orange_2bandit_b.png","70","img/orange_2bandit_b.png","70","test","","","","","","","","","","","4","","","","","","","","",""
"null","324384","SARL_v6","SARL_v6ol938fde","6074b929f753216d88c77e88","fixation","","","img/fixation.png","null","","","test","","","","","","","","","","","","","","","","","","","",""
"567.2999999970198","324953","SARL_v6","SARL_v6ol938fde","6074b929f753216d88c77e88","infreq","","","img/blue_2bandit_b2.png","68","","68","test","1","","85","","","","circle","square","82","14","4","0.9146341463414634","","","","","","","",""
"null","325201","SARL_v6","SARL_v6ol938fde","6074b929f753216d88c77e88","infreq_resp","","","img/blue_2bandit_b.png","68","img/blue_2bandit_b.png","68","test","","","","","","","","","","","4","","","","","","","","",""
"null","325358","SARL_v6","SARL_v6ol938fde","6074b929f753216d88c77e88","fixation","","","img/fixation.png","null","","","test","","","","","","","","","","","","","","","","","","","",""
"471.5","325831","SARL_v6","SARL_v6ol938fde","6074b929f753216d88c77e88","freq","","","img/orange_2bandit_b2.png","70","","70","test","1","","86","","","","circle","square","83","15","4","0.9156626506024096","","","","","","","",""
"null","326171","SARL_v6","SARL_v6ol938fde","6074b929f753216d88c77e88","freq_resp","","","img/orange_2bandit_b.png","70","img/orange_2bandit_b.png","70","test","","","","","","","","","","","4","","","","","","","","",""
"null","326326","SARL_v6","SARL_v6ol938fde","6074b929f753216d88c77e88","fixation","","","img/fixation.png","null","","","test","","","","","","","","","","","","","","","","","","","",""
"512.8999999985099","326840","SARL_v6","SARL_v6ol938fde","6074b929f753216d88c77e88","freq","","","img/orange_2bandit_b2.png","70","","70","test","1","","87","","","","circle","square","84","16","4","0.9166666666666666","","","","","","","",""
"null","327141","SARL_v6","SARL_v6ol938fde","6074b929f753216d88c77e88","freq_resp","","","img/orange_2bandit_b.png","70","img/orange_2bandit_b.png","70","test","","","","","","","","","","","4","","","","","","","","",""
"null","327298","SARL_v6","SARL_v6ol938fde","6074b929f753216d88c77e88","fixation","","","img/fixation.png","null","","","test","","","","","","","","","","","","","","","","","","","",""
"418.29999999701977","327718","SARL_v6","SARL_v6ol938fde","6074b929f753216d88c77e88","freq","","","img/orange_2bandit_b2.png","70","","70","test","1","","88","","","","circle","square","85","17","4","0.9176470588235294","","","","","","","",""
"null","328113","SARL_v6","SARL_v6ol938fde","6074b929f753216d88c77e88","freq_resp","","","img/orange_2bandit_b.png","70","img/orange_2bandit_b.png","70","test","","","","","","","","","","","4","","","","","","","","",""
"null","328269","SARL_v6","SARL_v6ol938fde","6074b929f753216d88c77e88","fixation","","","img/fixation.png","null","","","test","","","","","","","","","","","","","","","","","","","",""
"499.29999999701977","328770","SARL_v6","SARL_v6ol938fde","6074b929f753216d88c77e88","freq","","","img/orange_2bandit_b2.png","70","","70","test","1","","89","","","","circle","square","86","18","4","0.9186046511627907","","","","","","","",""
"null","329082","SARL_v6","SARL_v6ol938fde","6074b929f753216d88c77e88","freq_resp","","","img/orange_2bandit_b.png","70","img/orange_2bandit_b.png","70","test","","","","","","","","","","","4","","","","","","","","",""
"null","329235","SARL_v6","SARL_v6ol938fde","6074b929f753216d88c77e88","fixation","","","img/fixation.png","null","","","test","","","","","","","","","","","","","","","","","","","",""
"498.1000000014901","329735","SARL_v6","SARL_v6ol938fde","6074b929f753216d88c77e88","freq","","","img/orange_2bandit_b2.png","70","","70","test","1","","90","","","","circle","square","87","19","4","0.9195402298850575","","","","","","","",""
"null","330041","SARL_v6","SARL_v6ol938fde","6074b929f753216d88c77e88","freq_resp","","","img/orange_2bandit_b.png","70","img/orange_2bandit_b.png","70","test","","","","","","","","","","","4","","","","","","","","",""
"null","330199","SARL_v6","SARL_v6ol938fde","6074b929f753216d88c77e88","fixation","","","img/fixation.png","null","","","test","","","","","","","","","","","","","","","","","","","",""
"542.6000000014901","330743","SARL_v6","SARL_v6ol938fde","6074b929f753216d88c77e88","freq","","","img/orange_2bandit_b2.png","70","","70","test","1","","91","","","","circle","square","88","20","4","0.9204545454545454","","","","","","","",""
"null","331016","SARL_v6","SARL_v6ol938fde","6074b929f753216d88c77e88","freq_resp","","","img/orange_2bandit_b.png","70","img/orange_2bandit_b.png","70","test","","","","","","","","","","","4","","","","","","","","",""
"null","331173","SARL_v6","SARL_v6ol938fde","6074b929f753216d88c77e88","fixation","","","img/fixation.png","null","","","test","","","","","","","","","","","","","","","","","","","",""
"620.8999999985099","331795","SARL_v6","SARL_v6ol938fde","6074b929f753216d88c77e88","freq","","","img/orange_2bandit_b2.png","70","","70","test","1","","92","","","","circle","square","89","21","4","0.9213483146067416","","","","","","","",""
"null","331987","SARL_v6","SARL_v6ol938fde","6074b929f753216d88c77e88","freq_resp","","","img/orange_2bandit_b.png","70","img/orange_2bandit_b.png","70","test","","","","","","","","","","","4","","","","","","","","",""
"null","332143","SARL_v6","SARL_v6ol938fde","6074b929f753216d88c77e88","fixation","","","img/fixation.png","null","","","test","","","","","","","","","","","","","","","","","","","",""
"793.6000000014901","332938","SARL_v6","SARL_v6ol938fde","6074b929f753216d88c77e88","rl","","","img/black_2bandit_b2.png","74","","0","test","","","93","","","-12","circle","square","","0","4","","74","-12","0","-12","0","circle","4","0"
"null","333693","SARL_v6","SARL_v6ol938fde","6074b929f753216d88c77e88","feedback","","","<div class=""verylowPoints""> -12 </div>","null","","na","test","","","NaN","","","","","","","","4","","74","","","","","","4",""
"null","334505","SARL_v6","SARL_v6ol938fde","6074b929f753216d88c77e88","freq","","","img/orange_2bandit_b2.png","null","","70","test","0","","94","","","","circle","square","90","1","5","0.9111111111111111","","","","","","","",""
"null","334663","SARL_v6","SARL_v6ol938fde","6074b929f753216d88c77e88","fixation","","","img/fixation.png","null","","","test","","","","","","","","","","","","","","","","","","","",""
"104.89999999850988","334770","SARL_v6","SARL_v6ol938fde","6074b929f753216d88c77e88","freq","","","img/orange_2bandit_b2.png","70","","70","test","1","","95","","","","circle","square","91","2","5","0.9120879120879121","","","","","","","",""
"null","335472","SARL_v6","SARL_v6ol938fde","6074b929f753216d88c77e88","freq_resp","","","img/orange_2bandit_b.png","70","img/orange_2bandit_b.png","70","test","","","","","","","","","","","5","","","","","","","","",""
"null","335628","SARL_v6","SARL_v6ol938fde","6074b929f753216d88c77e88","fixation","","","img/fixation.png","null","","","test","","","","","","","","","","","","","","","","","","","",""
"461.70000000298023","336092","SARL_v6","SARL_v6ol938fde","6074b929f753216d88c77e88","freq","","","img/orange_2bandit_b2.png","70","","70","test","1","","96","","","","circle","square","92","3","5","0.9130434782608695","","","","","","","",""
"null","336441","SARL_v6","SARL_v6ol938fde","6074b929f753216d88c77e88","freq_resp","","","img/orange_2bandit_b.png","70","img/orange_2bandit_b.png","70","test","","","","","","","","","","","5","","","","","","","","",""
"null","336600","SARL_v6","SARL_v6ol938fde","6074b929f753216d88c77e88","fixation","","","img/fixation.png","null","","","test","","","","","","","","","","","","","","","","","","","",""
"388.5","336990","SARL_v6","SARL_v6ol938fde","6074b929f753216d88c77e88","freq","","","img/orange_2bandit_b2.png","70","","70","test","1","","97","","","","circle","square","93","4","5","0.9139784946236559","","","","","","","",""
"null","337410","SARL_v6","SARL_v6ol938fde","6074b929f753216d88c77e88","freq_resp","","","img/orange_2bandit_b.png","70","img/orange_2bandit_b.png","70","test","","","","","","","","","","","5","","","","","","","","",""
"null","337566","SARL_v6","SARL_v6ol938fde","6074b929f753216d88c77e88","fixation","","","img/fixation.png","null","","","test","","","","","","","","","","","","","","","","","","","",""
"495.6000000014901","338063","SARL_v6","SARL_v6ol938fde","6074b929f753216d88c77e88","infreq","","","img/blue_2bandit_b2.png","68","","68","test","1","","98","","","","circle","square","94","5","5","0.9148936170212766","","","","","","","",""
"null","338380","SARL_v6","SARL_v6ol938fde","6074b929f753216d88c77e88","infreq_resp","","","img/blue_2bandit_b.png","68","img/blue_2bandit_b.png","68","test","","","","","","","","","","","5","","","","","","","","",""
"null","338534","SARL_v6","SARL_v6ol938fde","6074b929f753216d88c77e88","fixation","","","img/fixation.png","null","","","test","","","","","","","","","","","","","","","","","","","",""
"null","339349","SARL_v6","SARL_v6ol938fde","6074b929f753216d88c77e88","infreq","","","img/blue_2bandit_b2.png","null","","68","test","0","","99","","","","circle","square","95","6","5","0.9052631578947369","","","","","","","",""
"null","339506","SARL_v6","SARL_v6ol938fde","6074b929f753216d88c77e88","fixation","","","img/fixation.png","null","","","test","","","","","","","","","","","","","","","","","","","",""
"29.19999999552965","339537","SARL_v6","SARL_v6ol938fde","6074b929f753216d88c77e88","freq","","","img/orange_2bandit_b2.png","68","","70","test","0","","100","","","","circle","square","96","7","5","0.8958333333333334","","","","","","","",""
"null","340318","SARL_v6","SARL_v6ol938fde","6074b929f753216d88c77e88","freq_resp","","","img/orange_2bandit_b.png","68","img/orange_2bandit_b.png","70","test","","","","","","","","","","","5","","","","","","","","",""
"null","340475","SARL_v6","SARL_v6ol938fde","6074b929f753216d88c77e88","fixation","","","img/fixation.png","null","","","test","","","","","","","","","","","","","","","","","","","",""
"512.8999999985099","340989","SARL_v6","SARL_v6ol938fde","6074b929f753216d88c77e88","freq","","","img/orange_2bandit_b2.png","70","","70","test","1","","101","","","","circle","square","97","8","5","0.8969072164948454","","","","","","","",""
"null","341286","SARL_v6","SARL_v6ol938fde","6074b929f753216d88c77e88","freq_resp","","","img/orange_2bandit_b.png","70","img/orange_2bandit_b.png","70","test","","","","","","","","","","","5","","","","","","","","",""
"null","341442","SARL_v6","SARL_v6ol938fde","6074b929f753216d88c77e88","fixation","","","img/fixation.png","null","","","test","","","","","","","","","","","","","","","","","","","",""
"446.20000000298023","341890","SARL_v6","SARL_v6ol938fde","6074b929f753216d88c77e88","freq","","","img/orange_2bandit_b2.png","70","","70","test","1","","102","","","","circle","square","98","9","5","0.8979591836734694","","","","","","","",""
"null","342259","SARL_v6","SARL_v6ol938fde","6074b929f753216d88c77e88","freq_resp","","","img/orange_2bandit_b.png","70","img/orange_2bandit_b.png","70","test","","","","","","","","","","","5","","","","","","","","",""
"null","342417","SARL_v6","SARL_v6ol938fde","6074b929f753216d88c77e88","fixation","","","img/fixation.png","null","","","test","","","","","","","","","","","","","","","","","","","",""
"457.79999999701977","342876","SARL_v6","SARL_v6ol938fde","6074b929f753216d88c77e88","freq","","","img/orange_2bandit_b2.png","70","","70","test","1","","103","","","","circle","square","99","10","5","0.898989898989899","","","","","","","",""
"null","343235","SARL_v6","SARL_v6ol938fde","6074b929f753216d88c77e88","freq_resp","","","img/orange_2bandit_b.png","70","img/orange_2bandit_b.png","70","test","","","","","","","","","","","5","","","","","","","","",""
"null","343392","SARL_v6","SARL_v6ol938fde","6074b929f753216d88c77e88","fixation","","","img/fixation.png","null","","","test","","","","","","","","","","","","","","","","","","","",""
"382","343775","SARL_v6","SARL_v6ol938fde","6074b929f753216d88c77e88","freq","","","img/orange_2bandit_b2.png","70","","70","test","1","","104","","","","circle","square","100","11","5","0.9","","","","","","","",""
"null","344204","SARL_v6","SARL_v6ol938fde","6074b929f753216d88c77e88","freq_resp","","","img/orange_2bandit_b.png","70","img/orange_2bandit_b.png","70","test","","","","","","","","","","","5","","","","","","","","",""
"null","344359","SARL_v6","SARL_v6ol938fde","6074b929f753216d88c77e88","fixation","","","img/fixation.png","null","","","test","","","","","","","","","","","","","","","","","","","",""
"359.8999999985099","344720","SARL_v6","SARL_v6ol938fde","6074b929f753216d88c77e88","freq","","","img/orange_2bandit_b2.png","70","","70","test","1","","105","","","","circle","square","101","12","5","0.900990099009901","","","","","","","",""
"null","345173","SARL_v6","SARL_v6ol938fde","6074b929f753216d88c77e88","freq_resp","","","img/orange_2bandit_b.png","70","img/orange_2bandit_b.png","70","test","","","","","","","","","","","5","","","","","","","","",""
"null","345329","SARL_v6","SARL_v6ol938fde","6074b929f753216d88c77e88","fixation","","","img/fixation.png","null","","","test","","","","","","","","","","","","","","","","","","","",""
"462.1000000014901","345793","SARL_v6","SARL_v6ol938fde","6074b929f753216d88c77e88","freq","","","img/orange_2bandit_b2.png","70","","70","test","1","","106","","","","circle","square","102","13","5","0.9019607843137255","","","","","","","",""
"null","346140","SARL_v6","SARL_v6ol938fde","6074b929f753216d88c77e88","freq_resp","","","img/orange_2bandit_b.png","70","img/orange_2bandit_b.png","70","test","","","","","","","","","","","5","","","","","","","","",""
"null","346298","SARL_v6","SARL_v6ol938fde","6074b929f753216d88c77e88","fixation","","","img/fixation.png","null","","","test","","","","","","","","","","","","","","","","","","","",""
"350.20000000298023","346650","SARL_v6","SARL_v6ol938fde","6074b929f753216d88c77e88","freq","","","img/orange_2bandit_b2.png","70","","70","test","1","","107","","","","circle","square","103","14","5","0.9029126213592233","","","","","","","",""
"null","347112","SARL_v6","SARL_v6ol938fde","6074b929f753216d88c77e88","freq_resp","","","img/orange_2bandit_b.png","70","img/orange_2bandit_b.png","70","test","","","","","","","","","","","5","","","","","","","","",""
"null","347268","SARL_v6","SARL_v6ol938fde","6074b929f753216d88c77e88","fixation","","","img/fixation.png","null","","","test","","","","","","","","","","","","","","","","","","","",""
"366.8999999985099","347636","SARL_v6","SARL_v6ol938fde","6074b929f753216d88c77e88","freq","","","img/orange_2bandit_b2.png","70","","70","test","1","","108","","","","circle","square","104","15","5","0.9038461538461539","","","","","","","",""
"null","348085","SARL_v6","SARL_v6ol938fde","6074b929f753216d88c77e88","freq_resp","","","img/orange_2bandit_b.png","70","img/orange_2bandit_b.png","70","test","","","","","","","","","","","5","","","","","","","","",""
"null","348240","SARL_v6","SARL_v6ol938fde","6074b929f753216d88c77e88","fixation","","","img/fixation.png","null","","","test","","","","","","","","","","","","","","","","","","","",""
"338.40000000596046","348580","SARL_v6","SARL_v6ol938fde","6074b929f753216d88c77e88","freq","","","img/orange_2bandit_b2.png","70","","70","test","1","","109","","","","circle","square","105","16","5","0.9047619047619048","","","","","","","",""
"null","349051","SARL_v6","SARL_v6ol938fde","6074b929f753216d88c77e88","freq_resp","","","img/orange_2bandit_b.png","70","img/orange_2bandit_b.png","70","test","","","","","","","","","","","5","","","","","","","","",""
"null","349207","SARL_v6","SARL_v6ol938fde","6074b929f753216d88c77e88","fixation","","","img/fixation.png","null","","","test","","","","","","","","","","","","","","","","","","","",""
"401.1000000014901","349610","SARL_v6","SARL_v6ol938fde","6074b929f753216d88c77e88","freq","","","img/orange_2bandit_b2.png","70","","70","test","1","","110","","","","circle","square","106","17","5","0.9056603773584906","","","","","","","",""
"null","350019","SARL_v6","SARL_v6ol938fde","6074b929f753216d88c77e88","freq_resp","","","img/orange_2bandit_b.png","70","img/orange_2bandit_b.png","70","test","","","","","","","","","","","5","","","","","","","","",""
"null","350175","SARL_v6","SARL_v6ol938fde","6074b929f753216d88c77e88","fixation","","","img/fixation.png","null","","","test","","","","","","","","","","","","","","","","","","","",""
"420.09999999403954","350597","SARL_v6","SARL_v6ol938fde","6074b929f753216d88c77e88","freq","","","img/orange_2bandit_b2.png","70","","70","test","1","","111","","","","circle","square","107","18","5","0.9065420560747663","","","","","","","",""
"null","350988","SARL_v6","SARL_v6ol938fde","6074b929f753216d88c77e88","freq_resp","","","img/orange_2bandit_b.png","70","img/orange_2bandit_b.png","70","test","","","","","","","","","","","5","","","","","","","","",""
"null","351143","SARL_v6","SARL_v6ol938fde","6074b929f753216d88c77e88","fixation","","","img/fixation.png","null","","","test","","","","","","","","","","","","","","","","","","","",""
"417.19999999552965","351562","SARL_v6","SARL_v6ol938fde","6074b929f753216d88c77e88","freq","","","img/orange_2bandit_b2.png","70","","70","test","1","","112","","","","circle","square","108","19","5","0.9074074074074074","","","","","","","",""
"null","351957","SARL_v6","SARL_v6ol938fde","6074b929f753216d88c77e88","freq_resp","","","img/orange_2bandit_b.png","70","img/orange_2bandit_b.png","70","test","","","","","","","","","","","5","","","","","","","","",""
"null","352114","SARL_v6","SARL_v6ol938fde","6074b929f753216d88c77e88","fixation","","","img/fixation.png","null","","","test","","","","","","","","","","","","","","","","","","","",""
"476.29999999701977","352592","SARL_v6","SARL_v6ol938fde","6074b929f753216d88c77e88","freq","","","img/orange_2bandit_b2.png","70","","70","test","1","","113","","","","circle","square","109","20","5","0.908256880733945","","","","","","","",""
"null","352926","SARL_v6","SARL_v6ol938fde","6074b929f753216d88c77e88","freq_resp","","","img/orange_2bandit_b.png","70","img/orange_2bandit_b.png","70","test","","","","","","","","","","","5","","","","","","","","",""
"null","353082","SARL_v6","SARL_v6ol938fde","6074b929f753216d88c77e88","fixation","","","img/fixation.png","null","","","test","","","","","","","","","","","","","","","","","","","",""
"430","353513","SARL_v6","SARL_v6ol938fde","6074b929f753216d88c77e88","freq","","","img/orange_2bandit_b2.png","70","","70","test","1","","114","","","","circle","square","110","21","5","0.9090909090909091","","","","","","","",""
"null","353896","SARL_v6","SARL_v6ol938fde","6074b929f753216d88c77e88","freq_resp","","","img/orange_2bandit_b.png","70","img/orange_2bandit_b.png","70","test","","","","","","","","","","","5","","","","","","","","",""
"null","354051","SARL_v6","SARL_v6ol938fde","6074b929f753216d88c77e88","fixation","","","img/fixation.png","null","","","test","","","","","","","","","","","","","","","","","","","",""
"340.69999999552965","354394","SARL_v6","SARL_v6ol938fde","6074b929f753216d88c77e88","freq","","","img/orange_2bandit_b2.png","70","","70","test","1","","115","","","","circle","square","111","22","5","0.9099099099099099","","","","","","","",""
"null","354861","SARL_v6","SARL_v6ol938fde","6074b929f753216d88c77e88","freq_resp","","","img/orange_2bandit_b.png","70","img/orange_2bandit_b.png","70","test","","","","","","","","","","","5","","","","","","","","",""
"null","355020","SARL_v6","SARL_v6ol938fde","6074b929f753216d88c77e88","fixation","","","img/fixation.png","null","","","test","","","","","","","","","","","","","","","","","","","",""
"357.79999999701977","355379","SARL_v6","SARL_v6ol938fde","6074b929f753216d88c77e88","freq","","","img/orange_2bandit_b2.png","70","","70","test","1","","116","","","","circle","square","112","23","5","0.9107142857142857","","","","","","","",""
"null","355831","SARL_v6","SARL_v6ol938fde","6074b929f753216d88c77e88","freq_resp","","","img/orange_2bandit_b.png","70","img/orange_2bandit_b.png","70","test","","","","","","","","","","","5","","","","","","","","",""
"null","355989","SARL_v6","SARL_v6ol938fde","6074b929f753216d88c77e88","fixation","","","img/fixation.png","null","","","test","","","","","","","","","","","","","","","","","","","",""
"416.70000000298023","356407","SARL_v6","SARL_v6ol938fde","6074b929f753216d88c77e88","infreq","","","img/blue_2bandit_b2.png","68","","68","test","1","","117","","","","circle","square","113","24","5","0.911504424778761","","","","","","","",""
"null","356803","SARL_v6","SARL_v6ol938fde","6074b929f753216d88c77e88","infreq_resp","","","img/blue_2bandit_b.png","68","img/blue_2bandit_b.png","68","test","","","","","","","","","","","5","","","","","","","","",""
"null","356959","SARL_v6","SARL_v6ol938fde","6074b929f753216d88c77e88","fixation","","","img/fixation.png","null","","","test","","","","","","","","","","","","","","","","","","","",""
"610","357571","SARL_v6","SARL_v6ol938fde","6074b929f753216d88c77e88","freq","","","img/orange_2bandit_b2.png","70","","70","test","1","","118","","","","circle","square","114","25","5","0.9122807017543859","","","","","","","",""
"null","357770","SARL_v6","SARL_v6ol938fde","6074b929f753216d88c77e88","freq_resp","","","img/orange_2bandit_b.png","70","img/orange_2bandit_b.png","70","test","","","","","","","","","","","5","","","","","","","","",""
"null","357927","SARL_v6","SARL_v6ol938fde","6074b929f753216d88c77e88","fixation","","","img/fixation.png","null","","","test","","","","","","","","","","","","","","","","","","","",""
"654.8999999985099","358584","SARL_v6","SARL_v6ol938fde","6074b929f753216d88c77e88","rl","","","img/black_2bandit_b2.png","75","","0","test","","","119","","","4","circle","square","","0","5","","75","-7","4","-7","4","square","5","0"
"null","359345","SARL_v6","SARL_v6ol938fde","6074b929f753216d88c77e88","feedback","","","<div class=""veryhighPoints_sq""> 4 </div>","null","","na","test","","","NaN","","","","","","","","5","","75","","","","","","5",""
"null","360158","SARL_v6","SARL_v6ol938fde","6074b929f753216d88c77e88","freq","","","img/orange_2bandit_b2.png","null","","70","test","0","","120","","","","circle","square","115","1","6","0.9043478260869565","","","","","","","",""
"null","360315","SARL_v6","SARL_v6ol938fde","6074b929f753216d88c77e88","fixation","","","img/fixation.png","null","","","test","","","","","","","","","","","","","","","","","","","",""
"205.89999999850988","360522","SARL_v6","SARL_v6ol938fde","6074b929f753216d88c77e88","freq","","","img/orange_2bandit_b2.png","70","","70","test","1","","121","","","","circle","square","116","2","6","0.9051724137931034","","","","","","","",""
"null","361128","SARL_v6","SARL_v6ol938fde","6074b929f753216d88c77e88","freq_resp","","","img/orange_2bandit_b.png","70","img/orange_2bandit_b.png","70","test","","","","","","","","","","","6","","","","","","","","",""
"null","361284","SARL_v6","SARL_v6ol938fde","6074b929f753216d88c77e88","fixation","","","img/fixation.png","null","","","test","","","","","","","","","","","","","","","","","","","",""
"288.19999999552965","361574","SARL_v6","SARL_v6ol938fde","6074b929f753216d88c77e88","freq","","","img/orange_2bandit_b2.png","70","","70","test","1","","122","","","","circle","square","117","3","6","0.905982905982906","","","","","","","",""
"null","362098","SARL_v6","SARL_v6ol938fde","6074b929f753216d88c77e88","freq_resp","","","img/orange_2bandit_b.png","70","img/orange_2bandit_b.png","70","test","","","","","","","","","","","6","","","","","","","","",""
"null","362254","SARL_v6","SARL_v6ol938fde","6074b929f753216d88c77e88","fixation","","","img/fixation.png","null","","","test","","","","","","","","","","","","","","","","","","","",""
"349.5","362605","SARL_v6","SARL_v6ol938fde","6074b929f753216d88c77e88","freq","","","img/orange_2bandit_b2.png","70","","70","test","1","","123","","","","circle","square","118","4","6","0.9067796610169492","","","","","","","",""
"null","363069","SARL_v6","SARL_v6ol938fde","6074b929f753216d88c77e88","freq_resp","","","img/orange_2bandit_b.png","70","img/orange_2bandit_b.png","70","test","","","","","","","","","","","6","","","","","","","","",""
"null","363228","SARL_v6","SARL_v6ol938fde","6074b929f753216d88c77e88","fixation","","","img/fixation.png","null","","","test","","","","","","","","","","","","","","","","","","","",""
"426.1000000014901","363656","SARL_v6","SARL_v6ol938fde","6074b929f753216d88c77e88","freq","","","img/orange_2bandit_b2.png","70","","70","test","1","","124","","","","circle","square","119","5","6","0.907563025210084","","","","","","","",""
"null","364047","SARL_v6","SARL_v6ol938fde","6074b929f753216d88c77e88","freq_resp","","","img/orange_2bandit_b.png","70","img/orange_2bandit_b.png","70","test","","","","","","","","","","","6","","","","","","","","",""
"null","364204","SARL_v6","SARL_v6ol938fde","6074b929f753216d88c77e88","fixation","","","img/fixation.png","null","","","test","","","","","","","","","","","","","","","","","","","",""
"438.3999999985099","364644","SARL_v6","SARL_v6ol938fde","6074b929f753216d88c77e88","freq","","","img/orange_2bandit_b2.png","70","","70","test","1","","125","","","","circle","square","120","6","6","0.9083333333333333","","","","","","","",""
"null","365017","SARL_v6","SARL_v6ol938fde","6074b929f753216d88c77e88","freq_resp","","","img/orange_2bandit_b.png","70","img/orange_2bandit_b.png","70","test","","","","","","","","","","","6","","","","","","","","",""
"null","365174","SARL_v6","SARL_v6ol938fde","6074b929f753216d88c77e88","fixation","","","img/fixation.png","null","","","test","","","","","","","","","","","","","","","","","","","",""
"454.19999999552965","365630","SARL_v6","SARL_v6ol938fde","6074b929f753216d88c77e88","freq","","","img/orange_2bandit_b2.png","70","","70","test","1","","126","","","","circle","square","121","7","6","0.9090909090909091","","","","","","","",""
"null","365986","SARL_v6","SARL_v6ol938fde","6074b929f753216d88c77e88","freq_resp","","","img/orange_2bandit_b.png","70","img/orange_2bandit_b.png","70","test","","","","","","","","","","","6","","","","","","","","",""
"null","366143","SARL_v6","SARL_v6ol938fde","6074b929f753216d88c77e88","fixation","","","img/fixation.png","null","","","test","","","","","","","","","","","","","","","","","","","",""
"429.1000000014901","366574","SARL_v6","SARL_v6ol938fde","6074b929f753216d88c77e88","freq","","","img/orange_2bandit_b2.png","70","","70","test","1","","127","","","","circle","square","122","8","6","0.9098360655737705","","","","","","","",""
"null","366947","SARL_v6","SARL_v6ol938fde","6074b929f753216d88c77e88","freq_resp","","","img/orange_2bandit_b.png","70","img/orange_2bandit_b.png","70","test","","","","","","","","","","","6","","","","","","","","",""
"null","367105","SARL_v6","SARL_v6ol938fde","6074b929f753216d88c77e88","fixation","","","img/fixation.png","null","","","test","","","","","","","","","","","","","","","","","","","",""
"452.19999999552965","367559","SARL_v6","SARL_v6ol938fde","6074b929f753216d88c77e88","infreq","","","img/blue_2bandit_b2.png","68","","68","test","1","","128","","","","circle","square","123","9","6","0.9105691056910569","","","","","","","",""
"null","367923","SARL_v6","SARL_v6ol938fde","6074b929f753216d88c77e88","infreq_resp","","","img/blue_2bandit_b.png","68","img/blue_2bandit_b.png","68","test","","","","","","","","","","","6","","","","","","","","",""
"null","368079","SARL_v6","SARL_v6ol938fde","6074b929f753216d88c77e88","fixation","","","img/fixation.png","null","","","test","","","","","","","","","","","","","","","","","","","",""
"446.3999999985099","368527","SARL_v6","SARL_v6ol938fde","6074b929f753216d88c77e88","freq","","","img/orange_2bandit_b2.png","70","","70","test","1","","129","","","","circle","square","124","10","6","0.9112903225806451","","","","","","","",""
"null","368892","SARL_v6","SARL_v6ol938fde","6074b929f753216d88c77e88","freq_resp","","","img/orange_2bandit_b.png","70","img/orange_2bandit_b.png","70","test","","","","","","","","","","","6","","","","","","","","",""
"null","369048","SARL_v6","SARL_v6ol938fde","6074b929f753216d88c77e88","fixation","","","img/fixation.png","null","","","test","","","","","","","","","","","","","","","","","","","",""
"441.29999999701977","369491","SARL_v6","SARL_v6ol938fde","6074b929f753216d88c77e88","freq","","","img/orange_2bandit_b2.png","70","","70","test","1","","130","","","","circle","square","125","11","6","0.912","","","","","","","",""
"null","369865","SARL_v6","SARL_v6ol938fde","6074b929f753216d88c77e88","freq_resp","","","img/orange_2bandit_b.png","70","img/orange_2bandit_b.png","70","test","","","","","","","","","","","6","","","","","","","","",""
"null","370024","SARL_v6","SARL_v6ol938fde","6074b929f753216d88c77e88","fixation","","","img/fixation.png","null","","","test","","","","","","","","","","","","","","","","","","","",""
"407.6000000014901","370434","SARL_v6","SARL_v6ol938fde","6074b929f753216d88c77e88","freq","","","img/orange_2bandit_b2.png","70","","70","test","1","","131","","","","circle","square","126","12","6","0.9126984126984127","","","","","","","",""
"null","370836","SARL_v6","SARL_v6ol938fde","6074b929f753216d88c77e88","freq_resp","","","img/orange_2bandit_b.png","70","img/orange_2bandit_b.png","70","test","","","","","","","","","","","6","","","","","","","","",""
"null","370992","SARL_v6","SARL_v6ol938fde","6074b929f753216d88c77e88","fixation","","","img/fixation.png","null","","","test","","","","","","","","","","","","","","","","","","","",""
"340.3999999985099","371334","SARL_v6","SARL_v6ol938fde","6074b929f753216d88c77e88","infreq","","","img/blue_2bandit_b2.png","70","","68","test","0","","132","","","","circle","square","127","13","6","0.905511811023622","","","","","","","",""
