"rt","time_elapsed","expId","subject","prolificID","trialType","rlType","attType","stimulus","key_press","stim","corrresp","phase","corr","pracCounter","trialNum","rewardOne","rewardTwo","reward","bandOne","bandTwo","attentionNum","attentionRunNum","blockNum","performance","bandChosen","circleVal","squareVal","bandOneVal","bandTwoVal","shapeChosen","rlNum","badFlag"
"14259.30000000447","14261","SARL_v6","SARL_v6s3565yby","57a12661913c7100019767b7","","","","","","","","","","","","","","","","","","","","","","","","","","","",""
"","16449","SARL_v6","SARL_v6s3565yby","57a12661913c7100019767b7","fullscreen","fullscreen","fullscreen","","","","","","","","","","","","","","","","","","","","","","","","",""
"88848.20000000298","105298","SARL_v6","SARL_v6s3565yby","57a12661913c7100019767b7","","","","","","","","","","","","","","","","","","","","","","","","","","","",""
"null","106100","SARL_v6","SARL_v6s3565yby","57a12661913c7100019767b7","freqPrac","","","img/orange_2bandit_a2.png","null","img/orange_2bandit_a2.png","70","prac","0","1","","","","","","","","","","","","","","","","","",""
"null","107102","SARL_v6","SARL_v6s3565yby","57a12661913c7100019767b7","feedback","","","img/tooSlow.png","null","","na","prac","","","","","","","","","","","","","","","","","","","",""
"null","107253","SARL_v6","SARL_v6s3565yby","57a12661913c7100019767b7","fixation","","","img/fixation.png","null","","","prac","","","","","","","","","","","","","","","","","","","",""
"594","107848","SARL_v6","SARL_v6s3565yby","57a12661913c7100019767b7","infreqPrac","","","img/blue_2bandit_a2.png","68","img/blue_2bandit_a2.png","68","prac","1","1","","","","","","","","","","","","","","","","","",""
"594","108056","SARL_v6","SARL_v6s3565yby","57a12661913c7100019767b7","infreqPrac_resp","","","img/blue_2bandit_a.png","68","img/blue_2bandit_a.png","68","prac","","","","","","","","","","","","","","","","","","","",""
"null","108214","SARL_v6","SARL_v6s3565yby","57a12661913c7100019767b7","fixation","","","img/fixation.png","null","","","prac","","","","","","","","","","","","","","","","","","","",""
"516.3999999985099","108732","SARL_v6","SARL_v6s3565yby","57a12661913c7100019767b7","freqPrac","","","img/orange_2bandit_a2.png","68","img/orange_2bandit_a2.png","70","prac","0","2","","","","","","","","","","","","","","","","","",""
"516.3999999985099","109023","SARL_v6","SARL_v6s3565yby","57a12661913c7100019767b7","freqPrac_resp","","","img/orange_2bandit_a.png","68","img/orange_2bandit_a.png","70","prac","","","","","","","","","","","","","","","","","","","",""
"null","110039","SARL_v6","SARL_v6s3565yby","57a12661913c7100019767b7","feedback","","","img/wrongKey.png","null","","na","prac","","","","","","","","","","","","","","","","","","","",""
"null","110196","SARL_v6","SARL_v6s3565yby","57a12661913c7100019767b7","fixation","","","img/fixation.png","null","","","prac","","","","","","","","","","","","","","","","","","","",""
"314.79999999701977","110512","SARL_v6","SARL_v6s3565yby","57a12661913c7100019767b7","infreqPrac","","","img/blue_2bandit_a2.png","70","img/blue_2bandit_a2.png","68","prac","0","3","","","","","","","","","","","","","","","","","",""
"314.79999999701977","111006","SARL_v6","SARL_v6s3565yby","57a12661913c7100019767b7","infreqPrac_resp","","","img/blue_2bandit_a.png","70","img/blue_2bandit_a.png","68","prac","","","","","","","","","","","","","","","","","","","",""
"null","112010","SARL_v6","SARL_v6s3565yby","57a12661913c7100019767b7","feedback","","","img/wrongKey.png","null","","na","prac","","","","","","","","","","","","","","","","","","","",""
"null","112161","SARL_v6","SARL_v6s3565yby","57a12661913c7100019767b7","fixation","","","img/fixation.png","null","","","prac","","","","","","","","","","","","","","","","","","","",""
"614.7999999970198","112777","SARL_v6","SARL_v6s3565yby","57a12661913c7100019767b7","infreqPrac","","","img/blue_2bandit_a2.png","68","img/blue_2bandit_a2.png","68","prac","1","3","","","","","","","","","","","","","","","","","",""
"614.7999999970198","112974","SARL_v6","SARL_v6s3565yby","57a12661913c7100019767b7","infreqPrac_resp","","","img/blue_2bandit_a.png","68","img/blue_2bandit_a.png","68","prac","","","","","","","","","","","","","","","","","","","",""
"null","113132","SARL_v6","SARL_v6s3565yby","57a12661913c7100019767b7","fixation","","","img/fixation.png","null","","","prac","","","","","","","","","","","","","","","","","","","",""
"465.20000000298023","113598","SARL_v6","SARL_v6s3565yby","57a12661913c7100019767b7","infreqPrac","","","img/blue_2bandit_a2.png","68","img/blue_2bandit_a2.png","68","prac","1","3","","","","","","","","","","","","","","","","","",""
"465.20000000298023","113933","SARL_v6","SARL_v6s3565yby","57a12661913c7100019767b7","infreqPrac_resp","","","img/blue_2bandit_a.png","68","img/blue_2bandit_a.png","68","prac","","","","","","","","","","","","","","","","","","","",""
"null","114085","SARL_v6","SARL_v6s3565yby","57a12661913c7100019767b7","fixation","","","img/fixation.png","null","","","prac","","","","","","","","","","","","","","","","","","","",""
"359.5","114445","SARL_v6","SARL_v6s3565yby","57a12661913c7100019767b7","freqPrac","","","img/orange_2bandit_a2.png","70","img/orange_2bandit_a2.png","70","prac","1","3","","","","","","","","","","","","","","","","","",""
"359.5","114892","SARL_v6","SARL_v6s3565yby","57a12661913c7100019767b7","freqPrac_resp","","","img/orange_2bandit_a.png","70","img/orange_2bandit_a.png","70","prac","","","","","","","","","","","","","","","","","","","",""
"null","115050","SARL_v6","SARL_v6s3565yby","57a12661913c7100019767b7","fixation","","","img/fixation.png","null","","","prac","","","","","","","","","","","","","","","","","","","",""
"773.6000000014901","115824","SARL_v6","SARL_v6s3565yby","57a12661913c7100019767b7","infreqPrac","","","img/blue_2bandit_a2.png","68","img/blue_2bandit_a2.png","68","prac","1","3","","","","","","","","","","","","","","","","","",""
"773.6000000014901","115852","SARL_v6","SARL_v6s3565yby","57a12661913c7100019767b7","infreqPrac_resp","","","img/blue_2bandit_a.png","68","img/blue_2bandit_a.png","68","prac","","","","","","","","","","","","","","","","","","","",""
"null","116015","SARL_v6","SARL_v6s3565yby","57a12661913c7100019767b7","fixation","","","img/fixation.png","null","","","prac","","","","","","","","","","","","","","","","","","","",""
"644.7000000029802","116661","SARL_v6","SARL_v6s3565yby","57a12661913c7100019767b7","freqPrac","","","img/orange_2bandit_a2.png","70","img/orange_2bandit_a2.png","70","prac","1","3","","","","","","","","","","","","","","","","","",""
"644.7000000029802","116823","SARL_v6","SARL_v6s3565yby","57a12661913c7100019767b7","freqPrac_resp","","","img/orange_2bandit_a.png","70","img/orange_2bandit_a.png","70","prac","","","","","","","","","","","","","","","","","","","",""
"null","116982","SARL_v6","SARL_v6s3565yby","57a12661913c7100019767b7","fixation","","","img/fixation.png","null","","","prac","","","","","","","","","","","","","","","","","","","",""
"507.70000000298023","117491","SARL_v6","SARL_v6s3565yby","57a12661913c7100019767b7","freqPrac","","","img/orange_2bandit_a2.png","70","img/orange_2bandit_a2.png","70","prac","1","3","","","","","","","","","","","","","","","","","",""
"507.70000000298023","117792","SARL_v6","SARL_v6s3565yby","57a12661913c7100019767b7","freqPrac_resp","","","img/orange_2bandit_a.png","70","img/orange_2bandit_a.png","70","prac","","","","","","","","","","","","","","","","","","","",""
"null","117943","SARL_v6","SARL_v6s3565yby","57a12661913c7100019767b7","fixation","","","img/fixation.png","null","","","prac","","","","","","","","","","","","","","","","","","","",""
"26209.10000000149","144153","SARL_v6","SARL_v6s3565yby","57a12661913c7100019767b7","","","","","","","","prac","","","","","","","","","","","","","","","","","","","",""
"1108.5","145263","SARL_v6","SARL_v6s3565yby","57a12661913c7100019767b7","rlPractice","","","img/black_2bandit_a2.png","75","img/black_2bandit_a2.png","","prac","","","0","","","","","","","","","","","","","","","","",""
"null","146028","SARL_v6","SARL_v6s3565yby","57a12661913c7100019767b7","feedback","","","<div class=""veryhighPoints""> 10 </div>","null","","na","prac","","","1","10","-14","10","","","","","","","","","","","","","",""
"null","146185","SARL_v6","SARL_v6s3565yby","57a12661913c7100019767b7","fixation","","","img/fixation.png","null","","","prac","","","","","","","","","","","","","","","","","","","",""
"759.1000000014901","146945","SARL_v6","SARL_v6s3565yby","57a12661913c7100019767b7","rlPractice","","","img/black_2bandit_a2.png","74","img/black_2bandit_a2.png","","prac","","","1","","","","","","","","","","","","","","","","",""
"null","147702","SARL_v6","SARL_v6s3565yby","57a12661913c7100019767b7","feedback","","","<div class=""verylowPoints_sq""> -5 </div>","null","","na","prac","","","2","5","-5","5","","","","","","","","","","","","","",""
"null","147860","SARL_v6","SARL_v6s3565yby","57a12661913c7100019767b7","fixation","","","img/fixation.png","null","","","prac","","","","","","","","","","","","","","","","","","","",""
"265.5","148126","SARL_v6","SARL_v6s3565yby","57a12661913c7100019767b7","rlPractice","","","img/black_2bandit_a2.png","75","img/black_2bandit_a2.png","","prac","","","2","","","","","","","","","","","","","","","","",""
"null","148892","SARL_v6","SARL_v6s3565yby","57a12661913c7100019767b7","feedback","","","<div class=""veryhighPoints""> 30 </div>","null","","na","prac","","","3","30","2","30","","","","","","","","","","","","","",""
"null","149052","SARL_v6","SARL_v6s3565yby","57a12661913c7100019767b7","fixation","","","img/fixation.png","null","","","prac","","","","","","","","","","","","","","","","","","","",""
"244.70000000298023","149298","SARL_v6","SARL_v6s3565yby","57a12661913c7100019767b7","rlPractice","","","img/black_2bandit_a2.png","75","img/black_2bandit_a2.png","","prac","","","3","","","","","","","","","","","","","","","","",""
"null","150054","SARL_v6","SARL_v6s3565yby","57a12661913c7100019767b7","feedback","","","<div class=""verylowPoints""> -2 </div>","null","","na","prac","","","4","-2","20","-2","","","","","","","","","","","","","",""
"null","150212","SARL_v6","SARL_v6s3565yby","57a12661913c7100019767b7","fixation","","","img/fixation.png","null","","","prac","","","","","","","","","","","","","","","","","","","",""
"24404.20000000298","174618","SARL_v6","SARL_v6s3565yby","57a12661913c7100019767b7","","","","","","","","prac","","","","","","","","","","","","","","","","","","","",""
"null","175433","SARL_v6","SARL_v6s3565yby","57a12661913c7100019767b7","mixAttFreqPrac","","","img/orange_2bandit_a2.png","null","img/orange_2bandit_a2.png","70","prac","","","1","","","","","","","","","","","","","","","","",""
"null","175592","SARL_v6","SARL_v6s3565yby","57a12661913c7100019767b7","fixation","","","img/fixation.png","null","","","prac","","","","","","","","","","","","","","","","","","","",""
"100.89999999850988","175693","SARL_v6","SARL_v6s3565yby","57a12661913c7100019767b7","mixAttInfreqPrac","","","img/blue_2bandit_a2.png","68","img/blue_2bandit_a2.png","68","prac","","","2","","","","","","","","","","","","","","","","",""
"100.89999999850988","176401","SARL_v6","SARL_v6s3565yby","57a12661913c7100019767b7","infreqPrac_resp","","","img/blue_2bandit_a.png","68","img/orange_2bandit_a.png","68","prac","","","2","","","","","","","","","","","","","","","","",""
"null","176553","SARL_v6","SARL_v6s3565yby","57a12661913c7100019767b7","fixation","","","img/fixation.png","null","","","prac","","","","","","","","","","","","","","","","","","","",""
"32.20000000298023","176586","SARL_v6","SARL_v6s3565yby","57a12661913c7100019767b7","mixAttInfreqPrac","","","img/blue_2bandit_a2.png","68","img/blue_2bandit_a2.png","68","prac","","","3","","","","","","","","","","","","","","","","",""
"32.20000000298023","177369","SARL_v6","SARL_v6s3565yby","57a12661913c7100019767b7","infreqPrac_resp","","","img/blue_2bandit_a.png","68","img/orange_2bandit_a.png","68","prac","","","3","","","","","","","","","","","","","","","","",""
"null","177521","SARL_v6","SARL_v6s3565yby","57a12661913c7100019767b7","fixation","","","img/fixation.png","null","","","prac","","","","","","","","","","","","","","","","","","","",""
"353.8999999985099","177875","SARL_v6","SARL_v6s3565yby","57a12661913c7100019767b7","mixAttInfreqPrac","","","img/blue_2bandit_a2.png","68","img/blue_2bandit_a2.png","68","prac","","","4","","","","","","","","","","","","","","","","",""
"353.8999999985099","178337","SARL_v6","SARL_v6s3565yby","57a12661913c7100019767b7","infreqPrac_resp","","","img/blue_2bandit_a.png","68","img/orange_2bandit_a.png","68","prac","","","4","","","","","","","","","","","","","","","","",""
"null","178493","SARL_v6","SARL_v6s3565yby","57a12661913c7100019767b7","fixation","","","img/fixation.png","null","","","prac","","","","","","","","","","","","","","","","","","","",""
"541.1000000014901","179035","SARL_v6","SARL_v6s3565yby","57a12661913c7100019767b7","mixAttFreqPrac","","","img/orange_2bandit_a2.png","70","img/orange_2bandit_a2.png","70","prac","","","5","","","","","","","","","","","","","","","","",""
"541.1000000014901","179302","SARL_v6","SARL_v6s3565yby","57a12661913c7100019767b7","freqPrac_resp","","","img/orange_2bandit_a.png","70","img/orange_2bandit_a.png","70","prac","","","5","","","","","","","","","","","","","","","","",""
"null","179454","SARL_v6","SARL_v6s3565yby","57a12661913c7100019767b7","fixation","","","img/fixation.png","null","","","prac","","","","","","","","","","","","","","","","","","","",""
"806.2000000029802","180261","SARL_v6","SARL_v6s3565yby","57a12661913c7100019767b7","mixRLPractice","","","img/black_2bandit_a2.png","74","img/black_2bandit_a2.png","","prac","","","5","","","","","","","","","","","","","","","","",""
"null","181018","SARL_v6","SARL_v6s3565yby","57a12661913c7100019767b7","feedback","","","<div class=""veryhighPoints_sq""> 10 </div>","null","","na","prac","","","6","-14","10","-14","","","","","","","","","","","","","",""
"null","181176","SARL_v6","SARL_v6s3565yby","57a12661913c7100019767b7","fixation","","","img/fixation.png","null","","","prac","","","","","","","","","","","","","","","","","","","",""
"null","181987","SARL_v6","SARL_v6s3565yby","57a12661913c7100019767b7","mixAttFreqPrac","","","img/orange_2bandit_a2.png","null","img/orange_2bandit_a2.png","70","prac","","","7","","","","","","","","","","","","","","","","",""
"62","182142","SARL_v6","SARL_v6s3565yby","57a12661913c7100019767b7","fixation","","","img/fixation.png","68","","","prac","","","","","","","","","","","","","","","","","","","",""
"null","182953","SARL_v6","SARL_v6s3565yby","57a12661913c7100019767b7","mixAttInfreqPrac","","","img/blue_2bandit_a2.png","null","img/blue_2bandit_a2.png","68","prac","","","8","","","","","","","","","","","","","","","","",""
"10.899999998509884","183109","SARL_v6","SARL_v6s3565yby","57a12661913c7100019767b7","fixation","","","img/fixation.png","68","","","prac","","","","","","","","","","","","","","","","","","","",""
"471","183581","SARL_v6","SARL_v6s3565yby","57a12661913c7100019767b7","mixAttFreqPrac","","","img/orange_2bandit_a2.png","70","img/orange_2bandit_a2.png","70","prac","","","9","","","","","","","","","","","","","","","","",""
"471","183918","SARL_v6","SARL_v6s3565yby","57a12661913c7100019767b7","freqPrac_resp","","","img/orange_2bandit_a.png","70","img/orange_2bandit_a.png","70","prac","","","9","","","","","","","","","","","","","","","","",""
"null","184076","SARL_v6","SARL_v6s3565yby","57a12661913c7100019767b7","fixation","","","img/fixation.png","null","","","prac","","","","","","","","","","","","","","","","","","","",""
"385.5","184463","SARL_v6","SARL_v6s3565yby","57a12661913c7100019767b7","mixAttFreqPrac","","","img/orange_2bandit_a2.png","70","img/orange_2bandit_a2.png","70","prac","","","10","","","","","","","","","","","","","","","","",""
"385.5","184881","SARL_v6","SARL_v6s3565yby","57a12661913c7100019767b7","freqPrac_resp","","","img/orange_2bandit_a.png","70","img/orange_2bandit_a.png","70","prac","","","10","","","","","","","","","","","","","","","","",""
"null","185041","SARL_v6","SARL_v6s3565yby","57a12661913c7100019767b7","fixation","","","img/fixation.png","null","","","prac","","","","","","","","","","","","","","","","","","","",""
"509","185550","SARL_v6","SARL_v6s3565yby","57a12661913c7100019767b7","mixAttInfreqPrac","","","img/blue_2bandit_a2.png","68","img/blue_2bandit_a2.png","68","prac","","","11","","","","","","","","","","","","","","","","",""
"509","185851","SARL_v6","SARL_v6s3565yby","57a12661913c7100019767b7","infreqPrac_resp","","","img/blue_2bandit_a.png","68","img/orange_2bandit_a.png","68","prac","","","11","","","","","","","","","","","","","","","","",""
"null","186006","SARL_v6","SARL_v6s3565yby","57a12661913c7100019767b7","fixation","","","img/fixation.png","null","","","prac","","","","","","","","","","","","","","","","","","","",""
"705","186712","SARL_v6","SARL_v6s3565yby","57a12661913c7100019767b7","mixRLPractice","","","img/black_2bandit_a2.png","74","img/black_2bandit_a2.png","","prac","","","11","","","","","","","","","","","","","","","","",""
"null","187465","SARL_v6","SARL_v6s3565yby","57a12661913c7100019767b7","feedback","","","<div class=""verylowPoints_sq""> -5 </div>","null","","na","prac","","","12","5","-5","5","","","","","","","","","","","","","",""
"null","187622","SARL_v6","SARL_v6s3565yby","57a12661913c7100019767b7","fixation","","","img/fixation.png","null","","","prac","","","","","","","","","","","","","","","","","","","",""
"24879.19999999553","212502","SARL_v6","SARL_v6s3565yby","57a12661913c7100019767b7","","","","","","","","prac","","","","","","","","","","","","","","","","","","","",""
"null","213309","SARL_v6","SARL_v6s3565yby","57a12661913c7100019767b7","freq","","","img/orange_2bandit_a2.png","null","","70","test","0","","1","","","","square","circle","1","1","1","0","","","","","","","",""
"null","213468","SARL_v6","SARL_v6s3565yby","57a12661913c7100019767b7","fixation","","","img/fixation.png","null","","","test","","","","","","","","","","","","","","","","","","","",""
"667.2000000029802","214136","SARL_v6","SARL_v6s3565yby","57a12661913c7100019767b7","freq","","","img/orange_2bandit_a2.png","70","","70","test","1","","2","","","","square","circle","2","2","1","0.5","","","","","","","",""
"null","214279","SARL_v6","SARL_v6s3565yby","57a12661913c7100019767b7","freq_resp","","","img/orange_2bandit_a.png","70","img/orange_2bandit_a.png","70","test","","","","","","","","","","","1","","","","","","","","",""
"null","214437","SARL_v6","SARL_v6s3565yby","57a12661913c7100019767b7","fixation","","","img/fixation.png","null","","","test","","","","","","","","","","","","","","","","","","","",""
"544.2999999970198","214982","SARL_v6","SARL_v6s3565yby","57a12661913c7100019767b7","freq","","","img/orange_2bandit_a2.png","70","","70","test","1","","3","","","","square","circle","3","3","1","0.6666666666666666","","","","","","","",""
"null","215245","SARL_v6","SARL_v6s3565yby","57a12661913c7100019767b7","freq_resp","","","img/orange_2bandit_a.png","70","img/orange_2bandit_a.png","70","test","","","","","","","","","","","1","","","","","","","","",""
"null","215397","SARL_v6","SARL_v6s3565yby","57a12661913c7100019767b7","fixation","","","img/fixation.png","null","","","test","","","","","","","","","","","","","","","","","","","",""
"355.19999999552965","215753","SARL_v6","SARL_v6s3565yby","57a12661913c7100019767b7","freq","","","img/orange_2bandit_a2.png","70","","70","test","1","","4","","","","square","circle","4","4","1","0.75","","","","","","","",""
"null","216209","SARL_v6","SARL_v6s3565yby","57a12661913c7100019767b7","freq_resp","","","img/orange_2bandit_a.png","70","img/orange_2bandit_a.png","70","test","","","","","","","","","","","1","","","","","","","","",""
"null","216367","SARL_v6","SARL_v6s3565yby","57a12661913c7100019767b7","fixation","","","img/fixation.png","null","","","test","","","","","","","","","","","","","","","","","","","",""
"367.8999999985099","216735","SARL_v6","SARL_v6s3565yby","57a12661913c7100019767b7","freq","","","img/orange_2bandit_a2.png","70","","70","test","1","","5","","","","square","circle","5","5","1","0.8","","","","","","","",""
"null","217175","SARL_v6","SARL_v6s3565yby","57a12661913c7100019767b7","freq_resp","","","img/orange_2bandit_a.png","70","img/orange_2bandit_a.png","70","test","","","","","","","","","","","1","","","","","","","","",""
"null","217333","SARL_v6","SARL_v6s3565yby","57a12661913c7100019767b7","fixation","","","img/fixation.png","null","","","test","","","","","","","","","","","","","","","","","","","",""
"377","217711","SARL_v6","SARL_v6s3565yby","57a12661913c7100019767b7","freq","","","img/orange_2bandit_a2.png","70","","70","test","1","","6","","","","square","circle","6","6","1","0.8333333333333334","","","","","","","",""
"null","218142","SARL_v6","SARL_v6s3565yby","57a12661913c7100019767b7","freq_resp","","","img/orange_2bandit_a.png","70","img/orange_2bandit_a.png","70","test","","","","","","","","","","","1","","","","","","","","",""
"null","218300","SARL_v6","SARL_v6s3565yby","57a12661913c7100019767b7","fixation","","","img/fixation.png","null","","","test","","","","","","","","","","","","","","","","","","","",""
"371.79999999701977","218672","SARL_v6","SARL_v6s3565yby","57a12661913c7100019767b7","freq","","","img/orange_2bandit_a2.png","70","","70","test","1","","7","","","","square","circle","7","7","1","0.8571428571428571","","","","","","","",""
"null","219113","SARL_v6","SARL_v6s3565yby","57a12661913c7100019767b7","freq_resp","","","img/orange_2bandit_a.png","70","img/orange_2bandit_a.png","70","test","","","","","","","","","","","1","","","","","","","","",""
"null","219271","SARL_v6","SARL_v6s3565yby","57a12661913c7100019767b7","fixation","","","img/fixation.png","null","","","test","","","","","","","","","","","","","","","","","","","",""
"350.30000000447035","219622","SARL_v6","SARL_v6s3565yby","57a12661913c7100019767b7","freq","","","img/orange_2bandit_a2.png","70","","70","test","1","","8","","","","square","circle","8","8","1","0.875","","","","","","","",""
"null","220078","SARL_v6","SARL_v6s3565yby","57a12661913c7100019767b7","freq_resp","","","img/orange_2bandit_a.png","70","img/orange_2bandit_a.png","70","test","","","","","","","","","","","1","","","","","","","","",""
"null","220237","SARL_v6","SARL_v6s3565yby","57a12661913c7100019767b7","fixation","","","img/fixation.png","null","","","test","","","","","","","","","","","","","","","","","","","",""
"318.3999999985099","220556","SARL_v6","SARL_v6s3565yby","57a12661913c7100019767b7","freq","","","img/orange_2bandit_a2.png","70","","70","test","1","","9","","","","square","circle","9","9","1","0.8888888888888888","","","","","","","",""
"null","221045","SARL_v6","SARL_v6s3565yby","57a12661913c7100019767b7","freq_resp","","","img/orange_2bandit_a.png","70","img/orange_2bandit_a.png","70","test","","","","","","","","","","","1","","","","","","","","",""
"null","221197","SARL_v6","SARL_v6s3565yby","57a12661913c7100019767b7","fixation","","","img/fixation.png","null","","","test","","","","","","","","","","","","","","","","","","","",""
"444.70000000298023","221642","SARL_v6","SARL_v6s3565yby","57a12661913c7100019767b7","infreq","","","img/blue_2bandit_a2.png","68","","68","test","1","","10","","","","square","circle","10","10","1","0.9","","","","","","","",""
"null","222000","SARL_v6","SARL_v6s3565yby","57a12661913c7100019767b7","infreq_resp","","","img/blue_2bandit_a.png","68","img/blue_2bandit_a.png","68","test","","","","","","","","","","","1","","","","","","","","",""
"null","222157","SARL_v6","SARL_v6s3565yby","57a12661913c7100019767b7","fixation","","","img/fixation.png","null","","","test","","","","","","","","","","","","","","","","","","","",""
"442.30000000447035","222600","SARL_v6","SARL_v6s3565yby","57a12661913c7100019767b7","freq","","","img/orange_2bandit_a2.png","70","","70","test","1","","11","","","","square","circle","11","11","1","0.9090909090909091","","","","","","","",""
"null","222967","SARL_v6","SARL_v6s3565yby","57a12661913c7100019767b7","freq_resp","","","img/orange_2bandit_a.png","70","img/orange_2bandit_a.png","70","test","","","","","","","","","","","1","","","","","","","","",""
"null","223124","SARL_v6","SARL_v6s3565yby","57a12661913c7100019767b7","fixation","","","img/fixation.png","null","","","test","","","","","","","","","","","","","","","","","","","",""
"395.20000000298023","223521","SARL_v6","SARL_v6s3565yby","57a12661913c7100019767b7","freq","","","img/orange_2bandit_a2.png","68","","70","test","0","","12","","","","square","circle","12","12","1","0.8333333333333334","","","","","","","",""
"null","223931","SARL_v6","SARL_v6s3565yby","57a12661913c7100019767b7","freq_resp","","","img/orange_2bandit_a.png","68","img/orange_2bandit_a.png","70","test","","","","","","","","","","","1","","","","","","","","",""
"null","224088","SARL_v6","SARL_v6s3565yby","57a12661913c7100019767b7","fixation","","","img/fixation.png","null","","","test","","","","","","","","","","","","","","","","","","","",""
"null","224900","SARL_v6","SARL_v6s3565yby","57a12661913c7100019767b7","freq","","","img/orange_2bandit_a2.png","null","","70","test","0","","13","","","","square","circle","13","13","1","0.7692307692307693","","","","","","","",""
"null","225057","SARL_v6","SARL_v6s3565yby","57a12661913c7100019767b7","fixation","","","img/fixation.png","null","","","test","","","","","","","","","","","","","","","","","","","",""
"190","225248","SARL_v6","SARL_v6s3565yby","57a12661913c7100019767b7","infreq","","","img/blue_2bandit_a2.png","70","","68","test","0","","14","","","","square","circle","14","14","1","0.7142857142857143","","","","","","","",""
"null","225870","SARL_v6","SARL_v6s3565yby","57a12661913c7100019767b7","infreq_resp","","","img/blue_2bandit_a.png","70","img/blue_2bandit_a.png","68","test","","","","","","","","","","","1","","","","","","","","",""
"null","226022","SARL_v6","SARL_v6s3565yby","57a12661913c7100019767b7","fixation","","","img/fixation.png","null","","","test","","","","","","","","","","","","","","","","","","","",""
"658.7000000029802","226681","SARL_v6","SARL_v6s3565yby","57a12661913c7100019767b7","freq","","","img/orange_2bandit_a2.png","70","","70","test","1","","15","","","","square","circle","15","15","1","0.7333333333333333","","","","","","","",""
"null","226837","SARL_v6","SARL_v6s3565yby","57a12661913c7100019767b7","freq_resp","","","img/orange_2bandit_a.png","70","img/orange_2bandit_a.png","70","test","","","","","","","","","","","1","","","","","","","","",""
"null","226989","SARL_v6","SARL_v6s3565yby","57a12661913c7100019767b7","fixation","","","img/fixation.png","null","","","test","","","","","","","","","","","","","","","","","","","",""
"512.2999999970198","227502","SARL_v6","SARL_v6s3565yby","57a12661913c7100019767b7","freq","","","img/orange_2bandit_a2.png","70","","70","test","1","","16","","","","square","circle","16","16","1","0.75","","","","","","","",""
"null","227793","SARL_v6","SARL_v6s3565yby","57a12661913c7100019767b7","freq_resp","","","img/orange_2bandit_a.png","70","img/orange_2bandit_a.png","70","test","","","","","","","","","","","1","","","","","","","","",""
"null","227944","SARL_v6","SARL_v6s3565yby","57a12661913c7100019767b7","fixation","","","img/fixation.png","null","","","test","","","","","","","","","","","","","","","","","","","",""
"347.20000000298023","228292","SARL_v6","SARL_v6s3565yby","57a12661913c7100019767b7","freq","","","img/orange_2bandit_a2.png","70","","70","test","1","","17","","","","square","circle","17","17","1","0.7647058823529411","","","","","","","",""
"null","228761","SARL_v6","SARL_v6s3565yby","57a12661913c7100019767b7","freq_resp","","","img/orange_2bandit_a.png","70","img/orange_2bandit_a.png","70","test","","","","","","","","","","","1","","","","","","","","",""
"null","228920","SARL_v6","SARL_v6s3565yby","57a12661913c7100019767b7","fixation","","","img/fixation.png","null","","","test","","","","","","","","","","","","","","","","","","","",""
"366.5","229287","SARL_v6","SARL_v6s3565yby","57a12661913c7100019767b7","freq","","","img/orange_2bandit_a2.png","70","","70","test","1","","18","","","","square","circle","18","18","1","0.7777777777777778","","","","","","","",""
"null","229734","SARL_v6","SARL_v6s3565yby","57a12661913c7100019767b7","freq_resp","","","img/orange_2bandit_a.png","70","img/orange_2bandit_a.png","70","test","","","","","","","","","","","1","","","","","","","","",""
"null","229894","SARL_v6","SARL_v6s3565yby","57a12661913c7100019767b7","fixation","","","img/fixation.png","null","","","test","","","","","","","","","","","","","","","","","","","",""
"350.70000000298023","230245","SARL_v6","SARL_v6s3565yby","57a12661913c7100019767b7","freq","","","img/orange_2bandit_a2.png","70","","70","test","1","","19","","","","square","circle","19","19","1","0.7894736842105263","","","","","","","",""
"null","230706","SARL_v6","SARL_v6s3565yby","57a12661913c7100019767b7","freq_resp","","","img/orange_2bandit_a.png","70","img/orange_2bandit_a.png","70","test","","","","","","","","","","","1","","","","","","","","",""
"null","230865","SARL_v6","SARL_v6s3565yby","57a12661913c7100019767b7","fixation","","","img/fixation.png","null","","","test","","","","","","","","","","","","","","","","","","","",""
"321.5","231187","SARL_v6","SARL_v6s3565yby","57a12661913c7100019767b7","freq","","","img/orange_2bandit_a2.png","70","","70","test","1","","20","","","","square","circle","20","20","1","0.8","","","","","","","",""
"null","231669","SARL_v6","SARL_v6s3565yby","57a12661913c7100019767b7","freq_resp","","","img/orange_2bandit_a.png","70","img/orange_2bandit_a.png","70","test","","","","","","","","","","","1","","","","","","","","",""
"null","231829","SARL_v6","SARL_v6s3565yby","57a12661913c7100019767b7","fixation","","","img/fixation.png","null","","","test","","","","","","","","","","","","","","","","","","","",""
"368.8999999985099","232199","SARL_v6","SARL_v6s3565yby","57a12661913c7100019767b7","freq","","","img/orange_2bandit_a2.png","70","","70","test","1","","21","","","","square","circle","21","21","1","0.8095238095238095","","","","","","","",""
"null","232640","SARL_v6","SARL_v6s3565yby","57a12661913c7100019767b7","freq_resp","","","img/orange_2bandit_a.png","70","img/orange_2bandit_a.png","70","test","","","","","","","","","","","1","","","","","","","","",""
"null","232799","SARL_v6","SARL_v6s3565yby","57a12661913c7100019767b7","fixation","","","img/fixation.png","null","","","test","","","","","","","","","","","","","","","","","","","",""
"686.5","233487","SARL_v6","SARL_v6s3565yby","57a12661913c7100019767b7","rl","","","img/black_2bandit_a2.png","74","","0","test","","","22","","","-3","square","circle","","0","1","","74","-3","-3","-3","-3","square","1","0"
"null","234254","SARL_v6","SARL_v6s3565yby","57a12661913c7100019767b7","feedback","","","<div class=""verylowPoints_sq""> -3 </div>","null","","na","test","","","NaN","","","","","","","","1","","74","","","","","","1",""
"775.3999999985099","235031","SARL_v6","SARL_v6s3565yby","57a12661913c7100019767b7","freq","","","img/orange_2bandit_a2.png","70","","70","test","1","","23","","","","square","circle","22","1","2","0.8181818181818182","","","","","","","",""
"null","235056","SARL_v6","SARL_v6s3565yby","57a12661913c7100019767b7","freq_resp","","","img/orange_2bandit_a.png","70","img/orange_2bandit_a.png","70","test","","","","","","","","","","","2","","","","","","","","",""
"null","235212","SARL_v6","SARL_v6s3565yby","57a12661913c7100019767b7","fixation","","","img/fixation.png","null","","","test","","","","","","","","","","","","","","","","","","","",""
"780.7000000029802","235994","SARL_v6","SARL_v6s3565yby","57a12661913c7100019767b7","freq","","","img/orange_2bandit_a2.png","70","","70","test","1","","24","","","","square","circle","23","2","2","0.8260869565217391","","","","","","","",""
"null","236014","SARL_v6","SARL_v6s3565yby","57a12661913c7100019767b7","freq_resp","","","img/orange_2bandit_a.png","70","img/orange_2bandit_a.png","70","test","","","","","","","","","","","2","","","","","","","","",""
"null","236180","SARL_v6","SARL_v6s3565yby","57a12661913c7100019767b7","fixation","","","img/fixation.png","null","","","test","","","","","","","","","","","","","","","","","","","",""
"516.6000000014901","236698","SARL_v6","SARL_v6s3565yby","57a12661913c7100019767b7","freq","","","img/orange_2bandit_a2.png","70","","70","test","1","","25","","","","square","circle","24","3","2","0.8333333333333334","","","","","","","",""
"null","236991","SARL_v6","SARL_v6s3565yby","57a12661913c7100019767b7","freq_resp","","","img/orange_2bandit_a.png","70","img/orange_2bandit_a.png","70","test","","","","","","","","","","","2","","","","","","","","",""
"null","237142","SARL_v6","SARL_v6s3565yby","57a12661913c7100019767b7","fixation","","","img/fixation.png","null","","","test","","","","","","","","","","","","","","","","","","","",""
"512.5","237656","SARL_v6","SARL_v6s3565yby","57a12661913c7100019767b7","freq","","","img/orange_2bandit_a2.png","70","","70","test","1","","26","","","","square","circle","25","4","2","0.84","","","","","","","",""
"null","237947","SARL_v6","SARL_v6s3565yby","57a12661913c7100019767b7","freq_resp","","","img/orange_2bandit_a.png","70","img/orange_2bandit_a.png","70","test","","","","","","","","","","","2","","","","","","","","",""
"null","238098","SARL_v6","SARL_v6s3565yby","57a12661913c7100019767b7","fixation","","","img/fixation.png","null","","","test","","","","","","","","","","","","","","","","","","","",""
"552.6000000014901","238652","SARL_v6","SARL_v6s3565yby","57a12661913c7100019767b7","freq","","","img/orange_2bandit_a2.png","70","","70","test","1","","27","","","","square","circle","26","5","2","0.8461538461538461","","","","","","","",""
"null","238915","SARL_v6","SARL_v6s3565yby","57a12661913c7100019767b7","freq_resp","","","img/orange_2bandit_a.png","70","img/orange_2bandit_a.png","70","test","","","","","","","","","","","2","","","","","","","","",""
"null","239066","SARL_v6","SARL_v6s3565yby","57a12661913c7100019767b7","fixation","","","img/fixation.png","null","","","test","","","","","","","","","","","","","","","","","","","",""
"490.29999999701977","239558","SARL_v6","SARL_v6s3565yby","57a12661913c7100019767b7","freq","","","img/orange_2bandit_a2.png","70","","70","test","1","","28","","","","square","circle","27","6","2","0.8518518518518519","","","","","","","",""
"null","239869","SARL_v6","SARL_v6s3565yby","57a12661913c7100019767b7","freq_resp","","","img/orange_2bandit_a.png","70","img/orange_2bandit_a.png","70","test","","","","","","","","","","","2","","","","","","","","",""
"null","240021","SARL_v6","SARL_v6s3565yby","57a12661913c7100019767b7","fixation","","","img/fixation.png","null","","","test","","","","","","","","","","","","","","","","","","","",""
"333.70000000298023","240356","SARL_v6","SARL_v6s3565yby","57a12661913c7100019767b7","freq","","","img/orange_2bandit_a2.png","70","","70","test","1","","29","","","","square","circle","28","7","2","0.8571428571428571","","","","","","","",""
"null","240835","SARL_v6","SARL_v6s3565yby","57a12661913c7100019767b7","freq_resp","","","img/orange_2bandit_a.png","70","img/orange_2bandit_a.png","70","test","","","","","","","","","","","2","","","","","","","","",""
"null","240993","SARL_v6","SARL_v6s3565yby","57a12661913c7100019767b7","fixation","","","img/fixation.png","null","","","test","","","","","","","","","","","","","","","","","","","",""
"314.20000000298023","241309","SARL_v6","SARL_v6s3565yby","57a12661913c7100019767b7","freq","","","img/orange_2bandit_a2.png","70","","70","test","1","","30","","","","square","circle","29","8","2","0.8620689655172413","","","","","","","",""
"null","241801","SARL_v6","SARL_v6s3565yby","57a12661913c7100019767b7","freq_resp","","","img/orange_2bandit_a.png","70","img/orange_2bandit_a.png","70","test","","","","","","","","","","","2","","","","","","","","",""
"null","241957","SARL_v6","SARL_v6s3565yby","57a12661913c7100019767b7","fixation","","","img/fixation.png","null","","","test","","","","","","","","","","","","","","","","","","","",""
"322.70000000298023","242281","SARL_v6","SARL_v6s3565yby","57a12661913c7100019767b7","freq","","","img/orange_2bandit_a2.png","70","","70","test","1","","31","","","","square","circle","30","9","2","0.8666666666666667","","","","","","","",""
"null","242764","SARL_v6","SARL_v6s3565yby","57a12661913c7100019767b7","freq_resp","","","img/orange_2bandit_a.png","70","img/orange_2bandit_a.png","70","test","","","","","","","","","","","2","","","","","","","","",""
"null","242923","SARL_v6","SARL_v6s3565yby","57a12661913c7100019767b7","fixation","","","img/fixation.png","null","","","test","","","","","","","","","","","","","","","","","","","",""
"279.6000000014901","243204","SARL_v6","SARL_v6s3565yby","57a12661913c7100019767b7","infreq","","","img/blue_2bandit_a2.png","68","","68","test","1","","32","","","","square","circle","31","10","2","0.8709677419354839","","","","","","","",""
"null","243726","SARL_v6","SARL_v6s3565yby","57a12661913c7100019767b7","infreq_resp","","","img/blue_2bandit_a.png","68","img/blue_2bandit_a.png","68","test","","","","","","","","","","","2","","","","","","","","",""
"null","243884","SARL_v6","SARL_v6s3565yby","57a12661913c7100019767b7","fixation","","","img/fixation.png","null","","","test","","","","","","","","","","","","","","","","","","","",""
"588.3000000044703","244473","SARL_v6","SARL_v6s3565yby","57a12661913c7100019767b7","freq","","","img/orange_2bandit_a2.png","70","","70","test","1","","33","","","","square","circle","32","11","2","0.875","","","","","","","",""
"null","244688","SARL_v6","SARL_v6s3565yby","57a12661913c7100019767b7","freq_resp","","","img/orange_2bandit_a.png","70","img/orange_2bandit_a.png","70","test","","","","","","","","","","","2","","","","","","","","",""
"null","244844","SARL_v6","SARL_v6s3565yby","57a12661913c7100019767b7","fixation","","","img/fixation.png","null","","","test","","","","","","","","","","","","","","","","","","","",""
"476.5","245322","SARL_v6","SARL_v6s3565yby","57a12661913c7100019767b7","freq","","","img/orange_2bandit_a2.png","70","","70","test","1","","34","","","","square","circle","33","12","2","0.8787878787878788","","","","","","","",""
"null","245654","SARL_v6","SARL_v6s3565yby","57a12661913c7100019767b7","freq_resp","","","img/orange_2bandit_a.png","70","img/orange_2bandit_a.png","70","test","","","","","","","","","","","2","","","","","","","","",""
"null","245813","SARL_v6","SARL_v6s3565yby","57a12661913c7100019767b7","fixation","","","img/fixation.png","null","","","test","","","","","","","","","","","","","","","","","","","",""
"591.7000000029802","246406","SARL_v6","SARL_v6s3565yby","57a12661913c7100019767b7","infreq","","","img/blue_2bandit_a2.png","68","","68","test","1","","35","","","","square","circle","34","13","2","0.8823529411764706","","","","","","","",""
"null","246622","SARL_v6","SARL_v6s3565yby","57a12661913c7100019767b7","infreq_resp","","","img/blue_2bandit_a.png","68","img/blue_2bandit_a.png","68","test","","","","","","","","","","","2","","","","","","","","",""
"null","246778","SARL_v6","SARL_v6s3565yby","57a12661913c7100019767b7","fixation","","","img/fixation.png","null","","","test","","","","","","","","","","","","","","","","","","","",""
"447.20000000298023","247227","SARL_v6","SARL_v6s3565yby","57a12661913c7100019767b7","freq","","","img/orange_2bandit_a2.png","70","","70","test","1","","36","","","","square","circle","35","14","2","0.8857142857142857","","","","","","","",""
"null","247588","SARL_v6","SARL_v6s3565yby","57a12661913c7100019767b7","freq_resp","","","img/orange_2bandit_a.png","70","img/orange_2bandit_a.png","70","test","","","","","","","","","","","2","","","","","","","","",""
"null","247745","SARL_v6","SARL_v6s3565yby","57a12661913c7100019767b7","fixation","","","img/fixation.png","null","","","test","","","","","","","","","","","","","","","","","","","",""
"376.3999999985099","248123","SARL_v6","SARL_v6s3565yby","57a12661913c7100019767b7","freq","","","img/orange_2bandit_a2.png","70","","70","test","1","","37","","","","square","circle","36","15","2","0.8888888888888888","","","","","","","",""
"null","248554","SARL_v6","SARL_v6s3565yby","57a12661913c7100019767b7","freq_resp","","","img/orange_2bandit_a.png","70","img/orange_2bandit_a.png","70","test","","","","","","","","","","","2","","","","","","","","",""
"null","248711","SARL_v6","SARL_v6s3565yby","57a12661913c7100019767b7","fixation","","","img/fixation.png","null","","","test","","","","","","","","","","","","","","","","","","","",""
"376.20000000298023","249089","SARL_v6","SARL_v6s3565yby","57a12661913c7100019767b7","freq","","","img/orange_2bandit_a2.png","70","","70","test","1","","38","","","","square","circle","37","16","2","0.8918918918918919","","","","","","","",""
"null","249515","SARL_v6","SARL_v6s3565yby","57a12661913c7100019767b7","freq_resp","","","img/orange_2bandit_a.png","70","img/orange_2bandit_a.png","70","test","","","","","","","","","","","2","","","","","","","","",""
"null","249675","SARL_v6","SARL_v6s3565yby","57a12661913c7100019767b7","fixation","","","img/fixation.png","null","","","test","","","","","","","","","","","","","","","","","","","",""
"594","250270","SARL_v6","SARL_v6s3565yby","57a12661913c7100019767b7","freq","","","img/orange_2bandit_a2.png","70","","70","test","1","","39","","","","square","circle","38","17","2","0.8947368421052632","","","","","","","",""
"null","250487","SARL_v6","SARL_v6s3565yby","57a12661913c7100019767b7","freq_resp","","","img/orange_2bandit_a.png","70","img/orange_2bandit_a.png","70","test","","","","","","","","","","","2","","","","","","","","",""
"null","250646","SARL_v6","SARL_v6s3565yby","57a12661913c7100019767b7","fixation","","","img/fixation.png","null","","","test","","","","","","","","","","","","","","","","","","","",""
"324.8999999985099","250972","SARL_v6","SARL_v6s3565yby","57a12661913c7100019767b7","freq","","","img/orange_2bandit_a2.png","70","","70","test","1","","40","","","","square","circle","39","18","2","0.8974358974358975","","","","","","","",""
"null","251460","SARL_v6","SARL_v6s3565yby","57a12661913c7100019767b7","freq_resp","","","img/orange_2bandit_a.png","70","img/orange_2bandit_a.png","70","test","","","","","","","","","","","2","","","","","","","","",""
"null","251611","SARL_v6","SARL_v6s3565yby","57a12661913c7100019767b7","fixation","","","img/fixation.png","null","","","test","","","","","","","","","","","","","","","","","","","",""
"413.30000000447035","252026","SARL_v6","SARL_v6s3565yby","57a12661913c7100019767b7","infreq","","","img/blue_2bandit_a2.png","68","","68","test","1","","41","","","","square","circle","40","19","2","0.9","","","","","","","",""
"null","252419","SARL_v6","SARL_v6s3565yby","57a12661913c7100019767b7","infreq_resp","","","img/blue_2bandit_a.png","68","img/blue_2bandit_a.png","68","test","","","","","","","","","","","2","","","","","","","","",""
"null","252577","SARL_v6","SARL_v6s3565yby","57a12661913c7100019767b7","fixation","","","img/fixation.png","null","","","test","","","","","","","","","","","","","","","","","","","",""
"400.20000000298023","252978","SARL_v6","SARL_v6s3565yby","57a12661913c7100019767b7","freq","","","img/orange_2bandit_a2.png","70","","70","test","1","","42","","","","square","circle","41","20","2","0.9024390243902439","","","","","","","",""
"null","253385","SARL_v6","SARL_v6s3565yby","57a12661913c7100019767b7","freq_resp","","","img/orange_2bandit_a.png","70","img/orange_2bandit_a.png","70","test","","","","","","","","","","","2","","","","","","","","",""
"null","253543","SARL_v6","SARL_v6s3565yby","57a12661913c7100019767b7","fixation","","","img/fixation.png","null","","","test","","","","","","","","","","","","","","","","","","","",""
"344.3999999985099","253888","SARL_v6","SARL_v6s3565yby","57a12661913c7100019767b7","freq","","","img/orange_2bandit_a2.png","70","","70","test","1","","43","","","","square","circle","42","21","2","0.9047619047619048","","","","","","","",""
"null","254348","SARL_v6","SARL_v6s3565yby","57a12661913c7100019767b7","freq_resp","","","img/orange_2bandit_a.png","70","img/orange_2bandit_a.png","70","test","","","","","","","","","","","2","","","","","","","","",""
"null","254506","SARL_v6","SARL_v6s3565yby","57a12661913c7100019767b7","fixation","","","img/fixation.png","null","","","test","","","","","","","","","","","","","","","","","","","",""
"400.80000000447035","254908","SARL_v6","SARL_v6s3565yby","57a12661913c7100019767b7","freq","","","img/orange_2bandit_a2.png","70","","70","test","1","","44","","","","square","circle","43","22","2","0.9069767441860465","","","","","","","",""
"null","255314","SARL_v6","SARL_v6s3565yby","57a12661913c7100019767b7","freq_resp","","","img/orange_2bandit_a.png","70","img/orange_2bandit_a.png","70","test","","","","","","","","","","","2","","","","","","","","",""
"null","255472","SARL_v6","SARL_v6s3565yby","57a12661913c7100019767b7","fixation","","","img/fixation.png","null","","","test","","","","","","","","","","","","","","","","","","","",""
"404.70000000298023","255878","SARL_v6","SARL_v6s3565yby","57a12661913c7100019767b7","freq","","","img/orange_2bandit_a2.png","70","","70","test","1","","45","","","","square","circle","44","23","2","0.9090909090909091","","","","","","","",""
"null","256284","SARL_v6","SARL_v6s3565yby","57a12661913c7100019767b7","freq_resp","","","img/orange_2bandit_a.png","70","img/orange_2bandit_a.png","70","test","","","","","","","","","","","2","","","","","","","","",""
"null","256441","SARL_v6","SARL_v6s3565yby","57a12661913c7100019767b7","fixation","","","img/fixation.png","null","","","test","","","","","","","","","","","","","","","","","","","",""
"339.1000000014901","256782","SARL_v6","SARL_v6s3565yby","57a12661913c7100019767b7","freq","","","img/orange_2bandit_a2.png","70","","70","test","1","","46","","","","square","circle","45","24","2","0.9111111111111111","","","","","","","",""
"null","257256","SARL_v6","SARL_v6s3565yby","57a12661913c7100019767b7","freq_resp","","","img/orange_2bandit_a.png","70","img/orange_2bandit_a.png","70","test","","","","","","","","","","","2","","","","","","","","",""
"null","257412","SARL_v6","SARL_v6s3565yby","57a12661913c7100019767b7","fixation","","","img/fixation.png","null","","","test","","","","","","","","","","","","","","","","","","","",""
"488.70000000298023","257902","SARL_v6","SARL_v6s3565yby","57a12661913c7100019767b7","freq","","","img/orange_2bandit_a2.png","70","","70","test","1","","47","","","","square","circle","46","25","2","0.9130434782608695","","","","","","","",""
"null","258223","SARL_v6","SARL_v6s3565yby","57a12661913c7100019767b7","freq_resp","","","img/orange_2bandit_a.png","70","img/orange_2bandit_a.png","70","test","","","","","","","","","","","2","","","","","","","","",""
"null","258375","SARL_v6","SARL_v6s3565yby","57a12661913c7100019767b7","fixation","","","img/fixation.png","null","","","test","","","","","","","","","","","","","","","","","","","",""
"951.8999999985099","259328","SARL_v6","SARL_v6s3565yby","57a12661913c7100019767b7","rl","","","img/black_2bandit_a2.png","74","","0","test","","","48","","","-5","square","circle","","0","2","","74","-8","-5","-5","-8","square","2","0"
"null","260094","SARL_v6","SARL_v6s3565yby","57a12661913c7100019767b7","feedback","","","<div class=""verylowPoints_sq""> -5 </div>","null","","na","test","","","NaN","","","","","","","","2","","74","","","","","","2",""
"705","260800","SARL_v6","SARL_v6s3565yby","57a12661913c7100019767b7","freq","","","img/orange_2bandit_a2.png","70","","70","test","1","","49","","","","square","circle","47","1","3","0.9148936170212766","","","","","","","",""
"null","260896","SARL_v6","SARL_v6s3565yby","57a12661913c7100019767b7","freq_resp","","","img/orange_2bandit_a.png","70","img/orange_2bandit_a.png","70","test","","","","","","","","","","","3","","","","","","","","",""
"null","261049","SARL_v6","SARL_v6s3565yby","57a12661913c7100019767b7","fixation","","","img/fixation.png","null","","","test","","","","","","","","","","","","","","","","","","","",""
"504.6000000014901","261555","SARL_v6","SARL_v6s3565yby","57a12661913c7100019767b7","freq","","","img/orange_2bandit_a2.png","70","","70","test","1","","50","","","","square","circle","48","2","3","0.9166666666666666","","","","","","","",""
"null","261855","SARL_v6","SARL_v6s3565yby","57a12661913c7100019767b7","freq_resp","","","img/orange_2bandit_a.png","70","img/orange_2bandit_a.png","70","test","","","","","","","","","","","3","","","","","","","","",""
"null","262012","SARL_v6","SARL_v6s3565yby","57a12661913c7100019767b7","fixation","","","img/fixation.png","null","","","test","","","","","","","","","","","","","","","","","","","",""
"354.5","262368","SARL_v6","SARL_v6s3565yby","57a12661913c7100019767b7","freq","","","img/orange_2bandit_a2.png","70","","70","test","1","","51","","","","square","circle","49","3","3","0.9183673469387755","","","","","","","",""
"null","262820","SARL_v6","SARL_v6s3565yby","57a12661913c7100019767b7","freq_resp","","","img/orange_2bandit_a.png","70","img/orange_2bandit_a.png","70","test","","","","","","","","","","","3","","","","","","","","",""
"null","262978","SARL_v6","SARL_v6s3565yby","57a12661913c7100019767b7","fixation","","","img/fixation.png","null","","","test","","","","","","","","","","","","","","","","","","","",""
"269.1000000014901","263248","SARL_v6","SARL_v6s3565yby","57a12661913c7100019767b7","freq","","","img/orange_2bandit_a2.png","70","","70","test","1","","52","","","","square","circle","50","4","3","0.92","","","","","","","",""
"null","263785","SARL_v6","SARL_v6s3565yby","57a12661913c7100019767b7","freq_resp","","","img/orange_2bandit_a.png","70","img/orange_2bandit_a.png","70","test","","","","","","","","","","","3","","","","","","","","",""
"null","263945","SARL_v6","SARL_v6s3565yby","57a12661913c7100019767b7","fixation","","","img/fixation.png","null","","","test","","","","","","","","","","","","","","","","","","","",""
"383","264329","SARL_v6","SARL_v6s3565yby","57a12661913c7100019767b7","infreq","","","img/blue_2bandit_a2.png","68","","68","test","1","","53","","","","square","circle","51","5","3","0.9215686274509803","","","","","","","",""
"null","264751","SARL_v6","SARL_v6s3565yby","57a12661913c7100019767b7","infreq_resp","","","img/blue_2bandit_a.png","68","img/blue_2bandit_a.png","68","test","","","","","","","","","","","3","","","","","","","","",""
"null","264909","SARL_v6","SARL_v6s3565yby","57a12661913c7100019767b7","fixation","","","img/fixation.png","null","","","test","","","","","","","","","","","","","","","","","","","",""
"450.1000000014901","265360","SARL_v6","SARL_v6s3565yby","57a12661913c7100019767b7","freq","","","img/orange_2bandit_a2.png","70","","70","test","1","","54","","","","square","circle","52","6","3","0.9230769230769231","","","","","","","",""
"null","265718","SARL_v6","SARL_v6s3565yby","57a12661913c7100019767b7","freq_resp","","","img/orange_2bandit_a.png","70","img/orange_2bandit_a.png","70","test","","","","","","","","","","","3","","","","","","","","",""
"null","265878","SARL_v6","SARL_v6s3565yby","57a12661913c7100019767b7","fixation","","","img/fixation.png","null","","","test","","","","","","","","","","","","","","","","","","","",""
"null","266680","SARL_v6","SARL_v6s3565yby","57a12661913c7100019767b7","freq","","","img/orange_2bandit_a2.png","null","","70","test","0","","55","","","","square","circle","53","7","3","0.9056603773584906","","","","","","","",""
"null","266833","SARL_v6","SARL_v6s3565yby","57a12661913c7100019767b7","fixation","","","img/fixation.png","null","","","test","","","","","","","","","","","","","","","","","","","",""
"460.20000000298023","267295","SARL_v6","SARL_v6s3565yby","57a12661913c7100019767b7","freq","","","img/orange_2bandit_a2.png","70","","70","test","1","","56","","","","square","circle","54","8","3","0.9074074074074074","","","","","","","",""
"null","267646","SARL_v6","SARL_v6s3565yby","57a12661913c7100019767b7","freq_resp","","","img/orange_2bandit_a.png","70","img/orange_2bandit_a.png","70","test","","","","","","","","","","","3","","","","","","","","",""
"null","267806","SARL_v6","SARL_v6s3565yby","57a12661913c7100019767b7","fixation","","","img/fixation.png","null","","","test","","","","","","","","","","","","","","","","","","","",""
"319.70000000298023","268126","SARL_v6","SARL_v6s3565yby","57a12661913c7100019767b7","freq","","","img/orange_2bandit_a2.png","70","","70","test","1","","57","","","","square","circle","55","9","3","0.9090909090909091","","","","","","","",""
"null","268613","SARL_v6","SARL_v6s3565yby","57a12661913c7100019767b7","freq_resp","","","img/orange_2bandit_a.png","70","img/orange_2bandit_a.png","70","test","","","","","","","","","","","3","","","","","","","","",""
"null","268773","SARL_v6","SARL_v6s3565yby","57a12661913c7100019767b7","fixation","","","img/fixation.png","null","","","test","","","","","","","","","","","","","","","","","","","",""
"325.30000000447035","269100","SARL_v6","SARL_v6s3565yby","57a12661913c7100019767b7","freq","","","img/orange_2bandit_a2.png","70","","70","test","1","","58","","","","square","circle","56","10","3","0.9107142857142857","","","","","","","",""
"null","269583","SARL_v6","SARL_v6s3565yby","57a12661913c7100019767b7","freq_resp","","","img/orange_2bandit_a.png","70","img/orange_2bandit_a.png","70","test","","","","","","","","","","","3","","","","","","","","",""
"null","269735","SARL_v6","SARL_v6s3565yby","57a12661913c7100019767b7","fixation","","","img/fixation.png","null","","","test","","","","","","","","","","","","","","","","","","","",""
"423.70000000298023","270160","SARL_v6","SARL_v6s3565yby","57a12661913c7100019767b7","infreq","","","img/blue_2bandit_a2.png","68","","68","test","1","","59","","","","square","circle","57","11","3","0.9122807017543859","","","","","","","",""
"null","270540","SARL_v6","SARL_v6s3565yby","57a12661913c7100019767b7","infreq_resp","","","img/blue_2bandit_a.png","68","img/blue_2bandit_a.png","68","test","","","","","","","","","","","3","","","","","","","","",""
"null","270697","SARL_v6","SARL_v6s3565yby","57a12661913c7100019767b7","fixation","","","img/fixation.png","null","","","test","","","","","","","","","","","","","","","","","","","",""
"410.29999999701977","271109","SARL_v6","SARL_v6s3565yby","57a12661913c7100019767b7","freq","","","img/orange_2bandit_a2.png","70","","70","test","1","","60","","","","square","circle","58","12","3","0.9137931034482759","","","","","","","",""
"null","271513","SARL_v6","SARL_v6s3565yby","57a12661913c7100019767b7","freq_resp","","","img/orange_2bandit_a.png","70","img/orange_2bandit_a.png","70","test","","","","","","","","","","","3","","","","","","","","",""
"null","271669","SARL_v6","SARL_v6s3565yby","57a12661913c7100019767b7","fixation","","","img/fixation.png","null","","","test","","","","","","","","","","","","","","","","","","","",""
"398.80000000447035","272069","SARL_v6","SARL_v6s3565yby","57a12661913c7100019767b7","freq","","","img/orange_2bandit_a2.png","70","","70","test","1","","61","","","","square","circle","59","13","3","0.9152542372881356","","","","","","","",""
"null","272481","SARL_v6","SARL_v6s3565yby","57a12661913c7100019767b7","freq_resp","","","img/orange_2bandit_a.png","70","img/orange_2bandit_a.png","70","test","","","","","","","","","","","3","","","","","","","","",""
"null","272638","SARL_v6","SARL_v6s3565yby","57a12661913c7100019767b7","fixation","","","img/fixation.png","null","","","test","","","","","","","","","","","","","","","","","","","",""
"430.5","273070","SARL_v6","SARL_v6s3565yby","57a12661913c7100019767b7","freq","","","img/orange_2bandit_a2.png","70","","70","test","1","","62","","","","square","circle","60","14","3","0.9166666666666666","","","","","","","",""
"null","273451","SARL_v6","SARL_v6s3565yby","57a12661913c7100019767b7","freq_resp","","","img/orange_2bandit_a.png","70","img/orange_2bandit_a.png","70","test","","","","","","","","","","","3","","","","","","","","",""
"null","273611","SARL_v6","SARL_v6s3565yby","57a12661913c7100019767b7","fixation","","","img/fixation.png","null","","","test","","","","","","","","","","","","","","","","","","","",""
"470.8999999985099","274083","SARL_v6","SARL_v6s3565yby","57a12661913c7100019767b7","freq","","","img/orange_2bandit_a2.png","70","","70","test","1","","63","","","","square","circle","61","15","3","0.9180327868852459","","","","","","","",""
"null","274421","SARL_v6","SARL_v6s3565yby","57a12661913c7100019767b7","freq_resp","","","img/orange_2bandit_a.png","70","img/orange_2bandit_a.png","70","test","","","","","","","","","","","3","","","","","","","","",""
"null","274573","SARL_v6","SARL_v6s3565yby","57a12661913c7100019767b7","fixation","","","img/fixation.png","null","","","test","","","","","","","","","","","","","","","","","","","",""
"416.6000000014901","274990","SARL_v6","SARL_v6s3565yby","57a12661913c7100019767b7","freq","","","img/orange_2bandit_a2.png","70","","70","test","1","","64","","","","square","circle","62","16","3","0.9193548387096774","","","","","","","",""
"null","275388","SARL_v6","SARL_v6s3565yby","57a12661913c7100019767b7","freq_resp","","","img/orange_2bandit_a.png","70","img/orange_2bandit_a.png","70","test","","","","","","","","","","","3","","","","","","","","",""
"null","275547","SARL_v6","SARL_v6s3565yby","57a12661913c7100019767b7","fixation","","","img/fixation.png","null","","","test","","","","","","","","","","","","","","","","","","","",""
"410","275958","SARL_v6","SARL_v6s3565yby","57a12661913c7100019767b7","freq","","","img/orange_2bandit_a2.png","70","","70","test","1","","65","","","","square","circle","63","17","3","0.9206349206349206","","","","","","","",""
"null","276355","SARL_v6","SARL_v6s3565yby","57a12661913c7100019767b7","freq_resp","","","img/orange_2bandit_a.png","70","img/orange_2bandit_a.png","70","test","","","","","","","","","","","3","","","","","","","","",""
"null","276513","SARL_v6","SARL_v6s3565yby","57a12661913c7100019767b7","fixation","","","img/fixation.png","null","","","test","","","","","","","","","","","","","","","","","","","",""
"364.29999999701977","276879","SARL_v6","SARL_v6s3565yby","57a12661913c7100019767b7","freq","","","img/orange_2bandit_a2.png","70","","70","test","1","","66","","","","square","circle","64","18","3","0.921875","","","","","","","",""
"null","277321","SARL_v6","SARL_v6s3565yby","57a12661913c7100019767b7","freq_resp","","","img/orange_2bandit_a.png","70","img/orange_2bandit_a.png","70","test","","","","","","","","","","","3","","","","","","","","",""
"null","277478","SARL_v6","SARL_v6s3565yby","57a12661913c7100019767b7","fixation","","","img/fixation.png","null","","","test","","","","","","","","","","","","","","","","","","","",""
"448.8999999985099","277928","SARL_v6","SARL_v6s3565yby","57a12661913c7100019767b7","freq","","","img/orange_2bandit_a2.png","70","","70","test","1","","67","","","","square","circle","65","19","3","0.9230769230769231","","","","","","","",""
"null","278287","SARL_v6","SARL_v6s3565yby","57a12661913c7100019767b7","freq_resp","","","img/orange_2bandit_a.png","70","img/orange_2bandit_a.png","70","test","","","","","","","","","","","3","","","","","","","","",""
"null","278445","SARL_v6","SARL_v6s3565yby","57a12661913c7100019767b7","fixation","","","img/fixation.png","null","","","test","","","","","","","","","","","","","","","","","","","",""
"451.80000000447035","278898","SARL_v6","SARL_v6s3565yby","57a12661913c7100019767b7","freq","","","img/orange_2bandit_a2.png","70","","70","test","1","","68","","","","square","circle","66","20","3","0.9242424242424242","","","","","","","",""
"null","279252","SARL_v6","SARL_v6s3565yby","57a12661913c7100019767b7","freq_resp","","","img/orange_2bandit_a.png","70","img/orange_2bandit_a.png","70","test","","","","","","","","","","","3","","","","","","","","",""
"null","279410","SARL_v6","SARL_v6s3565yby","57a12661913c7100019767b7","fixation","","","img/fixation.png","null","","","test","","","","","","","","","","","","","","","","","","","",""
"584.6000000014901","279996","SARL_v6","SARL_v6s3565yby","57a12661913c7100019767b7","rl","","","img/black_2bandit_a2.png","75","","0","test","","","69","","","-8","square","circle","","0","3","","75","-8","-4","-4","-8","circle","3","0"
"null","280759","SARL_v6","SARL_v6s3565yby","57a12661913c7100019767b7","feedback","","","<div class=""verylowPoints""> -8 </div>","null","","na","test","","","NaN","","","","","","","","3","","75","","","","","","3",""
"701.6000000014901","281462","SARL_v6","SARL_v6s3565yby","57a12661913c7100019767b7","freq","","","img/orange_2bandit_a2.png","70","","70","test","1","","70","","","","square","circle","67","1","4","0.9253731343283582","","","","","","","",""
"null","281562","SARL_v6","SARL_v6s3565yby","57a12661913c7100019767b7","freq_resp","","","img/orange_2bandit_a.png","70","img/orange_2bandit_a.png","70","test","","","","","","","","","","","4","","","","","","","","",""
"null","281726","SARL_v6","SARL_v6s3565yby","57a12661913c7100019767b7","fixation","","","img/fixation.png","null","","","test","","","","","","","","","","","","","","","","","","","",""
"369.70000000298023","282097","SARL_v6","SARL_v6s3565yby","57a12661913c7100019767b7","freq","","","img/orange_2bandit_a2.png","70","","70","test","1","","71","","","","square","circle","68","2","4","0.9264705882352942","","","","","","","",""
"null","282534","SARL_v6","SARL_v6s3565yby","57a12661913c7100019767b7","freq_resp","","","img/orange_2bandit_a.png","70","img/orange_2bandit_a.png","70","test","","","","","","","","","","","4","","","","","","","","",""
"null","282693","SARL_v6","SARL_v6s3565yby","57a12661913c7100019767b7","fixation","","","img/fixation.png","null","","","test","","","","","","","","","","","","","","","","","","","",""
"294.6000000014901","282989","SARL_v6","SARL_v6s3565yby","57a12661913c7100019767b7","freq","","","img/orange_2bandit_a2.png","70","","70","test","1","","72","","","","square","circle","69","3","4","0.927536231884058","","","","","","","",""
"null","283503","SARL_v6","SARL_v6s3565yby","57a12661913c7100019767b7","freq_resp","","","img/orange_2bandit_a.png","70","img/orange_2bandit_a.png","70","test","","","","","","","","","","","4","","","","","","","","",""
"null","283655","SARL_v6","SARL_v6s3565yby","57a12661913c7100019767b7","fixation","","","img/fixation.png","null","","","test","","","","","","","","","","","","","","","","","","","",""
"375","284031","SARL_v6","SARL_v6s3565yby","57a12661913c7100019767b7","freq","","","img/orange_2bandit_a2.png","70","","70","test","1","","73","","","","square","circle","70","4","4","0.9285714285714286","","","","","","","",""
"null","284458","SARL_v6","SARL_v6s3565yby","57a12661913c7100019767b7","freq_resp","","","img/orange_2bandit_a.png","70","img/orange_2bandit_a.png","70","test","","","","","","","","","","","4","","","","","","","","",""
"null","284615","SARL_v6","SARL_v6s3565yby","57a12661913c7100019767b7","fixation","","","img/fixation.png","null","","","test","","","","","","","","","","","","","","","","","","","",""
"314.1000000014901","284930","SARL_v6","SARL_v6s3565yby","57a12661913c7100019767b7","freq","","","img/orange_2bandit_a2.png","70","","70","test","1","","74","","","","square","circle","71","5","4","0.9295774647887324","","","","","","","",""
"null","285427","SARL_v6","SARL_v6s3565yby","57a12661913c7100019767b7","freq_resp","","","img/orange_2bandit_a.png","70","img/orange_2bandit_a.png","70","test","","","","","","","","","","","4","","","","","","","","",""
"null","285579","SARL_v6","SARL_v6s3565yby","57a12661913c7100019767b7","fixation","","","img/fixation.png","null","","","test","","","","","","","","","","","","","","","","","","","",""
"254.70000000298023","285835","SARL_v6","SARL_v6s3565yby","57a12661913c7100019767b7","freq","","","img/orange_2bandit_a2.png","70","","70","test","1","","75","","","","square","circle","72","6","4","0.9305555555555556","","","","","","","",""
"null","286382","SARL_v6","SARL_v6s3565yby","57a12661913c7100019767b7","freq_resp","","","img/orange_2bandit_a.png","70","img/orange_2bandit_a.png","70","test","","","","","","","","","","","4","","","","","","","","",""
"null","286533","SARL_v6","SARL_v6s3565yby","57a12661913c7100019767b7","fixation","","","img/fixation.png","null","","","test","","","","","","","","","","","","","","","","","","","",""
"376.5","286911","SARL_v6","SARL_v6s3565yby","57a12661913c7100019767b7","infreq","","","img/blue_2bandit_a2.png","68","","68","test","1","","76","","","","square","circle","73","7","4","0.9315068493150684","","","","","","","",""
"null","287350","SARL_v6","SARL_v6s3565yby","57a12661913c7100019767b7","infreq_resp","","","img/blue_2bandit_a.png","68","img/blue_2bandit_a.png","68","test","","","","","","","","","","","4","","","","","","","","",""
"null","287508","SARL_v6","SARL_v6s3565yby","57a12661913c7100019767b7","fixation","","","img/fixation.png","null","","","test","","","","","","","","","","","","","","","","","","","",""
"419.70000000298023","287929","SARL_v6","SARL_v6s3565yby","57a12661913c7100019767b7","freq","","","img/orange_2bandit_a2.png","68","","70","test","0","","77","","","","square","circle","74","8","4","0.918918918918919","","","","","","","",""
"null","288318","SARL_v6","SARL_v6s3565yby","57a12661913c7100019767b7","freq_resp","","","img/orange_2bandit_a.png","68","img/orange_2bandit_a.png","70","test","","","","","","","","","","","4","","","","","","","","",""
"null","288477","SARL_v6","SARL_v6s3565yby","57a12661913c7100019767b7","fixation","","","img/fixation.png","null","","","test","","","","","","","","","","","","","","","","","","","",""
"436.8999999985099","288915","SARL_v6","SARL_v6s3565yby","57a12661913c7100019767b7","freq","","","img/orange_2bandit_a2.png","70","","70","test","1","","78","","","","square","circle","75","9","4","0.92","","","","","","","",""
"null","289288","SARL_v6","SARL_v6s3565yby","57a12661913c7100019767b7","freq_resp","","","img/orange_2bandit_a.png","70","img/orange_2bandit_a.png","70","test","","","","","","","","","","","4","","","","","","","","",""
"null","289445","SARL_v6","SARL_v6s3565yby","57a12661913c7100019767b7","fixation","","","img/fixation.png","null","","","test","","","","","","","","","","","","","","","","","","","",""
"267.1000000014901","289714","SARL_v6","SARL_v6s3565yby","57a12661913c7100019767b7","freq","","","img/orange_2bandit_a2.png","70","","70","test","1","","79","","","","square","circle","76","10","4","0.9210526315789473","","","","","","","",""
"null","290254","SARL_v6","SARL_v6s3565yby","57a12661913c7100019767b7","freq_resp","","","img/orange_2bandit_a.png","70","img/orange_2bandit_a.png","70","test","","","","","","","","","","","4","","","","","","","","",""
"null","290405","SARL_v6","SARL_v6s3565yby","57a12661913c7100019767b7","fixation","","","img/fixation.png","null","","","test","","","","","","","","","","","","","","","","","","","",""
"306.29999999701977","290713","SARL_v6","SARL_v6s3565yby","57a12661913c7100019767b7","freq","","","img/orange_2bandit_a2.png","70","","70","test","1","","80","","","","square","circle","77","11","4","0.922077922077922","","","","","","","",""
"null","291210","SARL_v6","SARL_v6s3565yby","57a12661913c7100019767b7","freq_resp","","","img/orange_2bandit_a.png","70","img/orange_2bandit_a.png","70","test","","","","","","","","","","","4","","","","","","","","",""
"null","291362","SARL_v6","SARL_v6s3565yby","57a12661913c7100019767b7","fixation","","","img/fixation.png","null","","","test","","","","","","","","","","","","","","","","","","","",""
"370.70000000298023","291734","SARL_v6","SARL_v6s3565yby","57a12661913c7100019767b7","freq","","","img/orange_2bandit_a2.png","70","","70","test","1","","81","","","","square","circle","78","12","4","0.9230769230769231","","","","","","","",""
"null","292179","SARL_v6","SARL_v6s3565yby","57a12661913c7100019767b7","freq_resp","","","img/orange_2bandit_a.png","70","img/orange_2bandit_a.png","70","test","","","","","","","","","","","4","","","","","","","","",""
"null","292339","SARL_v6","SARL_v6s3565yby","57a12661913c7100019767b7","fixation","","","img/fixation.png","null","","","test","","","","","","","","","","","","","","","","","","","",""
"406.8999999985099","292747","SARL_v6","SARL_v6s3565yby","57a12661913c7100019767b7","freq","","","img/orange_2bandit_a2.png","70","","70","test","1","","82","","","","square","circle","79","13","4","0.9240506329113924","","","","","","","",""
"null","293146","SARL_v6","SARL_v6s3565yby","57a12661913c7100019767b7","freq_resp","","","img/orange_2bandit_a.png","70","img/orange_2bandit_a.png","70","test","","","","","","","","","","","4","","","","","","","","",""
"null","293302","SARL_v6","SARL_v6s3565yby","57a12661913c7100019767b7","fixation","","","img/fixation.png","null","","","test","","","","","","","","","","","","","","","","","","","",""
"796.7000000029802","294100","SARL_v6","SARL_v6s3565yby","57a12661913c7100019767b7","infreq","","","img/blue_2bandit_a2.png","68","","68","test","1","","83","","","","square","circle","80","14","4","0.925","","","","","","","",""
"null","294104","SARL_v6","SARL_v6s3565yby","57a12661913c7100019767b7","infreq_resp","","","img/blue_2bandit_a.png","68","img/blue_2bandit_a.png","68","test","","","","","","","","","","","4","","","","","","","","",""
"null","294256","SARL_v6","SARL_v6s3565yby","57a12661913c7100019767b7","fixation","","","img/fixation.png","null","","","test","","","","","","","","","","","","","","","","","","","",""
"542.1000000014901","294799","SARL_v6","SARL_v6s3565yby","57a12661913c7100019767b7","freq","","","img/orange_2bandit_a2.png","70","","70","test","1","","84","","","","square","circle","81","15","4","0.9259259259259259","","","","","","","",""
"null","295066","SARL_v6","SARL_v6s3565yby","57a12661913c7100019767b7","freq_resp","","","img/orange_2bandit_a.png","70","img/orange_2bandit_a.png","70","test","","","","","","","","","","","4","","","","","","","","",""
"null","295225","SARL_v6","SARL_v6s3565yby","57a12661913c7100019767b7","fixation","","","img/fixation.png","null","","","test","","","","","","","","","","","","","","","","","","","",""
"567.8999999985099","295794","SARL_v6","SARL_v6s3565yby","57a12661913c7100019767b7","freq","","","img/orange_2bandit_a2.png","70","","70","test","1","","85","","","","square","circle","82","16","4","0.926829268292683","","","","","","","",""
"null","296037","SARL_v6","SARL_v6s3565yby","57a12661913c7100019767b7","freq_resp","","","img/orange_2bandit_a.png","70","img/orange_2bandit_a.png","70","test","","","","","","","","","","","4","","","","","","","","",""
"null","296195","SARL_v6","SARL_v6s3565yby","57a12661913c7100019767b7","fixation","","","img/fixation.png","null","","","test","","","","","","","","","","","","","","","","","","","",""
"415.5","296611","SARL_v6","SARL_v6s3565yby","57a12661913c7100019767b7","freq","","","img/orange_2bandit_a2.png","70","","70","test","1","","86","","","","square","circle","83","17","4","0.927710843373494","","","","","","","",""
"null","297005","SARL_v6","SARL_v6s3565yby","57a12661913c7100019767b7","freq_resp","","","img/orange_2bandit_a.png","70","img/orange_2bandit_a.png","70","test","","","","","","","","","","","4","","","","","","","","",""
"null","297164","SARL_v6","SARL_v6s3565yby","57a12661913c7100019767b7","fixation","","","img/fixation.png","null","","","test","","","","","","","","","","","","","","","","","","","",""
"361.6000000014901","297527","SARL_v6","SARL_v6s3565yby","57a12661913c7100019767b7","freq","","","img/orange_2bandit_a2.png","70","","70","test","1","","87","","","","square","circle","84","18","4","0.9285714285714286","","","","","","","",""
"null","297979","SARL_v6","SARL_v6s3565yby","57a12661913c7100019767b7","freq_resp","","","img/orange_2bandit_a.png","70","img/orange_2bandit_a.png","70","test","","","","","","","","","","","4","","","","","","","","",""
"null","298135","SARL_v6","SARL_v6s3565yby","57a12661913c7100019767b7","fixation","","","img/fixation.png","null","","","test","","","","","","","","","","","","","","","","","","","",""
"513.6000000014901","298650","SARL_v6","SARL_v6s3565yby","57a12661913c7100019767b7","freq","","","img/orange_2bandit_a2.png","70","","70","test","1","","88","","","","square","circle","85","19","4","0.9294117647058824","","","","","","","",""
"null","298945","SARL_v6","SARL_v6s3565yby","57a12661913c7100019767b7","freq_resp","","","img/orange_2bandit_a.png","70","img/orange_2bandit_a.png","70","test","","","","","","","","","","","4","","","","","","","","",""
"null","299103","SARL_v6","SARL_v6s3565yby","57a12661913c7100019767b7","fixation","","","img/fixation.png","null","","","test","","","","","","","","","","","","","","","","","","","",""
"358.79999999701977","299463","SARL_v6","SARL_v6s3565yby","57a12661913c7100019767b7","freq","","","img/orange_2bandit_a2.png","70","","70","test","1","","89","","","","square","circle","86","20","4","0.9302325581395349","","","","","","","",""
"null","299912","SARL_v6","SARL_v6s3565yby","57a12661913c7100019767b7","freq_resp","","","img/orange_2bandit_a.png","70","img/orange_2bandit_a.png","70","test","","","","","","","","","","","4","","","","","","","","",""
"null","300070","SARL_v6","SARL_v6s3565yby","57a12661913c7100019767b7","fixation","","","img/fixation.png","null","","","test","","","","","","","","","","","","","","","","","","","",""
"725.8000000044703","300797","SARL_v6","SARL_v6s3565yby","57a12661913c7100019767b7","rl","","","img/black_2bandit_a2.png","74","","0","test","","","90","","","0","square","circle","","0","4","","74","-12","0","0","-12","square","4","0"
"null","301563","SARL_v6","SARL_v6s3565yby","57a12661913c7100019767b7","feedback","","","<div class=""verylowPoints_sq""> 0 </div>","null","","na","test","","","NaN","","","","","","","","4","","74","","","","","","4",""
"428.3999999985099","301993","SARL_v6","SARL_v6s3565yby","57a12661913c7100019767b7","freq","","","img/orange_2bandit_a2.png","70","","70","test","1","","91","","","","square","circle","87","1","5","0.9310344827586207","","","","","","","",""
"null","302367","SARL_v6","SARL_v6s3565yby","57a12661913c7100019767b7","freq_resp","","","img/orange_2bandit_a.png","70","img/orange_2bandit_a.png","70","test","","","","","","","","","","","5","","","","","","","","",""
"null","302524","SARL_v6","SARL_v6s3565yby","57a12661913c7100019767b7","fixation","","","img/fixation.png","null","","","test","","","","","","","","","","","","","","","","","","","",""
"289.5","302815","SARL_v6","SARL_v6s3565yby","57a12661913c7100019767b7","freq","","","img/orange_2bandit_a2.png","70","","70","test","1","","92","","","","square","circle","88","2","5","0.9318181818181818","","","","","","","",""
"null","303332","SARL_v6","SARL_v6s3565yby","57a12661913c7100019767b7","freq_resp","","","img/orange_2bandit_a.png","70","img/orange_2bandit_a.png","70","test","","","","","","","","","","","5","","","","","","","","",""
"null","303484","SARL_v6","SARL_v6s3565yby","57a12661913c7100019767b7","fixation","","","img/fixation.png","null","","","test","","","","","","","","","","","","","","","","","","","",""
"346","303831","SARL_v6","SARL_v6s3565yby","57a12661913c7100019767b7","freq","","","img/orange_2bandit_a2.png","70","","70","test","1","","93","","","","square","circle","89","3","5","0.9325842696629213","","","","","","","",""
"null","304295","SARL_v6","SARL_v6s3565yby","57a12661913c7100019767b7","freq_resp","","","img/orange_2bandit_a.png","70","img/orange_2bandit_a.png","70","test","","","","","","","","","","","5","","","","","","","","",""
"null","304454","SARL_v6","SARL_v6s3565yby","57a12661913c7100019767b7","fixation","","","img/fixation.png","null","","","test","","","","","","","","","","","","","","","","","","","",""
"null","305257","SARL_v6","SARL_v6s3565yby","57a12661913c7100019767b7","infreq","","","img/blue_2bandit_a2.png","null","","68","test","0","","94","","","","square","circle","90","4","5","0.9222222222222223","","","","","","","",""
"null","305408","SARL_v6","SARL_v6s3565yby","57a12661913c7100019767b7","fixation","","","img/fixation.png","null","","","test","","","","","","","","","","","","","","","","","","","",""
"113.89999999850988","305523","SARL_v6","SARL_v6s3565yby","57a12661913c7100019767b7","freq","","","img/orange_2bandit_a2.png","68","","70","test","0","","95","","","","square","circle","91","5","5","0.9120879120879121","","","","","","","",""
"null","306219","SARL_v6","SARL_v6s3565yby","57a12661913c7100019767b7","freq_resp","","","img/orange_2bandit_a.png","68","img/orange_2bandit_a.png","70","test","","","","","","","","","","","5","","","","","","","","",""
"null","306370","SARL_v6","SARL_v6s3565yby","57a12661913c7100019767b7","fixation","","","img/fixation.png","null","","","test","","","","","","","","","","","","","","","","","","","",""
"504.30000000447035","306875","SARL_v6","SARL_v6s3565yby","57a12661913c7100019767b7","freq","","","img/orange_2bandit_a2.png","70","","70","test","1","","96","","","","square","circle","92","6","5","0.9130434782608695","","","","","","","",""
"null","307182","SARL_v6","SARL_v6s3565yby","57a12661913c7100019767b7","freq_resp","","","img/orange_2bandit_a.png","70","img/orange_2bandit_a.png","70","test","","","","","","","","","","","5","","","","","","","","",""
"null","307334","SARL_v6","SARL_v6s3565yby","57a12661913c7100019767b7","fixation","","","img/fixation.png","null","","","test","","","","","","","","","","","","","","","","","","","",""
"318.40000000596046","307653","SARL_v6","SARL_v6s3565yby","57a12661913c7100019767b7","freq","","","img/orange_2bandit_a2.png","70","","70","test","1","","97","","","","square","circle","93","7","5","0.9139784946236559","","","","","","","",""
"null","308148","SARL_v6","SARL_v6s3565yby","57a12661913c7100019767b7","freq_resp","","","img/orange_2bandit_a.png","70","img/orange_2bandit_a.png","70","test","","","","","","","","","","","5","","","","","","","","",""
"null","308299","SARL_v6","SARL_v6s3565yby","57a12661913c7100019767b7","fixation","","","img/fixation.png","null","","","test","","","","","","","","","","","","","","","","","","","",""
"259.79999999701977","308560","SARL_v6","SARL_v6s3565yby","57a12661913c7100019767b7","freq","","","img/orange_2bandit_a2.png","70","","70","test","1","","98","","","","square","circle","94","8","5","0.9148936170212766","","","","","","","",""
"null","309117","SARL_v6","SARL_v6s3565yby","57a12661913c7100019767b7","freq_resp","","","img/orange_2bandit_a.png","70","img/orange_2bandit_a.png","70","test","","","","","","","","","","","5","","","","","","","","",""
"null","309269","SARL_v6","SARL_v6s3565yby","57a12661913c7100019767b7","fixation","","","img/fixation.png","null","","","test","","","","","","","","","","","","","","","","","","","",""
"308.70000000298023","309579","SARL_v6","SARL_v6s3565yby","57a12661913c7100019767b7","freq","","","img/orange_2bandit_a2.png","70","","70","test","1","","99","","","","square","circle","95","9","5","0.9157894736842105","","","","","","","",""
"null","310083","SARL_v6","SARL_v6s3565yby","57a12661913c7100019767b7","freq_resp","","","img/orange_2bandit_a.png","70","img/orange_2bandit_a.png","70","test","","","","","","","","","","","5","","","","","","","","",""
"null","310235","SARL_v6","SARL_v6s3565yby","57a12661913c7100019767b7","fixation","","","img/fixation.png","null","","","test","","","","","","","","","","","","","","","","","","","",""
"386.70000000298023","310623","SARL_v6","SARL_v6s3565yby","57a12661913c7100019767b7","freq","","","img/orange_2bandit_a2.png","70","","70","test","1","","100","","","","square","circle","96","10","5","0.9166666666666666","","","","","","","",""
"null","311038","SARL_v6","SARL_v6s3565yby","57a12661913c7100019767b7","freq_resp","","","img/orange_2bandit_a.png","70","img/orange_2bandit_a.png","70","test","","","","","","","","","","","5","","","","","","","","",""
"null","311196","SARL_v6","SARL_v6s3565yby","57a12661913c7100019767b7","fixation","","","img/fixation.png","null","","","test","","","","","","","","","","","","","","","","","","","",""
"290","311487","SARL_v6","SARL_v6s3565yby","57a12661913c7100019767b7","freq","","","img/orange_2bandit_a2.png","70","","70","test","1","","101","","","","square","circle","97","11","5","0.9175257731958762","","","","","","","",""
"null","312002","SARL_v6","SARL_v6s3565yby","57a12661913c7100019767b7","freq_resp","","","img/orange_2bandit_a.png","70","img/orange_2bandit_a.png","70","test","","","","","","","","","","","5","","","","","","","","",""
"null","312159","SARL_v6","SARL_v6s3565yby","57a12661913c7100019767b7","fixation","","","img/fixation.png","null","","","test","","","","","","","","","","","","","","","","","","","",""
"406.80000000447035","312567","SARL_v6","SARL_v6s3565yby","57a12661913c7100019767b7","infreq","","","img/blue_2bandit_a2.png","68","","68","test","1","","102","","","","square","circle","98","12","5","0.9183673469387755","","","","","","","",""
"null","312970","SARL_v6","SARL_v6s3565yby","57a12661913c7100019767b7","infreq_resp","","","img/blue_2bandit_a.png","68","img/blue_2bandit_a.png","68","test","","","","","","","","","","","5","","","","","","","","",""
"null","313130","SARL_v6","SARL_v6s3565yby","57a12661913c7100019767b7","fixation","","","img/fixation.png","null","","","test","","","","","","","","","","","","","","","","","","","",""
"330.6000000014901","313461","SARL_v6","SARL_v6s3565yby","57a12661913c7100019767b7","freq","","","img/orange_2bandit_a2.png","70","","70","test","1","","103","","","","square","circle","99","13","5","0.9191919191919192","","","","","","","",""
"null","313941","SARL_v6","SARL_v6s3565yby","57a12661913c7100019767b7","freq_resp","","","img/orange_2bandit_a.png","70","img/orange_2bandit_a.png","70","test","","","","","","","","","","","5","","","","","","","","",""
"null","314098","SARL_v6","SARL_v6s3565yby","57a12661913c7100019767b7","fixation","","","img/fixation.png","null","","","test","","","","","","","","","","","","","","","","","","","",""
"337.8999999985099","314437","SARL_v6","SARL_v6s3565yby","57a12661913c7100019767b7","freq","","","img/orange_2bandit_a2.png","70","","70","test","1","","104","","","","square","circle","100","14","5","0.92","","","","","","","",""
"null","314905","SARL_v6","SARL_v6s3565yby","57a12661913c7100019767b7","freq_resp","","","img/orange_2bandit_a.png","70","img/orange_2bandit_a.png","70","test","","","","","","","","","","","5","","","","","","","","",""
"null","315062","SARL_v6","SARL_v6s3565yby","57a12661913c7100019767b7","fixation","","","img/fixation.png","null","","","test","","","","","","","","","","","","","","","","","","","",""
"353.70000000298023","315417","SARL_v6","SARL_v6s3565yby","57a12661913c7100019767b7","freq","","","img/orange_2bandit_a2.png","70","","70","test","1","","105","","","","square","circle","101","15","5","0.9207920792079208","","","","","","","",""
"null","315877","SARL_v6","SARL_v6s3565yby","57a12661913c7100019767b7","freq_resp","","","img/orange_2bandit_a.png","70","img/orange_2bandit_a.png","70","test","","","","","","","","","","","5","","","","","","","","",""
"null","316033","SARL_v6","SARL_v6s3565yby","57a12661913c7100019767b7","fixation","","","img/fixation.png","null","","","test","","","","","","","","","","","","","","","","","","","",""
"357.1000000014901","316391","SARL_v6","SARL_v6s3565yby","57a12661913c7100019767b7","freq","","","img/orange_2bandit_a2.png","70","","70","test","1","","106","","","","square","circle","102","16","5","0.9215686274509803","","","","","","","",""
"null","316840","SARL_v6","SARL_v6s3565yby","57a12661913c7100019767b7","freq_resp","","","img/orange_2bandit_a.png","70","img/orange_2bandit_a.png","70","test","","","","","","","","","","","5","","","","","","","","",""
"null","316999","SARL_v6","SARL_v6s3565yby","57a12661913c7100019767b7","fixation","","","img/fixation.png","null","","","test","","","","","","","","","","","","","","","","","","","",""
"402.1000000014901","317402","SARL_v6","SARL_v6s3565yby","57a12661913c7100019767b7","freq","","","img/orange_2bandit_a2.png","70","","70","test","1","","107","","","","square","circle","103","17","5","0.9223300970873787","","","","","","","",""
"null","317811","SARL_v6","SARL_v6s3565yby","57a12661913c7100019767b7","freq_resp","","","img/orange_2bandit_a.png","70","img/orange_2bandit_a.png","70","test","","","","","","","","","","","5","","","","","","","","",""
"null","317966","SARL_v6","SARL_v6s3565yby","57a12661913c7100019767b7","fixation","","","img/fixation.png","null","","","test","","","","","","","","","","","","","","","","","","","",""
"471.80000000447035","318439","SARL_v6","SARL_v6s3565yby","57a12661913c7100019767b7","freq","","","img/orange_2bandit_a2.png","70","","70","test","1","","108","","","","square","circle","104","18","5","0.9230769230769231","","","","","","","",""
"null","318777","SARL_v6","SARL_v6s3565yby","57a12661913c7100019767b7","freq_resp","","","img/orange_2bandit_a.png","70","img/orange_2bandit_a.png","70","test","","","","","","","","","","","5","","","","","","","","",""
"null","318935","SARL_v6","SARL_v6s3565yby","57a12661913c7100019767b7","fixation","","","img/fixation.png","null","","","test","","","","","","","","","","","","","","","","","","","",""
"303.8999999985099","319240","SARL_v6","SARL_v6s3565yby","57a12661913c7100019767b7","freq","","","img/orange_2bandit_a2.png","70","","70","test","1","","109","","","","square","circle","105","19","5","0.9238095238095239","","","","","","","",""
"null","319745","SARL_v6","SARL_v6s3565yby","57a12661913c7100019767b7","freq_resp","","","img/orange_2bandit_a.png","70","img/orange_2bandit_a.png","70","test","","","","","","","","","","","5","","","","","","","","",""
"null","319903","SARL_v6","SARL_v6s3565yby","57a12661913c7100019767b7","fixation","","","img/fixation.png","null","","","test","","","","","","","","","","","","","","","","","","","",""
"406.1000000014901","320310","SARL_v6","SARL_v6s3565yby","57a12661913c7100019767b7","freq","","","img/orange_2bandit_a2.png","70","","70","test","1","","110","","","","square","circle","106","20","5","0.9245283018867925","","","","","","","",""
"null","320713","SARL_v6","SARL_v6s3565yby","57a12661913c7100019767b7","freq_resp","","","img/orange_2bandit_a.png","70","img/orange_2bandit_a.png","70","test","","","","","","","","","","","5","","","","","","","","",""
"null","320873","SARL_v6","SARL_v6s3565yby","57a12661913c7100019767b7","fixation","","","img/fixation.png","null","","","test","","","","","","","","","","","","","","","","","","","",""
"345.6000000014901","321219","SARL_v6","SARL_v6s3565yby","57a12661913c7100019767b7","freq","","","img/orange_2bandit_a2.png","70","","70","test","1","","111","","","","square","circle","107","21","5","0.9252336448598131","","","","","","","",""
"null","321680","SARL_v6","SARL_v6s3565yby","57a12661913c7100019767b7","freq_resp","","","img/orange_2bandit_a.png","70","img/orange_2bandit_a.png","70","test","","","","","","","","","","","5","","","","","","","","",""
"null","321839","SARL_v6","SARL_v6s3565yby","57a12661913c7100019767b7","fixation","","","img/fixation.png","null","","","test","","","","","","","","","","","","","","","","","","","",""
"380.8999999985099","322221","SARL_v6","SARL_v6s3565yby","57a12661913c7100019767b7","freq","","","img/orange_2bandit_a2.png","70","","70","test","1","","112","","","","square","circle","108","22","5","0.9259259259259259","","","","","","","",""
"null","322652","SARL_v6","SARL_v6s3565yby","57a12661913c7100019767b7","freq_resp","","","img/orange_2bandit_a.png","70","img/orange_2bandit_a.png","70","test","","","","","","","","","","","5","","","","","","","","",""
"null","322810","SARL_v6","SARL_v6s3565yby","57a12661913c7100019767b7","fixation","","","img/fixation.png","null","","","test","","","","","","","","","","","","","","","","","","","",""
"356.70000000298023","323168","SARL_v6","SARL_v6s3565yby","57a12661913c7100019767b7","freq","","","img/orange_2bandit_a2.png","70","","70","test","1","","113","","","","square","circle","109","23","5","0.926605504587156","","","","","","","",""
"null","323622","SARL_v6","SARL_v6s3565yby","57a12661913c7100019767b7","freq_resp","","","img/orange_2bandit_a.png","70","img/orange_2bandit_a.png","70","test","","","","","","","","","","","5","","","","","","","","",""
"null","323780","SARL_v6","SARL_v6s3565yby","57a12661913c7100019767b7","fixation","","","img/fixation.png","null","","","test","","","","","","","","","","","","","","","","","","","",""
"658.1000000014901","324439","SARL_v6","SARL_v6s3565yby","57a12661913c7100019767b7","rl","","","img/black_2bandit_a2.png","75","","0","test","","","114","","","-7","square","circle","","0","5","","75","-7","4","4","-7","circle","5","0"
"null","325193","SARL_v6","SARL_v6s3565yby","57a12661913c7100019767b7","feedback","","","<div class=""verylowPoints""> -7 </div>","null","","na","test","","","NaN","","","","","","","","5","","75","","","","","","5",""
"586.5","325780","SARL_v6","SARL_v6s3565yby","57a12661913c7100019767b7","freq","","","img/orange_2bandit_a2.png","70","","70","test","1","","115","","","","square","circle","110","1","6","0.9272727272727272","","","","","","","",""
"null","326001","SARL_v6","SARL_v6s3565yby","57a12661913c7100019767b7","freq_resp","","","img/orange_2bandit_a.png","70","img/orange_2bandit_a.png","70","test","","","","","","","","","","","6","","","","","","","","",""
"null","326153","SARL_v6","SARL_v6s3565yby","57a12661913c7100019767b7","fixation","","","img/fixation.png","null","","","test","","","","","","","","","","","","","","","","","","","",""
"337","326491","SARL_v6","SARL_v6s3565yby","57a12661913c7100019767b7","freq","","","img/orange_2bandit_a2.png","70","","70","test","1","","116","","","","square","circle","111","2","6","0.9279279279279279","","","","","","","",""
"null","326959","SARL_v6","SARL_v6s3565yby","57a12661913c7100019767b7","freq_resp","","","img/orange_2bandit_a.png","70","img/orange_2bandit_a.png","70","test","","","","","","","","","","","6","","","","","","","","",""
"null","327117","SARL_v6","SARL_v6s3565yby","57a12661913c7100019767b7","fixation","","","img/fixation.png","null","","","test","","","","","","","","","","","","","","","","","","","",""
"359.3999999985099","327477","SARL_v6","SARL_v6s3565yby","57a12661913c7100019767b7","freq","","","img/orange_2bandit_a2.png","70","","70","test","1","","117","","","","square","circle","112","3","6","0.9285714285714286","","","","","","","",""
"null","327929","SARL_v6","SARL_v6s3565yby","57a12661913c7100019767b7","freq_resp","","","img/orange_2bandit_a.png","70","img/orange_2bandit_a.png","70","test","","","","","","","","","","","6","","","","","","","","",""
"null","328088","SARL_v6","SARL_v6s3565yby","57a12661913c7100019767b7","fixation","","","img/fixation.png","null","","","test","","","","","","","","","","","","","","","","","","","",""
"349.5","328438","SARL_v6","SARL_v6s3565yby","57a12661913c7100019767b7","freq","","","img/orange_2bandit_a2.png","70","","70","test","1","","118","","","","square","circle","113","4","6","0.9292035398230089","","","","","","","",""
"null","328896","SARL_v6","SARL_v6s3565yby","57a12661913c7100019767b7","freq_resp","","","img/orange_2bandit_a.png","70","img/orange_2bandit_a.png","70","test","","","","","","","","","","","6","","","","","","","","",""
"null","329055","SARL_v6","SARL_v6s3565yby","57a12661913c7100019767b7","fixation","","","img/fixation.png","null","","","test","","","","","","","","","","","","","","","","","","","",""
"318.70000000298023","329374","SARL_v6","SARL_v6s3565yby","57a12661913c7100019767b7","freq","","","img/orange_2bandit_a2.png","70","","70","test","1","","119","","","","square","circle","114","5","6","0.9298245614035088","","","","","","","",""
"null","329864","SARL_v6","SARL_v6s3565yby","57a12661913c7100019767b7","freq_resp","","","img/orange_2bandit_a.png","70","img/orange_2bandit_a.png","70","test","","","","","","","","","","","6","","","","","","","","",""
"null","330023","SARL_v6","SARL_v6s3565yby","57a12661913c7100019767b7","fixation","","","img/fixation.png","null","","","test","","","","","","","","","","","","","","","","","","","",""
"494.5","330519","SARL_v6","SARL_v6s3565yby","57a12661913c7100019767b7","infreq","","","img/blue_2bandit_a2.png","68","","68","test","1","","120","","","","square","circle","115","6","6","0.9304347826086956","","","","","","","",""
"null","330834","SARL_v6","SARL_v6s3565yby","57a12661913c7100019767b7","infreq_resp","","","img/blue_2bandit_a.png","68","img/blue_2bandit_a.png","68","test","","","","","","","","","","","6","","","","","","","","",""
"null","330986","SARL_v6","SARL_v6s3565yby","57a12661913c7100019767b7","fixation","","","img/fixation.png","null","","","test","","","","","","","","","","","","","","","","","","","",""
"385.80000000447035","331373","SARL_v6","SARL_v6s3565yby","57a12661913c7100019767b7","freq","","","img/orange_2bandit_a2.png","70","","70","test","1","","121","","","","square","circle","116","7","6","0.9310344827586207","","","","","","","",""
"null","331802","SARL_v6","SARL_v6s3565yby","57a12661913c7100019767b7","freq_resp","","","img/orange_2bandit_a.png","70","img/orange_2bandit_a.png","70","test","","","","","","","","","","","6","","","","","","","","",""
"null","331960","SARL_v6","SARL_v6s3565yby","57a12661913c7100019767b7","fixation","","","img/fixation.png","null","","","test","","","","","","","","","","","","","","","","","","","",""
"382","332343","SARL_v6","SARL_v6s3565yby","57a12661913c7100019767b7","freq","","","img/orange_2bandit_a2.png","70","","70","test","1","","122","","","","square","circle","117","8","6","0.9316239316239316","","","","","","","",""
"null","332770","SARL_v6","SARL_v6s3565yby","57a12661913c7100019767b7","freq_resp","","","img/orange_2bandit_a.png","70","img/orange_2bandit_a.png","70","test","","","","","","","","","","","6","","","","","","","","",""
"null","332927","SARL_v6","SARL_v6s3565yby","57a12661913c7100019767b7","fixation","","","img/fixation.png","null","","","test","","","","","","","","","","","","","","","","","","","",""
"420.8999999985099","333349","SARL_v6","SARL_v6s3565yby","57a12661913c7100019767b7","infreq","","","img/blue_2bandit_a2.png","68","","68","test","1","","123","","","","square","circle","118","9","6","0.9322033898305084","","","","","","","",""
"null","333738","SARL_v6","SARL_v6s3565yby","57a12661913c7100019767b7","infreq_resp","","","img/blue_2bandit_a.png","68","img/blue_2bandit_a.png","68","test","","","","","","","","","","","6","","","","","","","","",""
"null","333897","SARL_v6","SARL_v6s3565yby","57a12661913c7100019767b7","fixation","","","img/fixation.png","null","","","test","","","","","","","","","","","","","","","","","","","",""
"333.80000000447035","334232","SARL_v6","SARL_v6s3565yby","57a12661913c7100019767b7","freq","","","img/orange_2bandit_a2.png","70","","70","test","1","","124","","","","square","circle","119","10","6","0.9327731092436975","","","","","","","",""
"null","334707","SARL_v6","SARL_v6s3565yby","57a12661913c7100019767b7","freq_resp","","","img/orange_2bandit_a.png","70","img/orange_2bandit_a.png","70","test","","","","","","","","","","","6","","","","","","","","",""
"null","334863","SARL_v6","SARL_v6s3565yby","57a12661913c7100019767b7","fixation","","","img/fixation.png","null","","","test","","","","","","","","","","","","","","","","","","","",""
"526.5","335390","SARL_v6","SARL_v6s3565yby","57a12661913c7100019767b7","freq","","","img/orange_2bandit_a2.png","70","","70","test","1","","125","","","","square","circle","120","11","6","0.9333333333333333","","","","","","","",""
"null","335673","SARL_v6","SARL_v6s3565yby","57a12661913c7100019767b7","freq_resp","","","img/orange_2bandit_a.png","70","img/orange_2bandit_a.png","70","test","","","","","","","","","","","6","","","","","","","","",""
"null","335831","SARL_v6","SARL_v6s3565yby","57a12661913c7100019767b7","fixation","","","img/fixation.png","null","","","test","","","","","","","","","","","","","","","","","","","",""
"538.7000000029802","336371","SARL_v6","SARL_v6s3565yby","57a12661913c7100019767b7","freq","","","img/orange_2bandit_a2.png","70","","70","test","1","","126","","","","square","circle","121","12","6","0.9338842975206612","","","","","","","",""
"null","336642","SARL_v6","SARL_v6s3565yby","57a12661913c7100019767b7","freq_resp","","","img/orange_2bandit_a.png","70","img/orange_2bandit_a.png","70","test","","","","","","","","","","","6","","","","","","","","",""
"null","336793","SARL_v6","SARL_v6s3565yby","57a12661913c7100019767b7","fixation","","","img/fixation.png","null","","","test","","","","","","","","","","","","","","","","","","","",""
"466.6000000014901","337261","SARL_v6","SARL_v6s3565yby","57a12661913c7100019767b7","freq","","","img/orange_2bandit_a2.png","70","","70","test","1","","127","","","","square","circle","122","13","6","0.9344262295081968","","","","","","","",""
"null","337598","SARL_v6","SARL_v6s3565yby","57a12661913c7100019767b7","freq_resp","","","img/orange_2bandit_a.png","70","img/orange_2bandit_a.png","70","test","","","","","","","","","","","6","","","","","","","","",""
"null","337757","SARL_v6","SARL_v6s3565yby","57a12661913c7100019767b7","fixation","","","img/fixation.png","null","","","test","","","","","","","","","","","","","","","","","","","",""
"349.80000000447035","338108","SARL_v6","SARL_v6s3565yby","57a12661913c7100019767b7","freq","","","img/orange_2bandit_a2.png","70","","70","test","1","","128","","","","square","circle","123","14","6","0.9349593495934959","","","","","","","",""
"null","338565","SARL_v6","SARL_v6s3565yby","57a12661913c7100019767b7","freq_resp","","","img/orange_2bandit_a.png","70","img/orange_2bandit_a.png","70","test","","","","","","","","","","","6","","","","","","","","",""
"null","338722","SARL_v6","SARL_v6s3565yby","57a12661913c7100019767b7","fixation","","","img/fixation.png","null","","","test","","","","","","","","","","","","","","","","","","","",""
"336.3999999985099","339059","SARL_v6","SARL_v6s3565yby","57a12661913c7100019767b7","freq","","","img/orange_2bandit_a2.png","70","","70","test","1","","129","","","","square","circle","124","15","6","0.9354838709677419","","","","","","","",""
"null","339535","SARL_v6","SARL_v6s3565yby","57a12661913c7100019767b7","freq_resp","","","img/orange_2bandit_a.png","70","img/orange_2bandit_a.png","70","test","","","","","","","","","","","6","","","","","","","","",""
"null","339693","SARL_v6","SARL_v6s3565yby","57a12661913c7100019767b7","fixation","","","img/fixation.png","null","","","test","","","","","","","","","","","","","","","","","","","",""
"291.59999999403954","339985","SARL_v6","SARL_v6s3565yby","57a12661913c7100019767b7","freq","","","img/orange_2bandit_a2.png","70","","70","test","1","","130","","","","square","circle","125","16","6","0.936","","","","","","","",""
"null","340505","SARL_v6","SARL_v6s3565yby","57a12661913c7100019767b7","freq_resp","","","img/orange_2bandit_a.png","70","img/orange_2bandit_a.png","70","test","","","","","","","","","","","6","","","","","","","","",""
