"rt","time_elapsed","expId","subject","prolificID","trialType","rlType","attType","stimulus","key_press","stim","corrresp","phase","corr","pracCounter","trialNum","rewardOne","rewardTwo","reward","bandOne","bandTwo","attentionNum","attentionRunNum","blockNum","performance","bandChosen","circleVal","squareVal","bandOneVal","bandTwoVal","shapeChosen","rlNum","badFlag"
"1491.5","1501","SARL_v6","SARL_v63h0egyur","63d4023113db62d162fe84d1","","","","","","","","","","","","","","","","","","","","","","","","","","","",""
"","19622","SARL_v6","SARL_v63h0egyur","63d4023113db62d162fe84d1","fullscreen","fullscreen","fullscreen","","","","","","","","","","","","","","","","","","","","","","","","",""
"89015.79999999702","108642","SARL_v6","SARL_v63h0egyur","63d4023113db62d162fe84d1","","","","","","","","","","","","","","","","","","","","","","","","","","","",""
"null","109476","SARL_v6","SARL_v63h0egyur","63d4023113db62d162fe84d1","freqPrac","","","img/orange_2bandit_a2.png","null","img/orange_2bandit_a2.png","70","prac","0","1","","","","","","","","","","","","","","","","","",""
"null","110507","SARL_v6","SARL_v63h0egyur","63d4023113db62d162fe84d1","feedback","","","img/tooSlow.png","null","","na","prac","","","","","","","","","","","","","","","","","","","",""
"null","110671","SARL_v6","SARL_v63h0egyur","63d4023113db62d162fe84d1","fixation","","","img/fixation.png","null","","","prac","","","","","","","","","","","","","","","","","","","",""
"null","111502","SARL_v6","SARL_v63h0egyur","63d4023113db62d162fe84d1","infreqPrac","","","img/blue_2bandit_a2.png","null","img/blue_2bandit_a2.png","68","prac","0","2","","","","","","","","","","","","","","","","","",""
"null","112528","SARL_v6","SARL_v63h0egyur","63d4023113db62d162fe84d1","feedback","","","img/tooSlow.png","null","","na","prac","","","","","","","","","","","","","","","","","","","",""
"null","112697","SARL_v6","SARL_v63h0egyur","63d4023113db62d162fe84d1","fixation","","","img/fixation.png","null","","","prac","","","","","","","","","","","","","","","","","","","",""
"626.5999999940395","113330","SARL_v6","SARL_v63h0egyur","63d4023113db62d162fe84d1","freqPrac","","","img/orange_2bandit_a2.png","70","img/orange_2bandit_a2.png","70","prac","1","2","","","","","","","","","","","","","","","","","",""
"626.5999999940395","113509","SARL_v6","SARL_v63h0egyur","63d4023113db62d162fe84d1","freqPrac_resp","","","img/orange_2bandit_a.png","70","img/orange_2bandit_a.png","70","prac","","","","","","","","","","","","","","","","","","","",""
"null","113676","SARL_v6","SARL_v63h0egyur","63d4023113db62d162fe84d1","fixation","","","img/fixation.png","null","","","prac","","","","","","","","","","","","","","","","","","","",""
"null","114488","SARL_v6","SARL_v63h0egyur","63d4023113db62d162fe84d1","infreqPrac","","","img/blue_2bandit_a2.png","null","img/blue_2bandit_a2.png","68","prac","0","3","","","","","","","","","","","","","","","","","",""
"null","115502","SARL_v6","SARL_v63h0egyur","63d4023113db62d162fe84d1","feedback","","","img/tooSlow.png","null","","na","prac","","","","","","","","","","","","","","","","","","","",""
"null","115676","SARL_v6","SARL_v63h0egyur","63d4023113db62d162fe84d1","fixation","","","img/fixation.png","null","","","prac","","","","","","","","","","","","","","","","","","","",""
"538.8999999910593","116219","SARL_v6","SARL_v63h0egyur","63d4023113db62d162fe84d1","infreqPrac","","","img/blue_2bandit_a2.png","70","img/blue_2bandit_a2.png","68","prac","0","4","","","","","","","","","","","","","","","","","",""
"538.8999999910593","116498","SARL_v6","SARL_v63h0egyur","63d4023113db62d162fe84d1","infreqPrac_resp","","","img/blue_2bandit_a.png","70","img/blue_2bandit_a.png","68","prac","","","","","","","","","","","","","","","","","","","",""
"null","117530","SARL_v6","SARL_v63h0egyur","63d4023113db62d162fe84d1","feedback","","","img/wrongKey.png","null","","na","prac","","","","","","","","","","","","","","","","","","","",""
"null","117704","SARL_v6","SARL_v63h0egyur","63d4023113db62d162fe84d1","fixation","","","img/fixation.png","null","","","prac","","","","","","","","","","","","","","","","","","","",""
"null","118534","SARL_v6","SARL_v63h0egyur","63d4023113db62d162fe84d1","infreqPrac","","","img/blue_2bandit_a2.png","null","img/blue_2bandit_a2.png","68","prac","0","5","","","","","","","","","","","","","","","","","",""
"null","119557","SARL_v6","SARL_v63h0egyur","63d4023113db62d162fe84d1","feedback","","","img/tooSlow.png","null","","na","prac","","","","","","","","","","","","","","","","","","","",""
"null","119741","SARL_v6","SARL_v63h0egyur","63d4023113db62d162fe84d1","fixation","","","img/fixation.png","null","","","prac","","","","","","","","","","","","","","","","","","","",""
"null","120549","SARL_v6","SARL_v63h0egyur","63d4023113db62d162fe84d1","freqPrac","","","img/orange_2bandit_a2.png","null","img/orange_2bandit_a2.png","70","prac","0","6","","","","","","","","","","","","","","","","","",""
"null","121578","SARL_v6","SARL_v63h0egyur","63d4023113db62d162fe84d1","feedback","","","img/tooSlow.png","null","","na","prac","","","","","","","","","","","","","","","","","","","",""
"null","121740","SARL_v6","SARL_v63h0egyur","63d4023113db62d162fe84d1","fixation","","","img/fixation.png","null","","","prac","","","","","","","","","","","","","","","","","","","",""
"null","122573","SARL_v6","SARL_v63h0egyur","63d4023113db62d162fe84d1","infreqPrac","","","img/blue_2bandit_a2.png","null","img/blue_2bandit_a2.png","68","prac","0","7","","","","","","","","","","","","","","","","","",""
"null","123591","SARL_v6","SARL_v63h0egyur","63d4023113db62d162fe84d1","feedback","","","img/tooSlow.png","null","","na","prac","","","","","","","","","","","","","","","","","","","",""
"null","123760","SARL_v6","SARL_v63h0egyur","63d4023113db62d162fe84d1","fixation","","","img/fixation.png","null","","","prac","","","","","","","","","","","","","","","","","","","",""
"780.2999999970198","124546","SARL_v6","SARL_v63h0egyur","63d4023113db62d162fe84d1","freqPrac","","","img/orange_2bandit_a2.png","70","img/orange_2bandit_a2.png","70","prac","1","7","","","","","","","","","","","","","","","","","",""
"780.2999999970198","124572","SARL_v6","SARL_v63h0egyur","63d4023113db62d162fe84d1","freqPrac_resp","","","img/orange_2bandit_a.png","70","img/orange_2bandit_a.png","70","prac","","","","","","","","","","","","","","","","","","","",""
"null","124736","SARL_v6","SARL_v63h0egyur","63d4023113db62d162fe84d1","fixation","","","img/fixation.png","null","","","prac","","","","","","","","","","","","","","","","","","","",""
"null","125564","SARL_v6","SARL_v63h0egyur","63d4023113db62d162fe84d1","freqPrac","","","img/orange_2bandit_a2.png","null","img/orange_2bandit_a2.png","70","prac","0","8","","","","","","","","","","","","","","","","","",""
"null","126593","SARL_v6","SARL_v63h0egyur","63d4023113db62d162fe84d1","feedback","","","img/tooSlow.png","null","","na","prac","","","","","","","","","","","","","","","","","","","",""
"null","126782","SARL_v6","SARL_v63h0egyur","63d4023113db62d162fe84d1","fixation","","","img/fixation.png","null","","","prac","","","","","","","","","","","","","","","","","","","",""
"46233","173021","SARL_v6","SARL_v63h0egyur","63d4023113db62d162fe84d1","","","","","","","","prac","","","","","","","","","","","","","","","","","","","",""
"null","174543","SARL_v6","SARL_v63h0egyur","63d4023113db62d162fe84d1","rlPractice","","","img/black_2bandit_a2.png","null","img/black_2bandit_a2.png","","prac","","","0","","","","","","","","","","","","","","","","",""
"null","175312","SARL_v6","SARL_v63h0egyur","63d4023113db62d162fe84d1","feedback","","","<div font size = 80> TOO SLOW  </div>","null","","na","prac","","","1","10","-14","10","","","","","","","","","","","","","",""
"null","175479","SARL_v6","SARL_v63h0egyur","63d4023113db62d162fe84d1","fixation","","","img/fixation.png","null","","","prac","","","","","","","","","","","","","","","","","","","",""
"1259.7999999970198","176743","SARL_v6","SARL_v63h0egyur","63d4023113db62d162fe84d1","rlPractice","","","img/black_2bandit_a2.png","74","img/black_2bandit_a2.png","","prac","","","1","","","","","","","","","","","","","","","","",""
"null","177523","SARL_v6","SARL_v63h0egyur","63d4023113db62d162fe84d1","feedback","","","<div class=""verylowPoints_sq""> -5 </div>","null","","na","prac","","","2","5","-5","5","","","","","","","","","","","","","",""
"null","177707","SARL_v6","SARL_v63h0egyur","63d4023113db62d162fe84d1","fixation","","","img/fixation.png","null","","","prac","","","","","","","","","","","","","","","","","","","",""
"1056.800000011921","178771","SARL_v6","SARL_v63h0egyur","63d4023113db62d162fe84d1","rlPractice","","","img/black_2bandit_a2.png","75","img/black_2bandit_a2.png","","prac","","","2","","","","","","","","","","","","","","","","",""
"null","179557","SARL_v6","SARL_v63h0egyur","63d4023113db62d162fe84d1","feedback","","","<div class=""veryhighPoints""> 30 </div>","null","","na","prac","","","3","30","2","30","","","","","","","","","","","","","",""
"null","179739","SARL_v6","SARL_v63h0egyur","63d4023113db62d162fe84d1","fixation","","","img/fixation.png","null","","","prac","","","","","","","","","","","","","","","","","","","",""
"373.5","180119","SARL_v6","SARL_v63h0egyur","63d4023113db62d162fe84d1","rlPractice","","","img/black_2bandit_a2.png","75","img/black_2bandit_a2.png","","prac","","","3","","","","","","","","","","","","","","","","",""
"null","180892","SARL_v6","SARL_v63h0egyur","63d4023113db62d162fe84d1","feedback","","","<div class=""verylowPoints""> -2 </div>","null","","na","prac","","","4","-2","20","-2","","","","","","","","","","","","","",""
"null","181073","SARL_v6","SARL_v63h0egyur","63d4023113db62d162fe84d1","fixation","","","img/fixation.png","null","","","prac","","","","","","","","","","","","","","","","","","","",""
"10360.89999999106","191437","SARL_v6","SARL_v63h0egyur","63d4023113db62d162fe84d1","","","","","","","","prac","","","","","","","","","","","","","","","","","","","",""
"null","192271","SARL_v6","SARL_v63h0egyur","63d4023113db62d162fe84d1","mixAttFreqPrac","","","img/orange_2bandit_a2.png","null","img/orange_2bandit_a2.png","70","prac","","","1","","","","","","","","","","","","","","","","",""
"null","192453","SARL_v6","SARL_v63h0egyur","63d4023113db62d162fe84d1","fixation","","","img/fixation.png","null","","","prac","","","","","","","","","","","","","","","","","","","",""
"null","193266","SARL_v6","SARL_v63h0egyur","63d4023113db62d162fe84d1","mixAttInfreqPrac","","","img/blue_2bandit_a2.png","null","img/blue_2bandit_a2.png","68","prac","","","2","","","","","","","","","","","","","","","","",""
"null","193436","SARL_v6","SARL_v63h0egyur","63d4023113db62d162fe84d1","fixation","","","img/fixation.png","null","","","prac","","","","","","","","","","","","","","","","","","","",""
"175.90000000596046","193616","SARL_v6","SARL_v63h0egyur","63d4023113db62d162fe84d1","mixAttInfreqPrac","","","img/blue_2bandit_a2.png","68","img/blue_2bandit_a2.png","68","prac","","","3","","","","","","","","","","","","","","","","",""
"175.90000000596046","194271","SARL_v6","SARL_v63h0egyur","63d4023113db62d162fe84d1","infreqPrac_resp","","","img/blue_2bandit_a.png","68","img/orange_2bandit_a.png","68","prac","","","3","","","","","","","","","","","","","","","","",""
"null","194443","SARL_v6","SARL_v63h0egyur","63d4023113db62d162fe84d1","fixation","","","img/fixation.png","null","","","prac","","","","","","","","","","","","","","","","","","","",""
"null","195275","SARL_v6","SARL_v63h0egyur","63d4023113db62d162fe84d1","mixAttInfreqPrac","","","img/blue_2bandit_a2.png","null","img/blue_2bandit_a2.png","68","prac","","","4","","","","","","","","","","","","","","","","",""
"null","195458","SARL_v6","SARL_v63h0egyur","63d4023113db62d162fe84d1","fixation","","","img/fixation.png","null","","","prac","","","","","","","","","","","","","","","","","","","",""
"179.20000000298023","195644","SARL_v6","SARL_v63h0egyur","63d4023113db62d162fe84d1","mixAttFreqPrac","","","img/orange_2bandit_a2.png","68","img/orange_2bandit_a2.png","70","prac","","","5","","","","","","","","","","","","","","","","",""
"179.20000000298023","196290","SARL_v6","SARL_v63h0egyur","63d4023113db62d162fe84d1","freqPrac_resp","","","img/orange_2bandit_a.png","68","img/orange_2bandit_a.png","70","prac","","","5","","","","","","","","","","","","","","","","",""
"null","196456","SARL_v6","SARL_v63h0egyur","63d4023113db62d162fe84d1","fixation","","","img/fixation.png","null","","","prac","","","","","","","","","","","","","","","","","","","",""
"null","197988","SARL_v6","SARL_v63h0egyur","63d4023113db62d162fe84d1","mixRLPractice","","","img/black_2bandit_a2.png","null","img/black_2bandit_a2.png","","prac","","","5","","","","","","","","","","","","","","","","",""
"null","198770","SARL_v6","SARL_v63h0egyur","63d4023113db62d162fe84d1","feedback","","","<div font size = 80> TOO SLOW  </div>","null","","na","prac","","","6","-14","10","-14","","","","","","","","","","","","","",""
"null","198947","SARL_v6","SARL_v63h0egyur","63d4023113db62d162fe84d1","fixation","","","img/fixation.png","null","","","prac","","","","","","","","","","","","","","","","","","","",""
"null","199772","SARL_v6","SARL_v63h0egyur","63d4023113db62d162fe84d1","mixAttFreqPrac","","","img/orange_2bandit_a2.png","null","img/orange_2bandit_a2.png","70","prac","","","7","","","","","","","","","","","","","","","","",""
"null","199949","SARL_v6","SARL_v63h0egyur","63d4023113db62d162fe84d1","fixation","","","img/fixation.png","null","","","prac","","","","","","","","","","","","","","","","","","","",""
"639.7000000029802","200594","SARL_v6","SARL_v63h0egyur","63d4023113db62d162fe84d1","mixAttInfreqPrac","","","img/blue_2bandit_a2.png","70","img/blue_2bandit_a2.png","68","prac","","","8","","","","","","","","","","","","","","","","",""
"639.7000000029802","200768","SARL_v6","SARL_v63h0egyur","63d4023113db62d162fe84d1","infreqPrac_resp","","","img/blue_2bandit_a.png","70","img/orange_2bandit_a.png","68","prac","","","8","","","","","","","","","","","","","","","","",""
"null","200945","SARL_v6","SARL_v63h0egyur","63d4023113db62d162fe84d1","fixation","","","img/fixation.png","null","","","prac","","","","","","","","","","","","","","","","","","","",""
"null","201775","SARL_v6","SARL_v63h0egyur","63d4023113db62d162fe84d1","mixAttFreqPrac","","","img/orange_2bandit_a2.png","null","img/orange_2bandit_a2.png","70","prac","","","9","","","","","","","","","","","","","","","","",""
"null","201953","SARL_v6","SARL_v63h0egyur","63d4023113db62d162fe84d1","fixation","","","img/fixation.png","null","","","prac","","","","","","","","","","","","","","","","","","","",""
"null","202775","SARL_v6","SARL_v63h0egyur","63d4023113db62d162fe84d1","mixAttFreqPrac","","","img/orange_2bandit_a2.png","null","img/orange_2bandit_a2.png","70","prac","","","10","","","","","","","","","","","","","","","","",""
"null","202956","SARL_v6","SARL_v63h0egyur","63d4023113db62d162fe84d1","fixation","","","img/fixation.png","null","","","prac","","","","","","","","","","","","","","","","","","","",""
"324.29999999701977","203286","SARL_v6","SARL_v63h0egyur","63d4023113db62d162fe84d1","mixAttInfreqPrac","","","img/blue_2bandit_a2.png","70","img/blue_2bandit_a2.png","68","prac","","","11","","","","","","","","","","","","","","","","",""
"324.29999999701977","203797","SARL_v6","SARL_v63h0egyur","63d4023113db62d162fe84d1","infreqPrac_resp","","","img/blue_2bandit_a.png","70","img/orange_2bandit_a.png","68","prac","","","11","","","","","","","","","","","","","","","","",""
"null","203975","SARL_v6","SARL_v63h0egyur","63d4023113db62d162fe84d1","fixation","","","img/fixation.png","null","","","prac","","","","","","","","","","","","","","","","","","","",""
"1113.2000000029802","205094","SARL_v6","SARL_v63h0egyur","63d4023113db62d162fe84d1","mixRLPractice","","","img/black_2bandit_a2.png","75","img/black_2bandit_a2.png","","prac","","","11","","","","","","","","","","","","","","","","",""
"null","205873","SARL_v6","SARL_v63h0egyur","63d4023113db62d162fe84d1","feedback","","","<div class=""veryhighPoints""> 5 </div>","null","","na","prac","","","12","5","-5","5","","","","","","","","","","","","","",""
"null","206052","SARL_v6","SARL_v63h0egyur","63d4023113db62d162fe84d1","fixation","","","img/fixation.png","null","","","prac","","","","","","","","","","","","","","","","","","","",""
"30318.70000000298","236376","SARL_v6","SARL_v63h0egyur","63d4023113db62d162fe84d1","","","","","","","","prac","","","","","","","","","","","","","","","","","","","",""
"null","237203","SARL_v6","SARL_v63h0egyur","63d4023113db62d162fe84d1","freq","","","img/orange_2bandit_a2.png","null","","70","test","0","","1","","","","square","circle","1","1","1","0","","","","","","","",""
"null","237386","SARL_v6","SARL_v63h0egyur","63d4023113db62d162fe84d1","fixation","","","img/fixation.png","null","","","test","","","","","","","","","","","","","","","","","","","",""
"327.40000000596046","237721","SARL_v6","SARL_v63h0egyur","63d4023113db62d162fe84d1","freq","","","img/orange_2bandit_a2.png","68","","70","test","0","","2","","","","square","circle","2","2","1","0","","","","","","","",""
"null","238222","SARL_v6","SARL_v63h0egyur","63d4023113db62d162fe84d1","freq_resp","","","img/orange_2bandit_a.png","68","img/orange_2bandit_a.png","70","test","","","","","","","","","","","1","","","","","","","","",""
"null","238401","SARL_v6","SARL_v63h0egyur","63d4023113db62d162fe84d1","fixation","","","img/fixation.png","null","","","test","","","","","","","","","","","","","","","","","","","",""
"null","239232","SARL_v6","SARL_v63h0egyur","63d4023113db62d162fe84d1","freq","","","img/orange_2bandit_a2.png","null","","70","test","0","","3","","","","square","circle","3","3","1","0","","","","","","","",""
"null","239391","SARL_v6","SARL_v63h0egyur","63d4023113db62d162fe84d1","fixation","","","img/fixation.png","null","","","test","","","","","","","","","","","","","","","","","","","",""
"null","240198","SARL_v6","SARL_v63h0egyur","63d4023113db62d162fe84d1","freq","","","img/orange_2bandit_a2.png","null","","70","test","0","","4","","","","square","circle","4","4","1","0","","","","","","","",""
"null","240379","SARL_v6","SARL_v63h0egyur","63d4023113db62d162fe84d1","fixation","","","img/fixation.png","null","","","test","","","","","","","","","","","","","","","","","","","",""
"null","241209","SARL_v6","SARL_v63h0egyur","63d4023113db62d162fe84d1","freq","","","img/orange_2bandit_a2.png","null","","70","test","0","","5","","","","square","circle","5","5","1","0","","","","","","","",""
"null","241370","SARL_v6","SARL_v63h0egyur","63d4023113db62d162fe84d1","fixation","","","img/fixation.png","null","","","test","","","","","","","","","","","","","","","","","","","",""
"null","242196","SARL_v6","SARL_v63h0egyur","63d4023113db62d162fe84d1","freq","","","img/orange_2bandit_a2.png","null","","70","test","0","","6","","","","square","circle","6","6","1","0","","","","","","","",""
"null","242359","SARL_v6","SARL_v63h0egyur","63d4023113db62d162fe84d1","fixation","","","img/fixation.png","null","","","test","","","","","","","","","","","","","","","","","","","",""
"null","243180","SARL_v6","SARL_v63h0egyur","63d4023113db62d162fe84d1","freq","","","img/orange_2bandit_a2.png","null","","70","test","0","","7","","","","square","circle","7","7","1","0","","","","","","","",""
"null","243346","SARL_v6","SARL_v63h0egyur","63d4023113db62d162fe84d1","fixation","","","img/fixation.png","null","","","test","","","","","","","","","","","","","","","","","","","",""
"null","244173","SARL_v6","SARL_v63h0egyur","63d4023113db62d162fe84d1","freq","","","img/orange_2bandit_a2.png","null","","70","test","0","","8","","","","square","circle","8","8","1","0","","","","","","","",""
"null","244345","SARL_v6","SARL_v63h0egyur","63d4023113db62d162fe84d1","fixation","","","img/fixation.png","null","","","test","","","","","","","","","","","","","","","","","","","",""
"340.79999999701977","244692","SARL_v6","SARL_v63h0egyur","63d4023113db62d162fe84d1","freq","","","img/orange_2bandit_a2.png","70","","70","test","1","","9","","","","square","circle","9","9","1","0.1111111111111111","","","","","","","",""
"null","245182","SARL_v6","SARL_v63h0egyur","63d4023113db62d162fe84d1","freq_resp","","","img/orange_2bandit_a.png","70","img/orange_2bandit_a.png","70","test","","","","","","","","","","","1","","","","","","","","",""
"null","245363","SARL_v6","SARL_v63h0egyur","63d4023113db62d162fe84d1","fixation","","","img/fixation.png","null","","","test","","","","","","","","","","","","","","","","","","","",""
"null","246194","SARL_v6","SARL_v63h0egyur","63d4023113db62d162fe84d1","infreq","","","img/blue_2bandit_a2.png","null","","68","test","0","","10","","","","square","circle","10","10","1","0.1","","","","","","","",""
"null","246356","SARL_v6","SARL_v63h0egyur","63d4023113db62d162fe84d1","fixation","","","img/fixation.png","null","","","test","","","","","","","","","","","","","","","","","","","",""
"null","247166","SARL_v6","SARL_v63h0egyur","63d4023113db62d162fe84d1","freq","","","img/orange_2bandit_a2.png","null","","70","test","0","","11","","","","square","circle","11","11","1","0.09090909090909091","","","","","","","",""
"null","247329","SARL_v6","SARL_v63h0egyur","63d4023113db62d162fe84d1","fixation","","","img/fixation.png","null","","","test","","","","","","","","","","","","","","","","","","","",""
"null","248158","SARL_v6","SARL_v63h0egyur","63d4023113db62d162fe84d1","freq","","","img/orange_2bandit_a2.png","null","","70","test","0","","12","","","","square","circle","12","12","1","0.08333333333333333","","","","","","","",""
"null","248318","SARL_v6","SARL_v63h0egyur","63d4023113db62d162fe84d1","fixation","","","img/fixation.png","null","","","test","","","","","","","","","","","","","","","","","","","",""
"null","249150","SARL_v6","SARL_v63h0egyur","63d4023113db62d162fe84d1","freq","","","img/orange_2bandit_a2.png","null","","70","test","0","","13","","","","square","circle","13","13","1","0.07692307692307693","","","","","","","",""
"null","249323","SARL_v6","SARL_v63h0egyur","63d4023113db62d162fe84d1","fixation","","","img/fixation.png","null","","","test","","","","","","","","","","","","","","","","","","","",""
"92","249420","SARL_v6","SARL_v63h0egyur","63d4023113db62d162fe84d1","infreq","","","img/blue_2bandit_a2.png","70","","68","test","0","","14","","","","square","circle","14","14","1","0.07142857142857142","","","","","","","",""
"null","250158","SARL_v6","SARL_v63h0egyur","63d4023113db62d162fe84d1","infreq_resp","","","img/blue_2bandit_a.png","70","img/blue_2bandit_a.png","68","test","","","","","","","","","","","1","","","","","","","","",""
"null","250336","SARL_v6","SARL_v63h0egyur","63d4023113db62d162fe84d1","fixation","","","img/fixation.png","null","","","test","","","","","","","","","","","","","","","","","","","",""
"651.6999999880791","250996","SARL_v6","SARL_v63h0egyur","63d4023113db62d162fe84d1","freq","","","img/orange_2bandit_a2.png","70","","70","test","1","","15","","","","square","circle","15","15","1","0.13333333333333333","","","","","","","",""
"null","251152","SARL_v6","SARL_v63h0egyur","63d4023113db62d162fe84d1","freq_resp","","","img/orange_2bandit_a.png","70","img/orange_2bandit_a.png","70","test","","","","","","","","","","","1","","","","","","","","",""
"null","251333","SARL_v6","SARL_v63h0egyur","63d4023113db62d162fe84d1","fixation","","","img/fixation.png","null","","","test","","","","","","","","","","","","","","","","","","","",""
"782.5","252122","SARL_v6","SARL_v63h0egyur","63d4023113db62d162fe84d1","freq","","","img/orange_2bandit_a2.png","70","","70","test","1","","16","","","","square","circle","16","16","1","0.1875","","","","","","","",""
"null","252146","SARL_v6","SARL_v63h0egyur","63d4023113db62d162fe84d1","freq_resp","","","img/orange_2bandit_a.png","70","img/orange_2bandit_a.png","70","test","","","","","","","","","","","1","","","","","","","","",""
"null","252306","SARL_v6","SARL_v63h0egyur","63d4023113db62d162fe84d1","fixation","","","img/fixation.png","null","","","test","","","","","","","","","","","","","","","","","","","",""
"null","253140","SARL_v6","SARL_v63h0egyur","63d4023113db62d162fe84d1","freq","","","img/orange_2bandit_a2.png","null","","70","test","0","","17","","","","square","circle","17","17","1","0.17647058823529413","","","","","","","",""
"null","253305","SARL_v6","SARL_v63h0egyur","63d4023113db62d162fe84d1","fixation","","","img/fixation.png","null","","","test","","","","","","","","","","","","","","","","","","","",""
"null","254132","SARL_v6","SARL_v63h0egyur","63d4023113db62d162fe84d1","freq","","","img/orange_2bandit_a2.png","null","","70","test","0","","18","","","","square","circle","18","18","1","0.16666666666666666","","","","","","","",""
"null","254296","SARL_v6","SARL_v63h0egyur","63d4023113db62d162fe84d1","fixation","","","img/fixation.png","null","","","test","","","","","","","","","","","","","","","","","","","",""
"null","255133","SARL_v6","SARL_v63h0egyur","63d4023113db62d162fe84d1","freq","","","img/orange_2bandit_a2.png","null","","70","test","0","","19","","","","square","circle","19","19","1","0.15789473684210525","","","","","","","",""
"null","255296","SARL_v6","SARL_v63h0egyur","63d4023113db62d162fe84d1","fixation","","","img/fixation.png","null","","","test","","","","","","","","","","","","","","","","","","","",""
"null","256124","SARL_v6","SARL_v63h0egyur","63d4023113db62d162fe84d1","freq","","","img/orange_2bandit_a2.png","null","","70","test","0","","20","","","","square","circle","20","20","1","0.15","","","","","","","",""
"null","256299","SARL_v6","SARL_v63h0egyur","63d4023113db62d162fe84d1","fixation","","","img/fixation.png","null","","","test","","","","","","","","","","","","","","","","","","","",""
"544.5","256848","SARL_v6","SARL_v63h0egyur","63d4023113db62d162fe84d1","freq","","","img/orange_2bandit_a2.png","70","","70","test","1","","21","","","","square","circle","21","21","1","0.19047619047619047","","","","","","","",""
"null","257129","SARL_v6","SARL_v63h0egyur","63d4023113db62d162fe84d1","freq_resp","","","img/orange_2bandit_a.png","70","img/orange_2bandit_a.png","70","test","","","","","","","","","","","1","","","","","","","","",""
"null","257307","SARL_v6","SARL_v63h0egyur","63d4023113db62d162fe84d1","fixation","","","img/fixation.png","null","","","test","","","","","","","","","","","","","","","","","","","",""
"null","258836","SARL_v6","SARL_v63h0egyur","63d4023113db62d162fe84d1","rl","","","img/black_2bandit_a2.png","null","","0","test","","","22","","","0","square","circle","","0","1","","null","-3","-3","-3","-3","too slow","1","0"
"null","259615","SARL_v6","SARL_v63h0egyur","63d4023113db62d162fe84d1","feedback","","","<div font size = 80> TOO SLOW  </div>","null","","na","test","","","NaN","","","","","","","","1","","null","","","","","","1",""
"null","260452","SARL_v6","SARL_v63h0egyur","63d4023113db62d162fe84d1","freq","","","img/orange_2bandit_a2.png","null","","70","test","0","","23","","","","square","circle","22","1","2","0.18181818181818182","","","","","","","",""
"null","260631","SARL_v6","SARL_v63h0egyur","63d4023113db62d162fe84d1","fixation","","","img/fixation.png","null","","","test","","","","","","","","","","","","","","","","","","","",""
"null","261466","SARL_v6","SARL_v63h0egyur","63d4023113db62d162fe84d1","freq","","","img/orange_2bandit_a2.png","null","","70","test","0","","24","","","","square","circle","23","2","2","0.17391304347826086","","","","","","","",""
"null","261645","SARL_v6","SARL_v63h0egyur","63d4023113db62d162fe84d1","fixation","","","img/fixation.png","null","","","test","","","","","","","","","","","","","","","","","","","",""
"null","262463","SARL_v6","SARL_v63h0egyur","63d4023113db62d162fe84d1","freq","","","img/orange_2bandit_a2.png","null","","70","test","0","","25","","","","square","circle","24","3","2","0.16666666666666666","","","","","","","",""
"null","262625","SARL_v6","SARL_v63h0egyur","63d4023113db62d162fe84d1","fixation","","","img/fixation.png","null","","","test","","","","","","","","","","","","","","","","","","","",""
"740.6000000089407","263370","SARL_v6","SARL_v63h0egyur","63d4023113db62d162fe84d1","freq","","","img/orange_2bandit_a2.png","70","","70","test","1","","26","","","","square","circle","25","4","2","0.2","","","","","","","",""
"null","263435","SARL_v6","SARL_v63h0egyur","63d4023113db62d162fe84d1","freq_resp","","","img/orange_2bandit_a.png","70","img/orange_2bandit_a.png","70","test","","","","","","","","","","","2","","","","","","","","",""
"null","263588","SARL_v6","SARL_v63h0egyur","63d4023113db62d162fe84d1","fixation","","","img/fixation.png","null","","","test","","","","","","","","","","","","","","","","","","","",""
"676.3000000119209","264269","SARL_v6","SARL_v63h0egyur","63d4023113db62d162fe84d1","freq","","","img/orange_2bandit_a2.png","70","","70","test","1","","27","","","","square","circle","26","5","2","0.23076923076923078","","","","","","","",""
"null","264402","SARL_v6","SARL_v63h0egyur","63d4023113db62d162fe84d1","freq_resp","","","img/orange_2bandit_a.png","70","img/orange_2bandit_a.png","70","test","","","","","","","","","","","2","","","","","","","","",""
"null","264573","SARL_v6","SARL_v63h0egyur","63d4023113db62d162fe84d1","fixation","","","img/fixation.png","null","","","test","","","","","","","","","","","","","","","","","","","",""
"478.90000000596046","265062","SARL_v6","SARL_v63h0egyur","63d4023113db62d162fe84d1","freq","","","img/orange_2bandit_a2.png","70","","70","test","1","","28","","","","square","circle","27","6","2","0.25925925925925924","","","","","","","",""
"null","265401","SARL_v6","SARL_v63h0egyur","63d4023113db62d162fe84d1","freq_resp","","","img/orange_2bandit_a.png","70","img/orange_2bandit_a.png","70","test","","","","","","","","","","","2","","","","","","","","",""
"null","265560","SARL_v6","SARL_v63h0egyur","63d4023113db62d162fe84d1","fixation","","","img/fixation.png","null","","","test","","","","","","","","","","","","","","","","","","","",""
"503.80000001192093","266072","SARL_v6","SARL_v63h0egyur","63d4023113db62d162fe84d1","freq","","","img/orange_2bandit_a2.png","70","","70","test","1","","29","","","","square","circle","28","7","2","0.2857142857142857","","","","","","","",""
"null","266386","SARL_v6","SARL_v63h0egyur","63d4023113db62d162fe84d1","freq_resp","","","img/orange_2bandit_a.png","70","img/orange_2bandit_a.png","70","test","","","","","","","","","","","2","","","","","","","","",""
"null","266558","SARL_v6","SARL_v63h0egyur","63d4023113db62d162fe84d1","fixation","","","img/fixation.png","null","","","test","","","","","","","","","","","","","","","","","","","",""
"401.5","266965","SARL_v6","SARL_v63h0egyur","63d4023113db62d162fe84d1","freq","","","img/orange_2bandit_a2.png","70","","70","test","1","","30","","","","square","circle","29","8","2","0.3103448275862069","","","","","","","",""
"null","267395","SARL_v6","SARL_v63h0egyur","63d4023113db62d162fe84d1","freq_resp","","","img/orange_2bandit_a.png","70","img/orange_2bandit_a.png","70","test","","","","","","","","","","","2","","","","","","","","",""
"null","267572","SARL_v6","SARL_v63h0egyur","63d4023113db62d162fe84d1","fixation","","","img/fixation.png","null","","","test","","","","","","","","","","","","","","","","","","","",""
"290.59999999403954","267870","SARL_v6","SARL_v63h0egyur","63d4023113db62d162fe84d1","freq","","","img/orange_2bandit_a2.png","70","","70","test","1","","31","","","","square","circle","30","9","2","0.3333333333333333","","","","","","","",""
"null","268415","SARL_v6","SARL_v63h0egyur","63d4023113db62d162fe84d1","freq_resp","","","img/orange_2bandit_a.png","70","img/orange_2bandit_a.png","70","test","","","","","","","","","","","2","","","","","","","","",""
"null","268586","SARL_v6","SARL_v63h0egyur","63d4023113db62d162fe84d1","fixation","","","img/fixation.png","null","","","test","","","","","","","","","","","","","","","","","","","",""
"173.5","268764","SARL_v6","SARL_v63h0egyur","63d4023113db62d162fe84d1","infreq","","","img/blue_2bandit_a2.png","70","","68","test","0","","32","","","","square","circle","31","10","2","0.3225806451612903","","","","","","","",""
"null","269412","SARL_v6","SARL_v63h0egyur","63d4023113db62d162fe84d1","infreq_resp","","","img/blue_2bandit_a.png","70","img/blue_2bandit_a.png","68","test","","","","","","","","","","","2","","","","","","","","",""
"null","269586","SARL_v6","SARL_v63h0egyur","63d4023113db62d162fe84d1","fixation","","","img/fixation.png","null","","","test","","","","","","","","","","","","","","","","","","","",""
"null","270416","SARL_v6","SARL_v63h0egyur","63d4023113db62d162fe84d1","freq","","","img/orange_2bandit_a2.png","null","","70","test","0","","33","","","","square","circle","32","11","2","0.3125","","","","","","","",""
"null","270574","SARL_v6","SARL_v63h0egyur","63d4023113db62d162fe84d1","fixation","","","img/fixation.png","null","","","test","","","","","","","","","","","","","","","","","","","",""
"216.40000000596046","270796","SARL_v6","SARL_v63h0egyur","63d4023113db62d162fe84d1","freq","","","img/orange_2bandit_a2.png","70","","70","test","1","","34","","","","square","circle","33","12","2","0.3333333333333333","","","","","","","",""
"null","271410","SARL_v6","SARL_v63h0egyur","63d4023113db62d162fe84d1","freq_resp","","","img/orange_2bandit_a.png","70","img/orange_2bandit_a.png","70","test","","","","","","","","","","","2","","","","","","","","",""
"null","271596","SARL_v6","SARL_v63h0egyur","63d4023113db62d162fe84d1","fixation","","","img/fixation.png","null","","","test","","","","","","","","","","","","","","","","","","","",""
"91.09999999403954","271694","SARL_v6","SARL_v63h0egyur","63d4023113db62d162fe84d1","infreq","","","img/blue_2bandit_a2.png","70","","68","test","0","","35","","","","square","circle","34","13","2","0.3235294117647059","","","","","","","",""
"null","272438","SARL_v6","SARL_v63h0egyur","63d4023113db62d162fe84d1","infreq_resp","","","img/blue_2bandit_a.png","70","img/blue_2bandit_a.png","68","test","","","","","","","","","","","2","","","","","","","","",""
"null","272621","SARL_v6","SARL_v63h0egyur","63d4023113db62d162fe84d1","fixation","","","img/fixation.png","null","","","test","","","","","","","","","","","","","","","","","","","",""
"187.8999999910593","272817","SARL_v6","SARL_v63h0egyur","63d4023113db62d162fe84d1","freq","","","img/orange_2bandit_a2.png","70","","70","test","1","","36","","","","square","circle","35","14","2","0.34285714285714286","","","","","","","",""
"null","273460","SARL_v6","SARL_v63h0egyur","63d4023113db62d162fe84d1","freq_resp","","","img/orange_2bandit_a.png","70","img/orange_2bandit_a.png","70","test","","","","","","","","","","","2","","","","","","","","",""
"null","273643","SARL_v6","SARL_v63h0egyur","63d4023113db62d162fe84d1","fixation","","","img/fixation.png","null","","","test","","","","","","","","","","","","","","","","","","","",""
"517.2000000029802","274166","SARL_v6","SARL_v63h0egyur","63d4023113db62d162fe84d1","freq","","","img/orange_2bandit_a2.png","70","","70","test","1","","37","","","","square","circle","36","15","2","0.3611111111111111","","","","","","","",""
"null","274478","SARL_v6","SARL_v63h0egyur","63d4023113db62d162fe84d1","freq_resp","","","img/orange_2bandit_a.png","70","img/orange_2bandit_a.png","70","test","","","","","","","","","","","2","","","","","","","","",""
"null","274658","SARL_v6","SARL_v63h0egyur","63d4023113db62d162fe84d1","fixation","","","img/fixation.png","null","","","test","","","","","","","","","","","","","","","","","","","",""
"407.20000000298023","275071","SARL_v6","SARL_v63h0egyur","63d4023113db62d162fe84d1","freq","","","img/orange_2bandit_a2.png","70","","70","test","1","","38","","","","square","circle","37","16","2","0.3783783783783784","","","","","","","",""
"null","275492","SARL_v6","SARL_v63h0egyur","63d4023113db62d162fe84d1","freq_resp","","","img/orange_2bandit_a.png","70","img/orange_2bandit_a.png","70","test","","","","","","","","","","","2","","","","","","","","",""
"null","275675","SARL_v6","SARL_v63h0egyur","63d4023113db62d162fe84d1","fixation","","","img/fixation.png","null","","","test","","","","","","","","","","","","","","","","","","","",""
"292","275974","SARL_v6","SARL_v63h0egyur","63d4023113db62d162fe84d1","freq","","","img/orange_2bandit_a2.png","70","","70","test","1","","39","","","","square","circle","38","17","2","0.39473684210526316","","","","","","","",""
"null","276515","SARL_v6","SARL_v63h0egyur","63d4023113db62d162fe84d1","freq_resp","","","img/orange_2bandit_a.png","70","img/orange_2bandit_a.png","70","test","","","","","","","","","","","2","","","","","","","","",""
"null","276700","SARL_v6","SARL_v63h0egyur","63d4023113db62d162fe84d1","fixation","","","img/fixation.png","null","","","test","","","","","","","","","","","","","","","","","","","",""
"387.5","277095","SARL_v6","SARL_v63h0egyur","63d4023113db62d162fe84d1","freq","","","img/orange_2bandit_a2.png","70","","70","test","1","","40","","","","square","circle","39","18","2","0.41025641025641024","","","","","","","",""
"null","277542","SARL_v6","SARL_v63h0egyur","63d4023113db62d162fe84d1","freq_resp","","","img/orange_2bandit_a.png","70","img/orange_2bandit_a.png","70","test","","","","","","","","","","","2","","","","","","","","",""
"null","277722","SARL_v6","SARL_v63h0egyur","63d4023113db62d162fe84d1","fixation","","","img/fixation.png","null","","","test","","","","","","","","","","","","","","","","","","","",""
"341.5","278072","SARL_v6","SARL_v63h0egyur","63d4023113db62d162fe84d1","infreq","","","img/blue_2bandit_a2.png","70","","68","test","0","","41","","","","square","circle","40","19","2","0.4","","","","","","","",""
"null","278545","SARL_v6","SARL_v63h0egyur","63d4023113db62d162fe84d1","infreq_resp","","","img/blue_2bandit_a.png","70","img/blue_2bandit_a.png","68","test","","","","","","","","","","","2","","","","","","","","",""
"null","278704","SARL_v6","SARL_v63h0egyur","63d4023113db62d162fe84d1","fixation","","","img/fixation.png","null","","","test","","","","","","","","","","","","","","","","","","","",""
"null","279522","SARL_v6","SARL_v63h0egyur","63d4023113db62d162fe84d1","freq","","","img/orange_2bandit_a2.png","null","","70","test","0","","42","","","","square","circle","41","20","2","0.3902439024390244","","","","","","","",""
"null","279705","SARL_v6","SARL_v63h0egyur","63d4023113db62d162fe84d1","fixation","","","img/fixation.png","null","","","test","","","","","","","","","","","","","","","","","","","",""
"84.09999999403954","279795","SARL_v6","SARL_v63h0egyur","63d4023113db62d162fe84d1","freq","","","img/orange_2bandit_a2.png","70","","70","test","1","","43","","","","square","circle","42","21","2","0.40476190476190477","","","","","","","",""
"null","280520","SARL_v6","SARL_v63h0egyur","63d4023113db62d162fe84d1","freq_resp","","","img/orange_2bandit_a.png","70","img/orange_2bandit_a.png","70","test","","","","","","","","","","","2","","","","","","","","",""
"null","280680","SARL_v6","SARL_v63h0egyur","63d4023113db62d162fe84d1","fixation","","","img/fixation.png","null","","","test","","","","","","","","","","","","","","","","","","","",""
"234.79999999701977","280920","SARL_v6","SARL_v63h0egyur","63d4023113db62d162fe84d1","freq","","","img/orange_2bandit_a2.png","70","","70","test","1","","44","","","","square","circle","43","22","2","0.4186046511627907","","","","","","","",""
"null","281498","SARL_v6","SARL_v63h0egyur","63d4023113db62d162fe84d1","freq_resp","","","img/orange_2bandit_a.png","70","img/orange_2bandit_a.png","70","test","","","","","","","","","","","2","","","","","","","","",""
"null","281674","SARL_v6","SARL_v63h0egyur","63d4023113db62d162fe84d1","fixation","","","img/fixation.png","null","","","test","","","","","","","","","","","","","","","","","","","",""
"361.6000000089407","282043","SARL_v6","SARL_v63h0egyur","63d4023113db62d162fe84d1","freq","","","img/orange_2bandit_a2.png","70","","70","test","1","","45","","","","square","circle","44","23","2","0.4318181818181818","","","","","","","",""
"null","282509","SARL_v6","SARL_v63h0egyur","63d4023113db62d162fe84d1","freq_resp","","","img/orange_2bandit_a.png","70","img/orange_2bandit_a.png","70","test","","","","","","","","","","","2","","","","","","","","",""
"null","282686","SARL_v6","SARL_v63h0egyur","63d4023113db62d162fe84d1","fixation","","","img/fixation.png","null","","","test","","","","","","","","","","","","","","","","","","","",""
"479","283174","SARL_v6","SARL_v63h0egyur","63d4023113db62d162fe84d1","freq","","","img/orange_2bandit_a2.png","70","","70","test","1","","46","","","","square","circle","45","24","2","0.4444444444444444","","","","","","","",""
"null","283523","SARL_v6","SARL_v63h0egyur","63d4023113db62d162fe84d1","freq_resp","","","img/orange_2bandit_a.png","70","img/orange_2bandit_a.png","70","test","","","","","","","","","","","2","","","","","","","","",""
"null","283708","SARL_v6","SARL_v63h0egyur","63d4023113db62d162fe84d1","fixation","","","img/fixation.png","null","","","test","","","","","","","","","","","","","","","","","","","",""
"573.5999999940395","284292","SARL_v6","SARL_v63h0egyur","63d4023113db62d162fe84d1","freq","","","img/orange_2bandit_a2.png","70","","70","test","1","","47","","","","square","circle","46","25","2","0.45652173913043476","","","","","","","",""
"null","284526","SARL_v6","SARL_v63h0egyur","63d4023113db62d162fe84d1","freq_resp","","","img/orange_2bandit_a.png","70","img/orange_2bandit_a.png","70","test","","","","","","","","","","","2","","","","","","","","",""
"null","284688","SARL_v6","SARL_v63h0egyur","63d4023113db62d162fe84d1","fixation","","","img/fixation.png","null","","","test","","","","","","","","","","","","","","","","","","","",""
"1176.7999999970198","285872","SARL_v6","SARL_v63h0egyur","63d4023113db62d162fe84d1","rl","","","img/black_2bandit_a2.png","75","","0","test","","","48","","","-5","square","circle","","0","2","","75","-5","-8","-8","-5","circle","2","0"
"null","286655","SARL_v6","SARL_v63h0egyur","63d4023113db62d162fe84d1","feedback","","","<div class=""verylowPoints""> -5 </div>","null","","na","test","","","NaN","","","","","","","","2","","75","","","","","","2",""
"null","287487","SARL_v6","SARL_v63h0egyur","63d4023113db62d162fe84d1","freq","","","img/orange_2bandit_a2.png","null","","70","test","0","","49","","","","square","circle","47","1","3","0.44680851063829785","","","","","","","",""
"null","287650","SARL_v6","SARL_v63h0egyur","63d4023113db62d162fe84d1","fixation","","","img/fixation.png","null","","","test","","","","","","","","","","","","","","","","","","","",""
"null","288481","SARL_v6","SARL_v63h0egyur","63d4023113db62d162fe84d1","freq","","","img/orange_2bandit_a2.png","null","","70","test","0","","50","","","","square","circle","48","2","3","0.4375","","","","","","","",""
"null","288670","SARL_v6","SARL_v63h0egyur","63d4023113db62d162fe84d1","fixation","","","img/fixation.png","null","","","test","","","","","","","","","","","","","","","","","","","",""
"null","289499","SARL_v6","SARL_v63h0egyur","63d4023113db62d162fe84d1","freq","","","img/orange_2bandit_a2.png","null","","70","test","0","","51","","","","square","circle","49","3","3","0.42857142857142855","","","","","","","",""
"null","289663","SARL_v6","SARL_v63h0egyur","63d4023113db62d162fe84d1","fixation","","","img/fixation.png","null","","","test","","","","","","","","","","","","","","","","","","","",""
"478.59999999403954","290146","SARL_v6","SARL_v63h0egyur","63d4023113db62d162fe84d1","freq","","","img/orange_2bandit_a2.png","70","","70","test","1","","52","","","","square","circle","50","4","3","0.44","","","","","","","",""
"null","290489","SARL_v6","SARL_v63h0egyur","63d4023113db62d162fe84d1","freq_resp","","","img/orange_2bandit_a.png","70","img/orange_2bandit_a.png","70","test","","","","","","","","","","","3","","","","","","","","",""
"null","290671","SARL_v6","SARL_v63h0egyur","63d4023113db62d162fe84d1","fixation","","","img/fixation.png","null","","","test","","","","","","","","","","","","","","","","","","","",""
"366","291043","SARL_v6","SARL_v63h0egyur","63d4023113db62d162fe84d1","infreq","","","img/blue_2bandit_a2.png","70","","68","test","0","","53","","","","square","circle","51","5","3","0.43137254901960786","","","","","","","",""
"null","291500","SARL_v6","SARL_v63h0egyur","63d4023113db62d162fe84d1","infreq_resp","","","img/blue_2bandit_a.png","70","img/blue_2bandit_a.png","68","test","","","","","","","","","","","3","","","","","","","","",""
"null","291683","SARL_v6","SARL_v63h0egyur","63d4023113db62d162fe84d1","fixation","","","img/fixation.png","null","","","test","","","","","","","","","","","","","","","","","","","",""
"null","292510","SARL_v6","SARL_v63h0egyur","63d4023113db62d162fe84d1","freq","","","img/orange_2bandit_a2.png","null","","70","test","0","","54","","","","square","circle","52","6","3","0.4230769230769231","","","","","","","",""
"null","292672","SARL_v6","SARL_v63h0egyur","63d4023113db62d162fe84d1","fixation","","","img/fixation.png","null","","","test","","","","","","","","","","","","","","","","","","","",""
"null","293500","SARL_v6","SARL_v63h0egyur","63d4023113db62d162fe84d1","freq","","","img/orange_2bandit_a2.png","null","","70","test","0","","55","","","","square","circle","53","7","3","0.41509433962264153","","","","","","","",""
"null","293660","SARL_v6","SARL_v63h0egyur","63d4023113db62d162fe84d1","fixation","","","img/fixation.png","null","","","test","","","","","","","","","","","","","","","","","","","",""
"null","294493","SARL_v6","SARL_v63h0egyur","63d4023113db62d162fe84d1","freq","","","img/orange_2bandit_a2.png","null","","70","test","0","","56","","","","square","circle","54","8","3","0.4074074074074074","","","","","","","",""
"null","294654","SARL_v6","SARL_v63h0egyur","63d4023113db62d162fe84d1","fixation","","","img/fixation.png","null","","","test","","","","","","","","","","","","","","","","","","","",""
"434.29999999701977","295093","SARL_v6","SARL_v63h0egyur","63d4023113db62d162fe84d1","freq","","","img/orange_2bandit_a2.png","70","","70","test","1","","57","","","","square","circle","55","9","3","0.41818181818181815","","","","","","","",""
"null","295491","SARL_v6","SARL_v63h0egyur","63d4023113db62d162fe84d1","freq_resp","","","img/orange_2bandit_a.png","70","img/orange_2bandit_a.png","70","test","","","","","","","","","","","3","","","","","","","","",""
"null","295676","SARL_v6","SARL_v63h0egyur","63d4023113db62d162fe84d1","fixation","","","img/fixation.png","null","","","test","","","","","","","","","","","","","","","","","","","",""
"535.7000000029802","296217","SARL_v6","SARL_v63h0egyur","63d4023113db62d162fe84d1","freq","","","img/orange_2bandit_a2.png","70","","70","test","1","","58","","","","square","circle","56","10","3","0.42857142857142855","","","","","","","",""
"null","296510","SARL_v6","SARL_v63h0egyur","63d4023113db62d162fe84d1","freq_resp","","","img/orange_2bandit_a.png","70","img/orange_2bandit_a.png","70","test","","","","","","","","","","","3","","","","","","","","",""
"null","296671","SARL_v6","SARL_v63h0egyur","63d4023113db62d162fe84d1","fixation","","","img/fixation.png","null","","","test","","","","","","","","","","","","","","","","","","","",""
"0.29999999701976776","296677","SARL_v6","SARL_v63h0egyur","63d4023113db62d162fe84d1","infreq","","","img/blue_2bandit_a2.png","70","","68","test","0","","59","","","","square","circle","57","11","3","0.42105263157894735","","","","","","","",""
"null","297507","SARL_v6","SARL_v63h0egyur","63d4023113db62d162fe84d1","infreq_resp","","","img/blue_2bandit_a.png","70","img/blue_2bandit_a.png","68","test","","","","","","","","","","","3","","","","","","","","",""
"null","297691","SARL_v6","SARL_v63h0egyur","63d4023113db62d162fe84d1","fixation","","","img/fixation.png","null","","","test","","","","","","","","","","","","","","","","","","","",""
"544","298243","SARL_v6","SARL_v63h0egyur","63d4023113db62d162fe84d1","freq","","","img/orange_2bandit_a2.png","70","","70","test","1","","60","","","","square","circle","58","12","3","0.43103448275862066","","","","","","","",""
"null","298533","SARL_v6","SARL_v63h0egyur","63d4023113db62d162fe84d1","freq_resp","","","img/orange_2bandit_a.png","70","img/orange_2bandit_a.png","70","test","","","","","","","","","","","3","","","","","","","","",""
"null","298701","SARL_v6","SARL_v63h0egyur","63d4023113db62d162fe84d1","fixation","","","img/fixation.png","null","","","test","","","","","","","","","","","","","","","","","","","",""
"null","299533","SARL_v6","SARL_v63h0egyur","63d4023113db62d162fe84d1","freq","","","img/orange_2bandit_a2.png","null","","70","test","0","","61","","","","square","circle","59","13","3","0.423728813559322","","","","","","","",""
"null","299692","SARL_v6","SARL_v63h0egyur","63d4023113db62d162fe84d1","fixation","","","img/fixation.png","null","","","test","","","","","","","","","","","","","","","","","","","",""
"798.5","300494","SARL_v6","SARL_v63h0egyur","63d4023113db62d162fe84d1","freq","","","img/orange_2bandit_a2.png","70","","70","test","1","","62","","","","square","circle","60","14","3","0.43333333333333335","","","","","","","",""
"null","300501","SARL_v6","SARL_v63h0egyur","63d4023113db62d162fe84d1","freq_resp","","","img/orange_2bandit_a.png","70","img/orange_2bandit_a.png","70","test","","","","","","","","","","","3","","","","","","","","",""
"null","300664","SARL_v6","SARL_v63h0egyur","63d4023113db62d162fe84d1","fixation","","","img/fixation.png","null","","","test","","","","","","","","","","","","","","","","","","","",""
"725.5999999940395","301394","SARL_v6","SARL_v63h0egyur","63d4023113db62d162fe84d1","freq","","","img/orange_2bandit_a2.png","70","","70","test","1","","63","","","","square","circle","61","15","3","0.4426229508196721","","","","","","","",""
"null","301479","SARL_v6","SARL_v63h0egyur","63d4023113db62d162fe84d1","freq_resp","","","img/orange_2bandit_a.png","70","img/orange_2bandit_a.png","70","test","","","","","","","","","","","3","","","","","","","","",""
"null","301638","SARL_v6","SARL_v63h0egyur","63d4023113db62d162fe84d1","fixation","","","img/fixation.png","null","","","test","","","","","","","","","","","","","","","","","","","",""
"427.90000000596046","302070","SARL_v6","SARL_v63h0egyur","63d4023113db62d162fe84d1","freq","","","img/orange_2bandit_a2.png","70","","70","test","1","","64","","","","square","circle","62","16","3","0.45161290322580644","","","","","","","",""
"null","302470","SARL_v6","SARL_v63h0egyur","63d4023113db62d162fe84d1","freq_resp","","","img/orange_2bandit_a.png","70","img/orange_2bandit_a.png","70","test","","","","","","","","","","","3","","","","","","","","",""
"null","302652","SARL_v6","SARL_v63h0egyur","63d4023113db62d162fe84d1","fixation","","","img/fixation.png","null","","","test","","","","","","","","","","","","","","","","","","","",""
"null","303482","SARL_v6","SARL_v63h0egyur","63d4023113db62d162fe84d1","freq","","","img/orange_2bandit_a2.png","null","","70","test","0","","65","","","","square","circle","63","17","3","0.4444444444444444","","","","","","","",""
"null","303647","SARL_v6","SARL_v63h0egyur","63d4023113db62d162fe84d1","fixation","","","img/fixation.png","null","","","test","","","","","","","","","","","","","","","","","","","",""
"0.20000000298023224","303650","SARL_v6","SARL_v63h0egyur","63d4023113db62d162fe84d1","freq","","","img/orange_2bandit_a2.png","70","","70","test","1","","66","","","","square","circle","64","18","3","0.453125","","","","","","","",""
"null","304476","SARL_v6","SARL_v63h0egyur","63d4023113db62d162fe84d1","freq_resp","","","img/orange_2bandit_a.png","70","img/orange_2bandit_a.png","70","test","","","","","","","","","","","3","","","","","","","","",""
"null","304658","SARL_v6","SARL_v63h0egyur","63d4023113db62d162fe84d1","fixation","","","img/fixation.png","null","","","test","","","","","","","","","","","","","","","","","","","",""
"55.099999994039536","304720","SARL_v6","SARL_v63h0egyur","63d4023113db62d162fe84d1","freq","","","img/orange_2bandit_a2.png","70","","70","test","1","","67","","","","square","circle","65","19","3","0.46153846153846156","","","","","","","",""
"null","305491","SARL_v6","SARL_v63h0egyur","63d4023113db62d162fe84d1","freq_resp","","","img/orange_2bandit_a.png","70","img/orange_2bandit_a.png","70","test","","","","","","","","","","","3","","","","","","","","",""
"null","305677","SARL_v6","SARL_v63h0egyur","63d4023113db62d162fe84d1","fixation","","","img/fixation.png","null","","","test","","","","","","","","","","","","","","","","","","","",""
"436.70000000298023","306121","SARL_v6","SARL_v63h0egyur","63d4023113db62d162fe84d1","freq","","","img/orange_2bandit_a2.png","70","","70","test","1","","68","","","","square","circle","66","20","3","0.4696969696969697","","","","","","","",""
"null","306515","SARL_v6","SARL_v63h0egyur","63d4023113db62d162fe84d1","freq_resp","","","img/orange_2bandit_a.png","70","img/orange_2bandit_a.png","70","test","","","","","","","","","","","3","","","","","","","","",""
"null","306699","SARL_v6","SARL_v63h0egyur","63d4023113db62d162fe84d1","fixation","","","img/fixation.png","null","","","test","","","","","","","","","","","","","","","","","","","",""
"760.7999999970198","307467","SARL_v6","SARL_v63h0egyur","63d4023113db62d162fe84d1","rl","","","img/black_2bandit_a2.png","75","","0","test","","","69","","","-4","square","circle","","0","3","","75","-4","-8","-8","-4","circle","3","0"
"null","308246","SARL_v6","SARL_v63h0egyur","63d4023113db62d162fe84d1","feedback","","","<div class=""verylowPoints""> -4 </div>","null","","na","test","","","NaN","","","","","","","","3","","75","","","","","","3",""
"null","309075","SARL_v6","SARL_v63h0egyur","63d4023113db62d162fe84d1","freq","","","img/orange_2bandit_a2.png","null","","70","test","0","","70","","","","square","circle","67","1","4","0.4626865671641791","","","","","","","",""
"null","309253","SARL_v6","SARL_v63h0egyur","63d4023113db62d162fe84d1","fixation","","","img/fixation.png","null","","","test","","","","","","","","","","","","","","","","","","","",""
"237.09999999403954","309499","SARL_v6","SARL_v63h0egyur","63d4023113db62d162fe84d1","freq","","","img/orange_2bandit_a2.png","70","","70","test","1","","71","","","","square","circle","68","2","4","0.47058823529411764","","","","","","","",""
"null","310092","SARL_v6","SARL_v63h0egyur","63d4023113db62d162fe84d1","freq_resp","","","img/orange_2bandit_a.png","70","img/orange_2bandit_a.png","70","test","","","","","","","","","","","4","","","","","","","","",""
"null","310273","SARL_v6","SARL_v63h0egyur","63d4023113db62d162fe84d1","fixation","","","img/fixation.png","null","","","test","","","","","","","","","","","","","","","","","","","",""
"114.1000000089407","310393","SARL_v6","SARL_v63h0egyur","63d4023113db62d162fe84d1","freq","","","img/orange_2bandit_a2.png","70","","70","test","1","","72","","","","square","circle","69","3","4","0.4782608695652174","","","","","","","",""
"null","311107","SARL_v6","SARL_v63h0egyur","63d4023113db62d162fe84d1","freq_resp","","","img/orange_2bandit_a.png","70","img/orange_2bandit_a.png","70","test","","","","","","","","","","","4","","","","","","","","",""
"null","311291","SARL_v6","SARL_v63h0egyur","63d4023113db62d162fe84d1","fixation","","","img/fixation.png","null","","","test","","","","","","","","","","","","","","","","","","","",""
"222.59999999403954","311520","SARL_v6","SARL_v63h0egyur","63d4023113db62d162fe84d1","freq","","","img/orange_2bandit_a2.png","70","","70","test","1","","73","","","","square","circle","70","4","4","0.4857142857142857","","","","","","","",""
"null","312132","SARL_v6","SARL_v63h0egyur","63d4023113db62d162fe84d1","freq_resp","","","img/orange_2bandit_a.png","70","img/orange_2bandit_a.png","70","test","","","","","","","","","","","4","","","","","","","","",""
"null","312317","SARL_v6","SARL_v63h0egyur","63d4023113db62d162fe84d1","fixation","","","img/fixation.png","null","","","test","","","","","","","","","","","","","","","","","","","",""
"321","312646","SARL_v6","SARL_v63h0egyur","63d4023113db62d162fe84d1","freq","","","img/orange_2bandit_a2.png","70","","70","test","1","","74","","","","square","circle","71","5","4","0.49295774647887325","","","","","","","",""
"null","313147","SARL_v6","SARL_v63h0egyur","63d4023113db62d162fe84d1","freq_resp","","","img/orange_2bandit_a.png","70","img/orange_2bandit_a.png","70","test","","","","","","","","","","","4","","","","","","","","",""
"null","313323","SARL_v6","SARL_v63h0egyur","63d4023113db62d162fe84d1","fixation","","","img/fixation.png","null","","","test","","","","","","","","","","","","","","","","","","","",""
"213.5","313543","SARL_v6","SARL_v63h0egyur","63d4023113db62d162fe84d1","freq","","","img/orange_2bandit_a2.png","70","","70","test","1","","75","","","","square","circle","72","6","4","0.5","","","","","","","",""
"null","314147","SARL_v6","SARL_v63h0egyur","63d4023113db62d162fe84d1","freq_resp","","","img/orange_2bandit_a.png","70","img/orange_2bandit_a.png","70","test","","","","","","","","","","","4","","","","","","","","",""
"null","314328","SARL_v6","SARL_v63h0egyur","63d4023113db62d162fe84d1","fixation","","","img/fixation.png","null","","","test","","","","","","","","","","","","","","","","","","","",""
"335.20000000298023","314671","SARL_v6","SARL_v63h0egyur","63d4023113db62d162fe84d1","infreq","","","img/blue_2bandit_a2.png","70","","68","test","0","","76","","","","square","circle","73","7","4","0.4931506849315068","","","","","","","",""
"null","315156","SARL_v6","SARL_v63h0egyur","63d4023113db62d162fe84d1","infreq_resp","","","img/blue_2bandit_a.png","70","img/blue_2bandit_a.png","68","test","","","","","","","","","","","4","","","","","","","","",""
"null","315340","SARL_v6","SARL_v63h0egyur","63d4023113db62d162fe84d1","fixation","","","img/fixation.png","null","","","test","","","","","","","","","","","","","","","","","","","",""
"null","316170","SARL_v6","SARL_v63h0egyur","63d4023113db62d162fe84d1","freq","","","img/orange_2bandit_a2.png","null","","70","test","0","","77","","","","square","circle","74","8","4","0.4864864864864865","","","","","","","",""
"null","316335","SARL_v6","SARL_v63h0egyur","63d4023113db62d162fe84d1","fixation","","","img/fixation.png","null","","","test","","","","","","","","","","","","","","","","","","","",""
"null","317142","SARL_v6","SARL_v63h0egyur","63d4023113db62d162fe84d1","freq","","","img/orange_2bandit_a2.png","null","","70","test","0","","78","","","","square","circle","75","9","4","0.48","","","","","","","",""
"null","317306","SARL_v6","SARL_v63h0egyur","63d4023113db62d162fe84d1","fixation","","","img/fixation.png","null","","","test","","","","","","","","","","","","","","","","","","","",""
"503.59999999403954","317812","SARL_v6","SARL_v63h0egyur","63d4023113db62d162fe84d1","freq","","","img/orange_2bandit_a2.png","70","","70","test","1","","79","","","","square","circle","76","10","4","0.4868421052631579","","","","","","","",""
"null","318142","SARL_v6","SARL_v63h0egyur","63d4023113db62d162fe84d1","freq_resp","","","img/orange_2bandit_a.png","70","img/orange_2bandit_a.png","70","test","","","","","","","","","","","4","","","","","","","","",""
"null","318319","SARL_v6","SARL_v63h0egyur","63d4023113db62d162fe84d1","fixation","","","img/fixation.png","null","","","test","","","","","","","","","","","","","","","","","","","",""
"396.5","318722","SARL_v6","SARL_v63h0egyur","63d4023113db62d162fe84d1","freq","","","img/orange_2bandit_a2.png","70","","70","test","1","","80","","","","square","circle","77","11","4","0.4935064935064935","","","","","","","",""
"null","319151","SARL_v6","SARL_v63h0egyur","63d4023113db62d162fe84d1","freq_resp","","","img/orange_2bandit_a.png","70","img/orange_2bandit_a.png","70","test","","","","","","","","","","","4","","","","","","","","",""
"null","319313","SARL_v6","SARL_v63h0egyur","63d4023113db62d162fe84d1","fixation","","","img/fixation.png","null","","","test","","","","","","","","","","","","","","","","","","","",""
"300.5","319618","SARL_v6","SARL_v63h0egyur","63d4023113db62d162fe84d1","freq","","","img/orange_2bandit_a2.png","70","","70","test","1","","81","","","","square","circle","78","12","4","0.5","","","","","","","",""
"null","320149","SARL_v6","SARL_v63h0egyur","63d4023113db62d162fe84d1","freq_resp","","","img/orange_2bandit_a.png","70","img/orange_2bandit_a.png","70","test","","","","","","","","","","","4","","","","","","","","",""
"null","320332","SARL_v6","SARL_v63h0egyur","63d4023113db62d162fe84d1","fixation","","","img/fixation.png","null","","","test","","","","","","","","","","","","","","","","","","","",""
"406.8999999910593","320747","SARL_v6","SARL_v63h0egyur","63d4023113db62d162fe84d1","freq","","","img/orange_2bandit_a2.png","70","","70","test","1","","82","","","","square","circle","79","13","4","0.5063291139240507","","","","","","","",""
"null","321173","SARL_v6","SARL_v63h0egyur","63d4023113db62d162fe84d1","freq_resp","","","img/orange_2bandit_a.png","70","img/orange_2bandit_a.png","70","test","","","","","","","","","","","4","","","","","","","","",""
"null","321357","SARL_v6","SARL_v63h0egyur","63d4023113db62d162fe84d1","fixation","","","img/fixation.png","null","","","test","","","","","","","","","","","","","","","","","","","",""
"null","322191","SARL_v6","SARL_v63h0egyur","63d4023113db62d162fe84d1","infreq","","","img/blue_2bandit_a2.png","null","","68","test","0","","83","","","","square","circle","80","14","4","0.5","","","","","","","",""
"null","322368","SARL_v6","SARL_v63h0egyur","63d4023113db62d162fe84d1","fixation","","","img/fixation.png","null","","","test","","","","","","","","","","","","","","","","","","","",""
"null","323203","SARL_v6","SARL_v63h0egyur","63d4023113db62d162fe84d1","freq","","","img/orange_2bandit_a2.png","null","","70","test","0","","84","","","","square","circle","81","15","4","0.49382716049382713","","","","","","","",""
"null","323381","SARL_v6","SARL_v63h0egyur","63d4023113db62d162fe84d1","fixation","","","img/fixation.png","null","","","test","","","","","","","","","","","","","","","","","","","",""
"736.2999999970198","324122","SARL_v6","SARL_v63h0egyur","63d4023113db62d162fe84d1","freq","","","img/orange_2bandit_a2.png","70","","70","test","1","","85","","","","square","circle","82","16","4","0.5","","","","","","","",""
"null","324200","SARL_v6","SARL_v63h0egyur","63d4023113db62d162fe84d1","freq_resp","","","img/orange_2bandit_a.png","70","img/orange_2bandit_a.png","70","test","","","","","","","","","","","4","","","","","","","","",""
"null","324363","SARL_v6","SARL_v63h0egyur","63d4023113db62d162fe84d1","fixation","","","img/fixation.png","null","","","test","","","","","","","","","","","","","","","","","","","",""
"423.5","324791","SARL_v6","SARL_v63h0egyur","63d4023113db62d162fe84d1","freq","","","img/orange_2bandit_a2.png","70","","70","test","1","","86","","","","square","circle","83","17","4","0.5060240963855421","","","","","","","",""
"null","325191","SARL_v6","SARL_v63h0egyur","63d4023113db62d162fe84d1","freq_resp","","","img/orange_2bandit_a.png","70","img/orange_2bandit_a.png","70","test","","","","","","","","","","","4","","","","","","","","",""
"null","325376","SARL_v6","SARL_v63h0egyur","63d4023113db62d162fe84d1","fixation","","","img/fixation.png","null","","","test","","","","","","","","","","","","","","","","","","","",""
"310.40000000596046","325693","SARL_v6","SARL_v63h0egyur","63d4023113db62d162fe84d1","freq","","","img/orange_2bandit_a2.png","70","","70","test","1","","87","","","","square","circle","84","18","4","0.5119047619047619","","","","","","","",""
"null","326208","SARL_v6","SARL_v63h0egyur","63d4023113db62d162fe84d1","freq_resp","","","img/orange_2bandit_a.png","70","img/orange_2bandit_a.png","70","test","","","","","","","","","","","4","","","","","","","","",""
"null","326388","SARL_v6","SARL_v63h0egyur","63d4023113db62d162fe84d1","fixation","","","img/fixation.png","null","","","test","","","","","","","","","","","","","","","","","","","",""
"207","326602","SARL_v6","SARL_v63h0egyur","63d4023113db62d162fe84d1","freq","","","img/orange_2bandit_a2.png","70","","70","test","1","","88","","","","square","circle","85","19","4","0.5176470588235295","","","","","","","",""
"null","327226","SARL_v6","SARL_v63h0egyur","63d4023113db62d162fe84d1","freq_resp","","","img/orange_2bandit_a.png","70","img/orange_2bandit_a.png","70","test","","","","","","","","","","","4","","","","","","","","",""
"null","327410","SARL_v6","SARL_v63h0egyur","63d4023113db62d162fe84d1","fixation","","","img/fixation.png","null","","","test","","","","","","","","","","","","","","","","","","","",""
"313.29999999701977","327735","SARL_v6","SARL_v63h0egyur","63d4023113db62d162fe84d1","freq","","","img/orange_2bandit_a2.png","70","","70","test","1","","89","","","","square","circle","86","20","4","0.5232558139534884","","","","","","","",""
"null","328246","SARL_v6","SARL_v63h0egyur","63d4023113db62d162fe84d1","freq_resp","","","img/orange_2bandit_a.png","70","img/orange_2bandit_a.png","70","test","","","","","","","","","","","4","","","","","","","","",""
"null","328428","SARL_v6","SARL_v63h0egyur","63d4023113db62d162fe84d1","fixation","","","img/fixation.png","null","","","test","","","","","","","","","","","","","","","","","","","",""
"634.8999999910593","329071","SARL_v6","SARL_v63h0egyur","63d4023113db62d162fe84d1","rl","","","img/black_2bandit_a2.png","75","","0","test","","","90","","","0","square","circle","","0","4","","75","0","-12","-12","0","circle","4","0"
"null","329853","SARL_v6","SARL_v63h0egyur","63d4023113db62d162fe84d1","feedback","","","<div class=""verylowPoints""> 0 </div>","null","","na","test","","","NaN","","","","","","","","4","","75","","","","","","4",""
"null","330685","SARL_v6","SARL_v63h0egyur","63d4023113db62d162fe84d1","freq","","","img/orange_2bandit_a2.png","null","","70","test","0","","91","","","","square","circle","87","1","5","0.5172413793103449","","","","","","","",""
"null","330865","SARL_v6","SARL_v63h0egyur","63d4023113db62d162fe84d1","fixation","","","img/fixation.png","null","","","test","","","","","","","","","","","","","","","","","","","",""
"226.70000000298023","331099","SARL_v6","SARL_v63h0egyur","63d4023113db62d162fe84d1","freq","","","img/orange_2bandit_a2.png","70","","70","test","1","","92","","","","square","circle","88","2","5","0.5227272727272727","","","","","","","",""
"null","331699","SARL_v6","SARL_v63h0egyur","63d4023113db62d162fe84d1","freq_resp","","","img/orange_2bandit_a.png","70","img/orange_2bandit_a.png","70","test","","","","","","","","","","","5","","","","","","","","",""
"null","331875","SARL_v6","SARL_v63h0egyur","63d4023113db62d162fe84d1","fixation","","","img/fixation.png","null","","","test","","","","","","","","","","","","","","","","","","","",""
"111.90000000596046","331994","SARL_v6","SARL_v63h0egyur","63d4023113db62d162fe84d1","freq","","","img/orange_2bandit_a2.png","70","","70","test","1","","93","","","","square","circle","89","3","5","0.5280898876404494","","","","","","","",""
"null","332719","SARL_v6","SARL_v63h0egyur","63d4023113db62d162fe84d1","freq_resp","","","img/orange_2bandit_a.png","70","img/orange_2bandit_a.png","70","test","","","","","","","","","","","5","","","","","","","","",""
"null","332895","SARL_v6","SARL_v63h0egyur","63d4023113db62d162fe84d1","fixation","","","img/fixation.png","null","","","test","","","","","","","","","","","","","","","","","","","",""
"218.59999999403954","333120","SARL_v6","SARL_v63h0egyur","63d4023113db62d162fe84d1","infreq","","","img/blue_2bandit_a2.png","70","","68","test","0","","94","","","","square","circle","90","4","5","0.5222222222222223","","","","","","","",""
"null","333733","SARL_v6","SARL_v63h0egyur","63d4023113db62d162fe84d1","infreq_resp","","","img/blue_2bandit_a.png","70","img/blue_2bandit_a.png","68","test","","","","","","","","","","","5","","","","","","","","",""
"null","333903","SARL_v6","SARL_v63h0egyur","63d4023113db62d162fe84d1","fixation","","","img/fixation.png","null","","","test","","","","","","","","","","","","","","","","","","","",""
"340","334249","SARL_v6","SARL_v63h0egyur","63d4023113db62d162fe84d1","freq","","","img/orange_2bandit_a2.png","70","","70","test","1","","95","","","","square","circle","91","5","5","0.5274725274725275","","","","","","","",""
"null","334740","SARL_v6","SARL_v63h0egyur","63d4023113db62d162fe84d1","freq_resp","","","img/orange_2bandit_a.png","70","img/orange_2bandit_a.png","70","test","","","","","","","","","","","5","","","","","","","","",""
"null","334926","SARL_v6","SARL_v63h0egyur","63d4023113db62d162fe84d1","fixation","","","img/fixation.png","null","","","test","","","","","","","","","","","","","","","","","","","",""
"208.59999999403954","335141","SARL_v6","SARL_v63h0egyur","63d4023113db62d162fe84d1","freq","","","img/orange_2bandit_a2.png","70","","70","test","1","","96","","","","square","circle","92","6","5","0.532608695652174","","","","","","","",""
"null","335762","SARL_v6","SARL_v63h0egyur","63d4023113db62d162fe84d1","freq_resp","","","img/orange_2bandit_a.png","70","img/orange_2bandit_a.png","70","test","","","","","","","","","","","5","","","","","","","","",""
"null","335939","SARL_v6","SARL_v63h0egyur","63d4023113db62d162fe84d1","fixation","","","img/fixation.png","null","","","test","","","","","","","","","","","","","","","","","","","",""
"321.70000000298023","336266","SARL_v6","SARL_v63h0egyur","63d4023113db62d162fe84d1","freq","","","img/orange_2bandit_a2.png","70","","70","test","1","","97","","","","square","circle","93","7","5","0.5376344086021505","","","","","","","",""
"null","336769","SARL_v6","SARL_v63h0egyur","63d4023113db62d162fe84d1","freq_resp","","","img/orange_2bandit_a.png","70","img/orange_2bandit_a.png","70","test","","","","","","","","","","","5","","","","","","","","",""
"null","336945","SARL_v6","SARL_v63h0egyur","63d4023113db62d162fe84d1","fixation","","","img/fixation.png","null","","","test","","","","","","","","","","","","","","","","","","","",""
"null","337771","SARL_v6","SARL_v63h0egyur","63d4023113db62d162fe84d1","freq","","","img/orange_2bandit_a2.png","null","","70","test","0","","98","","","","square","circle","94","8","5","0.5319148936170213","","","","","","","",""
"null","337936","SARL_v6","SARL_v63h0egyur","63d4023113db62d162fe84d1","fixation","","","img/fixation.png","null","","","test","","","","","","","","","","","","","","","","","","","",""
"null","338755","SARL_v6","SARL_v63h0egyur","63d4023113db62d162fe84d1","freq","","","img/orange_2bandit_a2.png","null","","70","test","0","","99","","","","square","circle","95","9","5","0.5263157894736842","","","","","","","",""
"null","338931","SARL_v6","SARL_v63h0egyur","63d4023113db62d162fe84d1","fixation","","","img/fixation.png","null","","","test","","","","","","","","","","","","","","","","","","","",""
"28","338965","SARL_v6","SARL_v63h0egyur","63d4023113db62d162fe84d1","freq","","","img/orange_2bandit_a2.png","70","","70","test","1","","100","","","","square","circle","96","10","5","0.53125","","","","","","","",""
"null","339774","SARL_v6","SARL_v63h0egyur","63d4023113db62d162fe84d1","freq_resp","","","img/orange_2bandit_a.png","70","img/orange_2bandit_a.png","70","test","","","","","","","","","","","5","","","","","","","","",""
"null","339947","SARL_v6","SARL_v63h0egyur","63d4023113db62d162fe84d1","fixation","","","img/fixation.png","null","","","test","","","","","","","","","","","","","","","","","","","",""
"145.59999999403954","340099","SARL_v6","SARL_v63h0egyur","63d4023113db62d162fe84d1","freq","","","img/orange_2bandit_a2.png","70","","70","test","1","","101","","","","square","circle","97","11","5","0.5360824742268041","","","","","","","",""
"null","340778","SARL_v6","SARL_v63h0egyur","63d4023113db62d162fe84d1","freq_resp","","","img/orange_2bandit_a.png","70","img/orange_2bandit_a.png","70","test","","","","","","","","","","","5","","","","","","","","",""
"null","340962","SARL_v6","SARL_v63h0egyur","63d4023113db62d162fe84d1","fixation","","","img/fixation.png","null","","","test","","","","","","","","","","","","","","","","","","","",""
"251.09999999403954","341220","SARL_v6","SARL_v63h0egyur","63d4023113db62d162fe84d1","infreq","","","img/blue_2bandit_a2.png","70","","68","test","0","","102","","","","square","circle","98","12","5","0.5306122448979592","","","","","","","",""
"null","341795","SARL_v6","SARL_v63h0egyur","63d4023113db62d162fe84d1","infreq_resp","","","img/blue_2bandit_a.png","70","img/blue_2bandit_a.png","68","test","","","","","","","","","","","5","","","","","","","","",""
"null","341971","SARL_v6","SARL_v63h0egyur","63d4023113db62d162fe84d1","fixation","","","img/fixation.png","null","","","test","","","","","","","","","","","","","","","","","","","",""
"363.59999999403954","342341","SARL_v6","SARL_v63h0egyur","63d4023113db62d162fe84d1","freq","","","img/orange_2bandit_a2.png","70","","70","test","1","","103","","","","square","circle","99","13","5","0.5353535353535354","","","","","","","",""
"null","342806","SARL_v6","SARL_v63h0egyur","63d4023113db62d162fe84d1","freq_resp","","","img/orange_2bandit_a.png","70","img/orange_2bandit_a.png","70","test","","","","","","","","","","","5","","","","","","","","",""
"null","342985","SARL_v6","SARL_v63h0egyur","63d4023113db62d162fe84d1","fixation","","","img/fixation.png","null","","","test","","","","","","","","","","","","","","","","","","","",""
"474.70000000298023","343466","SARL_v6","SARL_v63h0egyur","63d4023113db62d162fe84d1","freq","","","img/orange_2bandit_a2.png","70","","70","test","1","","104","","","","square","circle","100","14","5","0.54","","","","","","","",""
"null","343817","SARL_v6","SARL_v63h0egyur","63d4023113db62d162fe84d1","freq_resp","","","img/orange_2bandit_a.png","70","img/orange_2bandit_a.png","70","test","","","","","","","","","","","5","","","","","","","","",""
"null","343995","SARL_v6","SARL_v63h0egyur","63d4023113db62d162fe84d1","fixation","","","img/fixation.png","null","","","test","","","","","","","","","","","","","","","","","","","",""
"312.79999999701977","344316","SARL_v6","SARL_v63h0egyur","63d4023113db62d162fe84d1","freq","","","img/orange_2bandit_a2.png","70","","70","test","1","","105","","","","square","circle","101","15","5","0.5445544554455446","","","","","","","",""
"null","344832","SARL_v6","SARL_v63h0egyur","63d4023113db62d162fe84d1","freq_resp","","","img/orange_2bandit_a.png","70","img/orange_2bandit_a.png","70","test","","","","","","","","","","","5","","","","","","","","",""
"null","345003","SARL_v6","SARL_v63h0egyur","63d4023113db62d162fe84d1","fixation","","","img/fixation.png","null","","","test","","","","","","","","","","","","","","","","","","","",""
"482.5","345489","SARL_v6","SARL_v63h0egyur","63d4023113db62d162fe84d1","freq","","","img/orange_2bandit_a2.png","70","","70","test","1","","106","","","","square","circle","102","16","5","0.5490196078431373","","","","","","","",""
"null","345829","SARL_v6","SARL_v63h0egyur","63d4023113db62d162fe84d1","freq_resp","","","img/orange_2bandit_a.png","70","img/orange_2bandit_a.png","70","test","","","","","","","","","","","5","","","","","","","","",""
"null","346013","SARL_v6","SARL_v63h0egyur","63d4023113db62d162fe84d1","fixation","","","img/fixation.png","null","","","test","","","","","","","","","","","","","","","","","","","",""
"null","346842","SARL_v6","SARL_v63h0egyur","63d4023113db62d162fe84d1","freq","","","img/orange_2bandit_a2.png","null","","70","test","0","","107","","","","square","circle","103","17","5","0.5436893203883495","","","","","","","",""
"null","347018","SARL_v6","SARL_v63h0egyur","63d4023113db62d162fe84d1","fixation","","","img/fixation.png","null","","","test","","","","","","","","","","","","","","","","","","","",""
"null","347833","SARL_v6","SARL_v63h0egyur","63d4023113db62d162fe84d1","freq","","","img/orange_2bandit_a2.png","null","","70","test","0","","108","","","","square","circle","104","18","5","0.5384615384615384","","","","","","","",""
"null","347994","SARL_v6","SARL_v63h0egyur","63d4023113db62d162fe84d1","fixation","","","img/fixation.png","null","","","test","","","","","","","","","","","","","","","","","","","",""
"null","348827","SARL_v6","SARL_v63h0egyur","63d4023113db62d162fe84d1","freq","","","img/orange_2bandit_a2.png","null","","70","test","0","","109","","","","square","circle","105","19","5","0.5333333333333333","","","","","","","",""
"null","348993","SARL_v6","SARL_v63h0egyur","63d4023113db62d162fe84d1","fixation","","","img/fixation.png","null","","","test","","","","","","","","","","","","","","","","","","","",""
"772.5","349770","SARL_v6","SARL_v63h0egyur","63d4023113db62d162fe84d1","freq","","","img/orange_2bandit_a2.png","70","","70","test","1","","110","","","","square","circle","106","20","5","0.5377358490566038","","","","","","","",""
"null","349810","SARL_v6","SARL_v63h0egyur","63d4023113db62d162fe84d1","freq_resp","","","img/orange_2bandit_a.png","70","img/orange_2bandit_a.png","70","test","","","","","","","","","","","5","","","","","","","","",""
"null","349970","SARL_v6","SARL_v63h0egyur","63d4023113db62d162fe84d1","fixation","","","img/fixation.png","null","","","test","","","","","","","","","","","","","","","","","","","",""
"700.3999999910593","350680","SARL_v6","SARL_v63h0egyur","63d4023113db62d162fe84d1","freq","","","img/orange_2bandit_a2.png","70","","70","test","1","","111","","","","square","circle","107","21","5","0.5420560747663551","","","","","","","",""
"null","350791","SARL_v6","SARL_v63h0egyur","63d4023113db62d162fe84d1","freq_resp","","","img/orange_2bandit_a.png","70","img/orange_2bandit_a.png","70","test","","","","","","","","","","","5","","","","","","","","",""
"null","350975","SARL_v6","SARL_v63h0egyur","63d4023113db62d162fe84d1","fixation","","","img/fixation.png","null","","","test","","","","","","","","","","","","","","","","","","","",""
"592.1000000089407","351574","SARL_v6","SARL_v63h0egyur","63d4023113db62d162fe84d1","freq","","","img/orange_2bandit_a2.png","70","","70","test","1","","112","","","","square","circle","108","22","5","0.5462962962962963","","","","","","","",""
"null","351792","SARL_v6","SARL_v63h0egyur","63d4023113db62d162fe84d1","freq_resp","","","img/orange_2bandit_a.png","70","img/orange_2bandit_a.png","70","test","","","","","","","","","","","5","","","","","","","","",""
"null","351965","SARL_v6","SARL_v63h0egyur","63d4023113db62d162fe84d1","fixation","","","img/fixation.png","null","","","test","","","","","","","","","","","","","","","","","","","",""
"null","352799","SARL_v6","SARL_v63h0egyur","63d4023113db62d162fe84d1","freq","","","img/orange_2bandit_a2.png","null","","70","test","0","","113","","","","square","circle","109","23","5","0.5412844036697247","","","","","","","",""
"null","352963","SARL_v6","SARL_v63h0egyur","63d4023113db62d162fe84d1","fixation","","","img/fixation.png","null","","","test","","","","","","","","","","","","","","","","","","","",""
"1305.0999999940395","354273","SARL_v6","SARL_v63h0egyur","63d4023113db62d162fe84d1","rl","","","img/black_2bandit_a2.png","75","","0","test","","","114","","","4","square","circle","","0","5","","75","4","-7","-7","4","circle","5","1"
"null","355053","SARL_v6","SARL_v63h0egyur","63d4023113db62d162fe84d1","feedback","","","<div class=""veryhighPoints""> 4 </div>","null","","na","test","","","NaN","","","","","","","","5","","75","","","","","","5",""
"8886","363946","SARL_v6","SARL_v63h0egyur","63d4023113db62d162fe84d1","","","","","","","","test","","","","","","","","","","","","","","","","","","","",""
"null","364776","SARL_v6","SARL_v63h0egyur","63d4023113db62d162fe84d1","freq","","","img/orange_2bandit_a2.png","null","","70","test","0","","115","","","","square","circle","110","1","6","0.5363636363636364","","","","","","","",""
"null","364945","SARL_v6","SARL_v63h0egyur","63d4023113db62d162fe84d1","fixation","","","img/fixation.png","null","","","test","","","","","","","","","","","","","","","","","","","",""
"99.59999999403954","365050","SARL_v6","SARL_v63h0egyur","63d4023113db62d162fe84d1","freq","","","img/orange_2bandit_a2.png","70","","70","test","1","","116","","","","square","circle","111","2","6","0.5405405405405406","","","","","","","",""
"null","365760","SARL_v6","SARL_v63h0egyur","63d4023113db62d162fe84d1","freq_resp","","","img/orange_2bandit_a.png","70","img/orange_2bandit_a.png","70","test","","","","","","","","","","","6","","","","","","","","",""
"null","365916","SARL_v6","SARL_v63h0egyur","63d4023113db62d162fe84d1","fixation","","","img/fixation.png","null","","","test","","","","","","","","","","","","","","","","","","","",""
"265","366184","SARL_v6","SARL_v63h0egyur","63d4023113db62d162fe84d1","freq","","","img/orange_2bandit_a2.png","70","","70","test","1","","117","","","","square","circle","112","3","6","0.5446428571428571","","","","","","","",""
"null","366749","SARL_v6","SARL_v63h0egyur","63d4023113db62d162fe84d1","freq_resp","","","img/orange_2bandit_a.png","70","img/orange_2bandit_a.png","70","test","","","","","","","","","","","6","","","","","","","","",""
"null","366909","SARL_v6","SARL_v63h0egyur","63d4023113db62d162fe84d1","fixation","","","img/fixation.png","null","","","test","","","","","","","","","","","","","","","","","","","",""
"407.20000000298023","367320","SARL_v6","SARL_v63h0egyur","63d4023113db62d162fe84d1","freq","","","img/orange_2bandit_a2.png","70","","70","test","1","","118","","","","square","circle","113","4","6","0.5486725663716814","","","","","","","",""
"null","367743","SARL_v6","SARL_v63h0egyur","63d4023113db62d162fe84d1","freq_resp","","","img/orange_2bandit_a.png","70","img/orange_2bandit_a.png","70","test","","","","","","","","","","","6","","","","","","","","",""
"null","367922","SARL_v6","SARL_v63h0egyur","63d4023113db62d162fe84d1","fixation","","","img/fixation.png","null","","","test","","","","","","","","","","","","","","","","","","","",""
"506.6000000089407","368435","SARL_v6","SARL_v63h0egyur","63d4023113db62d162fe84d1","freq","","","img/orange_2bandit_a2.png","70","","70","test","1","","119","","","","square","circle","114","5","6","0.5526315789473685","","","","","","","",""
"null","368756","SARL_v6","SARL_v63h0egyur","63d4023113db62d162fe84d1","freq_resp","","","img/orange_2bandit_a.png","70","img/orange_2bandit_a.png","70","test","","","","","","","","","","","6","","","","","","","","",""
"null","368928","SARL_v6","SARL_v63h0egyur","63d4023113db62d162fe84d1","fixation","","","img/fixation.png","null","","","test","","","","","","","","","","","","","","","","","","","",""
"null","369755","SARL_v6","SARL_v63h0egyur","63d4023113db62d162fe84d1","infreq","","","img/blue_2bandit_a2.png","null","","68","test","0","","120","","","","square","circle","115","6","6","0.5478260869565217","","","","","","","",""
"null","369928","SARL_v6","SARL_v63h0egyur","63d4023113db62d162fe84d1","fixation","","","img/fixation.png","null","","","test","","","","","","","","","","","","","","","","","","","",""
"536.1000000089407","370468","SARL_v6","SARL_v63h0egyur","63d4023113db62d162fe84d1","freq","","","img/orange_2bandit_a2.png","70","","70","test","1","","121","","","","square","circle","116","7","6","0.5517241379310345","","","","","","","",""
"null","370758","SARL_v6","SARL_v63h0egyur","63d4023113db62d162fe84d1","freq_resp","","","img/orange_2bandit_a.png","70","img/orange_2bandit_a.png","70","test","","","","","","","","","","","6","","","","","","","","",""
"null","370931","SARL_v6","SARL_v63h0egyur","63d4023113db62d162fe84d1","fixation","","","img/fixation.png","null","","","test","","","","","","","","","","","","","","","","","","","",""
"430.59999999403954","371367","SARL_v6","SARL_v63h0egyur","63d4023113db62d162fe84d1","freq","","","img/orange_2bandit_a2.png","70","","70","test","1","","122","","","","square","circle","117","8","6","0.5555555555555556","","","","","","","",""
"null","371767","SARL_v6","SARL_v63h0egyur","63d4023113db62d162fe84d1","freq_resp","","","img/orange_2bandit_a.png","70","img/orange_2bandit_a.png","70","test","","","","","","","","","","","6","","","","","","","","",""
"null","371947","SARL_v6","SARL_v63h0egyur","63d4023113db62d162fe84d1","fixation","","","img/fixation.png","null","","","test","","","","","","","","","","","","","","","","","","","",""
"315.1000000089407","372270","SARL_v6","SARL_v63h0egyur","63d4023113db62d162fe84d1","infreq","","","img/blue_2bandit_a2.png","70","","68","test","0","","123","","","","square","circle","118","9","6","0.5508474576271186","","","","","","","",""
"null","372771","SARL_v6","SARL_v63h0egyur","63d4023113db62d162fe84d1","infreq_resp","","","img/blue_2bandit_a.png","70","img/blue_2bandit_a.png","68","test","","","","","","","","","","","6","","","","","","","","",""
"null","372935","SARL_v6","SARL_v63h0egyur","63d4023113db62d162fe84d1","fixation","","","img/fixation.png","null","","","test","","","","","","","","","","","","","","","","","","","",""
"null","373758","SARL_v6","SARL_v63h0egyur","63d4023113db62d162fe84d1","freq","","","img/orange_2bandit_a2.png","null","","70","test","0","","124","","","","square","circle","119","10","6","0.5462184873949579","","","","","","","",""
"null","373917","SARL_v6","SARL_v63h0egyur","63d4023113db62d162fe84d1","fixation","","","img/fixation.png","null","","","test","","","","","","","","","","","","","","","","","","","",""
"563.1000000089407","374484","SARL_v6","SARL_v63h0egyur","63d4023113db62d162fe84d1","freq","","","img/orange_2bandit_a2.png","70","","70","test","1","","125","","","","square","circle","120","11","6","0.55","","","","","","","",""
"null","374729","SARL_v6","SARL_v63h0egyur","63d4023113db62d162fe84d1","freq_resp","","","img/orange_2bandit_a.png","70","img/orange_2bandit_a.png","70","test","","","","","","","","","","","6","","","","","","","","",""
"null","374908","SARL_v6","SARL_v63h0egyur","63d4023113db62d162fe84d1","fixation","","","img/fixation.png","null","","","test","","","","","","","","","","","","","","","","","","","",""
"502.8999999910593","375419","SARL_v6","SARL_v63h0egyur","63d4023113db62d162fe84d1","freq","","","img/orange_2bandit_a2.png","70","","70","test","1","","126","","","","square","circle","121","12","6","0.5537190082644629","","","","","","","",""
"null","375727","SARL_v6","SARL_v63h0egyur","63d4023113db62d162fe84d1","freq_resp","","","img/orange_2bandit_a.png","70","img/orange_2bandit_a.png","70","test","","","","","","","","","","","6","","","","","","","","",""
"null","375888","SARL_v6","SARL_v63h0egyur","63d4023113db62d162fe84d1","fixation","","","img/fixation.png","null","","","test","","","","","","","","","","","","","","","","","","","",""
"425.90000000596046","376318","SARL_v6","SARL_v63h0egyur","63d4023113db62d162fe84d1","freq","","","img/orange_2bandit_a2.png","70","","70","test","1","","127","","","","square","circle","122","13","6","0.5573770491803278","","","","","","","",""
"null","376712","SARL_v6","SARL_v63h0egyur","63d4023113db62d162fe84d1","freq_resp","","","img/orange_2bandit_a.png","70","img/orange_2bandit_a.png","70","test","","","","","","","","","","","6","","","","","","","","",""
"null","376892","SARL_v6","SARL_v63h0egyur","63d4023113db62d162fe84d1","fixation","","","img/fixation.png","null","","","test","","","","","","","","","","","","","","","","","","","",""
"317.8999999910593","377217","SARL_v6","SARL_v63h0egyur","63d4023113db62d162fe84d1","freq","","","img/orange_2bandit_a2.png","70","","70","test","1","","128","","","","square","circle","123","14","6","0.5609756097560976","","","","","","","",""
"null","377731","SARL_v6","SARL_v63h0egyur","63d4023113db62d162fe84d1","freq_resp","","","img/orange_2bandit_a.png","70","img/orange_2bandit_a.png","70","test","","","","","","","","","","","6","","","","","","","","",""
"null","377911","SARL_v6","SARL_v63h0egyur","63d4023113db62d162fe84d1","fixation","","","img/fixation.png","null","","","test","","","","","","","","","","","","","","","","","","","",""
"null","378740","SARL_v6","SARL_v63h0egyur","63d4023113db62d162fe84d1","freq","","","img/orange_2bandit_a2.png","null","","70","test","0","","129","","","","square","circle","124","15","6","0.5564516129032258","","","","","","","",""
"null","378919","SARL_v6","SARL_v63h0egyur","63d4023113db62d162fe84d1","fixation","","","img/fixation.png","null","","","test","","","","","","","","","","","","","","","","","","","",""
"null","379759","SARL_v6","SARL_v63h0egyur","63d4023113db62d162fe84d1","freq","","","img/orange_2bandit_a2.png","null","","70","test","0","","130","","","","square","circle","125","16","6","0.552","","","","","","","",""
"null","379918","SARL_v6","SARL_v63h0egyur","63d4023113db62d162fe84d1","fixation","","","img/fixation.png","null","","","test","","","","","","","","","","","","","","","","","","","",""
"null","380748","SARL_v6","SARL_v63h0egyur","63d4023113db62d162fe84d1","infreq","","","img/blue_2bandit_a2.png","null","","68","test","0","","131","","","","square","circle","126","17","6","0.5476190476190477","","","","","","","",""
"null","380910","SARL_v6","SARL_v63h0egyur","63d4023113db62d162fe84d1","fixation","","","img/fixation.png","null","","","test","","","","","","","","","","","","","","","","","","","",""
"356.6000000089407","381271","SARL_v6","SARL_v63h0egyur","63d4023113db62d162fe84d1","freq","","","img/orange_2bandit_a2.png","68","","70","test","0","","132","","","","square","circle","127","18","6","0.5433070866141733","","","","","","","",""
"null","381729","SARL_v6","SARL_v63h0egyur","63d4023113db62d162fe84d1","freq_resp","","","img/orange_2bandit_a.png","68","img/orange_2bandit_a.png","70","test","","","","","","","","","","","6","","","","","","","","",""
"null","381905","SARL_v6","SARL_v63h0egyur","63d4023113db62d162fe84d1","fixation","","","img/fixation.png","null","","","test","","","","","","","","","","","","","","","","","","","",""
"484","382396","SARL_v6","SARL_v63h0egyur","63d4023113db62d162fe84d1","freq","","","img/orange_2bandit_a2.png","70","","70","test","1","","133","","","","square","circle","128","19","6","0.546875","","","","","","","",""
"null","382742","SARL_v6","SARL_v63h0egyur","63d4023113db62d162fe84d1","freq_resp","","","img/orange_2bandit_a.png","70","img/orange_2bandit_a.png","70","test","","","","","","","","","","","6","","","","","","","","",""
"null","382926","SARL_v6","SARL_v63h0egyur","63d4023113db62d162fe84d1","fixation","","","img/fixation.png","null","","","test","","","","","","","","","","","","","","","","","","","",""
"null","383756","SARL_v6","SARL_v63h0egyur","63d4023113db62d162fe84d1","freq","","","img/orange_2bandit_a2.png","null","","70","test","0","","134","","","","square","circle","129","20","6","0.5426356589147286","","","","","","","",""
"null","383936","SARL_v6","SARL_v63h0egyur","63d4023113db62d162fe84d1","fixation","","","img/fixation.png","null","","","test","","","","","","","","","","","","","","","","","","","",""
"21.600000008940697","383965","SARL_v6","SARL_v63h0egyur","63d4023113db62d162fe84d1","freq","","","img/orange_2bandit_a2.png","70","","70","test","1","","135","","","","square","circle","130","21","6","0.5461538461538461","","","","","","","",""
"null","384785","SARL_v6","SARL_v63h0egyur","63d4023113db62d162fe84d1","freq_resp","","","img/orange_2bandit_a.png","70","img/orange_2bandit_a.png","70","test","","","","","","","","","","","6","","","","","","","","",""
"null","384966","SARL_v6","SARL_v63h0egyur","63d4023113db62d162fe84d1","fixation","","","img/fixation.png","null","","","test","","","","","","","","","","","","","","","","","","","",""
"349.8999999910593","385323","SARL_v6","SARL_v63h0egyur","63d4023113db62d162fe84d1","freq","","","img/orange_2bandit_a2.png","70","","70","test","1","","136","","","","square","circle","131","22","6","0.549618320610687","","","","","","","",""
"null","385800","SARL_v6","SARL_v63h0egyur","63d4023113db62d162fe84d1","freq_resp","","","img/orange_2bandit_a.png","70","img/orange_2bandit_a.png","70","test","","","","","","","","","","","6","","","","","","","","",""
"null","385977","SARL_v6","SARL_v63h0egyur","63d4023113db62d162fe84d1","fixation","","","img/fixation.png","null","","","test","","","","","","","","","","","","","","","","","","","",""
"456.70000000298023","386442","SARL_v6","SARL_v63h0egyur","63d4023113db62d162fe84d1","freq","","","img/orange_2bandit_a2.png","70","","70","test","1","","137","","","","square","circle","132","23","6","0.553030303030303","","","","","","","",""
"null","386816","SARL_v6","SARL_v63h0egyur","63d4023113db62d162fe84d1","freq_resp","","","img/orange_2bandit_a.png","70","img/orange_2bandit_a.png","70","test","","","","","","","","","","","6","","","","","","","","",""
"null","386994","SARL_v6","SARL_v63h0egyur","63d4023113db62d162fe84d1","fixation","","","img/fixation.png","null","","","test","","","","","","","","","","","","","","","","","","","",""
"1019.2000000029802","388021","SARL_v6","SARL_v63h0egyur","63d4023113db62d162fe84d1","rl","","","img/black_2bandit_a2.png","75","","0","test","","","138","","","-4","square","circle","","0","6","","75","-4","-1","-1","-4","circle","6","0"
"null","388800","SARL_v6","SARL_v63h0egyur","63d4023113db62d162fe84d1","feedback","","","<div class=""verylowPoints""> -4 </div>","null","","na","test","","","NaN","","","","","","","","6","","75","","","","","","6",""
"null","389635","SARL_v6","SARL_v63h0egyur","63d4023113db62d162fe84d1","freq","","","img/orange_2bandit_a2.png","null","","70","test","0","","139","","","","square","circle","133","1","7","0.5488721804511278","","","","","","","",""
"null","389820","SARL_v6","SARL_v63h0egyur","63d4023113db62d162fe84d1","fixation","","","img/fixation.png","null","","","test","","","","","","","","","","","","","","","","","","","",""
"null","390654","SARL_v6","SARL_v63h0egyur","63d4023113db62d162fe84d1","infreq","","","img/blue_2bandit_a2.png","null","","68","test","0","","140","","","","square","circle","134","2","7","0.5447761194029851","","","","","","","",""
"null","390825","SARL_v6","SARL_v63h0egyur","63d4023113db62d162fe84d1","fixation","","","img/fixation.png","null","","","test","","","","","","","","","","","","","","","","","","","",""
"109.5","390940","SARL_v6","SARL_v63h0egyur","63d4023113db62d162fe84d1","freq","","","img/orange_2bandit_a2.png","70","","70","test","1","","141","","","","square","circle","135","3","7","0.5481481481481482","","","","","","","",""
"null","391653","SARL_v6","SARL_v63h0egyur","63d4023113db62d162fe84d1","freq_resp","","","img/orange_2bandit_a.png","70","img/orange_2bandit_a.png","70","test","","","","","","","","","","","7","","","","","","","","",""
"null","391833","SARL_v6","SARL_v63h0egyur","63d4023113db62d162fe84d1","fixation","","","img/fixation.png","null","","","test","","","","","","","","","","","","","","","","","","","",""
"455.09999999403954","392294","SARL_v6","SARL_v63h0egyur","63d4023113db62d162fe84d1","freq","","","img/orange_2bandit_a2.png","70","","70","test","1","","142","","","","square","circle","136","4","7","0.5514705882352942","","","","","","","",""
"null","392664","SARL_v6","SARL_v63h0egyur","63d4023113db62d162fe84d1","freq_resp","","","img/orange_2bandit_a.png","70","img/orange_2bandit_a.png","70","test","","","","","","","","","","","7","","","","","","","","",""
"null","392849","SARL_v6","SARL_v63h0egyur","63d4023113db62d162fe84d1","fixation","","","img/fixation.png","null","","","test","","","","","","","","","","","","","","","","","","","",""
"325.70000000298023","393183","SARL_v6","SARL_v63h0egyur","63d4023113db62d162fe84d1","freq","","","img/orange_2bandit_a2.png","70","","70","test","1","","143","","","","square","circle","137","5","7","0.5547445255474452","","","","","","","",""
"null","393675","SARL_v6","SARL_v63h0egyur","63d4023113db62d162fe84d1","freq_resp","","","img/orange_2bandit_a.png","70","img/orange_2bandit_a.png","70","test","","","","","","","","","","","7","","","","","","","","",""
"null","393842","SARL_v6","SARL_v63h0egyur","63d4023113db62d162fe84d1","fixation","","","img/fixation.png","null","","","test","","","","","","","","","","","","","","","","","","","",""
"697.3999999910593","394545","SARL_v6","SARL_v63h0egyur","63d4023113db62d162fe84d1","freq","","","img/orange_2bandit_a2.png","70","","70","test","1","","144","","","","square","circle","138","6","7","0.5579710144927537","","","","","","","",""
"null","394655","SARL_v6","SARL_v63h0egyur","63d4023113db62d162fe84d1","freq_resp","","","img/orange_2bandit_a.png","70","img/orange_2bandit_a.png","70","test","","","","","","","","","","","7","","","","","","","","",""
"null","394837","SARL_v6","SARL_v63h0egyur","63d4023113db62d162fe84d1","fixation","","","img/fixation.png","null","","","test","","","","","","","","","","","","","","","","","","","",""
"null","395664","SARL_v6","SARL_v63h0egyur","63d4023113db62d162fe84d1","infreq","","","img/blue_2bandit_a2.png","null","","68","test","0","","145","","","","square","circle","139","7","7","0.5539568345323741","","","","","","","",""
"null","395835","SARL_v6","SARL_v63h0egyur","63d4023113db62d162fe84d1","fixation","","","img/fixation.png","null","","","test","","","","","","","","","","","","","","","","","","","",""
"729.4000000059605","396569","SARL_v6","SARL_v63h0egyur","63d4023113db62d162fe84d1","freq","","","img/orange_2bandit_a2.png","70","","70","test","1","","146","","","","square","circle","140","8","7","0.5571428571428572","","","","","","","",""
"null","396647","SARL_v6","SARL_v63h0egyur","63d4023113db62d162fe84d1","freq_resp","","","img/orange_2bandit_a.png","70","img/orange_2bandit_a.png","70","test","","","","","","","","","","","7","","","","","","","","",""
"null","396810","SARL_v6","SARL_v63h0egyur","63d4023113db62d162fe84d1","fixation","","","img/fixation.png","null","","","test","","","","","","","","","","","","","","","","","","","",""
"653.4000000059605","397467","SARL_v6","SARL_v63h0egyur","63d4023113db62d162fe84d1","freq","","","img/orange_2bandit_a2.png","70","","70","test","1","","147","","","","square","circle","141","9","7","0.5602836879432624","","","","","","","",""
"null","397624","SARL_v6","SARL_v63h0egyur","63d4023113db62d162fe84d1","freq_resp","","","img/orange_2bandit_a.png","70","img/orange_2bandit_a.png","70","test","","","","","","","","","","","7","","","","","","","","",""
"null","397805","SARL_v6","SARL_v63h0egyur","63d4023113db62d162fe84d1","fixation","","","img/fixation.png","null","","","test","","","","","","","","","","","","","","","","","","","",""
"559.2000000029802","398372","SARL_v6","SARL_v63h0egyur","63d4023113db62d162fe84d1","freq","","","img/orange_2bandit_a2.png","70","","70","test","1","","148","","","","square","circle","142","10","7","0.5633802816901409","","","","","","","",""
"null","398644","SARL_v6","SARL_v63h0egyur","63d4023113db62d162fe84d1","freq_resp","","","img/orange_2bandit_a.png","70","img/orange_2bandit_a.png","70","test","","","","","","","","","","","7","","","","","","","","",""
"null","398825","SARL_v6","SARL_v63h0egyur","63d4023113db62d162fe84d1","fixation","","","img/fixation.png","null","","","test","","","","","","","","","","","","","","","","","","","",""
