"rt","time_elapsed","expId","subject","prolificID","trialType","rlType","attType","stimulus","key_press","stim","corrresp","phase","corr","pracCounter","trialNum","rewardOne","rewardTwo","reward","bandOne","bandTwo","attentionNum","attentionRunNum","blockNum","performance","bandChosen","circleVal","squareVal","bandOneVal","bandTwoVal","shapeChosen","rlNum","badFlag"
"18032.89999961853","18035","SARL_v6","SARL_v6b2swm0k6","629513753a4424c933282660","","","","","","","","","","","","","","","","","","","","","","","","","","","",""
"","20401","SARL_v6","SARL_v6b2swm0k6","629513753a4424c933282660","fullscreen","fullscreen","fullscreen","","","","","","","","","","","","","","","","","","","","","","","","",""
"172852.10000038147","193255","SARL_v6","SARL_v6b2swm0k6","629513753a4424c933282660","","","","","","","","","","","","","","","","","","","","","","","","","","","",""
"600.1999998092651","193858","SARL_v6","SARL_v6b2swm0k6","629513753a4424c933282660","freqPrac","","","img/orange_2bandit_a2.png","70","img/orange_2bandit_a2.png","70","prac","1","0","","","","","","","","","","","","","","","","","",""
"600.1999998092651","194063","SARL_v6","SARL_v6b2swm0k6","629513753a4424c933282660","freqPrac_resp","","","img/orange_2bandit_a.png","70","img/orange_2bandit_a.png","70","prac","","","","","","","","","","","","","","","","","","","",""
"null","194218","SARL_v6","SARL_v6b2swm0k6","629513753a4424c933282660","fixation","","","img/fixation.png","null","","","prac","","","","","","","","","","","","","","","","","","","",""
"773.6000003814697","194994","SARL_v6","SARL_v6b2swm0k6","629513753a4424c933282660","infreqPrac","","","img/blue_2bandit_a2.png","68","img/blue_2bandit_a2.png","68","prac","1","0","","","","","","","","","","","","","","","","","",""
"773.6000003814697","195023","SARL_v6","SARL_v6b2swm0k6","629513753a4424c933282660","infreqPrac_resp","","","img/blue_2bandit_a.png","68","img/blue_2bandit_a.png","68","prac","","","","","","","","","","","","","","","","","","","",""
"null","195177","SARL_v6","SARL_v6b2swm0k6","629513753a4424c933282660","fixation","","","img/fixation.png","null","","","prac","","","","","","","","","","","","","","","","","","","",""
"574.5","195753","SARL_v6","SARL_v6b2swm0k6","629513753a4424c933282660","freqPrac","","","img/orange_2bandit_a2.png","70","img/orange_2bandit_a2.png","70","prac","1","0","","","","","","","","","","","","","","","","","",""
"574.5","195989","SARL_v6","SARL_v6b2swm0k6","629513753a4424c933282660","freqPrac_resp","","","img/orange_2bandit_a.png","70","img/orange_2bandit_a.png","70","prac","","","","","","","","","","","","","","","","","","","",""
"null","196144","SARL_v6","SARL_v6b2swm0k6","629513753a4424c933282660","fixation","","","img/fixation.png","null","","","prac","","","","","","","","","","","","","","","","","","","",""
"441.69999980926514","196587","SARL_v6","SARL_v6b2swm0k6","629513753a4424c933282660","infreqPrac","","","img/blue_2bandit_a2.png","68","img/blue_2bandit_a2.png","68","prac","1","0","","","","","","","","","","","","","","","","","",""
"441.69999980926514","196958","SARL_v6","SARL_v6b2swm0k6","629513753a4424c933282660","infreqPrac_resp","","","img/blue_2bandit_a.png","68","img/blue_2bandit_a.png","68","prac","","","","","","","","","","","","","","","","","","","",""
"null","197115","SARL_v6","SARL_v6b2swm0k6","629513753a4424c933282660","fixation","","","img/fixation.png","null","","","prac","","","","","","","","","","","","","","","","","","","",""
"465","197581","SARL_v6","SARL_v6b2swm0k6","629513753a4424c933282660","infreqPrac","","","img/blue_2bandit_a2.png","68","img/blue_2bandit_a2.png","68","prac","1","0","","","","","","","","","","","","","","","","","",""
"465","197924","SARL_v6","SARL_v6b2swm0k6","629513753a4424c933282660","infreqPrac_resp","","","img/blue_2bandit_a.png","68","img/blue_2bandit_a.png","68","prac","","","","","","","","","","","","","","","","","","","",""
"null","198077","SARL_v6","SARL_v6b2swm0k6","629513753a4424c933282660","fixation","","","img/fixation.png","null","","","prac","","","","","","","","","","","","","","","","","","","",""
"297.6000003814697","198376","SARL_v6","SARL_v6b2swm0k6","629513753a4424c933282660","infreqPrac","","","img/blue_2bandit_a2.png","68","img/blue_2bandit_a2.png","68","prac","1","0","","","","","","","","","","","","","","","","","",""
"297.6000003814697","198888","SARL_v6","SARL_v6b2swm0k6","629513753a4424c933282660","infreqPrac_resp","","","img/blue_2bandit_a.png","68","img/blue_2bandit_a.png","68","prac","","","","","","","","","","","","","","","","","","","",""
"null","199040","SARL_v6","SARL_v6b2swm0k6","629513753a4424c933282660","fixation","","","img/fixation.png","null","","","prac","","","","","","","","","","","","","","","","","","","",""
"342.5","199384","SARL_v6","SARL_v6b2swm0k6","629513753a4424c933282660","freqPrac","","","img/orange_2bandit_a2.png","70","img/orange_2bandit_a2.png","70","prac","1","0","","","","","","","","","","","","","","","","","",""
"342.5","199851","SARL_v6","SARL_v6b2swm0k6","629513753a4424c933282660","freqPrac_resp","","","img/orange_2bandit_a.png","70","img/orange_2bandit_a.png","70","prac","","","","","","","","","","","","","","","","","","","",""
"null","200007","SARL_v6","SARL_v6b2swm0k6","629513753a4424c933282660","fixation","","","img/fixation.png","null","","","prac","","","","","","","","","","","","","","","","","","","",""
"363.5","200372","SARL_v6","SARL_v6b2swm0k6","629513753a4424c933282660","infreqPrac","","","img/blue_2bandit_a2.png","68","img/blue_2bandit_a2.png","68","prac","1","0","","","","","","","","","","","","","","","","","",""
"363.5","200810","SARL_v6","SARL_v6b2swm0k6","629513753a4424c933282660","infreqPrac_resp","","","img/blue_2bandit_a.png","68","img/blue_2bandit_a.png","68","prac","","","","","","","","","","","","","","","","","","","",""
"null","200965","SARL_v6","SARL_v6b2swm0k6","629513753a4424c933282660","fixation","","","img/fixation.png","null","","","prac","","","","","","","","","","","","","","","","","","","",""
"265","201231","SARL_v6","SARL_v6b2swm0k6","629513753a4424c933282660","freqPrac","","","img/orange_2bandit_a2.png","70","img/orange_2bandit_a2.png","70","prac","1","0","","","","","","","","","","","","","","","","","",""
"265","201770","SARL_v6","SARL_v6b2swm0k6","629513753a4424c933282660","freqPrac_resp","","","img/orange_2bandit_a.png","70","img/orange_2bandit_a.png","70","prac","","","","","","","","","","","","","","","","","","","",""
"null","201925","SARL_v6","SARL_v6b2swm0k6","629513753a4424c933282660","fixation","","","img/fixation.png","null","","","prac","","","","","","","","","","","","","","","","","","","",""
"299.1000003814697","202226","SARL_v6","SARL_v6b2swm0k6","629513753a4424c933282660","freqPrac","","","img/orange_2bandit_a2.png","70","img/orange_2bandit_a2.png","70","prac","1","0","","","","","","","","","","","","","","","","","",""
"299.1000003814697","202733","SARL_v6","SARL_v6b2swm0k6","629513753a4424c933282660","freqPrac_resp","","","img/orange_2bandit_a.png","70","img/orange_2bandit_a.png","70","prac","","","","","","","","","","","","","","","","","","","",""
"null","202890","SARL_v6","SARL_v6b2swm0k6","629513753a4424c933282660","fixation","","","img/fixation.png","null","","","prac","","","","","","","","","","","","","","","","","","","",""
"23169.60000038147","226061","SARL_v6","SARL_v6b2swm0k6","629513753a4424c933282660","","","","","","","","prac","","","","","","","","","","","","","","","","","","","",""
"481.5","226544","SARL_v6","SARL_v6b2swm0k6","629513753a4424c933282660","rlPractice","","","img/black_2bandit_a2.png","74","img/black_2bandit_a2.png","","prac","","","0","","","","","","","","","","","","","","","","",""
"null","227309","SARL_v6","SARL_v6b2swm0k6","629513753a4424c933282660","feedback","","","<div class=""verylowPoints_sq""> -14 </div>","null","","na","prac","","","1","10","-14","10","","","","","","","","","","","","","",""
"null","227463","SARL_v6","SARL_v6b2swm0k6","629513753a4424c933282660","fixation","","","img/fixation.png","null","","","prac","","","","","","","","","","","","","","","","","","","",""
"1192.6000003814697","228657","SARL_v6","SARL_v6b2swm0k6","629513753a4424c933282660","rlPractice","","","img/black_2bandit_a2.png","75","img/black_2bandit_a2.png","","prac","","","1","","","","","","","","","","","","","","","","",""
"null","229414","SARL_v6","SARL_v6b2swm0k6","629513753a4424c933282660","feedback","","","<div class=""veryhighPoints""> 5 </div>","null","","na","prac","","","2","5","-5","5","","","","","","","","","","","","","",""
"null","229568","SARL_v6","SARL_v6b2swm0k6","629513753a4424c933282660","fixation","","","img/fixation.png","null","","","prac","","","","","","","","","","","","","","","","","","","",""
"437.8999996185303","230008","SARL_v6","SARL_v6b2swm0k6","629513753a4424c933282660","rlPractice","","","img/black_2bandit_a2.png","75","img/black_2bandit_a2.png","","prac","","","2","","","","","","","","","","","","","","","","",""
"null","230764","SARL_v6","SARL_v6b2swm0k6","629513753a4424c933282660","feedback","","","<div class=""veryhighPoints""> 30 </div>","null","","na","prac","","","3","30","2","30","","","","","","","","","","","","","",""
"null","230916","SARL_v6","SARL_v6b2swm0k6","629513753a4424c933282660","fixation","","","img/fixation.png","null","","","prac","","","","","","","","","","","","","","","","","","","",""
"477.30000019073486","231395","SARL_v6","SARL_v6b2swm0k6","629513753a4424c933282660","rlPractice","","","img/black_2bandit_a2.png","75","img/black_2bandit_a2.png","","prac","","","3","","","","","","","","","","","","","","","","",""
"null","232157","SARL_v6","SARL_v6b2swm0k6","629513753a4424c933282660","feedback","","","<div class=""verylowPoints""> -2 </div>","null","","na","prac","","","4","-2","20","-2","","","","","","","","","","","","","",""
"null","232312","SARL_v6","SARL_v6b2swm0k6","629513753a4424c933282660","fixation","","","img/fixation.png","null","","","prac","","","","","","","","","","","","","","","","","","","",""
"21122.89999961853","253437","SARL_v6","SARL_v6b2swm0k6","629513753a4424c933282660","","","","","","","","prac","","","","","","","","","","","","","","","","","","","",""
"null","254248","SARL_v6","SARL_v6b2swm0k6","629513753a4424c933282660","mixAttFreqPrac","","","img/orange_2bandit_a2.png","null","img/orange_2bandit_a2.png","70","prac","","","1","","","","","","","","","","","","","","","","",""
"null","254404","SARL_v6","SARL_v6b2swm0k6","629513753a4424c933282660","fixation","","","img/fixation.png","null","","","prac","","","","","","","","","","","","","","","","","","","",""
"659.1999998092651","255065","SARL_v6","SARL_v6b2swm0k6","629513753a4424c933282660","mixAttInfreqPrac","","","img/blue_2bandit_a2.png","68","img/blue_2bandit_a2.png","68","prac","","","2","","","","","","","","","","","","","","","","",""
"659.1999998092651","255216","SARL_v6","SARL_v6b2swm0k6","629513753a4424c933282660","infreqPrac_resp","","","img/blue_2bandit_a.png","68","img/orange_2bandit_a.png","68","prac","","","2","","","","","","","","","","","","","","","","",""
"null","255369","SARL_v6","SARL_v6b2swm0k6","629513753a4424c933282660","fixation","","","img/fixation.png","null","","","prac","","","","","","","","","","","","","","","","","","","",""
"440.20000076293945","255811","SARL_v6","SARL_v6b2swm0k6","629513753a4424c933282660","mixAttInfreqPrac","","","img/blue_2bandit_a2.png","68","img/blue_2bandit_a2.png","68","prac","","","3","","","","","","","","","","","","","","","","",""
"440.20000076293945","256178","SARL_v6","SARL_v6b2swm0k6","629513753a4424c933282660","infreqPrac_resp","","","img/blue_2bandit_a.png","68","img/orange_2bandit_a.png","68","prac","","","3","","","","","","","","","","","","","","","","",""
"null","256334","SARL_v6","SARL_v6b2swm0k6","629513753a4424c933282660","fixation","","","img/fixation.png","null","","","prac","","","","","","","","","","","","","","","","","","","",""
"353.9000005722046","256689","SARL_v6","SARL_v6b2swm0k6","629513753a4424c933282660","mixAttInfreqPrac","","","img/blue_2bandit_a2.png","68","img/blue_2bandit_a2.png","68","prac","","","4","","","","","","","","","","","","","","","","",""
"353.9000005722046","257141","SARL_v6","SARL_v6b2swm0k6","629513753a4424c933282660","infreqPrac_resp","","","img/blue_2bandit_a.png","68","img/orange_2bandit_a.png","68","prac","","","4","","","","","","","","","","","","","","","","",""
"null","257297","SARL_v6","SARL_v6b2swm0k6","629513753a4424c933282660","fixation","","","img/fixation.png","null","","","prac","","","","","","","","","","","","","","","","","","","",""
"297.19999980926514","257595","SARL_v6","SARL_v6b2swm0k6","629513753a4424c933282660","mixAttFreqPrac","","","img/orange_2bandit_a2.png","70","img/orange_2bandit_a2.png","70","prac","","","5","","","","","","","","","","","","","","","","",""
"297.19999980926514","258102","SARL_v6","SARL_v6b2swm0k6","629513753a4424c933282660","freqPrac_resp","","","img/orange_2bandit_a.png","70","img/orange_2bandit_a.png","70","prac","","","5","","","","","","","","","","","","","","","","",""
"null","258254","SARL_v6","SARL_v6b2swm0k6","629513753a4424c933282660","fixation","","","img/fixation.png","null","","","prac","","","","","","","","","","","","","","","","","","","",""
"492.69999980926514","258748","SARL_v6","SARL_v6b2swm0k6","629513753a4424c933282660","mixRLPractice","","","img/black_2bandit_a2.png","74","img/black_2bandit_a2.png","","prac","","","5","","","","","","","","","","","","","","","","",""
"null","259505","SARL_v6","SARL_v6b2swm0k6","629513753a4424c933282660","feedback","","","<div class=""veryhighPoints_sq""> 10 </div>","null","","na","prac","","","6","-14","10","-14","","","","","","","","","","","","","",""
"null","259661","SARL_v6","SARL_v6b2swm0k6","629513753a4424c933282660","fixation","","","img/fixation.png","null","","","prac","","","","","","","","","","","","","","","","","","","",""
"724.8000001907349","260388","SARL_v6","SARL_v6b2swm0k6","629513753a4424c933282660","mixAttFreqPrac","","","img/orange_2bandit_a2.png","70","img/orange_2bandit_a2.png","70","prac","","","7","","","","","","","","","","","","","","","","",""
"724.8000001907349","260465","SARL_v6","SARL_v6b2swm0k6","629513753a4424c933282660","freqPrac_resp","","","img/orange_2bandit_a.png","70","img/orange_2bandit_a.png","70","prac","","","7","","","","","","","","","","","","","","","","",""
"null","260626","SARL_v6","SARL_v6b2swm0k6","629513753a4424c933282660","fixation","","","img/fixation.png","null","","","prac","","","","","","","","","","","","","","","","","","","",""
"491.69999980926514","261120","SARL_v6","SARL_v6b2swm0k6","629513753a4424c933282660","mixAttInfreqPrac","","","img/blue_2bandit_a2.png","68","img/blue_2bandit_a2.png","68","prac","","","8","","","","","","","","","","","","","","","","",""
"491.69999980926514","261435","SARL_v6","SARL_v6b2swm0k6","629513753a4424c933282660","infreqPrac_resp","","","img/blue_2bandit_a.png","68","img/orange_2bandit_a.png","68","prac","","","8","","","","","","","","","","","","","","","","",""
"null","261592","SARL_v6","SARL_v6b2swm0k6","629513753a4424c933282660","fixation","","","img/fixation.png","null","","","prac","","","","","","","","","","","","","","","","","","","",""
"676.6000003814697","262271","SARL_v6","SARL_v6b2swm0k6","629513753a4424c933282660","mixAttFreqPrac","","","img/orange_2bandit_a2.png","70","img/orange_2bandit_a2.png","70","prac","","","9","","","","","","","","","","","","","","","","",""
"676.6000003814697","262404","SARL_v6","SARL_v6b2swm0k6","629513753a4424c933282660","freqPrac_resp","","","img/orange_2bandit_a.png","70","img/orange_2bandit_a.png","70","prac","","","9","","","","","","","","","","","","","","","","",""
"null","262560","SARL_v6","SARL_v6b2swm0k6","629513753a4424c933282660","fixation","","","img/fixation.png","null","","","prac","","","","","","","","","","","","","","","","","","","",""
"382.30000019073486","262944","SARL_v6","SARL_v6b2swm0k6","629513753a4424c933282660","mixAttFreqPrac","","","img/orange_2bandit_a2.png","70","img/orange_2bandit_a2.png","70","prac","","","10","","","","","","","","","","","","","","","","",""
"382.30000019073486","263366","SARL_v6","SARL_v6b2swm0k6","629513753a4424c933282660","freqPrac_resp","","","img/orange_2bandit_a.png","70","img/orange_2bandit_a.png","70","prac","","","10","","","","","","","","","","","","","","","","",""
"null","263521","SARL_v6","SARL_v6b2swm0k6","629513753a4424c933282660","fixation","","","img/fixation.png","null","","","prac","","","","","","","","","","","","","","","","","","","",""
"510.3999996185303","264033","SARL_v6","SARL_v6b2swm0k6","629513753a4424c933282660","mixAttInfreqPrac","","","img/blue_2bandit_a2.png","68","img/blue_2bandit_a2.png","68","prac","","","11","","","","","","","","","","","","","","","","",""
"510.3999996185303","264340","SARL_v6","SARL_v6b2swm0k6","629513753a4424c933282660","infreqPrac_resp","","","img/blue_2bandit_a.png","68","img/orange_2bandit_a.png","68","prac","","","11","","","","","","","","","","","","","","","","",""
"null","264497","SARL_v6","SARL_v6b2swm0k6","629513753a4424c933282660","fixation","","","img/fixation.png","null","","","prac","","","","","","","","","","","","","","","","","","","",""
"470.1000003814697","264969","SARL_v6","SARL_v6b2swm0k6","629513753a4424c933282660","mixRLPractice","","","img/black_2bandit_a2.png","75","img/black_2bandit_a2.png","","prac","","","11","","","","","","","","","","","","","","","","",""
"null","265728","SARL_v6","SARL_v6b2swm0k6","629513753a4424c933282660","feedback","","","<div class=""veryhighPoints""> 5 </div>","null","","na","prac","","","12","5","-5","5","","","","","","","","","","","","","",""
"null","265882","SARL_v6","SARL_v6b2swm0k6","629513753a4424c933282660","fixation","","","img/fixation.png","null","","","prac","","","","","","","","","","","","","","","","","","","",""
"12199","278082","SARL_v6","SARL_v6b2swm0k6","629513753a4424c933282660","","","","","","","","prac","","","","","","","","","","","","","","","","","","","",""
"628.6999998092651","278713","SARL_v6","SARL_v6b2swm0k6","629513753a4424c933282660","freq","","","img/orange_2bandit_a2.png","68","","70","test","0","","1","","","","square","circle","1","1","1","0","","","","","","","",""
"null","278896","SARL_v6","SARL_v6b2swm0k6","629513753a4424c933282660","freq_resp","","","img/orange_2bandit_a.png","68","img/orange_2bandit_a.png","70","test","","","","","","","","","","","1","","","","","","","","",""
"null","279050","SARL_v6","SARL_v6b2swm0k6","629513753a4424c933282660","fixation","","","img/fixation.png","null","","","test","","","","","","","","","","","","","","","","","","","",""
"null","279861","SARL_v6","SARL_v6b2swm0k6","629513753a4424c933282660","freq","","","img/orange_2bandit_a2.png","null","","70","test","0","","2","","","","square","circle","2","2","1","0","","","","","","","",""
"null","280017","SARL_v6","SARL_v6b2swm0k6","629513753a4424c933282660","fixation","","","img/fixation.png","null","","","test","","","","","","","","","","","","","","","","","","","",""
"434","280453","SARL_v6","SARL_v6b2swm0k6","629513753a4424c933282660","freq","","","img/orange_2bandit_a2.png","70","","70","test","1","","3","","","","square","circle","3","3","1","0.3333333333333333","","","","","","","",""
"null","280828","SARL_v6","SARL_v6b2swm0k6","629513753a4424c933282660","freq_resp","","","img/orange_2bandit_a.png","70","img/orange_2bandit_a.png","70","test","","","","","","","","","","","1","","","","","","","","",""
"null","280982","SARL_v6","SARL_v6b2swm0k6","629513753a4424c933282660","fixation","","","img/fixation.png","null","","","test","","","","","","","","","","","","","","","","","","","",""
"304.19999980926514","281288","SARL_v6","SARL_v6b2swm0k6","629513753a4424c933282660","freq","","","img/orange_2bandit_a2.png","70","","70","test","1","","4","","","","square","circle","4","4","1","0.5","","","","","","","",""
"null","281794","SARL_v6","SARL_v6b2swm0k6","629513753a4424c933282660","freq_resp","","","img/orange_2bandit_a.png","70","img/orange_2bandit_a.png","70","test","","","","","","","","","","","1","","","","","","","","",""
"null","281946","SARL_v6","SARL_v6b2swm0k6","629513753a4424c933282660","fixation","","","img/fixation.png","null","","","test","","","","","","","","","","","","","","","","","","","",""
"286.5999994277954","282234","SARL_v6","SARL_v6b2swm0k6","629513753a4424c933282660","freq","","","img/orange_2bandit_a2.png","70","","70","test","1","","5","","","","square","circle","5","5","1","0.6","","","","","","","",""
"null","282751","SARL_v6","SARL_v6b2swm0k6","629513753a4424c933282660","freq_resp","","","img/orange_2bandit_a.png","70","img/orange_2bandit_a.png","70","test","","","","","","","","","","","1","","","","","","","","",""
"null","282905","SARL_v6","SARL_v6b2swm0k6","629513753a4424c933282660","fixation","","","img/fixation.png","null","","","test","","","","","","","","","","","","","","","","","","","",""
"354.80000019073486","283261","SARL_v6","SARL_v6b2swm0k6","629513753a4424c933282660","infreq","","","img/blue_2bandit_a2.png","68","","68","test","1","","6","","","","square","circle","6","6","1","0.6666666666666666","","","","","","","",""
"null","283715","SARL_v6","SARL_v6b2swm0k6","629513753a4424c933282660","infreq_resp","","","img/blue_2bandit_a.png","68","img/blue_2bandit_a.png","68","test","","","","","","","","","","","1","","","","","","","","",""
"null","283870","SARL_v6","SARL_v6b2swm0k6","629513753a4424c933282660","fixation","","","img/fixation.png","null","","","test","","","","","","","","","","","","","","","","","","","",""
"395.69999980926514","284267","SARL_v6","SARL_v6b2swm0k6","629513753a4424c933282660","freq","","","img/orange_2bandit_a2.png","70","","70","test","1","","7","","","","square","circle","7","7","1","0.7142857142857143","","","","","","","",""
"null","284677","SARL_v6","SARL_v6b2swm0k6","629513753a4424c933282660","freq_resp","","","img/orange_2bandit_a.png","70","img/orange_2bandit_a.png","70","test","","","","","","","","","","","1","","","","","","","","",""
"null","284832","SARL_v6","SARL_v6b2swm0k6","629513753a4424c933282660","fixation","","","img/fixation.png","null","","","test","","","","","","","","","","","","","","","","","","","",""
"358.5","285192","SARL_v6","SARL_v6b2swm0k6","629513753a4424c933282660","freq","","","img/orange_2bandit_a2.png","70","","70","test","1","","8","","","","square","circle","8","8","1","0.75","","","","","","","",""
"null","285640","SARL_v6","SARL_v6b2swm0k6","629513753a4424c933282660","freq_resp","","","img/orange_2bandit_a.png","70","img/orange_2bandit_a.png","70","test","","","","","","","","","","","1","","","","","","","","",""
"null","285794","SARL_v6","SARL_v6b2swm0k6","629513753a4424c933282660","fixation","","","img/fixation.png","null","","","test","","","","","","","","","","","","","","","","","","","",""
"288","286084","SARL_v6","SARL_v6b2swm0k6","629513753a4424c933282660","freq","","","img/orange_2bandit_a2.png","70","","70","test","1","","9","","","","square","circle","9","9","1","0.7777777777777778","","","","","","","",""
"null","286607","SARL_v6","SARL_v6b2swm0k6","629513753a4424c933282660","freq_resp","","","img/orange_2bandit_a.png","70","img/orange_2bandit_a.png","70","test","","","","","","","","","","","1","","","","","","","","",""
"null","286759","SARL_v6","SARL_v6b2swm0k6","629513753a4424c933282660","fixation","","","img/fixation.png","null","","","test","","","","","","","","","","","","","","","","","","","",""
"289","287050","SARL_v6","SARL_v6b2swm0k6","629513753a4424c933282660","freq","","","img/orange_2bandit_a2.png","70","","70","test","1","","10","","","","square","circle","10","10","1","0.8","","","","","","","",""
"null","287571","SARL_v6","SARL_v6b2swm0k6","629513753a4424c933282660","freq_resp","","","img/orange_2bandit_a.png","70","img/orange_2bandit_a.png","70","test","","","","","","","","","","","1","","","","","","","","",""
"null","287726","SARL_v6","SARL_v6b2swm0k6","629513753a4424c933282660","fixation","","","img/fixation.png","null","","","test","","","","","","","","","","","","","","","","","","","",""
"328.1000003814697","288056","SARL_v6","SARL_v6b2swm0k6","629513753a4424c933282660","freq","","","img/orange_2bandit_a2.png","70","","70","test","1","","11","","","","square","circle","11","11","1","0.8181818181818182","","","","","","","",""
"null","288536","SARL_v6","SARL_v6b2swm0k6","629513753a4424c933282660","freq_resp","","","img/orange_2bandit_a.png","70","img/orange_2bandit_a.png","70","test","","","","","","","","","","","1","","","","","","","","",""
"null","288689","SARL_v6","SARL_v6b2swm0k6","629513753a4424c933282660","fixation","","","img/fixation.png","null","","","test","","","","","","","","","","","","","","","","","","","",""
"367.80000019073486","289059","SARL_v6","SARL_v6b2swm0k6","629513753a4424c933282660","freq","","","img/orange_2bandit_a2.png","70","","70","test","1","","12","","","","square","circle","12","12","1","0.8333333333333334","","","","","","","",""
"null","289499","SARL_v6","SARL_v6b2swm0k6","629513753a4424c933282660","freq_resp","","","img/orange_2bandit_a.png","70","img/orange_2bandit_a.png","70","test","","","","","","","","","","","1","","","","","","","","",""
"null","289657","SARL_v6","SARL_v6b2swm0k6","629513753a4424c933282660","fixation","","","img/fixation.png","null","","","test","","","","","","","","","","","","","","","","","","","",""
"292.19999980926514","289951","SARL_v6","SARL_v6b2swm0k6","629513753a4424c933282660","freq","","","img/orange_2bandit_a2.png","70","","70","test","1","","13","","","","square","circle","13","13","1","0.8461538461538461","","","","","","","",""
"null","290472","SARL_v6","SARL_v6b2swm0k6","629513753a4424c933282660","freq_resp","","","img/orange_2bandit_a.png","70","img/orange_2bandit_a.png","70","test","","","","","","","","","","","1","","","","","","","","",""
"null","290624","SARL_v6","SARL_v6b2swm0k6","629513753a4424c933282660","fixation","","","img/fixation.png","null","","","test","","","","","","","","","","","","","","","","","","","",""
"298.30000019073486","290924","SARL_v6","SARL_v6b2swm0k6","629513753a4424c933282660","freq","","","img/orange_2bandit_a2.png","70","","70","test","1","","14","","","","square","circle","14","14","1","0.8571428571428571","","","","","","","",""
"null","291433","SARL_v6","SARL_v6b2swm0k6","629513753a4424c933282660","freq_resp","","","img/orange_2bandit_a.png","70","img/orange_2bandit_a.png","70","test","","","","","","","","","","","1","","","","","","","","",""
"null","291589","SARL_v6","SARL_v6b2swm0k6","629513753a4424c933282660","fixation","","","img/fixation.png","null","","","test","","","","","","","","","","","","","","","","","","","",""
"288.8999996185303","291880","SARL_v6","SARL_v6b2swm0k6","629513753a4424c933282660","freq","","","img/orange_2bandit_a2.png","70","","70","test","1","","15","","","","square","circle","15","15","1","0.8666666666666667","","","","","","","",""
"null","292403","SARL_v6","SARL_v6b2swm0k6","629513753a4424c933282660","freq_resp","","","img/orange_2bandit_a.png","70","img/orange_2bandit_a.png","70","test","","","","","","","","","","","1","","","","","","","","",""
"null","292554","SARL_v6","SARL_v6b2swm0k6","629513753a4424c933282660","fixation","","","img/fixation.png","null","","","test","","","","","","","","","","","","","","","","","","","",""
"278.30000019073486","292834","SARL_v6","SARL_v6b2swm0k6","629513753a4424c933282660","freq","","","img/orange_2bandit_a2.png","70","","70","test","1","","16","","","","square","circle","16","16","1","0.875","","","","","","","",""
"null","293370","SARL_v6","SARL_v6b2swm0k6","629513753a4424c933282660","freq_resp","","","img/orange_2bandit_a.png","70","img/orange_2bandit_a.png","70","test","","","","","","","","","","","1","","","","","","","","",""
"null","293522","SARL_v6","SARL_v6b2swm0k6","629513753a4424c933282660","fixation","","","img/fixation.png","null","","","test","","","","","","","","","","","","","","","","","","","",""
"232.10000038146973","293756","SARL_v6","SARL_v6b2swm0k6","629513753a4424c933282660","freq","","","img/orange_2bandit_a2.png","70","","70","test","1","","17","","","","square","circle","17","17","1","0.8823529411764706","","","","","","","",""
"null","294333","SARL_v6","SARL_v6b2swm0k6","629513753a4424c933282660","freq_resp","","","img/orange_2bandit_a.png","70","img/orange_2bandit_a.png","70","test","","","","","","","","","","","1","","","","","","","","",""
"null","294490","SARL_v6","SARL_v6b2swm0k6","629513753a4424c933282660","fixation","","","img/fixation.png","null","","","test","","","","","","","","","","","","","","","","","","","",""
"266.80000019073486","294758","SARL_v6","SARL_v6b2swm0k6","629513753a4424c933282660","freq","","","img/orange_2bandit_a2.png","70","","70","test","1","","18","","","","square","circle","18","18","1","0.8888888888888888","","","","","","","",""
"null","295301","SARL_v6","SARL_v6b2swm0k6","629513753a4424c933282660","freq_resp","","","img/orange_2bandit_a.png","70","img/orange_2bandit_a.png","70","test","","","","","","","","","","","1","","","","","","","","",""
"null","295462","SARL_v6","SARL_v6b2swm0k6","629513753a4424c933282660","fixation","","","img/fixation.png","null","","","test","","","","","","","","","","","","","","","","","","","",""
"223.9000005722046","295687","SARL_v6","SARL_v6b2swm0k6","629513753a4424c933282660","infreq","","","img/blue_2bandit_a2.png","70","","68","test","0","","19","","","","square","circle","19","19","1","0.8421052631578947","","","","","","","",""
"null","296267","SARL_v6","SARL_v6b2swm0k6","629513753a4424c933282660","infreq_resp","","","img/blue_2bandit_a.png","70","img/blue_2bandit_a.png","68","test","","","","","","","","","","","1","","","","","","","","",""
"null","296425","SARL_v6","SARL_v6b2swm0k6","629513753a4424c933282660","fixation","","","img/fixation.png","null","","","test","","","","","","","","","","","","","","","","","","","",""
"396.19999980926514","296823","SARL_v6","SARL_v6b2swm0k6","629513753a4424c933282660","freq","","","img/orange_2bandit_a2.png","70","","70","test","1","","20","","","","square","circle","20","20","1","0.85","","","","","","","",""
"null","297235","SARL_v6","SARL_v6b2swm0k6","629513753a4424c933282660","freq_resp","","","img/orange_2bandit_a.png","70","img/orange_2bandit_a.png","70","test","","","","","","","","","","","1","","","","","","","","",""
"null","297388","SARL_v6","SARL_v6b2swm0k6","629513753a4424c933282660","fixation","","","img/fixation.png","null","","","test","","","","","","","","","","","","","","","","","","","",""
"306.30000019073486","297696","SARL_v6","SARL_v6b2swm0k6","629513753a4424c933282660","freq","","","img/orange_2bandit_a2.png","70","","70","test","1","","21","","","","square","circle","21","21","1","0.8571428571428571","","","","","","","",""
"null","298199","SARL_v6","SARL_v6b2swm0k6","629513753a4424c933282660","freq_resp","","","img/orange_2bandit_a.png","70","img/orange_2bandit_a.png","70","test","","","","","","","","","","","1","","","","","","","","",""
"null","298356","SARL_v6","SARL_v6b2swm0k6","629513753a4424c933282660","fixation","","","img/fixation.png","null","","","test","","","","","","","","","","","","","","","","","","","",""
"286.19999980926514","298644","SARL_v6","SARL_v6b2swm0k6","629513753a4424c933282660","freq","","","img/orange_2bandit_a2.png","70","","70","test","1","","22","","","","square","circle","22","22","1","0.8636363636363636","","","","","","","",""
"null","299165","SARL_v6","SARL_v6b2swm0k6","629513753a4424c933282660","freq_resp","","","img/orange_2bandit_a.png","70","img/orange_2bandit_a.png","70","test","","","","","","","","","","","1","","","","","","","","",""
"null","299322","SARL_v6","SARL_v6b2swm0k6","629513753a4424c933282660","fixation","","","img/fixation.png","null","","","test","","","","","","","","","","","","","","","","","","","",""
"270.8999996185303","299595","SARL_v6","SARL_v6b2swm0k6","629513753a4424c933282660","freq","","","img/orange_2bandit_a2.png","70","","70","test","1","","23","","","","square","circle","23","23","1","0.8695652173913043","","","","","","","",""
"null","300133","SARL_v6","SARL_v6b2swm0k6","629513753a4424c933282660","freq_resp","","","img/orange_2bandit_a.png","70","img/orange_2bandit_a.png","70","test","","","","","","","","","","","1","","","","","","","","",""
"null","300288","SARL_v6","SARL_v6b2swm0k6","629513753a4424c933282660","fixation","","","img/fixation.png","null","","","test","","","","","","","","","","","","","","","","","","","",""
"257.5","300548","SARL_v6","SARL_v6b2swm0k6","629513753a4424c933282660","freq","","","img/orange_2bandit_a2.png","70","","70","test","1","","24","","","","square","circle","24","24","1","0.875","","","","","","","",""
"null","301098","SARL_v6","SARL_v6b2swm0k6","629513753a4424c933282660","freq_resp","","","img/orange_2bandit_a.png","70","img/orange_2bandit_a.png","70","test","","","","","","","","","","","1","","","","","","","","",""
"null","301256","SARL_v6","SARL_v6b2swm0k6","629513753a4424c933282660","fixation","","","img/fixation.png","null","","","test","","","","","","","","","","","","","","","","","","","",""
"261.30000019073486","301519","SARL_v6","SARL_v6b2swm0k6","629513753a4424c933282660","freq","","","img/orange_2bandit_a2.png","70","","70","test","1","","25","","","","square","circle","25","25","1","0.88","","","","","","","",""
"null","302067","SARL_v6","SARL_v6b2swm0k6","629513753a4424c933282660","freq_resp","","","img/orange_2bandit_a.png","70","img/orange_2bandit_a.png","70","test","","","","","","","","","","","1","","","","","","","","",""
"null","302220","SARL_v6","SARL_v6b2swm0k6","629513753a4424c933282660","fixation","","","img/fixation.png","null","","","test","","","","","","","","","","","","","","","","","","","",""
"249.5999994277954","302471","SARL_v6","SARL_v6b2swm0k6","629513753a4424c933282660","freq","","","img/orange_2bandit_a2.png","70","","70","test","1","","26","","","","square","circle","26","26","1","0.8846153846153846","","","","","","","",""
"null","303025","SARL_v6","SARL_v6b2swm0k6","629513753a4424c933282660","freq_resp","","","img/orange_2bandit_a.png","70","img/orange_2bandit_a.png","70","test","","","","","","","","","","","1","","","","","","","","",""
"null","303181","SARL_v6","SARL_v6b2swm0k6","629513753a4424c933282660","fixation","","","img/fixation.png","null","","","test","","","","","","","","","","","","","","","","","","","",""
"500.80000019073486","303684","SARL_v6","SARL_v6b2swm0k6","629513753a4424c933282660","rl","","","img/black_2bandit_a2.png","75","","0","test","","","27","","","-3","square","circle","","0","1","","75","-3","-3","-3","-3","circle","1","0"
"null","304450","SARL_v6","SARL_v6b2swm0k6","629513753a4424c933282660","feedback","","","<div class=""verylowPoints""> -3 </div>","null","","na","test","","","NaN","","","","","","","","1","","75","","","","","","1",""
"546.0999994277954","304998","SARL_v6","SARL_v6b2swm0k6","629513753a4424c933282660","freq","","","img/orange_2bandit_a2.png","70","","70","test","1","","28","","","","square","circle","27","1","2","0.8888888888888888","","","","","","","",""
"null","305257","SARL_v6","SARL_v6b2swm0k6","629513753a4424c933282660","freq_resp","","","img/orange_2bandit_a.png","70","img/orange_2bandit_a.png","70","test","","","","","","","","","","","2","","","","","","","","",""
"null","305411","SARL_v6","SARL_v6b2swm0k6","629513753a4424c933282660","fixation","","","img/fixation.png","null","","","test","","","","","","","","","","","","","","","","","","","",""
"396.1000003814697","305809","SARL_v6","SARL_v6b2swm0k6","629513753a4424c933282660","freq","","","img/orange_2bandit_a2.png","70","","70","test","1","","29","","","","square","circle","28","2","2","0.8928571428571429","","","","","","","",""
"null","306219","SARL_v6","SARL_v6b2swm0k6","629513753a4424c933282660","freq_resp","","","img/orange_2bandit_a.png","70","img/orange_2bandit_a.png","70","test","","","","","","","","","","","2","","","","","","","","",""
"null","306374","SARL_v6","SARL_v6b2swm0k6","629513753a4424c933282660","fixation","","","img/fixation.png","null","","","test","","","","","","","","","","","","","","","","","","","",""
"288.30000019073486","306664","SARL_v6","SARL_v6b2swm0k6","629513753a4424c933282660","freq","","","img/orange_2bandit_a2.png","70","","70","test","1","","30","","","","square","circle","29","3","2","0.896551724137931","","","","","","","",""
"null","307187","SARL_v6","SARL_v6b2swm0k6","629513753a4424c933282660","freq_resp","","","img/orange_2bandit_a.png","70","img/orange_2bandit_a.png","70","test","","","","","","","","","","","2","","","","","","","","",""
"null","307341","SARL_v6","SARL_v6b2swm0k6","629513753a4424c933282660","fixation","","","img/fixation.png","null","","","test","","","","","","","","","","","","","","","","","","","",""
"245.39999961853027","307588","SARL_v6","SARL_v6b2swm0k6","629513753a4424c933282660","freq","","","img/orange_2bandit_a2.png","70","","70","test","1","","31","","","","square","circle","30","4","2","0.9","","","","","","","",""
"null","308151","SARL_v6","SARL_v6b2swm0k6","629513753a4424c933282660","freq_resp","","","img/orange_2bandit_a.png","70","img/orange_2bandit_a.png","70","test","","","","","","","","","","","2","","","","","","","","",""
"null","308306","SARL_v6","SARL_v6b2swm0k6","629513753a4424c933282660","fixation","","","img/fixation.png","null","","","test","","","","","","","","","","","","","","","","","","","",""
"244.39999961853027","308553","SARL_v6","SARL_v6b2swm0k6","629513753a4424c933282660","freq","","","img/orange_2bandit_a2.png","70","","70","test","1","","32","","","","square","circle","31","5","2","0.9032258064516129","","","","","","","",""
"null","309119","SARL_v6","SARL_v6b2swm0k6","629513753a4424c933282660","freq_resp","","","img/orange_2bandit_a.png","70","img/orange_2bandit_a.png","70","test","","","","","","","","","","","2","","","","","","","","",""
"null","309276","SARL_v6","SARL_v6b2swm0k6","629513753a4424c933282660","fixation","","","img/fixation.png","null","","","test","","","","","","","","","","","","","","","","","","","",""
"268.30000019073486","309547","SARL_v6","SARL_v6b2swm0k6","629513753a4424c933282660","freq","","","img/orange_2bandit_a2.png","70","","70","test","1","","33","","","","square","circle","32","6","2","0.90625","","","","","","","",""
"null","310088","SARL_v6","SARL_v6b2swm0k6","629513753a4424c933282660","freq_resp","","","img/orange_2bandit_a.png","70","img/orange_2bandit_a.png","70","test","","","","","","","","","","","2","","","","","","","","",""
"null","310243","SARL_v6","SARL_v6b2swm0k6","629513753a4424c933282660","fixation","","","img/fixation.png","null","","","test","","","","","","","","","","","","","","","","","","","",""
"272.9000005722046","310518","SARL_v6","SARL_v6b2swm0k6","629513753a4424c933282660","freq","","","img/orange_2bandit_a2.png","70","","70","test","1","","34","","","","square","circle","33","7","2","0.9090909090909091","","","","","","","",""
"null","311057","SARL_v6","SARL_v6b2swm0k6","629513753a4424c933282660","freq_resp","","","img/orange_2bandit_a.png","70","img/orange_2bandit_a.png","70","test","","","","","","","","","","","2","","","","","","","","",""
"null","311209","SARL_v6","SARL_v6b2swm0k6","629513753a4424c933282660","fixation","","","img/fixation.png","null","","","test","","","","","","","","","","","","","","","","","","","",""
"283","311494","SARL_v6","SARL_v6b2swm0k6","629513753a4424c933282660","freq","","","img/orange_2bandit_a2.png","70","","70","test","1","","35","","","","square","circle","34","8","2","0.9117647058823529","","","","","","","",""
"null","312028","SARL_v6","SARL_v6b2swm0k6","629513753a4424c933282660","freq_resp","","","img/orange_2bandit_a.png","70","img/orange_2bandit_a.png","70","test","","","","","","","","","","","2","","","","","","","","",""
"null","312180","SARL_v6","SARL_v6b2swm0k6","629513753a4424c933282660","fixation","","","img/fixation.png","null","","","test","","","","","","","","","","","","","","","","","","","",""
"682.5","312864","SARL_v6","SARL_v6b2swm0k6","629513753a4424c933282660","infreq","","","img/blue_2bandit_a2.png","70","","68","test","0","","36","","","","square","circle","35","9","2","0.8857142857142857","","","","","","","",""
"null","312983","SARL_v6","SARL_v6b2swm0k6","629513753a4424c933282660","infreq_resp","","","img/blue_2bandit_a.png","70","img/blue_2bandit_a.png","68","test","","","","","","","","","","","2","","","","","","","","",""
"null","313148","SARL_v6","SARL_v6b2swm0k6","629513753a4424c933282660","fixation","","","img/fixation.png","null","","","test","","","","","","","","","","","","","","","","","","","",""
"391.69999980926514","313541","SARL_v6","SARL_v6b2swm0k6","629513753a4424c933282660","freq","","","img/orange_2bandit_a2.png","70","","70","test","1","","37","","","","square","circle","36","10","2","0.8888888888888888","","","","","","","",""
"null","313958","SARL_v6","SARL_v6b2swm0k6","629513753a4424c933282660","freq_resp","","","img/orange_2bandit_a.png","70","img/orange_2bandit_a.png","70","test","","","","","","","","","","","2","","","","","","","","",""
"null","314114","SARL_v6","SARL_v6b2swm0k6","629513753a4424c933282660","fixation","","","img/fixation.png","null","","","test","","","","","","","","","","","","","","","","","","","",""
"250","314366","SARL_v6","SARL_v6b2swm0k6","629513753a4424c933282660","freq","","","img/orange_2bandit_a2.png","70","","70","test","1","","38","","","","square","circle","37","11","2","0.8918918918918919","","","","","","","",""
"null","314924","SARL_v6","SARL_v6b2swm0k6","629513753a4424c933282660","freq_resp","","","img/orange_2bandit_a.png","70","img/orange_2bandit_a.png","70","test","","","","","","","","","","","2","","","","","","","","",""
"null","315076","SARL_v6","SARL_v6b2swm0k6","629513753a4424c933282660","fixation","","","img/fixation.png","null","","","test","","","","","","","","","","","","","","","","","","","",""
"221.29999923706055","315299","SARL_v6","SARL_v6b2swm0k6","629513753a4424c933282660","freq","","","img/orange_2bandit_a2.png","70","","70","test","1","","39","","","","square","circle","38","12","2","0.8947368421052632","","","","","","","",""
"null","315886","SARL_v6","SARL_v6b2swm0k6","629513753a4424c933282660","freq_resp","","","img/orange_2bandit_a.png","70","img/orange_2bandit_a.png","70","test","","","","","","","","","","","2","","","","","","","","",""
"null","316039","SARL_v6","SARL_v6b2swm0k6","629513753a4424c933282660","fixation","","","img/fixation.png","null","","","test","","","","","","","","","","","","","","","","","","","",""
"257.69999980926514","316299","SARL_v6","SARL_v6b2swm0k6","629513753a4424c933282660","freq","","","img/orange_2bandit_a2.png","70","","70","test","1","","40","","","","square","circle","39","13","2","0.8974358974358975","","","","","","","",""
"null","316850","SARL_v6","SARL_v6b2swm0k6","629513753a4424c933282660","freq_resp","","","img/orange_2bandit_a.png","70","img/orange_2bandit_a.png","70","test","","","","","","","","","","","2","","","","","","","","",""
"null","317003","SARL_v6","SARL_v6b2swm0k6","629513753a4424c933282660","fixation","","","img/fixation.png","null","","","test","","","","","","","","","","","","","","","","","","","",""
"244.19999980926514","317249","SARL_v6","SARL_v6b2swm0k6","629513753a4424c933282660","freq","","","img/orange_2bandit_a2.png","70","","70","test","1","","41","","","","square","circle","40","14","2","0.9","","","","","","","",""
"null","317815","SARL_v6","SARL_v6b2swm0k6","629513753a4424c933282660","freq_resp","","","img/orange_2bandit_a.png","70","img/orange_2bandit_a.png","70","test","","","","","","","","","","","2","","","","","","","","",""
"null","317971","SARL_v6","SARL_v6b2swm0k6","629513753a4424c933282660","fixation","","","img/fixation.png","null","","","test","","","","","","","","","","","","","","","","","","","",""
"275.80000019073486","318248","SARL_v6","SARL_v6b2swm0k6","629513753a4424c933282660","freq","","","img/orange_2bandit_a2.png","70","","70","test","1","","42","","","","square","circle","41","15","2","0.9024390243902439","","","","","","","",""
"null","318777","SARL_v6","SARL_v6b2swm0k6","629513753a4424c933282660","freq_resp","","","img/orange_2bandit_a.png","70","img/orange_2bandit_a.png","70","test","","","","","","","","","","","2","","","","","","","","",""
"null","318932","SARL_v6","SARL_v6b2swm0k6","629513753a4424c933282660","fixation","","","img/fixation.png","null","","","test","","","","","","","","","","","","","","","","","","","",""
"257.80000019073486","319192","SARL_v6","SARL_v6b2swm0k6","629513753a4424c933282660","freq","","","img/orange_2bandit_a2.png","70","","70","test","1","","43","","","","square","circle","42","16","2","0.9047619047619048","","","","","","","",""
"null","319739","SARL_v6","SARL_v6b2swm0k6","629513753a4424c933282660","freq_resp","","","img/orange_2bandit_a.png","70","img/orange_2bandit_a.png","70","test","","","","","","","","","","","2","","","","","","","","",""
"null","319894","SARL_v6","SARL_v6b2swm0k6","629513753a4424c933282660","fixation","","","img/fixation.png","null","","","test","","","","","","","","","","","","","","","","","","","",""
"262.19999980926514","320159","SARL_v6","SARL_v6b2swm0k6","629513753a4424c933282660","infreq","","","img/blue_2bandit_a2.png","70","","68","test","0","","44","","","","square","circle","43","17","2","0.8837209302325582","","","","","","","",""
"null","320702","SARL_v6","SARL_v6b2swm0k6","629513753a4424c933282660","infreq_resp","","","img/blue_2bandit_a.png","70","img/blue_2bandit_a.png","68","test","","","","","","","","","","","2","","","","","","","","",""
"null","320854","SARL_v6","SARL_v6b2swm0k6","629513753a4424c933282660","fixation","","","img/fixation.png","null","","","test","","","","","","","","","","","","","","","","","","","",""
"323.3999996185303","321180","SARL_v6","SARL_v6b2swm0k6","629513753a4424c933282660","infreq","","","img/blue_2bandit_a2.png","70","","68","test","0","","45","","","","square","circle","44","18","2","0.8636363636363636","","","","","","","",""
"null","321665","SARL_v6","SARL_v6b2swm0k6","629513753a4424c933282660","infreq_resp","","","img/blue_2bandit_a.png","70","img/blue_2bandit_a.png","68","test","","","","","","","","","","","2","","","","","","","","",""
"null","321819","SARL_v6","SARL_v6b2swm0k6","629513753a4424c933282660","fixation","","","img/fixation.png","null","","","test","","","","","","","","","","","","","","","","","","","",""
"492.6000003814697","322313","SARL_v6","SARL_v6b2swm0k6","629513753a4424c933282660","freq","","","img/orange_2bandit_a2.png","70","","70","test","1","","46","","","","square","circle","45","19","2","0.8666666666666667","","","","","","","",""
"null","322628","SARL_v6","SARL_v6b2swm0k6","629513753a4424c933282660","freq_resp","","","img/orange_2bandit_a.png","70","img/orange_2bandit_a.png","70","test","","","","","","","","","","","2","","","","","","","","",""
"null","322780","SARL_v6","SARL_v6b2swm0k6","629513753a4424c933282660","fixation","","","img/fixation.png","null","","","test","","","","","","","","","","","","","","","","","","","",""
"319.80000019073486","323102","SARL_v6","SARL_v6b2swm0k6","629513753a4424c933282660","freq","","","img/orange_2bandit_a2.png","70","","70","test","1","","47","","","","square","circle","46","20","2","0.8695652173913043","","","","","","","",""
"null","323592","SARL_v6","SARL_v6b2swm0k6","629513753a4424c933282660","freq_resp","","","img/orange_2bandit_a.png","70","img/orange_2bandit_a.png","70","test","","","","","","","","","","","2","","","","","","","","",""
"null","323747","SARL_v6","SARL_v6b2swm0k6","629513753a4424c933282660","fixation","","","img/fixation.png","null","","","test","","","","","","","","","","","","","","","","","","","",""
"282","324030","SARL_v6","SARL_v6b2swm0k6","629513753a4424c933282660","freq","","","img/orange_2bandit_a2.png","70","","70","test","1","","48","","","","square","circle","47","21","2","0.8723404255319149","","","","","","","",""
"null","324565","SARL_v6","SARL_v6b2swm0k6","629513753a4424c933282660","freq_resp","","","img/orange_2bandit_a.png","70","img/orange_2bandit_a.png","70","test","","","","","","","","","","","2","","","","","","","","",""
"null","324720","SARL_v6","SARL_v6b2swm0k6","629513753a4424c933282660","fixation","","","img/fixation.png","null","","","test","","","","","","","","","","","","","","","","","","","",""
"549.3000001907349","325272","SARL_v6","SARL_v6b2swm0k6","629513753a4424c933282660","rl","","","img/black_2bandit_a2.png","75","","0","test","","","49","","","-8","square","circle","","0","2","","75","-8","-5","-5","-8","circle","2","0"
"null","326027","SARL_v6","SARL_v6b2swm0k6","629513753a4424c933282660","feedback","","","<div class=""verylowPoints""> -8 </div>","null","","na","test","","","NaN","","","","","","","","2","","75","","","","","","2",""
"453.9000005722046","326483","SARL_v6","SARL_v6b2swm0k6","629513753a4424c933282660","freq","","","img/orange_2bandit_a2.png","70","","70","test","1","","50","","","","square","circle","48","1","3","0.875","","","","","","","",""
"null","326839","SARL_v6","SARL_v6b2swm0k6","629513753a4424c933282660","freq_resp","","","img/orange_2bandit_a.png","70","img/orange_2bandit_a.png","70","test","","","","","","","","","","","3","","","","","","","","",""
"null","326995","SARL_v6","SARL_v6b2swm0k6","629513753a4424c933282660","fixation","","","img/fixation.png","null","","","test","","","","","","","","","","","","","","","","","","","",""
"341.19999980926514","327338","SARL_v6","SARL_v6b2swm0k6","629513753a4424c933282660","freq","","","img/orange_2bandit_a2.png","70","","70","test","1","","51","","","","square","circle","49","2","3","0.8775510204081632","","","","","","","",""
"null","327806","SARL_v6","SARL_v6b2swm0k6","629513753a4424c933282660","freq_resp","","","img/orange_2bandit_a.png","70","img/orange_2bandit_a.png","70","test","","","","","","","","","","","3","","","","","","","","",""
"null","327960","SARL_v6","SARL_v6b2swm0k6","629513753a4424c933282660","fixation","","","img/fixation.png","null","","","test","","","","","","","","","","","","","","","","","","","",""
"324.20000076293945","328286","SARL_v6","SARL_v6b2swm0k6","629513753a4424c933282660","freq","","","img/orange_2bandit_a2.png","70","","70","test","1","","52","","","","square","circle","50","3","3","0.88","","","","","","","",""
"null","328769","SARL_v6","SARL_v6b2swm0k6","629513753a4424c933282660","freq_resp","","","img/orange_2bandit_a.png","70","img/orange_2bandit_a.png","70","test","","","","","","","","","","","3","","","","","","","","",""
"null","328921","SARL_v6","SARL_v6b2swm0k6","629513753a4424c933282660","fixation","","","img/fixation.png","null","","","test","","","","","","","","","","","","","","","","","","","",""
"319.69999980926514","329243","SARL_v6","SARL_v6b2swm0k6","629513753a4424c933282660","freq","","","img/orange_2bandit_a2.png","70","","70","test","1","","53","","","","square","circle","51","4","3","0.8823529411764706","","","","","","","",""
"null","329735","SARL_v6","SARL_v6b2swm0k6","629513753a4424c933282660","freq_resp","","","img/orange_2bandit_a.png","70","img/orange_2bandit_a.png","70","test","","","","","","","","","","","3","","","","","","","","",""
"null","329887","SARL_v6","SARL_v6b2swm0k6","629513753a4424c933282660","fixation","","","img/fixation.png","null","","","test","","","","","","","","","","","","","","","","","","","",""
"337.80000019073486","330226","SARL_v6","SARL_v6b2swm0k6","629513753a4424c933282660","freq","","","img/orange_2bandit_a2.png","70","","70","test","1","","54","","","","square","circle","52","5","3","0.8846153846153846","","","","","","","",""
"null","330697","SARL_v6","SARL_v6b2swm0k6","629513753a4424c933282660","freq_resp","","","img/orange_2bandit_a.png","70","img/orange_2bandit_a.png","70","test","","","","","","","","","","","3","","","","","","","","",""
"null","330852","SARL_v6","SARL_v6b2swm0k6","629513753a4424c933282660","fixation","","","img/fixation.png","null","","","test","","","","","","","","","","","","","","","","","","","",""
"313.19999980926514","331167","SARL_v6","SARL_v6b2swm0k6","629513753a4424c933282660","freq","","","img/orange_2bandit_a2.png","70","","70","test","1","","55","","","","square","circle","53","6","3","0.8867924528301887","","","","","","","",""
"null","331661","SARL_v6","SARL_v6b2swm0k6","629513753a4424c933282660","freq_resp","","","img/orange_2bandit_a.png","70","img/orange_2bandit_a.png","70","test","","","","","","","","","","","3","","","","","","","","",""
"null","331814","SARL_v6","SARL_v6b2swm0k6","629513753a4424c933282660","fixation","","","img/fixation.png","null","","","test","","","","","","","","","","","","","","","","","","","",""
"327.5","332143","SARL_v6","SARL_v6b2swm0k6","629513753a4424c933282660","freq","","","img/orange_2bandit_a2.png","70","","70","test","1","","56","","","","square","circle","54","7","3","0.8888888888888888","","","","","","","",""
"null","332626","SARL_v6","SARL_v6b2swm0k6","629513753a4424c933282660","freq_resp","","","img/orange_2bandit_a.png","70","img/orange_2bandit_a.png","70","test","","","","","","","","","","","3","","","","","","","","",""
"null","332779","SARL_v6","SARL_v6b2swm0k6","629513753a4424c933282660","fixation","","","img/fixation.png","null","","","test","","","","","","","","","","","","","","","","","","","",""
"286.0999994277954","333066","SARL_v6","SARL_v6b2swm0k6","629513753a4424c933282660","freq","","","img/orange_2bandit_a2.png","70","","70","test","1","","57","","","","square","circle","55","8","3","0.8909090909090909","","","","","","","",""
"null","333586","SARL_v6","SARL_v6b2swm0k6","629513753a4424c933282660","freq_resp","","","img/orange_2bandit_a.png","70","img/orange_2bandit_a.png","70","test","","","","","","","","","","","3","","","","","","","","",""
"null","333740","SARL_v6","SARL_v6b2swm0k6","629513753a4424c933282660","fixation","","","img/fixation.png","null","","","test","","","","","","","","","","","","","","","","","","","",""
"285.79999923706055","334028","SARL_v6","SARL_v6b2swm0k6","629513753a4424c933282660","freq","","","img/orange_2bandit_a2.png","70","","70","test","1","","58","","","","square","circle","56","9","3","0.8928571428571429","","","","","","","",""
"null","334546","SARL_v6","SARL_v6b2swm0k6","629513753a4424c933282660","freq_resp","","","img/orange_2bandit_a.png","70","img/orange_2bandit_a.png","70","test","","","","","","","","","","","3","","","","","","","","",""
"null","334700","SARL_v6","SARL_v6b2swm0k6","629513753a4424c933282660","fixation","","","img/fixation.png","null","","","test","","","","","","","","","","","","","","","","","","","",""
"319.9000005722046","335022","SARL_v6","SARL_v6b2swm0k6","629513753a4424c933282660","infreq","","","img/blue_2bandit_a2.png","68","","68","test","1","","59","","","","square","circle","57","10","3","0.8947368421052632","","","","","","","",""
"null","335508","SARL_v6","SARL_v6b2swm0k6","629513753a4424c933282660","infreq_resp","","","img/blue_2bandit_a.png","68","img/blue_2bandit_a.png","68","test","","","","","","","","","","","3","","","","","","","","",""
"null","335660","SARL_v6","SARL_v6b2swm0k6","629513753a4424c933282660","fixation","","","img/fixation.png","null","","","test","","","","","","","","","","","","","","","","","","","",""
"323.19999980926514","335985","SARL_v6","SARL_v6b2swm0k6","629513753a4424c933282660","infreq","","","img/blue_2bandit_a2.png","68","","68","test","1","","60","","","","square","circle","58","11","3","0.896551724137931","","","","","","","",""
"null","336475","SARL_v6","SARL_v6b2swm0k6","629513753a4424c933282660","infreq_resp","","","img/blue_2bandit_a.png","68","img/blue_2bandit_a.png","68","test","","","","","","","","","","","3","","","","","","","","",""
"null","336629","SARL_v6","SARL_v6b2swm0k6","629513753a4424c933282660","fixation","","","img/fixation.png","null","","","test","","","","","","","","","","","","","","","","","","","",""
"467.4000005722046","337098","SARL_v6","SARL_v6b2swm0k6","629513753a4424c933282660","freq","","","img/orange_2bandit_a2.png","70","","70","test","1","","61","","","","square","circle","59","12","3","0.8983050847457628","","","","","","","",""
"null","337439","SARL_v6","SARL_v6b2swm0k6","629513753a4424c933282660","freq_resp","","","img/orange_2bandit_a.png","70","img/orange_2bandit_a.png","70","test","","","","","","","","","","","3","","","","","","","","",""
"null","337594","SARL_v6","SARL_v6b2swm0k6","629513753a4424c933282660","fixation","","","img/fixation.png","null","","","test","","","","","","","","","","","","","","","","","","","",""
"475.3999996185303","338071","SARL_v6","SARL_v6b2swm0k6","629513753a4424c933282660","freq","","","img/orange_2bandit_a2.png","70","","70","test","1","","62","","","","square","circle","60","13","3","0.9","","","","","","","",""
"null","338402","SARL_v6","SARL_v6b2swm0k6","629513753a4424c933282660","freq_resp","","","img/orange_2bandit_a.png","70","img/orange_2bandit_a.png","70","test","","","","","","","","","","","3","","","","","","","","",""
"null","338558","SARL_v6","SARL_v6b2swm0k6","629513753a4424c933282660","fixation","","","img/fixation.png","null","","","test","","","","","","","","","","","","","","","","","","","",""
"395.80000019073486","338955","SARL_v6","SARL_v6b2swm0k6","629513753a4424c933282660","freq","","","img/orange_2bandit_a2.png","70","","70","test","1","","63","","","","square","circle","61","14","3","0.9016393442622951","","","","","","","",""
"null","339369","SARL_v6","SARL_v6b2swm0k6","629513753a4424c933282660","freq_resp","","","img/orange_2bandit_a.png","70","img/orange_2bandit_a.png","70","test","","","","","","","","","","","3","","","","","","","","",""
"null","339526","SARL_v6","SARL_v6b2swm0k6","629513753a4424c933282660","fixation","","","img/fixation.png","null","","","test","","","","","","","","","","","","","","","","","","","",""
"344.3999996185303","339871","SARL_v6","SARL_v6b2swm0k6","629513753a4424c933282660","freq","","","img/orange_2bandit_a2.png","70","","70","test","1","","64","","","","square","circle","62","15","3","0.9032258064516129","","","","","","","",""
"null","340335","SARL_v6","SARL_v6b2swm0k6","629513753a4424c933282660","freq_resp","","","img/orange_2bandit_a.png","70","img/orange_2bandit_a.png","70","test","","","","","","","","","","","3","","","","","","","","",""
"null","340491","SARL_v6","SARL_v6b2swm0k6","629513753a4424c933282660","fixation","","","img/fixation.png","null","","","test","","","","","","","","","","","","","","","","","","","",""
"324.5","340818","SARL_v6","SARL_v6b2swm0k6","629513753a4424c933282660","freq","","","img/orange_2bandit_a2.png","70","","70","test","1","","65","","","","square","circle","63","16","3","0.9047619047619048","","","","","","","",""
"null","341301","SARL_v6","SARL_v6b2swm0k6","629513753a4424c933282660","freq_resp","","","img/orange_2bandit_a.png","70","img/orange_2bandit_a.png","70","test","","","","","","","","","","","3","","","","","","","","",""
"null","341454","SARL_v6","SARL_v6b2swm0k6","629513753a4424c933282660","fixation","","","img/fixation.png","null","","","test","","","","","","","","","","","","","","","","","","","",""
"282.5999994277954","341738","SARL_v6","SARL_v6b2swm0k6","629513753a4424c933282660","freq","","","img/orange_2bandit_a2.png","70","","70","test","1","","66","","","","square","circle","64","17","3","0.90625","","","","","","","",""
"null","342267","SARL_v6","SARL_v6b2swm0k6","629513753a4424c933282660","freq_resp","","","img/orange_2bandit_a.png","70","img/orange_2bandit_a.png","70","test","","","","","","","","","","","3","","","","","","","","",""
"null","342422","SARL_v6","SARL_v6b2swm0k6","629513753a4424c933282660","fixation","","","img/fixation.png","null","","","test","","","","","","","","","","","","","","","","","","","",""
"328.9000005722046","342753","SARL_v6","SARL_v6b2swm0k6","629513753a4424c933282660","freq","","","img/orange_2bandit_a2.png","70","","70","test","1","","67","","","","square","circle","65","18","3","0.9076923076923077","","","","","","","",""
"null","343239","SARL_v6","SARL_v6b2swm0k6","629513753a4424c933282660","freq_resp","","","img/orange_2bandit_a.png","70","img/orange_2bandit_a.png","70","test","","","","","","","","","","","3","","","","","","","","",""
"null","343391","SARL_v6","SARL_v6b2swm0k6","629513753a4424c933282660","fixation","","","img/fixation.png","null","","","test","","","","","","","","","","","","","","","","","","","",""
"272.6000003814697","343666","SARL_v6","SARL_v6b2swm0k6","629513753a4424c933282660","freq","","","img/orange_2bandit_a2.png","70","","70","test","1","","68","","","","square","circle","66","19","3","0.9090909090909091","","","","","","","",""
"null","344208","SARL_v6","SARL_v6b2swm0k6","629513753a4424c933282660","freq_resp","","","img/orange_2bandit_a.png","70","img/orange_2bandit_a.png","70","test","","","","","","","","","","","3","","","","","","","","",""
"null","344364","SARL_v6","SARL_v6b2swm0k6","629513753a4424c933282660","fixation","","","img/fixation.png","null","","","test","","","","","","","","","","","","","","","","","","","",""
"253.69999980926514","344620","SARL_v6","SARL_v6b2swm0k6","629513753a4424c933282660","freq","","","img/orange_2bandit_a2.png","70","","70","test","1","","69","","","","square","circle","67","20","3","0.9104477611940298","","","","","","","",""
"null","345174","SARL_v6","SARL_v6b2swm0k6","629513753a4424c933282660","freq_resp","","","img/orange_2bandit_a.png","70","img/orange_2bandit_a.png","70","test","","","","","","","","","","","3","","","","","","","","",""
"null","345341","SARL_v6","SARL_v6b2swm0k6","629513753a4424c933282660","fixation","","","img/fixation.png","null","","","test","","","","","","","","","","","","","","","","","","","",""
"276.5","345619","SARL_v6","SARL_v6b2swm0k6","629513753a4424c933282660","freq","","","img/orange_2bandit_a2.png","70","","70","test","1","","70","","","","square","circle","68","21","3","0.9117647058823529","","","","","","","",""
"null","346151","SARL_v6","SARL_v6b2swm0k6","629513753a4424c933282660","freq_resp","","","img/orange_2bandit_a.png","70","img/orange_2bandit_a.png","70","test","","","","","","","","","","","3","","","","","","","","",""
"null","346308","SARL_v6","SARL_v6b2swm0k6","629513753a4424c933282660","fixation","","","img/fixation.png","null","","","test","","","","","","","","","","","","","","","","","","","",""
"553.8000001907349","346864","SARL_v6","SARL_v6b2swm0k6","629513753a4424c933282660","rl","","","img/black_2bandit_a2.png","74","","0","test","","","71","","","-4","square","circle","","0","3","","74","-8","-4","-4","-8","square","3","0"
"null","347625","SARL_v6","SARL_v6b2swm0k6","629513753a4424c933282660","feedback","","","<div class=""verylowPoints_sq""> -4 </div>","null","","na","test","","","NaN","","","","","","","","3","","74","","","","","","3",""
"359.3999996185303","347986","SARL_v6","SARL_v6b2swm0k6","629513753a4424c933282660","freq","","","img/orange_2bandit_a2.png","70","","70","test","1","","72","","","","square","circle","69","1","4","0.9130434782608695","","","","","","","",""
"null","348436","SARL_v6","SARL_v6b2swm0k6","629513753a4424c933282660","freq_resp","","","img/orange_2bandit_a.png","70","img/orange_2bandit_a.png","70","test","","","","","","","","","","","4","","","","","","","","",""
"null","348592","SARL_v6","SARL_v6b2swm0k6","629513753a4424c933282660","fixation","","","img/fixation.png","null","","","test","","","","","","","","","","","","","","","","","","","",""
"317.4000005722046","348911","SARL_v6","SARL_v6b2swm0k6","629513753a4424c933282660","freq","","","img/orange_2bandit_a2.png","70","","70","test","1","","73","","","","square","circle","70","2","4","0.9142857142857143","","","","","","","",""
"null","349402","SARL_v6","SARL_v6b2swm0k6","629513753a4424c933282660","freq_resp","","","img/orange_2bandit_a.png","70","img/orange_2bandit_a.png","70","test","","","","","","","","","","","4","","","","","","","","",""
"null","349558","SARL_v6","SARL_v6b2swm0k6","629513753a4424c933282660","fixation","","","img/fixation.png","null","","","test","","","","","","","","","","","","","","","","","","","",""
"266","349825","SARL_v6","SARL_v6b2swm0k6","629513753a4424c933282660","freq","","","img/orange_2bandit_a2.png","70","","70","test","1","","74","","","","square","circle","71","3","4","0.9154929577464789","","","","","","","",""
"null","350367","SARL_v6","SARL_v6b2swm0k6","629513753a4424c933282660","freq_resp","","","img/orange_2bandit_a.png","70","img/orange_2bandit_a.png","70","test","","","","","","","","","","","4","","","","","","","","",""
"null","350522","SARL_v6","SARL_v6b2swm0k6","629513753a4424c933282660","fixation","","","img/fixation.png","null","","","test","","","","","","","","","","","","","","","","","","","",""
"277.5","350802","SARL_v6","SARL_v6b2swm0k6","629513753a4424c933282660","freq","","","img/orange_2bandit_a2.png","70","","70","test","1","","75","","","","square","circle","72","4","4","0.9166666666666666","","","","","","","",""
"null","351328","SARL_v6","SARL_v6b2swm0k6","629513753a4424c933282660","freq_resp","","","img/orange_2bandit_a.png","70","img/orange_2bandit_a.png","70","test","","","","","","","","","","","4","","","","","","","","",""
"null","351481","SARL_v6","SARL_v6b2swm0k6","629513753a4424c933282660","fixation","","","img/fixation.png","null","","","test","","","","","","","","","","","","","","","","","","","",""
"308.3999996185303","351790","SARL_v6","SARL_v6b2swm0k6","629513753a4424c933282660","freq","","","img/orange_2bandit_a2.png","70","","70","test","1","","76","","","","square","circle","73","5","4","0.9178082191780822","","","","","","","",""
"null","352293","SARL_v6","SARL_v6b2swm0k6","629513753a4424c933282660","freq_resp","","","img/orange_2bandit_a.png","70","img/orange_2bandit_a.png","70","test","","","","","","","","","","","4","","","","","","","","",""
"null","352448","SARL_v6","SARL_v6b2swm0k6","629513753a4424c933282660","fixation","","","img/fixation.png","null","","","test","","","","","","","","","","","","","","","","","","","",""
"346.6000003814697","352796","SARL_v6","SARL_v6b2swm0k6","629513753a4424c933282660","freq","","","img/orange_2bandit_a2.png","70","","70","test","1","","77","","","","square","circle","74","6","4","0.918918918918919","","","","","","","",""
"null","353257","SARL_v6","SARL_v6b2swm0k6","629513753a4424c933282660","freq_resp","","","img/orange_2bandit_a.png","70","img/orange_2bandit_a.png","70","test","","","","","","","","","","","4","","","","","","","","",""
"null","353411","SARL_v6","SARL_v6b2swm0k6","629513753a4424c933282660","fixation","","","img/fixation.png","null","","","test","","","","","","","","","","","","","","","","","","","",""
"489.5","353902","SARL_v6","SARL_v6b2swm0k6","629513753a4424c933282660","infreq","","","img/blue_2bandit_a2.png","68","","68","test","1","","78","","","","square","circle","75","7","4","0.92","","","","","","","",""
"null","354218","SARL_v6","SARL_v6b2swm0k6","629513753a4424c933282660","infreq_resp","","","img/blue_2bandit_a.png","68","img/blue_2bandit_a.png","68","test","","","","","","","","","","","4","","","","","","","","",""
"null","354374","SARL_v6","SARL_v6b2swm0k6","629513753a4424c933282660","fixation","","","img/fixation.png","null","","","test","","","","","","","","","","","","","","","","","","","",""
"441.6000003814697","354817","SARL_v6","SARL_v6b2swm0k6","629513753a4424c933282660","freq","","","img/orange_2bandit_a2.png","70","","70","test","1","","79","","","","square","circle","76","8","4","0.9210526315789473","","","","","","","",""
"null","355185","SARL_v6","SARL_v6b2swm0k6","629513753a4424c933282660","freq_resp","","","img/orange_2bandit_a.png","70","img/orange_2bandit_a.png","70","test","","","","","","","","","","","4","","","","","","","","",""
"null","355342","SARL_v6","SARL_v6b2swm0k6","629513753a4424c933282660","fixation","","","img/fixation.png","null","","","test","","","","","","","","","","","","","","","","","","","",""
"327.80000019073486","355672","SARL_v6","SARL_v6b2swm0k6","629513753a4424c933282660","freq","","","img/orange_2bandit_a2.png","70","","70","test","1","","80","","","","square","circle","77","9","4","0.922077922077922","","","","","","","",""
"null","356154","SARL_v6","SARL_v6b2swm0k6","629513753a4424c933282660","freq_resp","","","img/orange_2bandit_a.png","70","img/orange_2bandit_a.png","70","test","","","","","","","","","","","4","","","","","","","","",""
"null","356311","SARL_v6","SARL_v6b2swm0k6","629513753a4424c933282660","fixation","","","img/fixation.png","null","","","test","","","","","","","","","","","","","","","","","","","",""
"288.6000003814697","356601","SARL_v6","SARL_v6b2swm0k6","629513753a4424c933282660","freq","","","img/orange_2bandit_a2.png","70","","70","test","1","","81","","","","square","circle","78","10","4","0.9230769230769231","","","","","","","",""
"null","357115","SARL_v6","SARL_v6b2swm0k6","629513753a4424c933282660","freq_resp","","","img/orange_2bandit_a.png","70","img/orange_2bandit_a.png","70","test","","","","","","","","","","","4","","","","","","","","",""
"null","357271","SARL_v6","SARL_v6b2swm0k6","629513753a4424c933282660","fixation","","","img/fixation.png","null","","","test","","","","","","","","","","","","","","","","","","","",""
"258.1000003814697","357531","SARL_v6","SARL_v6b2swm0k6","629513753a4424c933282660","freq","","","img/orange_2bandit_a2.png","70","","70","test","1","","82","","","","square","circle","79","11","4","0.9240506329113924","","","","","","","",""
"null","358083","SARL_v6","SARL_v6b2swm0k6","629513753a4424c933282660","freq_resp","","","img/orange_2bandit_a.png","70","img/orange_2bandit_a.png","70","test","","","","","","","","","","","4","","","","","","","","",""
"null","358239","SARL_v6","SARL_v6b2swm0k6","629513753a4424c933282660","fixation","","","img/fixation.png","null","","","test","","","","","","","","","","","","","","","","","","","",""
"287.0999994277954","358528","SARL_v6","SARL_v6b2swm0k6","629513753a4424c933282660","freq","","","img/orange_2bandit_a2.png","70","","70","test","1","","83","","","","square","circle","80","12","4","0.925","","","","","","","",""
"null","359043","SARL_v6","SARL_v6b2swm0k6","629513753a4424c933282660","freq_resp","","","img/orange_2bandit_a.png","70","img/orange_2bandit_a.png","70","test","","","","","","","","","","","4","","","","","","","","",""
"null","359194","SARL_v6","SARL_v6b2swm0k6","629513753a4424c933282660","fixation","","","img/fixation.png","null","","","test","","","","","","","","","","","","","","","","","","","",""
"264.69999980926514","359461","SARL_v6","SARL_v6b2swm0k6","629513753a4424c933282660","freq","","","img/orange_2bandit_a2.png","70","","70","test","1","","84","","","","square","circle","81","13","4","0.9259259259259259","","","","","","","",""
"null","360006","SARL_v6","SARL_v6b2swm0k6","629513753a4424c933282660","freq_resp","","","img/orange_2bandit_a.png","70","img/orange_2bandit_a.png","70","test","","","","","","","","","","","4","","","","","","","","",""
"null","360159","SARL_v6","SARL_v6b2swm0k6","629513753a4424c933282660","fixation","","","img/fixation.png","null","","","test","","","","","","","","","","","","","","","","","","","",""
"639.5","360800","SARL_v6","SARL_v6b2swm0k6","629513753a4424c933282660","infreq","","","img/blue_2bandit_a2.png","68","","68","test","1","","85","","","","square","circle","82","14","4","0.926829268292683","","","","","","","",""
"null","360970","SARL_v6","SARL_v6b2swm0k6","629513753a4424c933282660","infreq_resp","","","img/blue_2bandit_a.png","68","img/blue_2bandit_a.png","68","test","","","","","","","","","","","4","","","","","","","","",""
"null","361126","SARL_v6","SARL_v6b2swm0k6","629513753a4424c933282660","fixation","","","img/fixation.png","null","","","test","","","","","","","","","","","","","","","","","","","",""
"541.5999994277954","361670","SARL_v6","SARL_v6b2swm0k6","629513753a4424c933282660","freq","","","img/orange_2bandit_a2.png","70","","70","test","1","","86","","","","square","circle","83","15","4","0.927710843373494","","","","","","","",""
"null","361936","SARL_v6","SARL_v6b2swm0k6","629513753a4424c933282660","freq_resp","","","img/orange_2bandit_a.png","70","img/orange_2bandit_a.png","70","test","","","","","","","","","","","4","","","","","","","","",""
"null","362089","SARL_v6","SARL_v6b2swm0k6","629513753a4424c933282660","fixation","","","img/fixation.png","null","","","test","","","","","","","","","","","","","","","","","","","",""
"325.69999980926514","362417","SARL_v6","SARL_v6b2swm0k6","629513753a4424c933282660","freq","","","img/orange_2bandit_a2.png","70","","70","test","1","","87","","","","square","circle","84","16","4","0.9285714285714286","","","","","","","",""
"null","362902","SARL_v6","SARL_v6b2swm0k6","629513753a4424c933282660","freq_resp","","","img/orange_2bandit_a.png","70","img/orange_2bandit_a.png","70","test","","","","","","","","","","","4","","","","","","","","",""
"null","363055","SARL_v6","SARL_v6b2swm0k6","629513753a4424c933282660","fixation","","","img/fixation.png","null","","","test","","","","","","","","","","","","","","","","","","","",""
"236.30000019073486","363293","SARL_v6","SARL_v6b2swm0k6","629513753a4424c933282660","freq","","","img/orange_2bandit_a2.png","70","","70","test","1","","88","","","","square","circle","85","17","4","0.9294117647058824","","","","","","","",""
"null","363863","SARL_v6","SARL_v6b2swm0k6","629513753a4424c933282660","freq_resp","","","img/orange_2bandit_a.png","70","img/orange_2bandit_a.png","70","test","","","","","","","","","","","4","","","","","","","","",""
"null","364019","SARL_v6","SARL_v6b2swm0k6","629513753a4424c933282660","fixation","","","img/fixation.png","null","","","test","","","","","","","","","","","","","","","","","","","",""
"271.3999996185303","364292","SARL_v6","SARL_v6b2swm0k6","629513753a4424c933282660","freq","","","img/orange_2bandit_a2.png","70","","70","test","1","","89","","","","square","circle","86","18","4","0.9302325581395349","","","","","","","",""
"null","364824","SARL_v6","SARL_v6b2swm0k6","629513753a4424c933282660","freq_resp","","","img/orange_2bandit_a.png","70","img/orange_2bandit_a.png","70","test","","","","","","","","","","","4","","","","","","","","",""
"null","364976","SARL_v6","SARL_v6b2swm0k6","629513753a4424c933282660","fixation","","","img/fixation.png","null","","","test","","","","","","","","","","","","","","","","","","","",""
"189.10000038146973","365167","SARL_v6","SARL_v6b2swm0k6","629513753a4424c933282660","freq","","","img/orange_2bandit_a2.png","70","","70","test","1","","90","","","","square","circle","87","19","4","0.9310344827586207","","","","","","","",""
"null","365793","SARL_v6","SARL_v6b2swm0k6","629513753a4424c933282660","freq_resp","","","img/orange_2bandit_a.png","70","img/orange_2bandit_a.png","70","test","","","","","","","","","","","4","","","","","","","","",""
"null","365945","SARL_v6","SARL_v6b2swm0k6","629513753a4424c933282660","fixation","","","img/fixation.png","null","","","test","","","","","","","","","","","","","","","","","","","",""
"101.40000057220459","366049","SARL_v6","SARL_v6b2swm0k6","629513753a4424c933282660","freq","","","img/orange_2bandit_a2.png","70","","70","test","1","","91","","","","square","circle","88","20","4","0.9318181818181818","","","","","","","",""
"null","366757","SARL_v6","SARL_v6b2swm0k6","629513753a4424c933282660","freq_resp","","","img/orange_2bandit_a.png","70","img/orange_2bandit_a.png","70","test","","","","","","","","","","","4","","","","","","","","",""
"null","366909","SARL_v6","SARL_v6b2swm0k6","629513753a4424c933282660","fixation","","","img/fixation.png","null","","","test","","","","","","","","","","","","","","","","","","","",""
"286","367197","SARL_v6","SARL_v6b2swm0k6","629513753a4424c933282660","freq","","","img/orange_2bandit_a2.png","70","","70","test","1","","92","","","","square","circle","89","21","4","0.9325842696629213","","","","","","","",""
"null","367718","SARL_v6","SARL_v6b2swm0k6","629513753a4424c933282660","freq_resp","","","img/orange_2bandit_a.png","70","img/orange_2bandit_a.png","70","test","","","","","","","","","","","4","","","","","","","","",""
"null","367874","SARL_v6","SARL_v6b2swm0k6","629513753a4424c933282660","fixation","","","img/fixation.png","null","","","test","","","","","","","","","","","","","","","","","","","",""
"450.80000019073486","368326","SARL_v6","SARL_v6b2swm0k6","629513753a4424c933282660","rl","","","img/black_2bandit_a2.png","74","","0","test","","","93","","","0","square","circle","","0","4","","74","-12","0","0","-12","square","4","0"
"null","369084","SARL_v6","SARL_v6b2swm0k6","629513753a4424c933282660","feedback","","","<div class=""verylowPoints_sq""> 0 </div>","null","","na","test","","","NaN","","","","","","","","4","","74","","","","","","4",""
"455.3999996185303","369542","SARL_v6","SARL_v6b2swm0k6","629513753a4424c933282660","freq","","","img/orange_2bandit_a2.png","70","","70","test","1","","94","","","","square","circle","90","1","5","0.9333333333333333","","","","","","","",""
"null","369895","SARL_v6","SARL_v6b2swm0k6","629513753a4424c933282660","freq_resp","","","img/orange_2bandit_a.png","70","img/orange_2bandit_a.png","70","test","","","","","","","","","","","5","","","","","","","","",""
"null","370051","SARL_v6","SARL_v6b2swm0k6","629513753a4424c933282660","fixation","","","img/fixation.png","null","","","test","","","","","","","","","","","","","","","","","","","",""
"313.3999996185303","370366","SARL_v6","SARL_v6b2swm0k6","629513753a4424c933282660","freq","","","img/orange_2bandit_a2.png","70","","70","test","1","","95","","","","square","circle","91","2","5","0.9340659340659341","","","","","","","",""
"null","370862","SARL_v6","SARL_v6b2swm0k6","629513753a4424c933282660","freq_resp","","","img/orange_2bandit_a.png","70","img/orange_2bandit_a.png","70","test","","","","","","","","","","","5","","","","","","","","",""
"null","371013","SARL_v6","SARL_v6b2swm0k6","629513753a4424c933282660","fixation","","","img/fixation.png","null","","","test","","","","","","","","","","","","","","","","","","","",""
"291.30000019073486","371306","SARL_v6","SARL_v6b2swm0k6","629513753a4424c933282660","freq","","","img/orange_2bandit_a2.png","70","","70","test","1","","96","","","","square","circle","92","3","5","0.9347826086956522","","","","","","","",""
"null","371824","SARL_v6","SARL_v6b2swm0k6","629513753a4424c933282660","freq_resp","","","img/orange_2bandit_a.png","70","img/orange_2bandit_a.png","70","test","","","","","","","","","","","5","","","","","","","","",""
"null","371976","SARL_v6","SARL_v6b2swm0k6","629513753a4424c933282660","fixation","","","img/fixation.png","null","","","test","","","","","","","","","","","","","","","","","","","",""
"385.30000019073486","372363","SARL_v6","SARL_v6b2swm0k6","629513753a4424c933282660","freq","","","img/orange_2bandit_a2.png","70","","70","test","1","","97","","","","square","circle","93","4","5","0.9354838709677419","","","","","","","",""
"null","372787","SARL_v6","SARL_v6b2swm0k6","629513753a4424c933282660","freq_resp","","","img/orange_2bandit_a.png","70","img/orange_2bandit_a.png","70","test","","","","","","","","","","","5","","","","","","","","",""
"null","372944","SARL_v6","SARL_v6b2swm0k6","629513753a4424c933282660","fixation","","","img/fixation.png","null","","","test","","","","","","","","","","","","","","","","","","","",""
"277.3999996185303","373223","SARL_v6","SARL_v6b2swm0k6","629513753a4424c933282660","infreq","","","img/blue_2bandit_a2.png","70","","68","test","0","","98","","","","square","circle","94","5","5","0.925531914893617","","","","","","","",""
"null","373753","SARL_v6","SARL_v6b2swm0k6","629513753a4424c933282660","infreq_resp","","","img/blue_2bandit_a.png","70","img/blue_2bandit_a.png","68","test","","","","","","","","","","","5","","","","","","","","",""
"null","373910","SARL_v6","SARL_v6b2swm0k6","629513753a4424c933282660","fixation","","","img/fixation.png","null","","","test","","","","","","","","","","","","","","","","","","","",""
"313.6000003814697","374226","SARL_v6","SARL_v6b2swm0k6","629513753a4424c933282660","infreq","","","img/blue_2bandit_a2.png","70","","68","test","0","","99","","","","square","circle","95","6","5","0.9157894736842105","","","","","","","",""
"null","374724","SARL_v6","SARL_v6b2swm0k6","629513753a4424c933282660","infreq_resp","","","img/blue_2bandit_a.png","70","img/blue_2bandit_a.png","68","test","","","","","","","","","","","5","","","","","","","","",""
"null","374880","SARL_v6","SARL_v6b2swm0k6","629513753a4424c933282660","fixation","","","img/fixation.png","null","","","test","","","","","","","","","","","","","","","","","","","",""
"366.5","375248","SARL_v6","SARL_v6b2swm0k6","629513753a4424c933282660","freq","","","img/orange_2bandit_a2.png","70","","70","test","1","","100","","","","square","circle","96","7","5","0.9166666666666666","","","","","","","",""
"null","375691","SARL_v6","SARL_v6b2swm0k6","629513753a4424c933282660","freq_resp","","","img/orange_2bandit_a.png","70","img/orange_2bandit_a.png","70","test","","","","","","","","","","","5","","","","","","","","",""
"null","375845","SARL_v6","SARL_v6b2swm0k6","629513753a4424c933282660","fixation","","","img/fixation.png","null","","","test","","","","","","","","","","","","","","","","","","","",""
"279.6000003814697","376127","SARL_v6","SARL_v6b2swm0k6","629513753a4424c933282660","freq","","","img/orange_2bandit_a2.png","70","","70","test","1","","101","","","","square","circle","97","8","5","0.9175257731958762","","","","","","","",""
"null","376653","SARL_v6","SARL_v6b2swm0k6","629513753a4424c933282660","freq_resp","","","img/orange_2bandit_a.png","70","img/orange_2bandit_a.png","70","test","","","","","","","","","","","5","","","","","","","","",""
"null","376808","SARL_v6","SARL_v6b2swm0k6","629513753a4424c933282660","fixation","","","img/fixation.png","null","","","test","","","","","","","","","","","","","","","","","","","",""
"270.1000003814697","377080","SARL_v6","SARL_v6b2swm0k6","629513753a4424c933282660","freq","","","img/orange_2bandit_a2.png","70","","70","test","1","","102","","","","square","circle","98","9","5","0.9183673469387755","","","","","","","",""
"null","377619","SARL_v6","SARL_v6b2swm0k6","629513753a4424c933282660","freq_resp","","","img/orange_2bandit_a.png","70","img/orange_2bandit_a.png","70","test","","","","","","","","","","","5","","","","","","","","",""
"null","377772","SARL_v6","SARL_v6b2swm0k6","629513753a4424c933282660","fixation","","","img/fixation.png","null","","","test","","","","","","","","","","","","","","","","","","","",""
"282","378056","SARL_v6","SARL_v6b2swm0k6","629513753a4424c933282660","freq","","","img/orange_2bandit_a2.png","70","","70","test","1","","103","","","","square","circle","99","10","5","0.9191919191919192","","","","","","","",""
"null","378582","SARL_v6","SARL_v6b2swm0k6","629513753a4424c933282660","freq_resp","","","img/orange_2bandit_a.png","70","img/orange_2bandit_a.png","70","test","","","","","","","","","","","5","","","","","","","","",""
"null","378735","SARL_v6","SARL_v6b2swm0k6","629513753a4424c933282660","fixation","","","img/fixation.png","null","","","test","","","","","","","","","","","","","","","","","","","",""
"304.3999996185303","379041","SARL_v6","SARL_v6b2swm0k6","629513753a4424c933282660","freq","","","img/orange_2bandit_a2.png","70","","70","test","1","","104","","","","square","circle","100","11","5","0.92","","","","","","","",""
"null","379547","SARL_v6","SARL_v6b2swm0k6","629513753a4424c933282660","freq_resp","","","img/orange_2bandit_a.png","70","img/orange_2bandit_a.png","70","test","","","","","","","","","","","5","","","","","","","","",""
"null","379700","SARL_v6","SARL_v6b2swm0k6","629513753a4424c933282660","fixation","","","img/fixation.png","null","","","test","","","","","","","","","","","","","","","","","","","",""
"258","379959","SARL_v6","SARL_v6b2swm0k6","629513753a4424c933282660","freq","","","img/orange_2bandit_a2.png","70","","70","test","1","","105","","","","square","circle","101","12","5","0.9207920792079208","","","","","","","",""
"null","380518","SARL_v6","SARL_v6b2swm0k6","629513753a4424c933282660","freq_resp","","","img/orange_2bandit_a.png","70","img/orange_2bandit_a.png","70","test","","","","","","","","","","","5","","","","","","","","",""
"null","380674","SARL_v6","SARL_v6b2swm0k6","629513753a4424c933282660","fixation","","","img/fixation.png","null","","","test","","","","","","","","","","","","","","","","","","","",""
"187.80000019073486","380863","SARL_v6","SARL_v6b2swm0k6","629513753a4424c933282660","freq","","","img/orange_2bandit_a2.png","70","","70","test","1","","106","","","","square","circle","102","13","5","0.9215686274509803","","","","","","","",""
"null","381484","SARL_v6","SARL_v6b2swm0k6","629513753a4424c933282660","freq_resp","","","img/orange_2bandit_a.png","70","img/orange_2bandit_a.png","70","test","","","","","","","","","","","5","","","","","","","","",""
"null","381636","SARL_v6","SARL_v6b2swm0k6","629513753a4424c933282660","fixation","","","img/fixation.png","null","","","test","","","","","","","","","","","","","","","","","","","",""
"264","381902","SARL_v6","SARL_v6b2swm0k6","629513753a4424c933282660","freq","","","img/orange_2bandit_a2.png","70","","70","test","1","","107","","","","square","circle","103","14","5","0.9223300970873787","","","","","","","",""
"null","382450","SARL_v6","SARL_v6b2swm0k6","629513753a4424c933282660","freq_resp","","","img/orange_2bandit_a.png","70","img/orange_2bandit_a.png","70","test","","","","","","","","","","","5","","","","","","","","",""
"null","382610","SARL_v6","SARL_v6b2swm0k6","629513753a4424c933282660","fixation","","","img/fixation.png","null","","","test","","","","","","","","","","","","","","","","","","","",""
"264","382875","SARL_v6","SARL_v6b2swm0k6","629513753a4424c933282660","freq","","","img/orange_2bandit_a2.png","70","","70","test","1","","108","","","","square","circle","104","15","5","0.9230769230769231","","","","","","","",""
"null","383428","SARL_v6","SARL_v6b2swm0k6","629513753a4424c933282660","freq_resp","","","img/orange_2bandit_a.png","70","img/orange_2bandit_a.png","70","test","","","","","","","","","","","5","","","","","","","","",""
"null","383581","SARL_v6","SARL_v6b2swm0k6","629513753a4424c933282660","fixation","","","img/fixation.png","null","","","test","","","","","","","","","","","","","","","","","","","",""
"287.5","383871","SARL_v6","SARL_v6b2swm0k6","629513753a4424c933282660","freq","","","img/orange_2bandit_a2.png","70","","70","test","1","","109","","","","square","circle","105","16","5","0.9238095238095239","","","","","","","",""
"null","384396","SARL_v6","SARL_v6b2swm0k6","629513753a4424c933282660","freq_resp","","","img/orange_2bandit_a.png","70","img/orange_2bandit_a.png","70","test","","","","","","","","","","","5","","","","","","","","",""
"null","384550","SARL_v6","SARL_v6b2swm0k6","629513753a4424c933282660","fixation","","","img/fixation.png","null","","","test","","","","","","","","","","","","","","","","","","","",""
"356.80000019073486","384908","SARL_v6","SARL_v6b2swm0k6","629513753a4424c933282660","freq","","","img/orange_2bandit_a2.png","70","","70","test","1","","110","","","","square","circle","106","17","5","0.9245283018867925","","","","","","","",""
"null","385354","SARL_v6","SARL_v6b2swm0k6","629513753a4424c933282660","freq_resp","","","img/orange_2bandit_a.png","70","img/orange_2bandit_a.png","70","test","","","","","","","","","","","5","","","","","","","","",""
"null","385511","SARL_v6","SARL_v6b2swm0k6","629513753a4424c933282660","fixation","","","img/fixation.png","null","","","test","","","","","","","","","","","","","","","","","","","",""
"330.30000019073486","385843","SARL_v6","SARL_v6b2swm0k6","629513753a4424c933282660","freq","","","img/orange_2bandit_a2.png","70","","70","test","1","","111","","","","square","circle","107","18","5","0.9252336448598131","","","","","","","",""
"null","386319","SARL_v6","SARL_v6b2swm0k6","629513753a4424c933282660","freq_resp","","","img/orange_2bandit_a.png","70","img/orange_2bandit_a.png","70","test","","","","","","","","","","","5","","","","","","","","",""
"null","386475","SARL_v6","SARL_v6b2swm0k6","629513753a4424c933282660","fixation","","","img/fixation.png","null","","","test","","","","","","","","","","","","","","","","","","","",""
"298","386775","SARL_v6","SARL_v6b2swm0k6","629513753a4424c933282660","freq","","","img/orange_2bandit_a2.png","70","","70","test","1","","112","","","","square","circle","108","19","5","0.9259259259259259","","","","","","","",""
"null","387283","SARL_v6","SARL_v6b2swm0k6","629513753a4424c933282660","freq_resp","","","img/orange_2bandit_a.png","70","img/orange_2bandit_a.png","70","test","","","","","","","","","","","5","","","","","","","","",""
"null","387436","SARL_v6","SARL_v6b2swm0k6","629513753a4424c933282660","fixation","","","img/fixation.png","null","","","test","","","","","","","","","","","","","","","","","","","",""
"335","387773","SARL_v6","SARL_v6b2swm0k6","629513753a4424c933282660","freq","","","img/orange_2bandit_a2.png","70","","70","test","1","","113","","","","square","circle","109","20","5","0.926605504587156","","","","","","","",""
"null","388244","SARL_v6","SARL_v6b2swm0k6","629513753a4424c933282660","freq_resp","","","img/orange_2bandit_a.png","70","img/orange_2bandit_a.png","70","test","","","","","","","","","","","5","","","","","","","","",""
"null","388401","SARL_v6","SARL_v6b2swm0k6","629513753a4424c933282660","fixation","","","img/fixation.png","null","","","test","","","","","","","","","","","","","","","","","","","",""
"279.8999996185303","388683","SARL_v6","SARL_v6b2swm0k6","629513753a4424c933282660","freq","","","img/orange_2bandit_a2.png","70","","70","test","1","","114","","","","square","circle","110","21","5","0.9272727272727272","","","","","","","",""
"null","389205","SARL_v6","SARL_v6b2swm0k6","629513753a4424c933282660","freq_resp","","","img/orange_2bandit_a.png","70","img/orange_2bandit_a.png","70","test","","","","","","","","","","","5","","","","","","","","",""
"null","389358","SARL_v6","SARL_v6b2swm0k6","629513753a4424c933282660","fixation","","","img/fixation.png","null","","","test","","","","","","","","","","","","","","","","","","","",""
"301.1000003814697","389661","SARL_v6","SARL_v6b2swm0k6","629513753a4424c933282660","freq","","","img/orange_2bandit_a2.png","70","","70","test","1","","115","","","","square","circle","111","22","5","0.9279279279279279","","","","","","","",""
"null","390161","SARL_v6","SARL_v6b2swm0k6","629513753a4424c933282660","freq_resp","","","img/orange_2bandit_a.png","70","img/orange_2bandit_a.png","70","test","","","","","","","","","","","5","","","","","","","","",""
"null","390314","SARL_v6","SARL_v6b2swm0k6","629513753a4424c933282660","fixation","","","img/fixation.png","null","","","test","","","","","","","","","","","","","","","","","","","",""
"309.1000003814697","390624","SARL_v6","SARL_v6b2swm0k6","629513753a4424c933282660","freq","","","img/orange_2bandit_a2.png","70","","70","test","1","","116","","","","square","circle","112","23","5","0.9285714285714286","","","","","","","",""
"null","391125","SARL_v6","SARL_v6b2swm0k6","629513753a4424c933282660","freq_resp","","","img/orange_2bandit_a.png","70","img/orange_2bandit_a.png","70","test","","","","","","","","","","","5","","","","","","","","",""
"null","391282","SARL_v6","SARL_v6b2swm0k6","629513753a4424c933282660","fixation","","","img/fixation.png","null","","","test","","","","","","","","","","","","","","","","","","","",""
"435.5","391720","SARL_v6","SARL_v6b2swm0k6","629513753a4424c933282660","infreq","","","img/blue_2bandit_a2.png","68","","68","test","1","","117","","","","square","circle","113","24","5","0.9292035398230089","","","","","","","",""
"null","392091","SARL_v6","SARL_v6b2swm0k6","629513753a4424c933282660","infreq_resp","","","img/blue_2bandit_a.png","68","img/blue_2bandit_a.png","68","test","","","","","","","","","","","5","","","","","","","","",""
"null","392246","SARL_v6","SARL_v6b2swm0k6","629513753a4424c933282660","fixation","","","img/fixation.png","null","","","test","","","","","","","","","","","","","","","","","","","",""
"404.4000005722046","392652","SARL_v6","SARL_v6b2swm0k6","629513753a4424c933282660","freq","","","img/orange_2bandit_a2.png","70","","70","test","1","","118","","","","square","circle","114","25","5","0.9298245614035088","","","","","","","",""
"null","393057","SARL_v6","SARL_v6b2swm0k6","629513753a4424c933282660","freq_resp","","","img/orange_2bandit_a.png","70","img/orange_2bandit_a.png","70","test","","","","","","","","","","","5","","","","","","","","",""
"null","393211","SARL_v6","SARL_v6b2swm0k6","629513753a4424c933282660","fixation","","","img/fixation.png","null","","","test","","","","","","","","","","","","","","","","","","","",""
"1081.3000001907349","394294","SARL_v6","SARL_v6b2swm0k6","629513753a4424c933282660","rl","","","img/black_2bandit_a2.png","75","","0","test","","","119","","","-7","square","circle","","0","5","","75","-7","4","4","-7","circle","5","0"
"null","395060","SARL_v6","SARL_v6b2swm0k6","629513753a4424c933282660","feedback","","","<div class=""verylowPoints""> -7 </div>","null","","na","test","","","NaN","","","","","","","","5","","75","","","","","","5",""
"591.8000001907349","395653","SARL_v6","SARL_v6b2swm0k6","629513753a4424c933282660","freq","","","img/orange_2bandit_a2.png","70","","70","test","1","","120","","","","square","circle","115","1","6","0.9304347826086956","","","","","","","",""
"null","395868","SARL_v6","SARL_v6b2swm0k6","629513753a4424c933282660","freq_resp","","","img/orange_2bandit_a.png","70","img/orange_2bandit_a.png","70","test","","","","","","","","","","","6","","","","","","","","",""
"null","396022","SARL_v6","SARL_v6b2swm0k6","629513753a4424c933282660","fixation","","","img/fixation.png","null","","","test","","","","","","","","","","","","","","","","","","","",""
"525.4000005722046","396549","SARL_v6","SARL_v6b2swm0k6","629513753a4424c933282660","freq","","","img/orange_2bandit_a2.png","70","","70","test","1","","121","","","","square","circle","116","2","6","0.9310344827586207","","","","","","","",""
"null","396833","SARL_v6","SARL_v6b2swm0k6","629513753a4424c933282660","freq_resp","","","img/orange_2bandit_a.png","70","img/orange_2bandit_a.png","70","test","","","","","","","","","","","6","","","","","","","","",""
"null","396989","SARL_v6","SARL_v6b2swm0k6","629513753a4424c933282660","fixation","","","img/fixation.png","null","","","test","","","","","","","","","","","","","","","","","","","",""
"414","397404","SARL_v6","SARL_v6b2swm0k6","629513753a4424c933282660","freq","","","img/orange_2bandit_a2.png","70","","70","test","1","","122","","","","square","circle","117","3","6","0.9316239316239316","","","","","","","",""
"null","397801","SARL_v6","SARL_v6b2swm0k6","629513753a4424c933282660","freq_resp","","","img/orange_2bandit_a.png","70","img/orange_2bandit_a.png","70","test","","","","","","","","","","","6","","","","","","","","",""
"null","397957","SARL_v6","SARL_v6b2swm0k6","629513753a4424c933282660","fixation","","","img/fixation.png","null","","","test","","","","","","","","","","","","","","","","","","","",""
"303.6000003814697","398263","SARL_v6","SARL_v6b2swm0k6","629513753a4424c933282660","freq","","","img/orange_2bandit_a2.png","70","","70","test","1","","123","","","","square","circle","118","4","6","0.9322033898305084","","","","","","","",""
"null","398767","SARL_v6","SARL_v6b2swm0k6","629513753a4424c933282660","freq_resp","","","img/orange_2bandit_a.png","70","img/orange_2bandit_a.png","70","test","","","","","","","","","","","6","","","","","","","","",""
"null","398920","SARL_v6","SARL_v6b2swm0k6","629513753a4424c933282660","fixation","","","img/fixation.png","null","","","test","","","","","","","","","","","","","","","","","","","",""
"334.69999980926514","399257","SARL_v6","SARL_v6b2swm0k6","629513753a4424c933282660","freq","","","img/orange_2bandit_a2.png","70","","70","test","1","","124","","","","square","circle","119","5","6","0.9327731092436975","","","","","","","",""
"null","399734","SARL_v6","SARL_v6b2swm0k6","629513753a4424c933282660","freq_resp","","","img/orange_2bandit_a.png","70","img/orange_2bandit_a.png","70","test","","","","","","","","","","","6","","","","","","","","",""
"null","399886","SARL_v6","SARL_v6b2swm0k6","629513753a4424c933282660","fixation","","","img/fixation.png","null","","","test","","","","","","","","","","","","","","","","","","","",""
"318.30000019073486","400206","SARL_v6","SARL_v6b2swm0k6","629513753a4424c933282660","freq","","","img/orange_2bandit_a2.png","70","","70","test","1","","125","","","","square","circle","120","6","6","0.9333333333333333","","","","","","","",""
"null","400690","SARL_v6","SARL_v6b2swm0k6","629513753a4424c933282660","freq_resp","","","img/orange_2bandit_a.png","70","img/orange_2bandit_a.png","70","test","","","","","","","","","","","6","","","","","","","","",""
"null","400842","SARL_v6","SARL_v6b2swm0k6","629513753a4424c933282660","fixation","","","img/fixation.png","null","","","test","","","","","","","","","","","","","","","","","","","",""
"285.30000019073486","401128","SARL_v6","SARL_v6b2swm0k6","629513753a4424c933282660","freq","","","img/orange_2bandit_a2.png","70","","70","test","1","","126","","","","square","circle","121","7","6","0.9338842975206612","","","","","","","",""
"null","401653","SARL_v6","SARL_v6b2swm0k6","629513753a4424c933282660","freq_resp","","","img/orange_2bandit_a.png","70","img/orange_2bandit_a.png","70","test","","","","","","","","","","","6","","","","","","","","",""
"null","401804","SARL_v6","SARL_v6b2swm0k6","629513753a4424c933282660","fixation","","","img/fixation.png","null","","","test","","","","","","","","","","","","","","","","","","","",""
"285.19999980926514","402091","SARL_v6","SARL_v6b2swm0k6","629513753a4424c933282660","freq","","","img/orange_2bandit_a2.png","70","","70","test","1","","127","","","","square","circle","122","8","6","0.9344262295081968","","","","","","","",""
"null","402614","SARL_v6","SARL_v6b2swm0k6","629513753a4424c933282660","freq_resp","","","img/orange_2bandit_a.png","70","img/orange_2bandit_a.png","70","test","","","","","","","","","","","6","","","","","","","","",""
"null","402766","SARL_v6","SARL_v6b2swm0k6","629513753a4424c933282660","fixation","","","img/fixation.png","null","","","test","","","","","","","","","","","","","","","","","","","",""
"377.9000005722046","403145","SARL_v6","SARL_v6b2swm0k6","629513753a4424c933282660","infreq","","","img/blue_2bandit_a2.png","68","","68","test","1","","128","","","","square","circle","123","9","6","0.9349593495934959","","","","","","","",""
"null","403576","SARL_v6","SARL_v6b2swm0k6","629513753a4424c933282660","infreq_resp","","","img/blue_2bandit_a.png","68","img/blue_2bandit_a.png","68","test","","","","","","","","","","","6","","","","","","","","",""
"null","403730","SARL_v6","SARL_v6b2swm0k6","629513753a4424c933282660","fixation","","","img/fixation.png","null","","","test","","","","","","","","","","","","","","","","","","","",""
"320.5999994277954","404052","SARL_v6","SARL_v6b2swm0k6","629513753a4424c933282660","freq","","","img/orange_2bandit_a2.png","70","","70","test","1","","129","","","","square","circle","124","10","6","0.9354838709677419","","","","","","","",""
