"rt","time_elapsed","expId","subject","prolificID","trialType","rlType","attType","stimulus","key_press","stim","corrresp","phase","corr","pracCounter","trialNum","rewardOne","rewardTwo","reward","bandOne","bandTwo","attentionNum","attentionRunNum","blockNum","performance","bandChosen","circleVal","squareVal","bandOneVal","bandTwoVal","shapeChosen","rlNum","badFlag"
"10449.299999952316","10453","SARL_v6","SARL_v6unkp55ed","5d55d562e04e1c0001f5e682","","","","","","","","","","","","","","","","","","","","","","","","","","","",""
"","12581","SARL_v6","SARL_v6unkp55ed","5d55d562e04e1c0001f5e682","fullscreen","fullscreen","fullscreen","","","","","","","","","","","","","","","","","","","","","","","","",""
"35171.40000009537","47758","SARL_v6","SARL_v6unkp55ed","5d55d562e04e1c0001f5e682","","","","","","","","","","","","","","","","","","","","","","","","","","","",""
"null","48571","SARL_v6","SARL_v6unkp55ed","5d55d562e04e1c0001f5e682","freqPrac","","","img/orange_2bandit_b2.png","null","img/orange_2bandit_b2.png","70","prac","0","1","","","","","","","","","","","","","","","","","",""
"null","49578","SARL_v6","SARL_v6unkp55ed","5d55d562e04e1c0001f5e682","feedback","","","img/tooSlow.png","null","","na","prac","","","","","","","","","","","","","","","","","","","",""
"null","49738","SARL_v6","SARL_v6unkp55ed","5d55d562e04e1c0001f5e682","fixation","","","img/fixation.png","null","","","prac","","","","","","","","","","","","","","","","","","","",""
"642.4000000953674","50384","SARL_v6","SARL_v6unkp55ed","5d55d562e04e1c0001f5e682","infreqPrac","","","img/blue_2bandit_b2.png","68","img/blue_2bandit_b2.png","68","prac","1","1","","","","","","","","","","","","","","","","","",""
"642.4000000953674","50557","SARL_v6","SARL_v6unkp55ed","5d55d562e04e1c0001f5e682","infreqPrac_resp","","","img/blue_2bandit_b.png","68","img/blue_2bandit_b.png","68","prac","","","","","","","","","","","","","","","","","","","",""
"null","50718","SARL_v6","SARL_v6unkp55ed","5d55d562e04e1c0001f5e682","fixation","","","img/fixation.png","null","","","prac","","","","","","","","","","","","","","","","","","","",""
"null","51535","SARL_v6","SARL_v6unkp55ed","5d55d562e04e1c0001f5e682","freqPrac","","","img/orange_2bandit_b2.png","null","img/orange_2bandit_b2.png","70","prac","0","2","","","","","","","","","","","","","","","","","",""
"null","52547","SARL_v6","SARL_v6unkp55ed","5d55d562e04e1c0001f5e682","feedback","","","img/tooSlow.png","null","","na","prac","","","","","","","","","","","","","","","","","","","",""
"null","52711","SARL_v6","SARL_v6unkp55ed","5d55d562e04e1c0001f5e682","fixation","","","img/fixation.png","null","","","prac","","","","","","","","","","","","","","","","","","","",""
"510.89999985694885","53227","SARL_v6","SARL_v6unkp55ed","5d55d562e04e1c0001f5e682","infreqPrac","","","img/blue_2bandit_b2.png","68","img/blue_2bandit_b2.png","68","prac","1","2","","","","","","","","","","","","","","","","","",""
"510.89999985694885","53521","SARL_v6","SARL_v6unkp55ed","5d55d562e04e1c0001f5e682","infreqPrac_resp","","","img/blue_2bandit_b.png","68","img/blue_2bandit_b.png","68","prac","","","","","","","","","","","","","","","","","","","",""
"null","53683","SARL_v6","SARL_v6unkp55ed","5d55d562e04e1c0001f5e682","fixation","","","img/fixation.png","null","","","prac","","","","","","","","","","","","","","","","","","","",""
"475.7000000476837","54162","SARL_v6","SARL_v6unkp55ed","5d55d562e04e1c0001f5e682","infreqPrac","","","img/blue_2bandit_b2.png","68","img/blue_2bandit_b2.png","68","prac","1","2","","","","","","","","","","","","","","","","","",""
"475.7000000476837","54490","SARL_v6","SARL_v6unkp55ed","5d55d562e04e1c0001f5e682","infreqPrac_resp","","","img/blue_2bandit_b.png","68","img/blue_2bandit_b.png","68","prac","","","","","","","","","","","","","","","","","","","",""
"null","54651","SARL_v6","SARL_v6unkp55ed","5d55d562e04e1c0001f5e682","fixation","","","img/fixation.png","null","","","prac","","","","","","","","","","","","","","","","","","","",""
"401.90000009536743","55056","SARL_v6","SARL_v6unkp55ed","5d55d562e04e1c0001f5e682","infreqPrac","","","img/blue_2bandit_b2.png","68","img/blue_2bandit_b2.png","68","prac","1","2","","","","","","","","","","","","","","","","","",""
"401.90000009536743","55478","SARL_v6","SARL_v6unkp55ed","5d55d562e04e1c0001f5e682","infreqPrac_resp","","","img/blue_2bandit_b.png","68","img/blue_2bandit_b.png","68","prac","","","","","","","","","","","","","","","","","","","",""
"null","55634","SARL_v6","SARL_v6unkp55ed","5d55d562e04e1c0001f5e682","fixation","","","img/fixation.png","null","","","prac","","","","","","","","","","","","","","","","","","","",""
"441.90000009536743","56080","SARL_v6","SARL_v6unkp55ed","5d55d562e04e1c0001f5e682","freqPrac","","","img/orange_2bandit_b2.png","70","img/orange_2bandit_b2.png","70","prac","1","2","","","","","","","","","","","","","","","","","",""
"441.90000009536743","56441","SARL_v6","SARL_v6unkp55ed","5d55d562e04e1c0001f5e682","freqPrac_resp","","","img/orange_2bandit_b.png","70","img/orange_2bandit_b.png","70","prac","","","","","","","","","","","","","","","","","","","",""
"null","56601","SARL_v6","SARL_v6unkp55ed","5d55d562e04e1c0001f5e682","fixation","","","img/fixation.png","null","","","prac","","","","","","","","","","","","","","","","","","","",""
"449.7000000476837","57055","SARL_v6","SARL_v6unkp55ed","5d55d562e04e1c0001f5e682","infreqPrac","","","img/blue_2bandit_b2.png","68","img/blue_2bandit_b2.png","68","prac","1","2","","","","","","","","","","","","","","","","","",""
"449.7000000476837","57410","SARL_v6","SARL_v6unkp55ed","5d55d562e04e1c0001f5e682","infreqPrac_resp","","","img/blue_2bandit_b.png","68","img/blue_2bandit_b.png","68","prac","","","","","","","","","","","","","","","","","","","",""
"null","57570","SARL_v6","SARL_v6unkp55ed","5d55d562e04e1c0001f5e682","fixation","","","img/fixation.png","null","","","prac","","","","","","","","","","","","","","","","","","","",""
"577.7999999523163","58152","SARL_v6","SARL_v6unkp55ed","5d55d562e04e1c0001f5e682","freqPrac","","","img/orange_2bandit_b2.png","70","img/orange_2bandit_b2.png","70","prac","1","2","","","","","","","","","","","","","","","","","",""
"577.7999999523163","58381","SARL_v6","SARL_v6unkp55ed","5d55d562e04e1c0001f5e682","freqPrac_resp","","","img/orange_2bandit_b.png","70","img/orange_2bandit_b.png","70","prac","","","","","","","","","","","","","","","","","","","",""
"null","58543","SARL_v6","SARL_v6unkp55ed","5d55d562e04e1c0001f5e682","fixation","","","img/fixation.png","null","","","prac","","","","","","","","","","","","","","","","","","","",""
"452.7000000476837","58999","SARL_v6","SARL_v6unkp55ed","5d55d562e04e1c0001f5e682","freqPrac","","","img/orange_2bandit_b2.png","70","img/orange_2bandit_b2.png","70","prac","1","2","","","","","","","","","","","","","","","","","",""
"452.7000000476837","59354","SARL_v6","SARL_v6unkp55ed","5d55d562e04e1c0001f5e682","freqPrac_resp","","","img/orange_2bandit_b.png","70","img/orange_2bandit_b.png","70","prac","","","","","","","","","","","","","","","","","","","",""
"null","59513","SARL_v6","SARL_v6unkp55ed","5d55d562e04e1c0001f5e682","fixation","","","img/fixation.png","null","","","prac","","","","","","","","","","","","","","","","","","","",""
"21875.5","81395","SARL_v6","SARL_v6unkp55ed","5d55d562e04e1c0001f5e682","","","","","","","","prac","","","","","","","","","","","","","","","","","","","",""
"611.7999999523163","82011","SARL_v6","SARL_v6unkp55ed","5d55d562e04e1c0001f5e682","rlPractice","","","img/black_2bandit_b2.png","74","img/black_2bandit_b2.png","","prac","","","0","","","","","","","","","","","","","","","","",""
"null","82777","SARL_v6","SARL_v6unkp55ed","5d55d562e04e1c0001f5e682","feedback","","","<div class=""veryhighPoints""> 10 </div>","null","","na","prac","","","1","10","-14","10","","","","","","","","","","","","","",""
"null","82939","SARL_v6","SARL_v6unkp55ed","5d55d562e04e1c0001f5e682","fixation","","","img/fixation.png","null","","","prac","","","","","","","","","","","","","","","","","","","",""
"516.0999999046326","83458","SARL_v6","SARL_v6unkp55ed","5d55d562e04e1c0001f5e682","rlPractice","","","img/black_2bandit_b2.png","74","img/black_2bandit_b2.png","","prac","","","1","","","","","","","","","","","","","","","","",""
"null","84224","SARL_v6","SARL_v6unkp55ed","5d55d562e04e1c0001f5e682","feedback","","","<div class=""veryhighPoints""> 5 </div>","null","","na","prac","","","2","5","-5","5","","","","","","","","","","","","","",""
"null","84384","SARL_v6","SARL_v6unkp55ed","5d55d562e04e1c0001f5e682","fixation","","","img/fixation.png","null","","","prac","","","","","","","","","","","","","","","","","","","",""
"367.59999990463257","84755","SARL_v6","SARL_v6unkp55ed","5d55d562e04e1c0001f5e682","rlPractice","","","img/black_2bandit_b2.png","75","img/black_2bandit_b2.png","","prac","","","2","","","","","","","","","","","","","","","","",""
"null","85516","SARL_v6","SARL_v6unkp55ed","5d55d562e04e1c0001f5e682","feedback","","","<div class=""veryhighPoints_sq""> 2 </div>","null","","na","prac","","","3","30","2","30","","","","","","","","","","","","","",""
"null","85679","SARL_v6","SARL_v6unkp55ed","5d55d562e04e1c0001f5e682","fixation","","","img/fixation.png","null","","","prac","","","","","","","","","","","","","","","","","","","",""
"313.59999990463257","85996","SARL_v6","SARL_v6unkp55ed","5d55d562e04e1c0001f5e682","rlPractice","","","img/black_2bandit_b2.png","74","img/black_2bandit_b2.png","","prac","","","3","","","","","","","","","","","","","","","","",""
"null","86760","SARL_v6","SARL_v6unkp55ed","5d55d562e04e1c0001f5e682","feedback","","","<div class=""verylowPoints""> -2 </div>","null","","na","prac","","","4","-2","20","-2","","","","","","","","","","","","","",""
"null","86920","SARL_v6","SARL_v6unkp55ed","5d55d562e04e1c0001f5e682","fixation","","","img/fixation.png","null","","","prac","","","","","","","","","","","","","","","","","","","",""
"8905.700000047684","95829","SARL_v6","SARL_v6unkp55ed","5d55d562e04e1c0001f5e682","","","","","","","","prac","","","","","","","","","","","","","","","","","","","",""
"null","96638","SARL_v6","SARL_v6unkp55ed","5d55d562e04e1c0001f5e682","mixAttFreqPrac","","","img/orange_2bandit_b2.png","null","img/orange_2bandit_b2.png","70","prac","","","1","","","","","","","","","","","","","","","","",""
"106.70000004768372","96795","SARL_v6","SARL_v6unkp55ed","5d55d562e04e1c0001f5e682","fixation","","","img/fixation.png","68","","","prac","","","","","","","","","","","","","","","","","","","",""
"680","97478","SARL_v6","SARL_v6unkp55ed","5d55d562e04e1c0001f5e682","mixAttInfreqPrac","","","img/blue_2bandit_b2.png","68","img/blue_2bandit_b2.png","68","prac","","","2","","","","","","","","","","","","","","","","",""
"680","97603","SARL_v6","SARL_v6unkp55ed","5d55d562e04e1c0001f5e682","infreqPrac_resp","","","img/blue_2bandit_b.png","68","img/orange_2bandit_b.png","68","prac","","","2","","","","","","","","","","","","","","","","",""
"null","97761","SARL_v6","SARL_v6unkp55ed","5d55d562e04e1c0001f5e682","fixation","","","img/fixation.png","null","","","prac","","","","","","","","","","","","","","","","","","","",""
"590.5","98356","SARL_v6","SARL_v6unkp55ed","5d55d562e04e1c0001f5e682","mixAttInfreqPrac","","","img/blue_2bandit_b2.png","70","img/blue_2bandit_b2.png","68","prac","","","3","","","","","","","","","","","","","","","","",""
"590.5","98574","SARL_v6","SARL_v6unkp55ed","5d55d562e04e1c0001f5e682","infreqPrac_resp","","","img/blue_2bandit_b.png","70","img/orange_2bandit_b.png","68","prac","","","3","","","","","","","","","","","","","","","","",""
"null","98734","SARL_v6","SARL_v6unkp55ed","5d55d562e04e1c0001f5e682","fixation","","","img/fixation.png","null","","","prac","","","","","","","","","","","","","","","","","","","",""
"0.2999999523162842","98738","SARL_v6","SARL_v6unkp55ed","5d55d562e04e1c0001f5e682","mixAttInfreqPrac","","","img/blue_2bandit_b2.png","68","img/blue_2bandit_b2.png","68","prac","","","4","","","","","","","","","","","","","","","","",""
"0.2999999523162842","99546","SARL_v6","SARL_v6unkp55ed","5d55d562e04e1c0001f5e682","infreqPrac_resp","","","img/blue_2bandit_b.png","68","img/orange_2bandit_b.png","68","prac","","","4","","","","","","","","","","","","","","","","",""
"null","99712","SARL_v6","SARL_v6unkp55ed","5d55d562e04e1c0001f5e682","fixation","","","img/fixation.png","null","","","prac","","","","","","","","","","","","","","","","","","","",""
"405.2999999523163","100122","SARL_v6","SARL_v6unkp55ed","5d55d562e04e1c0001f5e682","mixAttFreqPrac","","","img/orange_2bandit_b2.png","70","img/orange_2bandit_b2.png","70","prac","","","5","","","","","","","","","","","","","","","","",""
"405.2999999523163","100527","SARL_v6","SARL_v6unkp55ed","5d55d562e04e1c0001f5e682","freqPrac_resp","","","img/orange_2bandit_b.png","70","img/orange_2bandit_b.png","70","prac","","","5","","","","","","","","","","","","","","","","",""
"null","100688","SARL_v6","SARL_v6unkp55ed","5d55d562e04e1c0001f5e682","fixation","","","img/fixation.png","null","","","prac","","","","","","","","","","","","","","","","","","","",""
"743.2999999523163","101435","SARL_v6","SARL_v6unkp55ed","5d55d562e04e1c0001f5e682","mixRLPractice","","","img/black_2bandit_b2.png","75","img/black_2bandit_b2.png","","prac","","","5","","","","","","","","","","","","","","","","",""
"null","102196","SARL_v6","SARL_v6unkp55ed","5d55d562e04e1c0001f5e682","feedback","","","<div class=""veryhighPoints_sq""> 10 </div>","null","","na","prac","","","6","-14","10","-14","","","","","","","","","","","","","",""
"null","102356","SARL_v6","SARL_v6unkp55ed","5d55d562e04e1c0001f5e682","fixation","","","img/fixation.png","null","","","prac","","","","","","","","","","","","","","","","","","","",""
"792.7000000476837","103151","SARL_v6","SARL_v6unkp55ed","5d55d562e04e1c0001f5e682","mixAttFreqPrac","","","img/orange_2bandit_b2.png","70","img/orange_2bandit_b2.png","70","prac","","","7","","","","","","","","","","","","","","","","",""
"792.7000000476837","103164","SARL_v6","SARL_v6unkp55ed","5d55d562e04e1c0001f5e682","freqPrac_resp","","","img/orange_2bandit_b.png","70","img/orange_2bandit_b.png","70","prac","","","7","","","","","","","","","","","","","","","","",""
"null","103324","SARL_v6","SARL_v6unkp55ed","5d55d562e04e1c0001f5e682","fixation","","","img/fixation.png","null","","","prac","","","","","","","","","","","","","","","","","","","",""
"483.40000009536743","103812","SARL_v6","SARL_v6unkp55ed","5d55d562e04e1c0001f5e682","mixAttInfreqPrac","","","img/blue_2bandit_b2.png","68","img/blue_2bandit_b2.png","68","prac","","","8","","","","","","","","","","","","","","","","",""
"483.40000009536743","104144","SARL_v6","SARL_v6unkp55ed","5d55d562e04e1c0001f5e682","infreqPrac_resp","","","img/blue_2bandit_b.png","68","img/orange_2bandit_b.png","68","prac","","","8","","","","","","","","","","","","","","","","",""
"null","104305","SARL_v6","SARL_v6unkp55ed","5d55d562e04e1c0001f5e682","fixation","","","img/fixation.png","null","","","prac","","","","","","","","","","","","","","","","","","","",""
"531.7999999523163","104840","SARL_v6","SARL_v6unkp55ed","5d55d562e04e1c0001f5e682","mixAttFreqPrac","","","img/orange_2bandit_b2.png","70","img/orange_2bandit_b2.png","70","prac","","","9","","","","","","","","","","","","","","","","",""
"531.7999999523163","105124","SARL_v6","SARL_v6unkp55ed","5d55d562e04e1c0001f5e682","freqPrac_resp","","","img/orange_2bandit_b.png","70","img/orange_2bandit_b.png","70","prac","","","9","","","","","","","","","","","","","","","","",""
"null","105289","SARL_v6","SARL_v6unkp55ed","5d55d562e04e1c0001f5e682","fixation","","","img/fixation.png","null","","","prac","","","","","","","","","","","","","","","","","","","",""
"439.7000000476837","105732","SARL_v6","SARL_v6unkp55ed","5d55d562e04e1c0001f5e682","mixAttFreqPrac","","","img/orange_2bandit_b2.png","70","img/orange_2bandit_b2.png","70","prac","","","10","","","","","","","","","","","","","","","","",""
"439.7000000476837","106099","SARL_v6","SARL_v6unkp55ed","5d55d562e04e1c0001f5e682","freqPrac_resp","","","img/orange_2bandit_b.png","70","img/orange_2bandit_b.png","70","prac","","","10","","","","","","","","","","","","","","","","",""
"null","106264","SARL_v6","SARL_v6unkp55ed","5d55d562e04e1c0001f5e682","fixation","","","img/fixation.png","null","","","prac","","","","","","","","","","","","","","","","","","","",""
"565.2999999523163","106833","SARL_v6","SARL_v6unkp55ed","5d55d562e04e1c0001f5e682","mixAttInfreqPrac","","","img/blue_2bandit_b2.png","68","img/blue_2bandit_b2.png","68","prac","","","11","","","","","","","","","","","","","","","","",""
"565.2999999523163","107080","SARL_v6","SARL_v6unkp55ed","5d55d562e04e1c0001f5e682","infreqPrac_resp","","","img/blue_2bandit_b.png","68","img/orange_2bandit_b.png","68","prac","","","11","","","","","","","","","","","","","","","","",""
"null","107237","SARL_v6","SARL_v6unkp55ed","5d55d562e04e1c0001f5e682","fixation","","","img/fixation.png","null","","","prac","","","","","","","","","","","","","","","","","","","",""
"533.9000000953674","107775","SARL_v6","SARL_v6unkp55ed","5d55d562e04e1c0001f5e682","mixRLPractice","","","img/black_2bandit_b2.png","74","img/black_2bandit_b2.png","","prac","","","11","","","","","","","","","","","","","","","","",""
"null","108537","SARL_v6","SARL_v6unkp55ed","5d55d562e04e1c0001f5e682","feedback","","","<div class=""veryhighPoints""> 5 </div>","null","","na","prac","","","12","5","-5","5","","","","","","","","","","","","","",""
"null","108694","SARL_v6","SARL_v6unkp55ed","5d55d562e04e1c0001f5e682","fixation","","","img/fixation.png","null","","","prac","","","","","","","","","","","","","","","","","","","",""
"3942.7000000476837","112640","SARL_v6","SARL_v6unkp55ed","5d55d562e04e1c0001f5e682","","","","","","","","prac","","","","","","","","","","","","","","","","","","","",""
"708.7000000476837","113354","SARL_v6","SARL_v6unkp55ed","5d55d562e04e1c0001f5e682","freq","","","img/orange_2bandit_b2.png","70","","70","test","1","","1","","","","circle","square","1","1","1","1","","","","","","","",""
"null","113467","SARL_v6","SARL_v6unkp55ed","5d55d562e04e1c0001f5e682","freq_resp","","","img/orange_2bandit_b.png","70","img/orange_2bandit_b.png","70","test","","","","","","","","","","","1","","","","","","","","",""
"null","113633","SARL_v6","SARL_v6unkp55ed","5d55d562e04e1c0001f5e682","fixation","","","img/fixation.png","null","","","test","","","","","","","","","","","","","","","","","","","",""
"466.19999980926514","114102","SARL_v6","SARL_v6unkp55ed","5d55d562e04e1c0001f5e682","freq","","","img/orange_2bandit_b2.png","70","","70","test","1","","2","","","","circle","square","2","2","1","1","","","","","","","",""
"null","114444","SARL_v6","SARL_v6unkp55ed","5d55d562e04e1c0001f5e682","freq_resp","","","img/orange_2bandit_b.png","70","img/orange_2bandit_b.png","70","test","","","","","","","","","","","1","","","","","","","","",""
"null","114609","SARL_v6","SARL_v6unkp55ed","5d55d562e04e1c0001f5e682","fixation","","","img/fixation.png","null","","","test","","","","","","","","","","","","","","","","","","","",""
"357.90000009536743","114970","SARL_v6","SARL_v6unkp55ed","5d55d562e04e1c0001f5e682","freq","","","img/orange_2bandit_b2.png","70","","70","test","1","","3","","","","circle","square","3","3","1","1","","","","","","","",""
"null","115421","SARL_v6","SARL_v6unkp55ed","5d55d562e04e1c0001f5e682","freq_resp","","","img/orange_2bandit_b.png","70","img/orange_2bandit_b.png","70","test","","","","","","","","","","","1","","","","","","","","",""
"null","115585","SARL_v6","SARL_v6unkp55ed","5d55d562e04e1c0001f5e682","fixation","","","img/fixation.png","null","","","test","","","","","","","","","","","","","","","","","","","",""
"416.09999990463257","116005","SARL_v6","SARL_v6unkp55ed","5d55d562e04e1c0001f5e682","freq","","","img/orange_2bandit_b2.png","70","","70","test","1","","4","","","","circle","square","4","4","1","1","","","","","","","",""
"null","116398","SARL_v6","SARL_v6unkp55ed","5d55d562e04e1c0001f5e682","freq_resp","","","img/orange_2bandit_b.png","70","img/orange_2bandit_b.png","70","test","","","","","","","","","","","1","","","","","","","","",""
"null","116559","SARL_v6","SARL_v6unkp55ed","5d55d562e04e1c0001f5e682","fixation","","","img/fixation.png","null","","","test","","","","","","","","","","","","","","","","","","","",""
"408.2999999523163","116970","SARL_v6","SARL_v6unkp55ed","5d55d562e04e1c0001f5e682","freq","","","img/orange_2bandit_b2.png","70","","70","test","1","","5","","","","circle","square","5","5","1","1","","","","","","","",""
"null","117376","SARL_v6","SARL_v6unkp55ed","5d55d562e04e1c0001f5e682","freq_resp","","","img/orange_2bandit_b.png","70","img/orange_2bandit_b.png","70","test","","","","","","","","","","","1","","","","","","","","",""
"null","117547","SARL_v6","SARL_v6unkp55ed","5d55d562e04e1c0001f5e682","fixation","","","img/fixation.png","null","","","test","","","","","","","","","","","","","","","","","","","",""
"367.2000000476837","117917","SARL_v6","SARL_v6unkp55ed","5d55d562e04e1c0001f5e682","freq","","","img/orange_2bandit_b2.png","70","","70","test","1","","6","","","","circle","square","6","6","1","1","","","","","","","",""
"null","118361","SARL_v6","SARL_v6unkp55ed","5d55d562e04e1c0001f5e682","freq_resp","","","img/orange_2bandit_b.png","70","img/orange_2bandit_b.png","70","test","","","","","","","","","","","1","","","","","","","","",""
"null","118521","SARL_v6","SARL_v6unkp55ed","5d55d562e04e1c0001f5e682","fixation","","","img/fixation.png","null","","","test","","","","","","","","","","","","","","","","","","","",""
"337.7000000476837","118863","SARL_v6","SARL_v6unkp55ed","5d55d562e04e1c0001f5e682","freq","","","img/orange_2bandit_b2.png","70","","70","test","1","","7","","","","circle","square","7","7","1","1","","","","","","","",""
"null","119333","SARL_v6","SARL_v6unkp55ed","5d55d562e04e1c0001f5e682","freq_resp","","","img/orange_2bandit_b.png","70","img/orange_2bandit_b.png","70","test","","","","","","","","","","","1","","","","","","","","",""
"null","119493","SARL_v6","SARL_v6unkp55ed","5d55d562e04e1c0001f5e682","fixation","","","img/fixation.png","null","","","test","","","","","","","","","","","","","","","","","","","",""
"349","119846","SARL_v6","SARL_v6unkp55ed","5d55d562e04e1c0001f5e682","freq","","","img/orange_2bandit_b2.png","70","","70","test","1","","8","","","","circle","square","8","8","1","1","","","","","","","",""
"null","120313","SARL_v6","SARL_v6unkp55ed","5d55d562e04e1c0001f5e682","freq_resp","","","img/orange_2bandit_b.png","70","img/orange_2bandit_b.png","70","test","","","","","","","","","","","1","","","","","","","","",""
"null","120473","SARL_v6","SARL_v6unkp55ed","5d55d562e04e1c0001f5e682","fixation","","","img/fixation.png","null","","","test","","","","","","","","","","","","","","","","","","","",""
"390.10000014305115","120866","SARL_v6","SARL_v6unkp55ed","5d55d562e04e1c0001f5e682","freq","","","img/orange_2bandit_b2.png","70","","70","test","1","","9","","","","circle","square","9","9","1","1","","","","","","","",""
"null","121288","SARL_v6","SARL_v6unkp55ed","5d55d562e04e1c0001f5e682","freq_resp","","","img/orange_2bandit_b.png","70","img/orange_2bandit_b.png","70","test","","","","","","","","","","","1","","","","","","","","",""
"null","121443","SARL_v6","SARL_v6unkp55ed","5d55d562e04e1c0001f5e682","fixation","","","img/fixation.png","null","","","test","","","","","","","","","","","","","","","","","","","",""
"400.40000009536743","121847","SARL_v6","SARL_v6unkp55ed","5d55d562e04e1c0001f5e682","freq","","","img/orange_2bandit_b2.png","70","","70","test","1","","10","","","","circle","square","10","10","1","1","","","","","","","",""
"null","122257","SARL_v6","SARL_v6unkp55ed","5d55d562e04e1c0001f5e682","freq_resp","","","img/orange_2bandit_b.png","70","img/orange_2bandit_b.png","70","test","","","","","","","","","","","1","","","","","","","","",""
"null","122416","SARL_v6","SARL_v6unkp55ed","5d55d562e04e1c0001f5e682","fixation","","","img/fixation.png","null","","","test","","","","","","","","","","","","","","","","","","","",""
"410.19999980926514","122830","SARL_v6","SARL_v6unkp55ed","5d55d562e04e1c0001f5e682","freq","","","img/orange_2bandit_b2.png","70","","70","test","1","","11","","","","circle","square","11","11","1","1","","","","","","","",""
"null","123226","SARL_v6","SARL_v6unkp55ed","5d55d562e04e1c0001f5e682","freq_resp","","","img/orange_2bandit_b.png","70","img/orange_2bandit_b.png","70","test","","","","","","","","","","","1","","","","","","","","",""
"null","123380","SARL_v6","SARL_v6unkp55ed","5d55d562e04e1c0001f5e682","fixation","","","img/fixation.png","null","","","test","","","","","","","","","","","","","","","","","","","",""
"389","123772","SARL_v6","SARL_v6unkp55ed","5d55d562e04e1c0001f5e682","freq","","","img/orange_2bandit_b2.png","70","","70","test","1","","12","","","","circle","square","12","12","1","1","","","","","","","",""
"null","124195","SARL_v6","SARL_v6unkp55ed","5d55d562e04e1c0001f5e682","freq_resp","","","img/orange_2bandit_b.png","70","img/orange_2bandit_b.png","70","test","","","","","","","","","","","1","","","","","","","","",""
"null","124356","SARL_v6","SARL_v6unkp55ed","5d55d562e04e1c0001f5e682","fixation","","","img/fixation.png","null","","","test","","","","","","","","","","","","","","","","","","","",""
"365.40000009536743","124726","SARL_v6","SARL_v6unkp55ed","5d55d562e04e1c0001f5e682","freq","","","img/orange_2bandit_b2.png","70","","70","test","1","","13","","","","circle","square","13","13","1","1","","","","","","","",""
"null","125174","SARL_v6","SARL_v6unkp55ed","5d55d562e04e1c0001f5e682","freq_resp","","","img/orange_2bandit_b.png","70","img/orange_2bandit_b.png","70","test","","","","","","","","","","","1","","","","","","","","",""
"null","125333","SARL_v6","SARL_v6unkp55ed","5d55d562e04e1c0001f5e682","fixation","","","img/fixation.png","null","","","test","","","","","","","","","","","","","","","","","","","",""
"362.5","125699","SARL_v6","SARL_v6unkp55ed","5d55d562e04e1c0001f5e682","freq","","","img/orange_2bandit_b2.png","70","","70","test","1","","14","","","","circle","square","14","14","1","1","","","","","","","",""
"null","126143","SARL_v6","SARL_v6unkp55ed","5d55d562e04e1c0001f5e682","freq_resp","","","img/orange_2bandit_b.png","70","img/orange_2bandit_b.png","70","test","","","","","","","","","","","1","","","","","","","","",""
"null","126300","SARL_v6","SARL_v6unkp55ed","5d55d562e04e1c0001f5e682","fixation","","","img/fixation.png","null","","","test","","","","","","","","","","","","","","","","","","","",""
"340.89999985694885","126645","SARL_v6","SARL_v6unkp55ed","5d55d562e04e1c0001f5e682","freq","","","img/orange_2bandit_b2.png","70","","70","test","1","","15","","","","circle","square","15","15","1","1","","","","","","","",""
"null","127116","SARL_v6","SARL_v6unkp55ed","5d55d562e04e1c0001f5e682","freq_resp","","","img/orange_2bandit_b.png","70","img/orange_2bandit_b.png","70","test","","","","","","","","","","","1","","","","","","","","",""
"null","127281","SARL_v6","SARL_v6unkp55ed","5d55d562e04e1c0001f5e682","fixation","","","img/fixation.png","null","","","test","","","","","","","","","","","","","","","","","","","",""
"323.2999999523163","127607","SARL_v6","SARL_v6unkp55ed","5d55d562e04e1c0001f5e682","freq","","","img/orange_2bandit_b2.png","70","","70","test","1","","16","","","","circle","square","16","16","1","1","","","","","","","",""
"null","128094","SARL_v6","SARL_v6unkp55ed","5d55d562e04e1c0001f5e682","freq_resp","","","img/orange_2bandit_b.png","70","img/orange_2bandit_b.png","70","test","","","","","","","","","","","1","","","","","","","","",""
"null","128256","SARL_v6","SARL_v6unkp55ed","5d55d562e04e1c0001f5e682","fixation","","","img/fixation.png","null","","","test","","","","","","","","","","","","","","","","","","","",""
"464.89999985694885","128725","SARL_v6","SARL_v6unkp55ed","5d55d562e04e1c0001f5e682","infreq","","","img/blue_2bandit_b2.png","68","","68","test","1","","17","","","","circle","square","17","17","1","1","","","","","","","",""
"null","129070","SARL_v6","SARL_v6unkp55ed","5d55d562e04e1c0001f5e682","infreq_resp","","","img/blue_2bandit_b.png","68","img/blue_2bandit_b.png","68","test","","","","","","","","","","","1","","","","","","","","",""
"null","129228","SARL_v6","SARL_v6unkp55ed","5d55d562e04e1c0001f5e682","fixation","","","img/fixation.png","null","","","test","","","","","","","","","","","","","","","","","","","",""
"353","129585","SARL_v6","SARL_v6unkp55ed","5d55d562e04e1c0001f5e682","infreq","","","img/blue_2bandit_b2.png","68","","68","test","1","","18","","","","circle","square","18","18","1","1","","","","","","","",""
"null","130049","SARL_v6","SARL_v6unkp55ed","5d55d562e04e1c0001f5e682","infreq_resp","","","img/blue_2bandit_b.png","68","img/blue_2bandit_b.png","68","test","","","","","","","","","","","1","","","","","","","","",""
"null","130209","SARL_v6","SARL_v6unkp55ed","5d55d562e04e1c0001f5e682","fixation","","","img/fixation.png","null","","","test","","","","","","","","","","","","","","","","","","","",""
"344.09999990463257","130557","SARL_v6","SARL_v6unkp55ed","5d55d562e04e1c0001f5e682","freq","","","img/orange_2bandit_b2.png","68","","70","test","0","","19","","","","circle","square","19","19","1","0.9473684210526315","","","","","","","",""
"null","131025","SARL_v6","SARL_v6unkp55ed","5d55d562e04e1c0001f5e682","freq_resp","","","img/orange_2bandit_b.png","68","img/orange_2bandit_b.png","70","test","","","","","","","","","","","1","","","","","","","","",""
"null","131181","SARL_v6","SARL_v6unkp55ed","5d55d562e04e1c0001f5e682","fixation","","","img/fixation.png","null","","","test","","","","","","","","","","","","","","","","","","","",""
"553","131738","SARL_v6","SARL_v6unkp55ed","5d55d562e04e1c0001f5e682","freq","","","img/orange_2bandit_b2.png","70","","70","test","1","","20","","","","circle","square","20","20","1","0.95","","","","","","","",""
"null","132001","SARL_v6","SARL_v6unkp55ed","5d55d562e04e1c0001f5e682","freq_resp","","","img/orange_2bandit_b.png","70","img/orange_2bandit_b.png","70","test","","","","","","","","","","","1","","","","","","","","",""
"null","132161","SARL_v6","SARL_v6unkp55ed","5d55d562e04e1c0001f5e682","fixation","","","img/fixation.png","null","","","test","","","","","","","","","","","","","","","","","","","",""
"433.30000019073486","132598","SARL_v6","SARL_v6unkp55ed","5d55d562e04e1c0001f5e682","freq","","","img/orange_2bandit_b2.png","70","","70","test","1","","21","","","","circle","square","21","21","1","0.9523809523809523","","","","","","","",""
"null","132972","SARL_v6","SARL_v6unkp55ed","5d55d562e04e1c0001f5e682","freq_resp","","","img/orange_2bandit_b.png","70","img/orange_2bandit_b.png","70","test","","","","","","","","","","","1","","","","","","","","",""
"null","133134","SARL_v6","SARL_v6unkp55ed","5d55d562e04e1c0001f5e682","fixation","","","img/fixation.png","null","","","test","","","","","","","","","","","","","","","","","","","",""
"573.5","133710","SARL_v6","SARL_v6unkp55ed","5d55d562e04e1c0001f5e682","rl","","","img/black_2bandit_b2.png","74","","0","test","","","22","","","-3","circle","square","","0","1","","74","-3","-3","-3","-3","circle","1","0"
"null","134470","SARL_v6","SARL_v6unkp55ed","5d55d562e04e1c0001f5e682","feedback","","","<div class=""verylowPoints""> -3 </div>","null","","na","test","","","NaN","","","","","","","","1","","74","","","","","","1",""
"664.0999999046326","135138","SARL_v6","SARL_v6unkp55ed","5d55d562e04e1c0001f5e682","freq","","","img/orange_2bandit_b2.png","68","","70","test","0","","23","","","","circle","square","22","1","2","0.9090909090909091","","","","","","","",""
"null","135285","SARL_v6","SARL_v6unkp55ed","5d55d562e04e1c0001f5e682","freq_resp","","","img/orange_2bandit_b.png","68","img/orange_2bandit_b.png","70","test","","","","","","","","","","","2","","","","","","","","",""
"null","135445","SARL_v6","SARL_v6unkp55ed","5d55d562e04e1c0001f5e682","fixation","","","img/fixation.png","null","","","test","","","","","","","","","","","","","","","","","","","",""
"543.2999999523163","135992","SARL_v6","SARL_v6unkp55ed","5d55d562e04e1c0001f5e682","infreq","","","img/blue_2bandit_b2.png","68","","68","test","1","","24","","","","circle","square","23","2","2","0.9130434782608695","","","","","","","",""
"null","136261","SARL_v6","SARL_v6unkp55ed","5d55d562e04e1c0001f5e682","infreq_resp","","","img/blue_2bandit_b.png","68","img/blue_2bandit_b.png","68","test","","","","","","","","","","","2","","","","","","","","",""
"null","136421","SARL_v6","SARL_v6unkp55ed","5d55d562e04e1c0001f5e682","fixation","","","img/fixation.png","null","","","test","","","","","","","","","","","","","","","","","","","",""
"547.7999999523163","136973","SARL_v6","SARL_v6unkp55ed","5d55d562e04e1c0001f5e682","freq","","","img/orange_2bandit_b2.png","70","","70","test","1","","25","","","","circle","square","24","3","2","0.9166666666666666","","","","","","","",""
"null","137240","SARL_v6","SARL_v6unkp55ed","5d55d562e04e1c0001f5e682","freq_resp","","","img/orange_2bandit_b.png","70","img/orange_2bandit_b.png","70","test","","","","","","","","","","","2","","","","","","","","",""
"null","137404","SARL_v6","SARL_v6unkp55ed","5d55d562e04e1c0001f5e682","fixation","","","img/fixation.png","null","","","test","","","","","","","","","","","","","","","","","","","",""
"501.19999980926514","137909","SARL_v6","SARL_v6unkp55ed","5d55d562e04e1c0001f5e682","infreq","","","img/blue_2bandit_b2.png","68","","68","test","1","","26","","","","circle","square","25","4","2","0.92","","","","","","","",""
"null","138217","SARL_v6","SARL_v6unkp55ed","5d55d562e04e1c0001f5e682","infreq_resp","","","img/blue_2bandit_b.png","68","img/blue_2bandit_b.png","68","test","","","","","","","","","","","2","","","","","","","","",""
"null","138377","SARL_v6","SARL_v6unkp55ed","5d55d562e04e1c0001f5e682","fixation","","","img/fixation.png","null","","","test","","","","","","","","","","","","","","","","","","","",""
"488.10000014305115","138868","SARL_v6","SARL_v6unkp55ed","5d55d562e04e1c0001f5e682","freq","","","img/orange_2bandit_b2.png","70","","70","test","1","","27","","","","circle","square","26","5","2","0.9230769230769231","","","","","","","",""
"null","139189","SARL_v6","SARL_v6unkp55ed","5d55d562e04e1c0001f5e682","freq_resp","","","img/orange_2bandit_b.png","70","img/orange_2bandit_b.png","70","test","","","","","","","","","","","2","","","","","","","","",""
"null","139350","SARL_v6","SARL_v6unkp55ed","5d55d562e04e1c0001f5e682","fixation","","","img/fixation.png","null","","","test","","","","","","","","","","","","","","","","","","","",""
"502.2999999523163","139856","SARL_v6","SARL_v6unkp55ed","5d55d562e04e1c0001f5e682","freq","","","img/orange_2bandit_b2.png","70","","70","test","1","","28","","","","circle","square","27","6","2","0.9259259259259259","","","","","","","",""
"null","140169","SARL_v6","SARL_v6unkp55ed","5d55d562e04e1c0001f5e682","freq_resp","","","img/orange_2bandit_b.png","70","img/orange_2bandit_b.png","70","test","","","","","","","","","","","2","","","","","","","","",""
"null","140328","SARL_v6","SARL_v6unkp55ed","5d55d562e04e1c0001f5e682","fixation","","","img/fixation.png","null","","","test","","","","","","","","","","","","","","","","","","","",""
"456","140788","SARL_v6","SARL_v6unkp55ed","5d55d562e04e1c0001f5e682","freq","","","img/orange_2bandit_b2.png","70","","70","test","1","","29","","","","circle","square","28","7","2","0.9285714285714286","","","","","","","",""
"null","141142","SARL_v6","SARL_v6unkp55ed","5d55d562e04e1c0001f5e682","freq_resp","","","img/orange_2bandit_b.png","70","img/orange_2bandit_b.png","70","test","","","","","","","","","","","2","","","","","","","","",""
"null","141305","SARL_v6","SARL_v6unkp55ed","5d55d562e04e1c0001f5e682","fixation","","","img/fixation.png","null","","","test","","","","","","","","","","","","","","","","","","","",""
"431.60000014305115","141741","SARL_v6","SARL_v6unkp55ed","5d55d562e04e1c0001f5e682","freq","","","img/orange_2bandit_b2.png","70","","70","test","1","","30","","","","circle","square","29","8","2","0.9310344827586207","","","","","","","",""
"null","142121","SARL_v6","SARL_v6unkp55ed","5d55d562e04e1c0001f5e682","freq_resp","","","img/orange_2bandit_b.png","70","img/orange_2bandit_b.png","70","test","","","","","","","","","","","2","","","","","","","","",""
"null","142281","SARL_v6","SARL_v6unkp55ed","5d55d562e04e1c0001f5e682","fixation","","","img/fixation.png","null","","","test","","","","","","","","","","","","","","","","","","","",""
"388.7000000476837","142673","SARL_v6","SARL_v6unkp55ed","5d55d562e04e1c0001f5e682","freq","","","img/orange_2bandit_b2.png","70","","70","test","1","","31","","","","circle","square","30","9","2","0.9333333333333333","","","","","","","",""
"null","143094","SARL_v6","SARL_v6unkp55ed","5d55d562e04e1c0001f5e682","freq_resp","","","img/orange_2bandit_b.png","70","img/orange_2bandit_b.png","70","test","","","","","","","","","","","2","","","","","","","","",""
"null","143252","SARL_v6","SARL_v6unkp55ed","5d55d562e04e1c0001f5e682","fixation","","","img/fixation.png","null","","","test","","","","","","","","","","","","","","","","","","","",""
"443.7999999523163","143700","SARL_v6","SARL_v6unkp55ed","5d55d562e04e1c0001f5e682","freq","","","img/orange_2bandit_b2.png","70","","70","test","1","","32","","","","circle","square","31","10","2","0.9354838709677419","","","","","","","",""
"null","144065","SARL_v6","SARL_v6unkp55ed","5d55d562e04e1c0001f5e682","freq_resp","","","img/orange_2bandit_b.png","70","img/orange_2bandit_b.png","70","test","","","","","","","","","","","2","","","","","","","","",""
"null","144223","SARL_v6","SARL_v6unkp55ed","5d55d562e04e1c0001f5e682","fixation","","","img/fixation.png","null","","","test","","","","","","","","","","","","","","","","","","","",""
"404.2000000476837","144631","SARL_v6","SARL_v6unkp55ed","5d55d562e04e1c0001f5e682","freq","","","img/orange_2bandit_b2.png","70","","70","test","1","","33","","","","circle","square","32","11","2","0.9375","","","","","","","",""
"null","145041","SARL_v6","SARL_v6unkp55ed","5d55d562e04e1c0001f5e682","freq_resp","","","img/orange_2bandit_b.png","70","img/orange_2bandit_b.png","70","test","","","","","","","","","","","2","","","","","","","","",""
"null","145197","SARL_v6","SARL_v6unkp55ed","5d55d562e04e1c0001f5e682","fixation","","","img/fixation.png","null","","","test","","","","","","","","","","","","","","","","","","","",""
"449.7999999523163","145651","SARL_v6","SARL_v6unkp55ed","5d55d562e04e1c0001f5e682","freq","","","img/orange_2bandit_b2.png","70","","70","test","1","","34","","","","circle","square","33","12","2","0.9393939393939394","","","","","","","",""
"null","146017","SARL_v6","SARL_v6unkp55ed","5d55d562e04e1c0001f5e682","freq_resp","","","img/orange_2bandit_b.png","70","img/orange_2bandit_b.png","70","test","","","","","","","","","","","2","","","","","","","","",""
"null","146175","SARL_v6","SARL_v6unkp55ed","5d55d562e04e1c0001f5e682","fixation","","","img/fixation.png","null","","","test","","","","","","","","","","","","","","","","","","","",""
"489","146668","SARL_v6","SARL_v6unkp55ed","5d55d562e04e1c0001f5e682","freq","","","img/orange_2bandit_b2.png","70","","70","test","1","","35","","","","circle","square","34","13","2","0.9411764705882353","","","","","","","",""
"null","146991","SARL_v6","SARL_v6unkp55ed","5d55d562e04e1c0001f5e682","freq_resp","","","img/orange_2bandit_b.png","70","img/orange_2bandit_b.png","70","test","","","","","","","","","","","2","","","","","","","","",""
"null","147152","SARL_v6","SARL_v6unkp55ed","5d55d562e04e1c0001f5e682","fixation","","","img/fixation.png","null","","","test","","","","","","","","","","","","","","","","","","","",""
"680.3999998569489","147835","SARL_v6","SARL_v6unkp55ed","5d55d562e04e1c0001f5e682","freq","","","img/orange_2bandit_b2.png","70","","70","test","1","","36","","","","circle","square","35","14","2","0.9428571428571428","","","","","","","",""
"null","147969","SARL_v6","SARL_v6unkp55ed","5d55d562e04e1c0001f5e682","freq_resp","","","img/orange_2bandit_b.png","70","img/orange_2bandit_b.png","70","test","","","","","","","","","","","2","","","","","","","","",""
"null","148129","SARL_v6","SARL_v6unkp55ed","5d55d562e04e1c0001f5e682","fixation","","","img/fixation.png","null","","","test","","","","","","","","","","","","","","","","","","","",""
"502","148635","SARL_v6","SARL_v6unkp55ed","5d55d562e04e1c0001f5e682","freq","","","img/orange_2bandit_b2.png","70","","70","test","1","","37","","","","circle","square","36","15","2","0.9444444444444444","","","","","","","",""
"null","148937","SARL_v6","SARL_v6unkp55ed","5d55d562e04e1c0001f5e682","freq_resp","","","img/orange_2bandit_b.png","70","img/orange_2bandit_b.png","70","test","","","","","","","","","","","2","","","","","","","","",""
"null","149095","SARL_v6","SARL_v6unkp55ed","5d55d562e04e1c0001f5e682","fixation","","","img/fixation.png","null","","","test","","","","","","","","","","","","","","","","","","","",""
"624.2999999523163","149723","SARL_v6","SARL_v6unkp55ed","5d55d562e04e1c0001f5e682","freq","","","img/orange_2bandit_b2.png","70","","70","test","1","","38","","","","circle","square","37","16","2","0.9459459459459459","","","","","","","",""
"null","149908","SARL_v6","SARL_v6unkp55ed","5d55d562e04e1c0001f5e682","freq_resp","","","img/orange_2bandit_b.png","70","img/orange_2bandit_b.png","70","test","","","","","","","","","","","2","","","","","","","","",""
"null","150074","SARL_v6","SARL_v6unkp55ed","5d55d562e04e1c0001f5e682","fixation","","","img/fixation.png","null","","","test","","","","","","","","","","","","","","","","","","","",""
"553.2000000476837","150630","SARL_v6","SARL_v6unkp55ed","5d55d562e04e1c0001f5e682","freq","","","img/orange_2bandit_b2.png","70","","70","test","1","","39","","","","circle","square","38","17","2","0.9473684210526315","","","","","","","",""
"null","150883","SARL_v6","SARL_v6unkp55ed","5d55d562e04e1c0001f5e682","freq_resp","","","img/orange_2bandit_b.png","70","img/orange_2bandit_b.png","70","test","","","","","","","","","","","2","","","","","","","","",""
"null","151046","SARL_v6","SARL_v6unkp55ed","5d55d562e04e1c0001f5e682","fixation","","","img/fixation.png","null","","","test","","","","","","","","","","","","","","","","","","","",""
"665.2000000476837","151714","SARL_v6","SARL_v6unkp55ed","5d55d562e04e1c0001f5e682","freq","","","img/orange_2bandit_b2.png","70","","70","test","1","","40","","","","circle","square","39","18","2","0.9487179487179487","","","","","","","",""
"null","151852","SARL_v6","SARL_v6unkp55ed","5d55d562e04e1c0001f5e682","freq_resp","","","img/orange_2bandit_b.png","70","img/orange_2bandit_b.png","70","test","","","","","","","","","","","2","","","","","","","","",""
"null","152015","SARL_v6","SARL_v6unkp55ed","5d55d562e04e1c0001f5e682","fixation","","","img/fixation.png","null","","","test","","","","","","","","","","","","","","","","","","","",""
"512.5999999046326","152530","SARL_v6","SARL_v6unkp55ed","5d55d562e04e1c0001f5e682","freq","","","img/orange_2bandit_b2.png","70","","70","test","1","","41","","","","circle","square","40","19","2","0.95","","","","","","","",""
"null","152832","SARL_v6","SARL_v6unkp55ed","5d55d562e04e1c0001f5e682","freq_resp","","","img/orange_2bandit_b.png","70","img/orange_2bandit_b.png","70","test","","","","","","","","","","","2","","","","","","","","",""
"null","153002","SARL_v6","SARL_v6unkp55ed","5d55d562e04e1c0001f5e682","fixation","","","img/fixation.png","null","","","test","","","","","","","","","","","","","","","","","","","",""
"615","153620","SARL_v6","SARL_v6unkp55ed","5d55d562e04e1c0001f5e682","rl","","","img/black_2bandit_b2.png","74","","0","test","","","42","","","-5","circle","square","","0","2","","74","-5","-8","-5","-8","circle","2","0"
"null","154386","SARL_v6","SARL_v6unkp55ed","5d55d562e04e1c0001f5e682","feedback","","","<div class=""verylowPoints""> -5 </div>","null","","na","test","","","NaN","","","","","","","","2","","74","","","","","","2",""
"561.1999998092651","154951","SARL_v6","SARL_v6unkp55ed","5d55d562e04e1c0001f5e682","freq","","","img/orange_2bandit_b2.png","70","","70","test","1","","43","","","","circle","square","41","1","3","0.9512195121951219","","","","","","","",""
"null","155196","SARL_v6","SARL_v6unkp55ed","5d55d562e04e1c0001f5e682","freq_resp","","","img/orange_2bandit_b.png","70","img/orange_2bandit_b.png","70","test","","","","","","","","","","","3","","","","","","","","",""
"null","155357","SARL_v6","SARL_v6unkp55ed","5d55d562e04e1c0001f5e682","fixation","","","img/fixation.png","null","","","test","","","","","","","","","","","","","","","","","","","",""
"667.0999999046326","156028","SARL_v6","SARL_v6unkp55ed","5d55d562e04e1c0001f5e682","freq","","","img/orange_2bandit_b2.png","70","","70","test","1","","44","","","","circle","square","42","2","3","0.9523809523809523","","","","","","","",""
"null","156170","SARL_v6","SARL_v6unkp55ed","5d55d562e04e1c0001f5e682","freq_resp","","","img/orange_2bandit_b.png","70","img/orange_2bandit_b.png","70","test","","","","","","","","","","","3","","","","","","","","",""
"null","156330","SARL_v6","SARL_v6unkp55ed","5d55d562e04e1c0001f5e682","fixation","","","img/fixation.png","null","","","test","","","","","","","","","","","","","","","","","","","",""
"500","156834","SARL_v6","SARL_v6unkp55ed","5d55d562e04e1c0001f5e682","freq","","","img/orange_2bandit_b2.png","70","","70","test","1","","45","","","","circle","square","43","3","3","0.9534883720930233","","","","","","","",""
"null","157143","SARL_v6","SARL_v6unkp55ed","5d55d562e04e1c0001f5e682","freq_resp","","","img/orange_2bandit_b.png","70","img/orange_2bandit_b.png","70","test","","","","","","","","","","","3","","","","","","","","",""
"null","157302","SARL_v6","SARL_v6unkp55ed","5d55d562e04e1c0001f5e682","fixation","","","img/fixation.png","null","","","test","","","","","","","","","","","","","","","","","","","",""
"480.2000000476837","157786","SARL_v6","SARL_v6unkp55ed","5d55d562e04e1c0001f5e682","freq","","","img/orange_2bandit_b2.png","70","","70","test","1","","46","","","","circle","square","44","4","3","0.9545454545454546","","","","","","","",""
"null","158119","SARL_v6","SARL_v6unkp55ed","5d55d562e04e1c0001f5e682","freq_resp","","","img/orange_2bandit_b.png","70","img/orange_2bandit_b.png","70","test","","","","","","","","","","","3","","","","","","","","",""
"null","158276","SARL_v6","SARL_v6unkp55ed","5d55d562e04e1c0001f5e682","fixation","","","img/fixation.png","null","","","test","","","","","","","","","","","","","","","","","","","",""
"419.7999999523163","158699","SARL_v6","SARL_v6unkp55ed","5d55d562e04e1c0001f5e682","freq","","","img/orange_2bandit_b2.png","70","","70","test","1","","47","","","","circle","square","45","5","3","0.9555555555555556","","","","","","","",""
"null","159090","SARL_v6","SARL_v6unkp55ed","5d55d562e04e1c0001f5e682","freq_resp","","","img/orange_2bandit_b.png","70","img/orange_2bandit_b.png","70","test","","","","","","","","","","","3","","","","","","","","",""
"null","159246","SARL_v6","SARL_v6unkp55ed","5d55d562e04e1c0001f5e682","fixation","","","img/fixation.png","null","","","test","","","","","","","","","","","","","","","","","","","",""
"400.80000019073486","159651","SARL_v6","SARL_v6unkp55ed","5d55d562e04e1c0001f5e682","freq","","","img/orange_2bandit_b2.png","70","","70","test","1","","48","","","","circle","square","46","6","3","0.9565217391304348","","","","","","","",""
"null","160065","SARL_v6","SARL_v6unkp55ed","5d55d562e04e1c0001f5e682","freq_resp","","","img/orange_2bandit_b.png","70","img/orange_2bandit_b.png","70","test","","","","","","","","","","","3","","","","","","","","",""
"null","160226","SARL_v6","SARL_v6unkp55ed","5d55d562e04e1c0001f5e682","fixation","","","img/fixation.png","null","","","test","","","","","","","","","","","","","","","","","","","",""
"435.59999990463257","160666","SARL_v6","SARL_v6unkp55ed","5d55d562e04e1c0001f5e682","freq","","","img/orange_2bandit_b2.png","70","","70","test","1","","49","","","","circle","square","47","7","3","0.9574468085106383","","","","","","","",""
"null","161039","SARL_v6","SARL_v6unkp55ed","5d55d562e04e1c0001f5e682","freq_resp","","","img/orange_2bandit_b.png","70","img/orange_2bandit_b.png","70","test","","","","","","","","","","","3","","","","","","","","",""
"null","161198","SARL_v6","SARL_v6unkp55ed","5d55d562e04e1c0001f5e682","fixation","","","img/fixation.png","null","","","test","","","","","","","","","","","","","","","","","","","",""
"482.89999985694885","161685","SARL_v6","SARL_v6unkp55ed","5d55d562e04e1c0001f5e682","freq","","","img/orange_2bandit_b2.png","70","","70","test","1","","50","","","","circle","square","48","8","3","0.9583333333333334","","","","","","","",""
"null","162015","SARL_v6","SARL_v6unkp55ed","5d55d562e04e1c0001f5e682","freq_resp","","","img/orange_2bandit_b.png","70","img/orange_2bandit_b.png","70","test","","","","","","","","","","","3","","","","","","","","",""
"null","162174","SARL_v6","SARL_v6unkp55ed","5d55d562e04e1c0001f5e682","fixation","","","img/fixation.png","null","","","test","","","","","","","","","","","","","","","","","","","",""
"454.30000019073486","162632","SARL_v6","SARL_v6unkp55ed","5d55d562e04e1c0001f5e682","freq","","","img/orange_2bandit_b2.png","70","","70","test","1","","51","","","","circle","square","49","9","3","0.9591836734693877","","","","","","","",""
"null","162986","SARL_v6","SARL_v6unkp55ed","5d55d562e04e1c0001f5e682","freq_resp","","","img/orange_2bandit_b.png","70","img/orange_2bandit_b.png","70","test","","","","","","","","","","","3","","","","","","","","",""
"null","163142","SARL_v6","SARL_v6unkp55ed","5d55d562e04e1c0001f5e682","fixation","","","img/fixation.png","null","","","test","","","","","","","","","","","","","","","","","","","",""
"450.2999999523163","163594","SARL_v6","SARL_v6unkp55ed","5d55d562e04e1c0001f5e682","freq","","","img/orange_2bandit_b2.png","70","","70","test","1","","52","","","","circle","square","50","10","3","0.96","","","","","","","",""
"null","163952","SARL_v6","SARL_v6unkp55ed","5d55d562e04e1c0001f5e682","freq_resp","","","img/orange_2bandit_b.png","70","img/orange_2bandit_b.png","70","test","","","","","","","","","","","3","","","","","","","","",""
"null","164110","SARL_v6","SARL_v6unkp55ed","5d55d562e04e1c0001f5e682","fixation","","","img/fixation.png","null","","","test","","","","","","","","","","","","","","","","","","","",""
"456","164570","SARL_v6","SARL_v6unkp55ed","5d55d562e04e1c0001f5e682","freq","","","img/orange_2bandit_b2.png","70","","70","test","1","","53","","","","circle","square","51","11","3","0.9607843137254902","","","","","","","",""
"null","164923","SARL_v6","SARL_v6unkp55ed","5d55d562e04e1c0001f5e682","freq_resp","","","img/orange_2bandit_b.png","70","img/orange_2bandit_b.png","70","test","","","","","","","","","","","3","","","","","","","","",""
"null","165085","SARL_v6","SARL_v6unkp55ed","5d55d562e04e1c0001f5e682","fixation","","","img/fixation.png","null","","","test","","","","","","","","","","","","","","","","","","","",""
"479.7999999523163","165568","SARL_v6","SARL_v6unkp55ed","5d55d562e04e1c0001f5e682","freq","","","img/orange_2bandit_b2.png","70","","70","test","1","","54","","","","circle","square","52","12","3","0.9615384615384616","","","","","","","",""
"null","165896","SARL_v6","SARL_v6unkp55ed","5d55d562e04e1c0001f5e682","freq_resp","","","img/orange_2bandit_b.png","70","img/orange_2bandit_b.png","70","test","","","","","","","","","","","3","","","","","","","","",""
"null","166057","SARL_v6","SARL_v6unkp55ed","5d55d562e04e1c0001f5e682","fixation","","","img/fixation.png","null","","","test","","","","","","","","","","","","","","","","","","","",""
"449.09999990463257","166511","SARL_v6","SARL_v6unkp55ed","5d55d562e04e1c0001f5e682","freq","","","img/orange_2bandit_b2.png","70","","70","test","1","","55","","","","circle","square","53","13","3","0.9622641509433962","","","","","","","",""
"null","166870","SARL_v6","SARL_v6unkp55ed","5d55d562e04e1c0001f5e682","freq_resp","","","img/orange_2bandit_b.png","70","img/orange_2bandit_b.png","70","test","","","","","","","","","","","3","","","","","","","","",""
"null","167029","SARL_v6","SARL_v6unkp55ed","5d55d562e04e1c0001f5e682","fixation","","","img/fixation.png","null","","","test","","","","","","","","","","","","","","","","","","","",""
"443.7999999523163","167478","SARL_v6","SARL_v6unkp55ed","5d55d562e04e1c0001f5e682","freq","","","img/orange_2bandit_b2.png","70","","70","test","1","","56","","","","circle","square","54","14","3","0.9629629629629629","","","","","","","",""
"null","167845","SARL_v6","SARL_v6unkp55ed","5d55d562e04e1c0001f5e682","freq_resp","","","img/orange_2bandit_b.png","70","img/orange_2bandit_b.png","70","test","","","","","","","","","","","3","","","","","","","","",""
"null","168009","SARL_v6","SARL_v6unkp55ed","5d55d562e04e1c0001f5e682","fixation","","","img/fixation.png","null","","","test","","","","","","","","","","","","","","","","","","","",""
"511.2000000476837","168524","SARL_v6","SARL_v6unkp55ed","5d55d562e04e1c0001f5e682","freq","","","img/orange_2bandit_b2.png","70","","70","test","1","","57","","","","circle","square","55","15","3","0.9636363636363636","","","","","","","",""
"null","168817","SARL_v6","SARL_v6unkp55ed","5d55d562e04e1c0001f5e682","freq_resp","","","img/orange_2bandit_b.png","70","img/orange_2bandit_b.png","70","test","","","","","","","","","","","3","","","","","","","","",""
"null","168978","SARL_v6","SARL_v6unkp55ed","5d55d562e04e1c0001f5e682","fixation","","","img/fixation.png","null","","","test","","","","","","","","","","","","","","","","","","","",""
"592.2999999523163","169576","SARL_v6","SARL_v6unkp55ed","5d55d562e04e1c0001f5e682","freq","","","img/orange_2bandit_b2.png","70","","70","test","1","","58","","","","circle","square","56","16","3","0.9642857142857143","","","","","","","",""
"null","169794","SARL_v6","SARL_v6unkp55ed","5d55d562e04e1c0001f5e682","freq_resp","","","img/orange_2bandit_b.png","70","img/orange_2bandit_b.png","70","test","","","","","","","","","","","3","","","","","","","","",""
"null","169954","SARL_v6","SARL_v6unkp55ed","5d55d562e04e1c0001f5e682","fixation","","","img/fixation.png","null","","","test","","","","","","","","","","","","","","","","","","","",""
"621.0999999046326","170579","SARL_v6","SARL_v6unkp55ed","5d55d562e04e1c0001f5e682","freq","","","img/orange_2bandit_b2.png","70","","70","test","1","","59","","","","circle","square","57","17","3","0.9649122807017544","","","","","","","",""
"null","170765","SARL_v6","SARL_v6unkp55ed","5d55d562e04e1c0001f5e682","freq_resp","","","img/orange_2bandit_b.png","70","img/orange_2bandit_b.png","70","test","","","","","","","","","","","3","","","","","","","","",""
"null","170927","SARL_v6","SARL_v6unkp55ed","5d55d562e04e1c0001f5e682","fixation","","","img/fixation.png","null","","","test","","","","","","","","","","","","","","","","","","","",""
"675.3000001907349","171606","SARL_v6","SARL_v6unkp55ed","5d55d562e04e1c0001f5e682","infreq","","","img/blue_2bandit_b2.png","68","","68","test","1","","60","","","","circle","square","58","18","3","0.9655172413793104","","","","","","","",""
"null","171746","SARL_v6","SARL_v6unkp55ed","5d55d562e04e1c0001f5e682","infreq_resp","","","img/blue_2bandit_b.png","68","img/blue_2bandit_b.png","68","test","","","","","","","","","","","3","","","","","","","","",""
"null","171905","SARL_v6","SARL_v6unkp55ed","5d55d562e04e1c0001f5e682","fixation","","","img/fixation.png","null","","","test","","","","","","","","","","","","","","","","","","","",""
"506.80000019073486","172416","SARL_v6","SARL_v6unkp55ed","5d55d562e04e1c0001f5e682","freq","","","img/orange_2bandit_b2.png","70","","70","test","1","","61","","","","circle","square","59","19","3","0.9661016949152542","","","","","","","",""
"null","172721","SARL_v6","SARL_v6unkp55ed","5d55d562e04e1c0001f5e682","freq_resp","","","img/orange_2bandit_b.png","70","img/orange_2bandit_b.png","70","test","","","","","","","","","","","3","","","","","","","","",""
"null","172877","SARL_v6","SARL_v6unkp55ed","5d55d562e04e1c0001f5e682","fixation","","","img/fixation.png","null","","","test","","","","","","","","","","","","","","","","","","","",""
"497.7999999523163","173380","SARL_v6","SARL_v6unkp55ed","5d55d562e04e1c0001f5e682","infreq","","","img/blue_2bandit_b2.png","68","","68","test","1","","62","","","","circle","square","60","20","3","0.9666666666666667","","","","","","","",""
"null","173697","SARL_v6","SARL_v6unkp55ed","5d55d562e04e1c0001f5e682","infreq_resp","","","img/blue_2bandit_b.png","68","img/blue_2bandit_b.png","68","test","","","","","","","","","","","3","","","","","","","","",""
"null","173858","SARL_v6","SARL_v6unkp55ed","5d55d562e04e1c0001f5e682","fixation","","","img/fixation.png","null","","","test","","","","","","","","","","","","","","","","","","","",""
"450","174312","SARL_v6","SARL_v6unkp55ed","5d55d562e04e1c0001f5e682","freq","","","img/orange_2bandit_b2.png","70","","70","test","1","","63","","","","circle","square","61","21","3","0.9672131147540983","","","","","","","",""
"null","174674","SARL_v6","SARL_v6unkp55ed","5d55d562e04e1c0001f5e682","freq_resp","","","img/orange_2bandit_b.png","70","img/orange_2bandit_b.png","70","test","","","","","","","","","","","3","","","","","","","","",""
"null","174829","SARL_v6","SARL_v6unkp55ed","5d55d562e04e1c0001f5e682","fixation","","","img/fixation.png","null","","","test","","","","","","","","","","","","","","","","","","","",""
"442.40000009536743","175274","SARL_v6","SARL_v6unkp55ed","5d55d562e04e1c0001f5e682","freq","","","img/orange_2bandit_b2.png","70","","70","test","1","","64","","","","circle","square","62","22","3","0.967741935483871","","","","","","","",""
"null","175637","SARL_v6","SARL_v6unkp55ed","5d55d562e04e1c0001f5e682","freq_resp","","","img/orange_2bandit_b.png","70","img/orange_2bandit_b.png","70","test","","","","","","","","","","","3","","","","","","","","",""
"null","175801","SARL_v6","SARL_v6unkp55ed","5d55d562e04e1c0001f5e682","fixation","","","img/fixation.png","null","","","test","","","","","","","","","","","","","","","","","","","",""
"410.10000014305115","176215","SARL_v6","SARL_v6unkp55ed","5d55d562e04e1c0001f5e682","freq","","","img/orange_2bandit_b2.png","70","","70","test","1","","65","","","","circle","square","63","23","3","0.9682539682539683","","","","","","","",""
"null","176613","SARL_v6","SARL_v6unkp55ed","5d55d562e04e1c0001f5e682","freq_resp","","","img/orange_2bandit_b.png","70","img/orange_2bandit_b.png","70","test","","","","","","","","","","","3","","","","","","","","",""
"null","176777","SARL_v6","SARL_v6unkp55ed","5d55d562e04e1c0001f5e682","fixation","","","img/fixation.png","null","","","test","","","","","","","","","","","","","","","","","","","",""
"468.60000014305115","177250","SARL_v6","SARL_v6unkp55ed","5d55d562e04e1c0001f5e682","freq","","","img/orange_2bandit_b2.png","70","","70","test","1","","66","","","","circle","square","64","24","3","0.96875","","","","","","","",""
"null","177590","SARL_v6","SARL_v6unkp55ed","5d55d562e04e1c0001f5e682","freq_resp","","","img/orange_2bandit_b.png","70","img/orange_2bandit_b.png","70","test","","","","","","","","","","","3","","","","","","","","",""
"null","177753","SARL_v6","SARL_v6unkp55ed","5d55d562e04e1c0001f5e682","fixation","","","img/fixation.png","null","","","test","","","","","","","","","","","","","","","","","","","",""
"582.1000001430511","178339","SARL_v6","SARL_v6unkp55ed","5d55d562e04e1c0001f5e682","rl","","","img/black_2bandit_b2.png","74","","0","test","","","67","","","-4","circle","square","","0","3","","74","-4","-8","-4","-8","circle","3","0"
"null","179106","SARL_v6","SARL_v6unkp55ed","5d55d562e04e1c0001f5e682","feedback","","","<div class=""verylowPoints""> -4 </div>","null","","na","test","","","NaN","","","","","","","","3","","74","","","","","","3",""
"640.3000001907349","179749","SARL_v6","SARL_v6unkp55ed","5d55d562e04e1c0001f5e682","freq","","","img/orange_2bandit_b2.png","70","","70","test","1","","68","","","","circle","square","65","1","4","0.9692307692307692","","","","","","","",""
"null","179922","SARL_v6","SARL_v6unkp55ed","5d55d562e04e1c0001f5e682","freq_resp","","","img/orange_2bandit_b.png","70","img/orange_2bandit_b.png","70","test","","","","","","","","","","","4","","","","","","","","",""
"null","180077","SARL_v6","SARL_v6unkp55ed","5d55d562e04e1c0001f5e682","fixation","","","img/fixation.png","null","","","test","","","","","","","","","","","","","","","","","","","",""
"615.5999999046326","180697","SARL_v6","SARL_v6unkp55ed","5d55d562e04e1c0001f5e682","freq","","","img/orange_2bandit_b2.png","70","","70","test","1","","69","","","","circle","square","66","2","4","0.9696969696969697","","","","","","","",""
"null","180887","SARL_v6","SARL_v6unkp55ed","5d55d562e04e1c0001f5e682","freq_resp","","","img/orange_2bandit_b.png","70","img/orange_2bandit_b.png","70","test","","","","","","","","","","","4","","","","","","","","",""
"null","181050","SARL_v6","SARL_v6unkp55ed","5d55d562e04e1c0001f5e682","fixation","","","img/fixation.png","null","","","test","","","","","","","","","","","","","","","","","","","",""
"579.2999999523163","181632","SARL_v6","SARL_v6unkp55ed","5d55d562e04e1c0001f5e682","freq","","","img/orange_2bandit_b2.png","70","","70","test","1","","70","","","","circle","square","67","3","4","0.9701492537313433","","","","","","","",""
"null","181866","SARL_v6","SARL_v6unkp55ed","5d55d562e04e1c0001f5e682","freq_resp","","","img/orange_2bandit_b.png","70","img/orange_2bandit_b.png","70","test","","","","","","","","","","","4","","","","","","","","",""
"null","182026","SARL_v6","SARL_v6unkp55ed","5d55d562e04e1c0001f5e682","fixation","","","img/fixation.png","null","","","test","","","","","","","","","","","","","","","","","","","",""
"551.9000000953674","182582","SARL_v6","SARL_v6unkp55ed","5d55d562e04e1c0001f5e682","freq","","","img/orange_2bandit_b2.png","70","","70","test","1","","71","","","","circle","square","68","4","4","0.9705882352941176","","","","","","","",""
"null","182837","SARL_v6","SARL_v6unkp55ed","5d55d562e04e1c0001f5e682","freq_resp","","","img/orange_2bandit_b.png","70","img/orange_2bandit_b.png","70","test","","","","","","","","","","","4","","","","","","","","",""
"null","183001","SARL_v6","SARL_v6unkp55ed","5d55d562e04e1c0001f5e682","fixation","","","img/fixation.png","null","","","test","","","","","","","","","","","","","","","","","","","",""
"458.2999999523163","183464","SARL_v6","SARL_v6unkp55ed","5d55d562e04e1c0001f5e682","freq","","","img/orange_2bandit_b2.png","70","","70","test","1","","72","","","","circle","square","69","5","4","0.9710144927536232","","","","","","","",""
"null","183816","SARL_v6","SARL_v6unkp55ed","5d55d562e04e1c0001f5e682","freq_resp","","","img/orange_2bandit_b.png","70","img/orange_2bandit_b.png","70","test","","","","","","","","","","","4","","","","","","","","",""
"null","183975","SARL_v6","SARL_v6unkp55ed","5d55d562e04e1c0001f5e682","fixation","","","img/fixation.png","null","","","test","","","","","","","","","","","","","","","","","","","",""
"460.80000019073486","184441","SARL_v6","SARL_v6unkp55ed","5d55d562e04e1c0001f5e682","freq","","","img/orange_2bandit_b2.png","70","","70","test","1","","73","","","","circle","square","70","6","4","0.9714285714285714","","","","","","","",""
"null","184791","SARL_v6","SARL_v6unkp55ed","5d55d562e04e1c0001f5e682","freq_resp","","","img/orange_2bandit_b.png","70","img/orange_2bandit_b.png","70","test","","","","","","","","","","","4","","","","","","","","",""
"null","184944","SARL_v6","SARL_v6unkp55ed","5d55d562e04e1c0001f5e682","fixation","","","img/fixation.png","null","","","test","","","","","","","","","","","","","","","","","","","",""
"495.60000014305115","185444","SARL_v6","SARL_v6unkp55ed","5d55d562e04e1c0001f5e682","infreq","","","img/blue_2bandit_b2.png","68","","68","test","1","","74","","","","circle","square","71","7","4","0.971830985915493","","","","","","","",""
"null","185757","SARL_v6","SARL_v6unkp55ed","5d55d562e04e1c0001f5e682","infreq_resp","","","img/blue_2bandit_b.png","68","img/blue_2bandit_b.png","68","test","","","","","","","","","","","4","","","","","","","","",""
"null","185918","SARL_v6","SARL_v6unkp55ed","5d55d562e04e1c0001f5e682","fixation","","","img/fixation.png","null","","","test","","","","","","","","","","","","","","","","","","","",""
"438.2000000476837","186360","SARL_v6","SARL_v6unkp55ed","5d55d562e04e1c0001f5e682","freq","","","img/orange_2bandit_b2.png","70","","70","test","1","","75","","","","circle","square","72","8","4","0.9722222222222222","","","","","","","",""
"null","186738","SARL_v6","SARL_v6unkp55ed","5d55d562e04e1c0001f5e682","freq_resp","","","img/orange_2bandit_b.png","70","img/orange_2bandit_b.png","70","test","","","","","","","","","","","4","","","","","","","","",""
"null","186894","SARL_v6","SARL_v6unkp55ed","5d55d562e04e1c0001f5e682","fixation","","","img/fixation.png","null","","","test","","","","","","","","","","","","","","","","","","","",""
"395.7000000476837","187293","SARL_v6","SARL_v6unkp55ed","5d55d562e04e1c0001f5e682","freq","","","img/orange_2bandit_b2.png","70","","70","test","1","","76","","","","circle","square","73","9","4","0.9726027397260274","","","","","","","",""
"null","187702","SARL_v6","SARL_v6unkp55ed","5d55d562e04e1c0001f5e682","freq_resp","","","img/orange_2bandit_b.png","70","img/orange_2bandit_b.png","70","test","","","","","","","","","","","4","","","","","","","","",""
"null","187866","SARL_v6","SARL_v6unkp55ed","5d55d562e04e1c0001f5e682","fixation","","","img/fixation.png","null","","","test","","","","","","","","","","","","","","","","","","","",""
"385.60000014305115","188255","SARL_v6","SARL_v6unkp55ed","5d55d562e04e1c0001f5e682","freq","","","img/orange_2bandit_b2.png","70","","70","test","1","","77","","","","circle","square","74","10","4","0.972972972972973","","","","","","","",""
"null","188683","SARL_v6","SARL_v6unkp55ed","5d55d562e04e1c0001f5e682","freq_resp","","","img/orange_2bandit_b.png","70","img/orange_2bandit_b.png","70","test","","","","","","","","","","","4","","","","","","","","",""
"null","188842","SARL_v6","SARL_v6unkp55ed","5d55d562e04e1c0001f5e682","fixation","","","img/fixation.png","null","","","test","","","","","","","","","","","","","","","","","","","",""
"364.7000000476837","189211","SARL_v6","SARL_v6unkp55ed","5d55d562e04e1c0001f5e682","freq","","","img/orange_2bandit_b2.png","70","","70","test","1","","78","","","","circle","square","75","11","4","0.9733333333333334","","","","","","","",""
"null","189654","SARL_v6","SARL_v6unkp55ed","5d55d562e04e1c0001f5e682","freq_resp","","","img/orange_2bandit_b.png","70","img/orange_2bandit_b.png","70","test","","","","","","","","","","","4","","","","","","","","",""
"null","189816","SARL_v6","SARL_v6unkp55ed","5d55d562e04e1c0001f5e682","fixation","","","img/fixation.png","null","","","test","","","","","","","","","","","","","","","","","","","",""
"416.69999980926514","190237","SARL_v6","SARL_v6unkp55ed","5d55d562e04e1c0001f5e682","freq","","","img/orange_2bandit_b2.png","70","","70","test","1","","79","","","","circle","square","76","12","4","0.9736842105263158","","","","","","","",""
"null","190634","SARL_v6","SARL_v6unkp55ed","5d55d562e04e1c0001f5e682","freq_resp","","","img/orange_2bandit_b.png","70","img/orange_2bandit_b.png","70","test","","","","","","","","","","","4","","","","","","","","",""
"null","190794","SARL_v6","SARL_v6unkp55ed","5d55d562e04e1c0001f5e682","fixation","","","img/fixation.png","null","","","test","","","","","","","","","","","","","","","","","","","",""
"356.59999990463257","191154","SARL_v6","SARL_v6unkp55ed","5d55d562e04e1c0001f5e682","freq","","","img/orange_2bandit_b2.png","70","","70","test","1","","80","","","","circle","square","77","13","4","0.974025974025974","","","","","","","",""
"null","191610","SARL_v6","SARL_v6unkp55ed","5d55d562e04e1c0001f5e682","freq_resp","","","img/orange_2bandit_b.png","70","img/orange_2bandit_b.png","70","test","","","","","","","","","","","4","","","","","","","","",""
"null","191771","SARL_v6","SARL_v6unkp55ed","5d55d562e04e1c0001f5e682","fixation","","","img/fixation.png","null","","","test","","","","","","","","","","","","","","","","","","","",""
"434.2000000476837","192208","SARL_v6","SARL_v6unkp55ed","5d55d562e04e1c0001f5e682","freq","","","img/orange_2bandit_b2.png","70","","70","test","1","","81","","","","circle","square","78","14","4","0.9743589743589743","","","","","","","",""
"null","192587","SARL_v6","SARL_v6unkp55ed","5d55d562e04e1c0001f5e682","freq_resp","","","img/orange_2bandit_b.png","70","img/orange_2bandit_b.png","70","test","","","","","","","","","","","4","","","","","","","","",""
"null","192747","SARL_v6","SARL_v6unkp55ed","5d55d562e04e1c0001f5e682","fixation","","","img/fixation.png","null","","","test","","","","","","","","","","","","","","","","","","","",""
"364.30000019073486","193114","SARL_v6","SARL_v6unkp55ed","5d55d562e04e1c0001f5e682","freq","","","img/orange_2bandit_b2.png","70","","70","test","1","","82","","","","circle","square","79","15","4","0.9746835443037974","","","","","","","",""
"null","193559","SARL_v6","SARL_v6unkp55ed","5d55d562e04e1c0001f5e682","freq_resp","","","img/orange_2bandit_b.png","70","img/orange_2bandit_b.png","70","test","","","","","","","","","","","4","","","","","","","","",""
"null","193719","SARL_v6","SARL_v6unkp55ed","5d55d562e04e1c0001f5e682","fixation","","","img/fixation.png","null","","","test","","","","","","","","","","","","","","","","","","","",""
"417.10000014305115","194140","SARL_v6","SARL_v6unkp55ed","5d55d562e04e1c0001f5e682","freq","","","img/orange_2bandit_b2.png","70","","70","test","1","","83","","","","circle","square","80","16","4","0.975","","","","","","","",""
"null","194539","SARL_v6","SARL_v6unkp55ed","5d55d562e04e1c0001f5e682","freq_resp","","","img/orange_2bandit_b.png","70","img/orange_2bandit_b.png","70","test","","","","","","","","","","","4","","","","","","","","",""
"null","194693","SARL_v6","SARL_v6unkp55ed","5d55d562e04e1c0001f5e682","fixation","","","img/fixation.png","null","","","test","","","","","","","","","","","","","","","","","","","",""
"366.40000009536743","195063","SARL_v6","SARL_v6unkp55ed","5d55d562e04e1c0001f5e682","freq","","","img/orange_2bandit_b2.png","70","","70","test","1","","84","","","","circle","square","81","17","4","0.9753086419753086","","","","","","","",""
"null","195502","SARL_v6","SARL_v6unkp55ed","5d55d562e04e1c0001f5e682","freq_resp","","","img/orange_2bandit_b.png","70","img/orange_2bandit_b.png","70","test","","","","","","","","","","","4","","","","","","","","",""
"null","195674","SARL_v6","SARL_v6unkp55ed","5d55d562e04e1c0001f5e682","fixation","","","img/fixation.png","null","","","test","","","","","","","","","","","","","","","","","","","",""
"545.2000000476837","196223","SARL_v6","SARL_v6unkp55ed","5d55d562e04e1c0001f5e682","infreq","","","img/blue_2bandit_b2.png","68","","68","test","1","","85","","","","circle","square","82","18","4","0.975609756097561","","","","","","","",""
"null","196488","SARL_v6","SARL_v6unkp55ed","5d55d562e04e1c0001f5e682","infreq_resp","","","img/blue_2bandit_b.png","68","img/blue_2bandit_b.png","68","test","","","","","","","","","","","4","","","","","","","","",""
"null","196649","SARL_v6","SARL_v6unkp55ed","5d55d562e04e1c0001f5e682","fixation","","","img/fixation.png","null","","","test","","","","","","","","","","","","","","","","","","","",""
"444.59999990463257","197097","SARL_v6","SARL_v6unkp55ed","5d55d562e04e1c0001f5e682","freq","","","img/orange_2bandit_b2.png","70","","70","test","1","","86","","","","circle","square","83","19","4","0.9759036144578314","","","","","","","",""
"null","197465","SARL_v6","SARL_v6unkp55ed","5d55d562e04e1c0001f5e682","freq_resp","","","img/orange_2bandit_b.png","70","img/orange_2bandit_b.png","70","test","","","","","","","","","","","4","","","","","","","","",""
"null","197623","SARL_v6","SARL_v6unkp55ed","5d55d562e04e1c0001f5e682","fixation","","","img/fixation.png","null","","","test","","","","","","","","","","","","","","","","","","","",""
"646.2000000476837","198274","SARL_v6","SARL_v6unkp55ed","5d55d562e04e1c0001f5e682","rl","","","img/black_2bandit_b2.png","75","","0","test","","","87","","","-12","circle","square","","0","4","","75","0","-12","0","-12","square","4","0"
"null","199034","SARL_v6","SARL_v6unkp55ed","5d55d562e04e1c0001f5e682","feedback","","","<div class=""verylowPoints_sq""> -12 </div>","null","","na","test","","","NaN","","","","","","","","4","","75","","","","","","4",""
"706.8999998569489","199743","SARL_v6","SARL_v6unkp55ed","5d55d562e04e1c0001f5e682","freq","","","img/orange_2bandit_b2.png","70","","70","test","1","","88","","","","circle","square","84","1","5","0.9761904761904762","","","","","","","",""
"null","199846","SARL_v6","SARL_v6unkp55ed","5d55d562e04e1c0001f5e682","freq_resp","","","img/orange_2bandit_b.png","70","img/orange_2bandit_b.png","70","test","","","","","","","","","","","5","","","","","","","","",""
"null","200006","SARL_v6","SARL_v6unkp55ed","5d55d562e04e1c0001f5e682","fixation","","","img/fixation.png","null","","","test","","","","","","","","","","","","","","","","","","","",""
"515.4000000953674","200525","SARL_v6","SARL_v6unkp55ed","5d55d562e04e1c0001f5e682","freq","","","img/orange_2bandit_b2.png","70","","70","test","1","","89","","","","circle","square","85","2","5","0.9764705882352941","","","","","","","",""
"null","200813","SARL_v6","SARL_v6unkp55ed","5d55d562e04e1c0001f5e682","freq_resp","","","img/orange_2bandit_b.png","70","img/orange_2bandit_b.png","70","test","","","","","","","","","","","5","","","","","","","","",""
"null","200972","SARL_v6","SARL_v6unkp55ed","5d55d562e04e1c0001f5e682","fixation","","","img/fixation.png","null","","","test","","","","","","","","","","","","","","","","","","","",""
"435.40000009536743","201411","SARL_v6","SARL_v6unkp55ed","5d55d562e04e1c0001f5e682","freq","","","img/orange_2bandit_b2.png","70","","70","test","1","","90","","","","circle","square","86","3","5","0.9767441860465116","","","","","","","",""
"null","201782","SARL_v6","SARL_v6unkp55ed","5d55d562e04e1c0001f5e682","freq_resp","","","img/orange_2bandit_b.png","70","img/orange_2bandit_b.png","70","test","","","","","","","","","","","5","","","","","","","","",""
"null","201942","SARL_v6","SARL_v6unkp55ed","5d55d562e04e1c0001f5e682","fixation","","","img/fixation.png","null","","","test","","","","","","","","","","","","","","","","","","","",""
"591","202538","SARL_v6","SARL_v6unkp55ed","5d55d562e04e1c0001f5e682","infreq","","","img/blue_2bandit_b2.png","68","","68","test","1","","91","","","","circle","square","87","4","5","0.9770114942528736","","","","","","","",""
"null","202753","SARL_v6","SARL_v6unkp55ed","5d55d562e04e1c0001f5e682","infreq_resp","","","img/blue_2bandit_b.png","68","img/blue_2bandit_b.png","68","test","","","","","","","","","","","5","","","","","","","","",""
"null","202911","SARL_v6","SARL_v6unkp55ed","5d55d562e04e1c0001f5e682","fixation","","","img/fixation.png","null","","","test","","","","","","","","","","","","","","","","","","","",""
"437.60000014305115","203351","SARL_v6","SARL_v6unkp55ed","5d55d562e04e1c0001f5e682","freq","","","img/orange_2bandit_b2.png","70","","70","test","1","","92","","","","circle","square","88","5","5","0.9772727272727273","","","","","","","",""
"null","203720","SARL_v6","SARL_v6unkp55ed","5d55d562e04e1c0001f5e682","freq_resp","","","img/orange_2bandit_b.png","70","img/orange_2bandit_b.png","70","test","","","","","","","","","","","5","","","","","","","","",""
"null","203880","SARL_v6","SARL_v6unkp55ed","5d55d562e04e1c0001f5e682","fixation","","","img/fixation.png","null","","","test","","","","","","","","","","","","","","","","","","","",""
"508.7999999523163","204394","SARL_v6","SARL_v6unkp55ed","5d55d562e04e1c0001f5e682","infreq","","","img/blue_2bandit_b2.png","68","","68","test","1","","93","","","","circle","square","89","6","5","0.9775280898876404","","","","","","","",""
"null","204699","SARL_v6","SARL_v6unkp55ed","5d55d562e04e1c0001f5e682","infreq_resp","","","img/blue_2bandit_b.png","68","img/blue_2bandit_b.png","68","test","","","","","","","","","","","5","","","","","","","","",""
"null","204859","SARL_v6","SARL_v6unkp55ed","5d55d562e04e1c0001f5e682","fixation","","","img/fixation.png","null","","","test","","","","","","","","","","","","","","","","","","","",""
"408.59999990463257","205272","SARL_v6","SARL_v6unkp55ed","5d55d562e04e1c0001f5e682","freq","","","img/orange_2bandit_b2.png","70","","70","test","1","","94","","","","circle","square","90","7","5","0.9777777777777777","","","","","","","",""
"null","205672","SARL_v6","SARL_v6unkp55ed","5d55d562e04e1c0001f5e682","freq_resp","","","img/orange_2bandit_b.png","70","img/orange_2bandit_b.png","70","test","","","","","","","","","","","5","","","","","","","","",""
"null","205831","SARL_v6","SARL_v6unkp55ed","5d55d562e04e1c0001f5e682","fixation","","","img/fixation.png","null","","","test","","","","","","","","","","","","","","","","","","","",""
"384","206219","SARL_v6","SARL_v6unkp55ed","5d55d562e04e1c0001f5e682","freq","","","img/orange_2bandit_b2.png","70","","70","test","1","","95","","","","circle","square","91","8","5","0.978021978021978","","","","","","","",""
"null","206646","SARL_v6","SARL_v6unkp55ed","5d55d562e04e1c0001f5e682","freq_resp","","","img/orange_2bandit_b.png","70","img/orange_2bandit_b.png","70","test","","","","","","","","","","","5","","","","","","","","",""
"null","206811","SARL_v6","SARL_v6unkp55ed","5d55d562e04e1c0001f5e682","fixation","","","img/fixation.png","null","","","test","","","","","","","","","","","","","","","","","","","",""
"418.5","207232","SARL_v6","SARL_v6unkp55ed","5d55d562e04e1c0001f5e682","freq","","","img/orange_2bandit_b2.png","70","","70","test","1","","96","","","","circle","square","92","9","5","0.9782608695652174","","","","","","","",""
"null","207623","SARL_v6","SARL_v6unkp55ed","5d55d562e04e1c0001f5e682","freq_resp","","","img/orange_2bandit_b.png","70","img/orange_2bandit_b.png","70","test","","","","","","","","","","","5","","","","","","","","",""
"null","207783","SARL_v6","SARL_v6unkp55ed","5d55d562e04e1c0001f5e682","fixation","","","img/fixation.png","null","","","test","","","","","","","","","","","","","","","","","","","",""
"445.89999985694885","208233","SARL_v6","SARL_v6unkp55ed","5d55d562e04e1c0001f5e682","freq","","","img/orange_2bandit_b2.png","70","","70","test","1","","97","","","","circle","square","93","10","5","0.978494623655914","","","","","","","",""
"null","208599","SARL_v6","SARL_v6unkp55ed","5d55d562e04e1c0001f5e682","freq_resp","","","img/orange_2bandit_b.png","70","img/orange_2bandit_b.png","70","test","","","","","","","","","","","5","","","","","","","","",""
"null","208763","SARL_v6","SARL_v6unkp55ed","5d55d562e04e1c0001f5e682","fixation","","","img/fixation.png","null","","","test","","","","","","","","","","","","","","","","","","","",""
"384.7999999523163","209152","SARL_v6","SARL_v6unkp55ed","5d55d562e04e1c0001f5e682","freq","","","img/orange_2bandit_b2.png","70","","70","test","1","","98","","","","circle","square","94","11","5","0.9787234042553191","","","","","","","",""
"null","209575","SARL_v6","SARL_v6unkp55ed","5d55d562e04e1c0001f5e682","freq_resp","","","img/orange_2bandit_b.png","70","img/orange_2bandit_b.png","70","test","","","","","","","","","","","5","","","","","","","","",""
"null","209734","SARL_v6","SARL_v6unkp55ed","5d55d562e04e1c0001f5e682","fixation","","","img/fixation.png","null","","","test","","","","","","","","","","","","","","","","","","","",""
"452.69999980926514","210191","SARL_v6","SARL_v6unkp55ed","5d55d562e04e1c0001f5e682","freq","","","img/orange_2bandit_b2.png","70","","70","test","1","","99","","","","circle","square","95","12","5","0.9789473684210527","","","","","","","",""
"null","210555","SARL_v6","SARL_v6unkp55ed","5d55d562e04e1c0001f5e682","freq_resp","","","img/orange_2bandit_b.png","70","img/orange_2bandit_b.png","70","test","","","","","","","","","","","5","","","","","","","","",""
"null","210710","SARL_v6","SARL_v6unkp55ed","5d55d562e04e1c0001f5e682","fixation","","","img/fixation.png","null","","","test","","","","","","","","","","","","","","","","","","","",""
"402.2000000476837","211117","SARL_v6","SARL_v6unkp55ed","5d55d562e04e1c0001f5e682","freq","","","img/orange_2bandit_b2.png","70","","70","test","1","","100","","","","circle","square","96","13","5","0.9791666666666666","","","","","","","",""
"null","211526","SARL_v6","SARL_v6unkp55ed","5d55d562e04e1c0001f5e682","freq_resp","","","img/orange_2bandit_b.png","70","img/orange_2bandit_b.png","70","test","","","","","","","","","","","5","","","","","","","","",""
"null","211687","SARL_v6","SARL_v6unkp55ed","5d55d562e04e1c0001f5e682","fixation","","","img/fixation.png","null","","","test","","","","","","","","","","","","","","","","","","","",""
"360.10000014305115","212050","SARL_v6","SARL_v6unkp55ed","5d55d562e04e1c0001f5e682","freq","","","img/orange_2bandit_b2.png","70","","70","test","1","","101","","","","circle","square","97","14","5","0.979381443298969","","","","","","","",""
"null","212506","SARL_v6","SARL_v6unkp55ed","5d55d562e04e1c0001f5e682","freq_resp","","","img/orange_2bandit_b.png","70","img/orange_2bandit_b.png","70","test","","","","","","","","","","","5","","","","","","","","",""
"null","212667","SARL_v6","SARL_v6unkp55ed","5d55d562e04e1c0001f5e682","fixation","","","img/fixation.png","null","","","test","","","","","","","","","","","","","","","","","","","",""
"369.7999999523163","213040","SARL_v6","SARL_v6unkp55ed","5d55d562e04e1c0001f5e682","freq","","","img/orange_2bandit_b2.png","70","","70","test","1","","102","","","","circle","square","98","15","5","0.9795918367346939","","","","","","","",""
"null","213480","SARL_v6","SARL_v6unkp55ed","5d55d562e04e1c0001f5e682","freq_resp","","","img/orange_2bandit_b.png","70","img/orange_2bandit_b.png","70","test","","","","","","","","","","","5","","","","","","","","",""
"null","213641","SARL_v6","SARL_v6unkp55ed","5d55d562e04e1c0001f5e682","fixation","","","img/fixation.png","null","","","test","","","","","","","","","","","","","","","","","","","",""
"389.60000014305115","214034","SARL_v6","SARL_v6unkp55ed","5d55d562e04e1c0001f5e682","infreq","","","img/blue_2bandit_b2.png","68","","68","test","1","","103","","","","circle","square","99","16","5","0.9797979797979798","","","","","","","",""
"null","214454","SARL_v6","SARL_v6unkp55ed","5d55d562e04e1c0001f5e682","infreq_resp","","","img/blue_2bandit_b.png","68","img/blue_2bandit_b.png","68","test","","","","","","","","","","","5","","","","","","","","",""
"null","214619","SARL_v6","SARL_v6unkp55ed","5d55d562e04e1c0001f5e682","fixation","","","img/fixation.png","null","","","test","","","","","","","","","","","","","","","","","","","",""
"465","215087","SARL_v6","SARL_v6unkp55ed","5d55d562e04e1c0001f5e682","freq","","","img/orange_2bandit_b2.png","70","","70","test","1","","104","","","","circle","square","100","17","5","0.98","","","","","","","",""
"null","215432","SARL_v6","SARL_v6unkp55ed","5d55d562e04e1c0001f5e682","freq_resp","","","img/orange_2bandit_b.png","70","img/orange_2bandit_b.png","70","test","","","","","","","","","","","5","","","","","","","","",""
"null","215595","SARL_v6","SARL_v6unkp55ed","5d55d562e04e1c0001f5e682","fixation","","","img/fixation.png","null","","","test","","","","","","","","","","","","","","","","","","","",""
"388.59999990463257","215987","SARL_v6","SARL_v6unkp55ed","5d55d562e04e1c0001f5e682","freq","","","img/orange_2bandit_b2.png","70","","70","test","1","","105","","","","circle","square","101","18","5","0.9801980198019802","","","","","","","",""
"null","216411","SARL_v6","SARL_v6unkp55ed","5d55d562e04e1c0001f5e682","freq_resp","","","img/orange_2bandit_b.png","70","img/orange_2bandit_b.png","70","test","","","","","","","","","","","5","","","","","","","","",""
"null","216571","SARL_v6","SARL_v6unkp55ed","5d55d562e04e1c0001f5e682","fixation","","","img/fixation.png","null","","","test","","","","","","","","","","","","","","","","","","","",""
"395.5","216971","SARL_v6","SARL_v6unkp55ed","5d55d562e04e1c0001f5e682","freq","","","img/orange_2bandit_b2.png","70","","70","test","1","","106","","","","circle","square","102","19","5","0.9803921568627451","","","","","","","",""
"null","217384","SARL_v6","SARL_v6unkp55ed","5d55d562e04e1c0001f5e682","freq_resp","","","img/orange_2bandit_b.png","70","img/orange_2bandit_b.png","70","test","","","","","","","","","","","5","","","","","","","","",""
"null","217546","SARL_v6","SARL_v6unkp55ed","5d55d562e04e1c0001f5e682","fixation","","","img/fixation.png","null","","","test","","","","","","","","","","","","","","","","","","","",""
"384.2000000476837","217933","SARL_v6","SARL_v6unkp55ed","5d55d562e04e1c0001f5e682","freq","","","img/orange_2bandit_b2.png","70","","70","test","1","","107","","","","circle","square","103","20","5","0.9805825242718447","","","","","","","",""
"null","218361","SARL_v6","SARL_v6unkp55ed","5d55d562e04e1c0001f5e682","freq_resp","","","img/orange_2bandit_b.png","70","img/orange_2bandit_b.png","70","test","","","","","","","","","","","5","","","","","","","","",""
"null","218523","SARL_v6","SARL_v6unkp55ed","5d55d562e04e1c0001f5e682","fixation","","","img/fixation.png","null","","","test","","","","","","","","","","","","","","","","","","","",""
"369.39999985694885","218897","SARL_v6","SARL_v6unkp55ed","5d55d562e04e1c0001f5e682","freq","","","img/orange_2bandit_b2.png","70","","70","test","1","","108","","","","circle","square","104","21","5","0.9807692307692307","","","","","","","",""
"null","219340","SARL_v6","SARL_v6unkp55ed","5d55d562e04e1c0001f5e682","freq_resp","","","img/orange_2bandit_b.png","70","img/orange_2bandit_b.png","70","test","","","","","","","","","","","5","","","","","","","","",""
"null","219503","SARL_v6","SARL_v6unkp55ed","5d55d562e04e1c0001f5e682","fixation","","","img/fixation.png","null","","","test","","","","","","","","","","","","","","","","","","","",""
"330.7000000476837","219838","SARL_v6","SARL_v6unkp55ed","5d55d562e04e1c0001f5e682","freq","","","img/orange_2bandit_b2.png","70","","70","test","1","","109","","","","circle","square","105","22","5","0.9809523809523809","","","","","","","",""
"null","220319","SARL_v6","SARL_v6unkp55ed","5d55d562e04e1c0001f5e682","freq_resp","","","img/orange_2bandit_b.png","70","img/orange_2bandit_b.png","70","test","","","","","","","","","","","5","","","","","","","","",""
"null","220478","SARL_v6","SARL_v6unkp55ed","5d55d562e04e1c0001f5e682","fixation","","","img/fixation.png","null","","","test","","","","","","","","","","","","","","","","","","","",""
"430.5","220912","SARL_v6","SARL_v6unkp55ed","5d55d562e04e1c0001f5e682","freq","","","img/orange_2bandit_b2.png","70","","70","test","1","","110","","","","circle","square","106","23","5","0.9811320754716981","","","","","","","",""
"null","221287","SARL_v6","SARL_v6unkp55ed","5d55d562e04e1c0001f5e682","freq_resp","","","img/orange_2bandit_b.png","70","img/orange_2bandit_b.png","70","test","","","","","","","","","","","5","","","","","","","","",""
"null","221447","SARL_v6","SARL_v6unkp55ed","5d55d562e04e1c0001f5e682","fixation","","","img/fixation.png","null","","","test","","","","","","","","","","","","","","","","","","","",""
"354.59999990463257","221806","SARL_v6","SARL_v6unkp55ed","5d55d562e04e1c0001f5e682","freq","","","img/orange_2bandit_b2.png","70","","70","test","1","","111","","","","circle","square","107","24","5","0.9813084112149533","","","","","","","",""
"null","222267","SARL_v6","SARL_v6unkp55ed","5d55d562e04e1c0001f5e682","freq_resp","","","img/orange_2bandit_b.png","70","img/orange_2bandit_b.png","70","test","","","","","","","","","","","5","","","","","","","","",""
"null","222427","SARL_v6","SARL_v6unkp55ed","5d55d562e04e1c0001f5e682","fixation","","","img/fixation.png","null","","","test","","","","","","","","","","","","","","","","","","","",""
"373.09999990463257","222805","SARL_v6","SARL_v6unkp55ed","5d55d562e04e1c0001f5e682","freq","","","img/orange_2bandit_b2.png","70","","70","test","1","","112","","","","circle","square","108","25","5","0.9814814814814815","","","","","","","",""
"null","223239","SARL_v6","SARL_v6unkp55ed","5d55d562e04e1c0001f5e682","freq_resp","","","img/orange_2bandit_b.png","70","img/orange_2bandit_b.png","70","test","","","","","","","","","","","5","","","","","","","","",""
"null","223403","SARL_v6","SARL_v6unkp55ed","5d55d562e04e1c0001f5e682","fixation","","","img/fixation.png","null","","","test","","","","","","","","","","","","","","","","","","","",""
"623.9000000953674","224032","SARL_v6","SARL_v6unkp55ed","5d55d562e04e1c0001f5e682","rl","","","img/black_2bandit_b2.png","74","","0","test","","","113","","","4","circle","square","","0","5","","74","4","-7","4","-7","circle","5","0"
"null","224794","SARL_v6","SARL_v6unkp55ed","5d55d562e04e1c0001f5e682","feedback","","","<div class=""veryhighPoints""> 4 </div>","null","","na","test","","","NaN","","","","","","","","5","","74","","","","","","5",""
"566.3000001907349","225365","SARL_v6","SARL_v6unkp55ed","5d55d562e04e1c0001f5e682","freq","","","img/orange_2bandit_b2.png","70","","70","test","1","","114","","","","circle","square","109","1","6","0.981651376146789","","","","","","","",""
"null","225611","SARL_v6","SARL_v6unkp55ed","5d55d562e04e1c0001f5e682","freq_resp","","","img/orange_2bandit_b.png","70","img/orange_2bandit_b.png","70","test","","","","","","","","","","","6","","","","","","","","",""
"null","225771","SARL_v6","SARL_v6unkp55ed","5d55d562e04e1c0001f5e682","fixation","","","img/fixation.png","null","","","test","","","","","","","","","","","","","","","","","","","",""
"561.8999998569489","226337","SARL_v6","SARL_v6unkp55ed","5d55d562e04e1c0001f5e682","infreq","","","img/blue_2bandit_b2.png","68","","68","test","1","","115","","","","circle","square","110","2","6","0.9818181818181818","","","","","","","",""
"null","226587","SARL_v6","SARL_v6unkp55ed","5d55d562e04e1c0001f5e682","infreq_resp","","","img/blue_2bandit_b.png","68","img/blue_2bandit_b.png","68","test","","","","","","","","","","","6","","","","","","","","",""
"null","226748","SARL_v6","SARL_v6unkp55ed","5d55d562e04e1c0001f5e682","fixation","","","img/fixation.png","null","","","test","","","","","","","","","","","","","","","","","","","",""
"536.7000000476837","227288","SARL_v6","SARL_v6unkp55ed","5d55d562e04e1c0001f5e682","infreq","","","img/blue_2bandit_b2.png","68","","68","test","1","","116","","","","circle","square","111","3","6","0.9819819819819819","","","","","","","",""
"null","227561","SARL_v6","SARL_v6unkp55ed","5d55d562e04e1c0001f5e682","infreq_resp","","","img/blue_2bandit_b.png","68","img/blue_2bandit_b.png","68","test","","","","","","","","","","","6","","","","","","","","",""
"null","227718","SARL_v6","SARL_v6unkp55ed","5d55d562e04e1c0001f5e682","fixation","","","img/fixation.png","null","","","test","","","","","","","","","","","","","","","","","","","",""
"424.39999985694885","228145","SARL_v6","SARL_v6unkp55ed","5d55d562e04e1c0001f5e682","freq","","","img/orange_2bandit_b2.png","70","","70","test","1","","117","","","","circle","square","112","4","6","0.9821428571428571","","","","","","","",""
"null","228531","SARL_v6","SARL_v6unkp55ed","5d55d562e04e1c0001f5e682","freq_resp","","","img/orange_2bandit_b.png","70","img/orange_2bandit_b.png","70","test","","","","","","","","","","","6","","","","","","","","",""
"null","228691","SARL_v6","SARL_v6unkp55ed","5d55d562e04e1c0001f5e682","fixation","","","img/fixation.png","null","","","test","","","","","","","","","","","","","","","","","","","",""
"414.2000000476837","229109","SARL_v6","SARL_v6unkp55ed","5d55d562e04e1c0001f5e682","freq","","","img/orange_2bandit_b2.png","70","","70","test","1","","118","","","","circle","square","113","5","6","0.9823008849557522","","","","","","","",""
"null","229507","SARL_v6","SARL_v6unkp55ed","5d55d562e04e1c0001f5e682","freq_resp","","","img/orange_2bandit_b.png","70","img/orange_2bandit_b.png","70","test","","","","","","","","","","","6","","","","","","","","",""
"null","229664","SARL_v6","SARL_v6unkp55ed","5d55d562e04e1c0001f5e682","fixation","","","img/fixation.png","null","","","test","","","","","","","","","","","","","","","","","","","",""
"447.7000000476837","230116","SARL_v6","SARL_v6unkp55ed","5d55d562e04e1c0001f5e682","freq","","","img/orange_2bandit_b2.png","70","","70","test","1","","119","","","","circle","square","114","6","6","0.9824561403508771","","","","","","","",""
"null","230483","SARL_v6","SARL_v6unkp55ed","5d55d562e04e1c0001f5e682","freq_resp","","","img/orange_2bandit_b.png","70","img/orange_2bandit_b.png","70","test","","","","","","","","","","","6","","","","","","","","",""
"null","230641","SARL_v6","SARL_v6unkp55ed","5d55d562e04e1c0001f5e682","fixation","","","img/fixation.png","null","","","test","","","","","","","","","","","","","","","","","","","",""
"373.10000014305115","231019","SARL_v6","SARL_v6unkp55ed","5d55d562e04e1c0001f5e682","freq","","","img/orange_2bandit_b2.png","70","","70","test","1","","120","","","","circle","square","115","7","6","0.9826086956521739","","","","","","","",""
"null","231454","SARL_v6","SARL_v6unkp55ed","5d55d562e04e1c0001f5e682","freq_resp","","","img/orange_2bandit_b.png","70","img/orange_2bandit_b.png","70","test","","","","","","","","","","","6","","","","","","","","",""
"null","231616","SARL_v6","SARL_v6unkp55ed","5d55d562e04e1c0001f5e682","fixation","","","img/fixation.png","null","","","test","","","","","","","","","","","","","","","","","","","",""
"416.40000009536743","232035","SARL_v6","SARL_v6unkp55ed","5d55d562e04e1c0001f5e682","freq","","","img/orange_2bandit_b2.png","70","","70","test","1","","121","","","","circle","square","116","8","6","0.9827586206896551","","","","","","","",""
"null","232427","SARL_v6","SARL_v6unkp55ed","5d55d562e04e1c0001f5e682","freq_resp","","","img/orange_2bandit_b.png","70","img/orange_2bandit_b.png","70","test","","","","","","","","","","","6","","","","","","","","",""
"null","232585","SARL_v6","SARL_v6unkp55ed","5d55d562e04e1c0001f5e682","fixation","","","img/fixation.png","null","","","test","","","","","","","","","","","","","","","","","","","",""
"453.90000009536743","233042","SARL_v6","SARL_v6unkp55ed","5d55d562e04e1c0001f5e682","freq","","","img/orange_2bandit_b2.png","70","","70","test","1","","122","","","","circle","square","117","9","6","0.9829059829059829","","","","","","","",""
"null","233398","SARL_v6","SARL_v6unkp55ed","5d55d562e04e1c0001f5e682","freq_resp","","","img/orange_2bandit_b.png","70","img/orange_2bandit_b.png","70","test","","","","","","","","","","","6","","","","","","","","",""
"null","233562","SARL_v6","SARL_v6unkp55ed","5d55d562e04e1c0001f5e682","fixation","","","img/fixation.png","null","","","test","","","","","","","","","","","","","","","","","","","",""
"459.5","234026","SARL_v6","SARL_v6unkp55ed","5d55d562e04e1c0001f5e682","freq","","","img/orange_2bandit_b2.png","70","","70","test","1","","123","","","","circle","square","118","10","6","0.9830508474576272","","","","","","","",""
"null","234376","SARL_v6","SARL_v6unkp55ed","5d55d562e04e1c0001f5e682","freq_resp","","","img/orange_2bandit_b.png","70","img/orange_2bandit_b.png","70","test","","","","","","","","","","","6","","","","","","","","",""
"null","234540","SARL_v6","SARL_v6unkp55ed","5d55d562e04e1c0001f5e682","fixation","","","img/fixation.png","null","","","test","","","","","","","","","","","","","","","","","","","",""
"441.39999985694885","234986","SARL_v6","SARL_v6unkp55ed","5d55d562e04e1c0001f5e682","freq","","","img/orange_2bandit_b2.png","70","","70","test","1","","124","","","","circle","square","119","11","6","0.9831932773109243","","","","","","","",""
"null","235357","SARL_v6","SARL_v6unkp55ed","5d55d562e04e1c0001f5e682","freq_resp","","","img/orange_2bandit_b.png","70","img/orange_2bandit_b.png","70","test","","","","","","","","","","","6","","","","","","","","",""
"null","235522","SARL_v6","SARL_v6unkp55ed","5d55d562e04e1c0001f5e682","fixation","","","img/fixation.png","null","","","test","","","","","","","","","","","","","","","","","","","",""
"451.39999985694885","235978","SARL_v6","SARL_v6unkp55ed","5d55d562e04e1c0001f5e682","freq","","","img/orange_2bandit_b2.png","70","","70","test","1","","125","","","","circle","square","120","12","6","0.9833333333333333","","","","","","","",""
"null","236339","SARL_v6","SARL_v6unkp55ed","5d55d562e04e1c0001f5e682","freq_resp","","","img/orange_2bandit_b.png","70","img/orange_2bandit_b.png","70","test","","","","","","","","","","","6","","","","","","","","",""
"null","236497","SARL_v6","SARL_v6unkp55ed","5d55d562e04e1c0001f5e682","fixation","","","img/fixation.png","null","","","test","","","","","","","","","","","","","","","","","","","",""
"383","236885","SARL_v6","SARL_v6unkp55ed","5d55d562e04e1c0001f5e682","freq","","","img/orange_2bandit_b2.png","70","","70","test","1","","126","","","","circle","square","121","13","6","0.9834710743801653","","","","","","","",""
"null","237317","SARL_v6","SARL_v6unkp55ed","5d55d562e04e1c0001f5e682","freq_resp","","","img/orange_2bandit_b.png","70","img/orange_2bandit_b.png","70","test","","","","","","","","","","","6","","","","","","","","",""
"null","237481","SARL_v6","SARL_v6unkp55ed","5d55d562e04e1c0001f5e682","fixation","","","img/fixation.png","null","","","test","","","","","","","","","","","","","","","","","","","",""
"314.5","237798","SARL_v6","SARL_v6unkp55ed","5d55d562e04e1c0001f5e682","freq","","","img/orange_2bandit_b2.png","70","","70","test","1","","127","","","","circle","square","122","14","6","0.9836065573770492","","","","","","","",""
"null","238300","SARL_v6","SARL_v6unkp55ed","5d55d562e04e1c0001f5e682","freq_resp","","","img/orange_2bandit_b.png","70","img/orange_2bandit_b.png","70","test","","","","","","","","","","","6","","","","","","","","",""
"null","238456","SARL_v6","SARL_v6unkp55ed","5d55d562e04e1c0001f5e682","fixation","","","img/fixation.png","null","","","test","","","","","","","","","","","","","","","","","","","",""
"320.40000009536743","238780","SARL_v6","SARL_v6unkp55ed","5d55d562e04e1c0001f5e682","freq","","","img/orange_2bandit_b2.png","70","","70","test","1","","128","","","","circle","square","123","15","6","0.983739837398374","","","","","","","",""
"null","239270","SARL_v6","SARL_v6unkp55ed","5d55d562e04e1c0001f5e682","freq_resp","","","img/orange_2bandit_b.png","70","img/orange_2bandit_b.png","70","test","","","","","","","","","","","6","","","","","","","","",""
"null","239433","SARL_v6","SARL_v6unkp55ed","5d55d562e04e1c0001f5e682","fixation","","","img/fixation.png","null","","","test","","","","","","","","","","","","","","","","","","","",""
"387.5","239824","SARL_v6","SARL_v6unkp55ed","5d55d562e04e1c0001f5e682","freq","","","img/orange_2bandit_b2.png","70","","70","test","1","","129","","","","circle","square","124","16","6","0.9838709677419355","","","","","","","",""
