"rt","time_elapsed","expId","subject","prolificID","trialType","rlType","attType","stimulus","key_press","stim","corrresp","phase","corr","pracCounter","trialNum","rewardOne","rewardTwo","reward","bandOne","bandTwo","attentionNum","attentionRunNum","blockNum","performance","bandChosen","circleVal","squareVal","bandOneVal","bandTwoVal","shapeChosen","rlNum","badFlag"
"41551.40000009537","41558","SARL_v6","SARL_v66ud7yczf","63e5a6690eeedc20da056717","","","","","","","","","","","","","","","","","","","","","","","","","","","",""
"","50591","SARL_v6","SARL_v66ud7yczf","63e5a6690eeedc20da056717","fullscreen","fullscreen","fullscreen","","","","","","","","","","","","","","","","","","","","","","","","",""
"62939.40000009537","113537","SARL_v6","SARL_v66ud7yczf","63e5a6690eeedc20da056717","","","","","","","","","","","","","","","","","","","","","","","","","","","",""
"656.5","114200","SARL_v6","SARL_v66ud7yczf","63e5a6690eeedc20da056717","freqPrac","","","img/blue_2bandit_a2.png","70","img/blue_2bandit_a2.png","70","prac","1","0","","","","","","","","","","","","","","","","","",""
"656.5","114348","SARL_v6","SARL_v66ud7yczf","63e5a6690eeedc20da056717","freqPrac_resp","","","img/blue_2bandit_a.png","70","img/blue_2bandit_a.png","70","prac","","","","","","","","","","","","","","","","","","","",""
"null","114514","SARL_v6","SARL_v66ud7yczf","63e5a6690eeedc20da056717","fixation","","","img/fixation.png","null","","","prac","","","","","","","","","","","","","","","","","","","",""
"442.7999999523163","114960","SARL_v6","SARL_v66ud7yczf","63e5a6690eeedc20da056717","infreqPrac","","","img/orange_2bandit_a2.png","68","img/orange_2bandit_a2.png","68","prac","1","0","","","","","","","","","","","","","","","","","",""
"442.7999999523163","115329","SARL_v6","SARL_v66ud7yczf","63e5a6690eeedc20da056717","infreqPrac_resp","","","img/orange_2bandit_a.png","68","img/orange_2bandit_a.png","68","prac","","","","","","","","","","","","","","","","","","","",""
"null","115489","SARL_v6","SARL_v66ud7yczf","63e5a6690eeedc20da056717","fixation","","","img/fixation.png","null","","","prac","","","","","","","","","","","","","","","","","","","",""
"669.8999998569489","116162","SARL_v6","SARL_v66ud7yczf","63e5a6690eeedc20da056717","freqPrac","","","img/blue_2bandit_a2.png","70","img/blue_2bandit_a2.png","70","prac","1","0","","","","","","","","","","","","","","","","","",""
"669.8999998569489","116303","SARL_v6","SARL_v66ud7yczf","63e5a6690eeedc20da056717","freqPrac_resp","","","img/blue_2bandit_a.png","70","img/blue_2bandit_a.png","70","prac","","","","","","","","","","","","","","","","","","","",""
"null","116471","SARL_v6","SARL_v66ud7yczf","63e5a6690eeedc20da056717","fixation","","","img/fixation.png","null","","","prac","","","","","","","","","","","","","","","","","","","",""
"540.4000000953674","117014","SARL_v6","SARL_v66ud7yczf","63e5a6690eeedc20da056717","infreqPrac","","","img/orange_2bandit_a2.png","68","img/orange_2bandit_a2.png","68","prac","1","0","","","","","","","","","","","","","","","","","",""
"540.4000000953674","117287","SARL_v6","SARL_v66ud7yczf","63e5a6690eeedc20da056717","infreqPrac_resp","","","img/orange_2bandit_a.png","68","img/orange_2bandit_a.png","68","prac","","","","","","","","","","","","","","","","","","","",""
"null","117447","SARL_v6","SARL_v66ud7yczf","63e5a6690eeedc20da056717","fixation","","","img/fixation.png","null","","","prac","","","","","","","","","","","","","","","","","","","",""
"420.80000019073486","117871","SARL_v6","SARL_v66ud7yczf","63e5a6690eeedc20da056717","infreqPrac","","","img/orange_2bandit_a2.png","68","img/orange_2bandit_a2.png","68","prac","1","0","","","","","","","","","","","","","","","","","",""
"420.80000019073486","118261","SARL_v6","SARL_v66ud7yczf","63e5a6690eeedc20da056717","infreqPrac_resp","","","img/orange_2bandit_a.png","68","img/orange_2bandit_a.png","68","prac","","","","","","","","","","","","","","","","","","","",""
"null","118419","SARL_v6","SARL_v66ud7yczf","63e5a6690eeedc20da056717","fixation","","","img/fixation.png","null","","","prac","","","","","","","","","","","","","","","","","","","",""
"367.10000014305115","118789","SARL_v6","SARL_v66ud7yczf","63e5a6690eeedc20da056717","infreqPrac","","","img/orange_2bandit_a2.png","68","img/orange_2bandit_a2.png","68","prac","1","0","","","","","","","","","","","","","","","","","",""
"367.10000014305115","119236","SARL_v6","SARL_v66ud7yczf","63e5a6690eeedc20da056717","infreqPrac_resp","","","img/orange_2bandit_a.png","68","img/orange_2bandit_a.png","68","prac","","","","","","","","","","","","","","","","","","","",""
"null","119397","SARL_v6","SARL_v66ud7yczf","63e5a6690eeedc20da056717","fixation","","","img/fixation.png","null","","","prac","","","","","","","","","","","","","","","","","","","",""
"382.69999980926514","119784","SARL_v6","SARL_v66ud7yczf","63e5a6690eeedc20da056717","freqPrac","","","img/blue_2bandit_a2.png","70","img/blue_2bandit_a2.png","70","prac","1","0","","","","","","","","","","","","","","","","","",""
"382.69999980926514","120209","SARL_v6","SARL_v66ud7yczf","63e5a6690eeedc20da056717","freqPrac_resp","","","img/blue_2bandit_a.png","70","img/blue_2bandit_a.png","70","prac","","","","","","","","","","","","","","","","","","","",""
"null","120376","SARL_v6","SARL_v66ud7yczf","63e5a6690eeedc20da056717","fixation","","","img/fixation.png","null","","","prac","","","","","","","","","","","","","","","","","","","",""
"492.90000009536743","120872","SARL_v6","SARL_v66ud7yczf","63e5a6690eeedc20da056717","infreqPrac","","","img/orange_2bandit_a2.png","68","img/orange_2bandit_a2.png","68","prac","1","0","","","","","","","","","","","","","","","","","",""
"492.90000009536743","121192","SARL_v6","SARL_v66ud7yczf","63e5a6690eeedc20da056717","infreqPrac_resp","","","img/orange_2bandit_a.png","68","img/orange_2bandit_a.png","68","prac","","","","","","","","","","","","","","","","","","","",""
"null","121350","SARL_v6","SARL_v66ud7yczf","63e5a6690eeedc20da056717","fixation","","","img/fixation.png","null","","","prac","","","","","","","","","","","","","","","","","","","",""
"461.89999985694885","121815","SARL_v6","SARL_v66ud7yczf","63e5a6690eeedc20da056717","freqPrac","","","img/blue_2bandit_a2.png","70","img/blue_2bandit_a2.png","70","prac","1","0","","","","","","","","","","","","","","","","","",""
"461.89999985694885","122159","SARL_v6","SARL_v66ud7yczf","63e5a6690eeedc20da056717","freqPrac_resp","","","img/blue_2bandit_a.png","70","img/blue_2bandit_a.png","70","prac","","","","","","","","","","","","","","","","","","","",""
"null","122316","SARL_v6","SARL_v66ud7yczf","63e5a6690eeedc20da056717","fixation","","","img/fixation.png","null","","","prac","","","","","","","","","","","","","","","","","","","",""
"320.5","122640","SARL_v6","SARL_v66ud7yczf","63e5a6690eeedc20da056717","freqPrac","","","img/blue_2bandit_a2.png","70","img/blue_2bandit_a2.png","70","prac","1","0","","","","","","","","","","","","","","","","","",""
"320.5","123131","SARL_v6","SARL_v66ud7yczf","63e5a6690eeedc20da056717","freqPrac_resp","","","img/blue_2bandit_a.png","70","img/blue_2bandit_a.png","70","prac","","","","","","","","","","","","","","","","","","","",""
"null","123301","SARL_v6","SARL_v66ud7yczf","63e5a6690eeedc20da056717","fixation","","","img/fixation.png","null","","","prac","","","","","","","","","","","","","","","","","","","",""
"31428.89999985695","154733","SARL_v6","SARL_v66ud7yczf","63e5a6690eeedc20da056717","","","","","","","","prac","","","","","","","","","","","","","","","","","","","",""
"1205.7999999523163","155943","SARL_v6","SARL_v66ud7yczf","63e5a6690eeedc20da056717","rlPractice","","","img/black_2bandit_a2.png","74","img/black_2bandit_a2.png","","prac","","","0","","","","","","","","","","","","","","","","",""
"null","156706","SARL_v6","SARL_v66ud7yczf","63e5a6690eeedc20da056717","feedback","","","<div class=""verylowPoints_sq""> -14 </div>","null","","na","prac","","","1","10","-14","10","","","","","","","","","","","","","",""
"null","156861","SARL_v6","SARL_v66ud7yczf","63e5a6690eeedc20da056717","fixation","","","img/fixation.png","null","","","prac","","","","","","","","","","","","","","","","","","","",""
"978","157842","SARL_v6","SARL_v66ud7yczf","63e5a6690eeedc20da056717","rlPractice","","","img/black_2bandit_a2.png","75","img/black_2bandit_a2.png","","prac","","","1","","","","","","","","","","","","","","","","",""
"null","158604","SARL_v6","SARL_v66ud7yczf","63e5a6690eeedc20da056717","feedback","","","<div class=""veryhighPoints""> 5 </div>","null","","na","prac","","","2","5","-5","5","","","","","","","","","","","","","",""
"null","158761","SARL_v6","SARL_v66ud7yczf","63e5a6690eeedc20da056717","fixation","","","img/fixation.png","null","","","prac","","","","","","","","","","","","","","","","","","","",""
"517.6000001430511","159283","SARL_v6","SARL_v66ud7yczf","63e5a6690eeedc20da056717","rlPractice","","","img/black_2bandit_a2.png","75","img/black_2bandit_a2.png","","prac","","","2","","","","","","","","","","","","","","","","",""
"null","160037","SARL_v6","SARL_v66ud7yczf","63e5a6690eeedc20da056717","feedback","","","<div class=""veryhighPoints""> 30 </div>","null","","na","prac","","","3","30","2","30","","","","","","","","","","","","","",""
"null","160203","SARL_v6","SARL_v66ud7yczf","63e5a6690eeedc20da056717","fixation","","","img/fixation.png","null","","","prac","","","","","","","","","","","","","","","","","","","",""
"536.5","160742","SARL_v6","SARL_v66ud7yczf","63e5a6690eeedc20da056717","rlPractice","","","img/black_2bandit_a2.png","75","img/black_2bandit_a2.png","","prac","","","3","","","","","","","","","","","","","","","","",""
"null","161508","SARL_v6","SARL_v66ud7yczf","63e5a6690eeedc20da056717","feedback","","","<div class=""verylowPoints""> -2 </div>","null","","na","prac","","","4","-2","20","-2","","","","","","","","","","","","","",""
"null","161673","SARL_v6","SARL_v66ud7yczf","63e5a6690eeedc20da056717","fixation","","","img/fixation.png","null","","","prac","","","","","","","","","","","","","","","","","","","",""
"20278.5","181954","SARL_v6","SARL_v66ud7yczf","63e5a6690eeedc20da056717","","","","","","","","prac","","","","","","","","","","","","","","","","","","","",""
"null","182774","SARL_v6","SARL_v66ud7yczf","63e5a6690eeedc20da056717","mixAttFreqPrac","","","img/blue_2bandit_a2.png","null","img/blue_2bandit_a2.png","70","prac","","","1","","","","","","","","","","","","","","","","",""
"100","182931","SARL_v6","SARL_v66ud7yczf","63e5a6690eeedc20da056717","fixation","","","img/fixation.png","70","","","prac","","","","","","","","","","","","","","","","","","","",""
"469.7999999523163","183405","SARL_v6","SARL_v66ud7yczf","63e5a6690eeedc20da056717","mixAttInfreqPrac","","","img/orange_2bandit_a2.png","68","img/orange_2bandit_a2.png","68","prac","","","2","","","","","","","","","","","","","","","","",""
"469.7999999523163","183751","SARL_v6","SARL_v66ud7yczf","63e5a6690eeedc20da056717","infreqPrac_resp","","","img/orange_2bandit_a.png","68","img/blue_2bandit_a.png","68","prac","","","2","","","","","","","","","","","","","","","","",""
"null","183908","SARL_v6","SARL_v66ud7yczf","63e5a6690eeedc20da056717","fixation","","","img/fixation.png","null","","","prac","","","","","","","","","","","","","","","","","","","",""
"454.2000000476837","184366","SARL_v6","SARL_v66ud7yczf","63e5a6690eeedc20da056717","mixAttInfreqPrac","","","img/orange_2bandit_a2.png","68","img/orange_2bandit_a2.png","68","prac","","","3","","","","","","","","","","","","","","","","",""
"454.2000000476837","184717","SARL_v6","SARL_v66ud7yczf","63e5a6690eeedc20da056717","infreqPrac_resp","","","img/orange_2bandit_a.png","68","img/blue_2bandit_a.png","68","prac","","","3","","","","","","","","","","","","","","","","",""
"null","184870","SARL_v6","SARL_v66ud7yczf","63e5a6690eeedc20da056717","fixation","","","img/fixation.png","null","","","prac","","","","","","","","","","","","","","","","","","","",""
"527.2999999523163","185402","SARL_v6","SARL_v66ud7yczf","63e5a6690eeedc20da056717","mixAttInfreqPrac","","","img/orange_2bandit_a2.png","68","img/orange_2bandit_a2.png","68","prac","","","4","","","","","","","","","","","","","","","","",""
"527.2999999523163","185685","SARL_v6","SARL_v66ud7yczf","63e5a6690eeedc20da056717","infreqPrac_resp","","","img/orange_2bandit_a.png","68","img/blue_2bandit_a.png","68","prac","","","4","","","","","","","","","","","","","","","","",""
"null","185841","SARL_v6","SARL_v66ud7yczf","63e5a6690eeedc20da056717","fixation","","","img/fixation.png","null","","","prac","","","","","","","","","","","","","","","","","","","",""
"420.10000014305115","186264","SARL_v6","SARL_v66ud7yczf","63e5a6690eeedc20da056717","mixAttFreqPrac","","","img/blue_2bandit_a2.png","70","img/blue_2bandit_a2.png","70","prac","","","5","","","","","","","","","","","","","","","","",""
"420.10000014305115","186660","SARL_v6","SARL_v66ud7yczf","63e5a6690eeedc20da056717","freqPrac_resp","","","img/blue_2bandit_a.png","70","img/blue_2bandit_a.png","70","prac","","","5","","","","","","","","","","","","","","","","",""
"null","186823","SARL_v6","SARL_v66ud7yczf","63e5a6690eeedc20da056717","fixation","","","img/fixation.png","null","","","prac","","","","","","","","","","","","","","","","","","","",""
"679","187505","SARL_v6","SARL_v66ud7yczf","63e5a6690eeedc20da056717","mixRLPractice","","","img/black_2bandit_a2.png","75","img/black_2bandit_a2.png","","prac","","","5","","","","","","","","","","","","","","","","",""
"null","188266","SARL_v6","SARL_v66ud7yczf","63e5a6690eeedc20da056717","feedback","","","<div class=""verylowPoints""> -14 </div>","null","","na","prac","","","6","-14","10","-14","","","","","","","","","","","","","",""
"null","188435","SARL_v6","SARL_v66ud7yczf","63e5a6690eeedc20da056717","fixation","","","img/fixation.png","null","","","prac","","","","","","","","","","","","","","","","","","","",""
"588.2999999523163","189026","SARL_v6","SARL_v66ud7yczf","63e5a6690eeedc20da056717","mixAttFreqPrac","","","img/blue_2bandit_a2.png","70","img/blue_2bandit_a2.png","70","prac","","","7","","","","","","","","","","","","","","","","",""
"588.2999999523163","189250","SARL_v6","SARL_v66ud7yczf","63e5a6690eeedc20da056717","freqPrac_resp","","","img/blue_2bandit_a.png","70","img/blue_2bandit_a.png","70","prac","","","7","","","","","","","","","","","","","","","","",""
"null","189417","SARL_v6","SARL_v66ud7yczf","63e5a6690eeedc20da056717","fixation","","","img/fixation.png","null","","","prac","","","","","","","","","","","","","","","","","","","",""
"548.7000000476837","189969","SARL_v6","SARL_v66ud7yczf","63e5a6690eeedc20da056717","mixAttInfreqPrac","","","img/orange_2bandit_a2.png","68","img/orange_2bandit_a2.png","68","prac","","","8","","","","","","","","","","","","","","","","",""
"548.7000000476837","190223","SARL_v6","SARL_v66ud7yczf","63e5a6690eeedc20da056717","infreqPrac_resp","","","img/orange_2bandit_a.png","68","img/blue_2bandit_a.png","68","prac","","","8","","","","","","","","","","","","","","","","",""
"null","190387","SARL_v6","SARL_v66ud7yczf","63e5a6690eeedc20da056717","fixation","","","img/fixation.png","null","","","prac","","","","","","","","","","","","","","","","","","","",""
"428.60000014305115","190819","SARL_v6","SARL_v66ud7yczf","63e5a6690eeedc20da056717","mixAttFreqPrac","","","img/blue_2bandit_a2.png","70","img/blue_2bandit_a2.png","70","prac","","","9","","","","","","","","","","","","","","","","",""
"428.60000014305115","191197","SARL_v6","SARL_v66ud7yczf","63e5a6690eeedc20da056717","freqPrac_resp","","","img/blue_2bandit_a.png","70","img/blue_2bandit_a.png","70","prac","","","9","","","","","","","","","","","","","","","","",""
"null","191364","SARL_v6","SARL_v66ud7yczf","63e5a6690eeedc20da056717","fixation","","","img/fixation.png","null","","","prac","","","","","","","","","","","","","","","","","","","",""
"396.7000000476837","191765","SARL_v6","SARL_v66ud7yczf","63e5a6690eeedc20da056717","mixAttFreqPrac","","","img/blue_2bandit_a2.png","70","img/blue_2bandit_a2.png","70","prac","","","10","","","","","","","","","","","","","","","","",""
"396.7000000476837","192173","SARL_v6","SARL_v66ud7yczf","63e5a6690eeedc20da056717","freqPrac_resp","","","img/blue_2bandit_a.png","70","img/blue_2bandit_a.png","70","prac","","","10","","","","","","","","","","","","","","","","",""
"null","192329","SARL_v6","SARL_v66ud7yczf","63e5a6690eeedc20da056717","fixation","","","img/fixation.png","null","","","prac","","","","","","","","","","","","","","","","","","","",""
"486.89999985694885","192819","SARL_v6","SARL_v66ud7yczf","63e5a6690eeedc20da056717","mixAttInfreqPrac","","","img/orange_2bandit_a2.png","68","img/orange_2bandit_a2.png","68","prac","","","11","","","","","","","","","","","","","","","","",""
"486.89999985694885","193148","SARL_v6","SARL_v66ud7yczf","63e5a6690eeedc20da056717","infreqPrac_resp","","","img/orange_2bandit_a.png","68","img/blue_2bandit_a.png","68","prac","","","11","","","","","","","","","","","","","","","","",""
"null","193307","SARL_v6","SARL_v66ud7yczf","63e5a6690eeedc20da056717","fixation","","","img/fixation.png","null","","","prac","","","","","","","","","","","","","","","","","","","",""
"590.5999999046326","193900","SARL_v6","SARL_v66ud7yczf","63e5a6690eeedc20da056717","mixRLPractice","","","img/black_2bandit_a2.png","74","img/black_2bandit_a2.png","","prac","","","11","","","","","","","","","","","","","","","","",""
"null","194667","SARL_v6","SARL_v66ud7yczf","63e5a6690eeedc20da056717","feedback","","","<div class=""verylowPoints_sq""> -5 </div>","null","","na","prac","","","12","5","-5","5","","","","","","","","","","","","","",""
"null","194834","SARL_v6","SARL_v66ud7yczf","63e5a6690eeedc20da056717","fixation","","","img/fixation.png","null","","","prac","","","","","","","","","","","","","","","","","","","",""
"12063.099999904633","206900","SARL_v6","SARL_v66ud7yczf","63e5a6690eeedc20da056717","","","","","","","","prac","","","","","","","","","","","","","","","","","","","",""
"751.6000001430511","207654","SARL_v6","SARL_v66ud7yczf","63e5a6690eeedc20da056717","freq","","","img/blue_2bandit_a2.png","70","","70","test","1","","1","","","","square","circle","1","1","1","1","","","","","","","",""
"null","207709","SARL_v6","SARL_v66ud7yczf","63e5a6690eeedc20da056717","freq_resp","","","img/blue_2bandit_a.png","70","img/blue_2bandit_a.png","70","test","","","","","","","","","","","1","","","","","","","","",""
"null","207863","SARL_v6","SARL_v66ud7yczf","63e5a6690eeedc20da056717","fixation","","","img/fixation.png","null","","","test","","","","","","","","","","","","","","","","","","","",""
"359.40000009536743","208224","SARL_v6","SARL_v66ud7yczf","63e5a6690eeedc20da056717","freq","","","img/blue_2bandit_a2.png","70","","70","test","1","","2","","","","square","circle","2","2","1","1","","","","","","","",""
"null","208682","SARL_v6","SARL_v66ud7yczf","63e5a6690eeedc20da056717","freq_resp","","","img/blue_2bandit_a.png","70","img/blue_2bandit_a.png","70","test","","","","","","","","","","","1","","","","","","","","",""
"null","208837","SARL_v6","SARL_v66ud7yczf","63e5a6690eeedc20da056717","fixation","","","img/fixation.png","null","","","test","","","","","","","","","","","","","","","","","","","",""
"343.2000000476837","209184","SARL_v6","SARL_v66ud7yczf","63e5a6690eeedc20da056717","freq","","","img/blue_2bandit_a2.png","70","","70","test","1","","3","","","","square","circle","3","3","1","1","","","","","","","",""
"null","209651","SARL_v6","SARL_v66ud7yczf","63e5a6690eeedc20da056717","freq_resp","","","img/blue_2bandit_a.png","70","img/blue_2bandit_a.png","70","test","","","","","","","","","","","1","","","","","","","","",""
"null","209805","SARL_v6","SARL_v66ud7yczf","63e5a6690eeedc20da056717","fixation","","","img/fixation.png","null","","","test","","","","","","","","","","","","","","","","","","","",""
"338.2999999523163","210148","SARL_v6","SARL_v66ud7yczf","63e5a6690eeedc20da056717","freq","","","img/blue_2bandit_a2.png","70","","70","test","1","","4","","","","square","circle","4","4","1","1","","","","","","","",""
"null","210617","SARL_v6","SARL_v66ud7yczf","63e5a6690eeedc20da056717","freq_resp","","","img/blue_2bandit_a.png","70","img/blue_2bandit_a.png","70","test","","","","","","","","","","","1","","","","","","","","",""
"null","210775","SARL_v6","SARL_v66ud7yczf","63e5a6690eeedc20da056717","fixation","","","img/fixation.png","null","","","test","","","","","","","","","","","","","","","","","","","",""
"302.7999999523163","211082","SARL_v6","SARL_v66ud7yczf","63e5a6690eeedc20da056717","freq","","","img/blue_2bandit_a2.png","70","","70","test","1","","5","","","","square","circle","5","5","1","1","","","","","","","",""
"null","211584","SARL_v6","SARL_v66ud7yczf","63e5a6690eeedc20da056717","freq_resp","","","img/blue_2bandit_a.png","70","img/blue_2bandit_a.png","70","test","","","","","","","","","","","1","","","","","","","","",""
"null","211749","SARL_v6","SARL_v66ud7yczf","63e5a6690eeedc20da056717","fixation","","","img/fixation.png","null","","","test","","","","","","","","","","","","","","","","","","","",""
"405.80000019073486","212158","SARL_v6","SARL_v66ud7yczf","63e5a6690eeedc20da056717","infreq","","","img/orange_2bandit_a2.png","68","","68","test","1","","6","","","","square","circle","6","6","1","1","","","","","","","",""
"null","212562","SARL_v6","SARL_v66ud7yczf","63e5a6690eeedc20da056717","infreq_resp","","","img/orange_2bandit_a.png","68","img/orange_2bandit_a.png","68","test","","","","","","","","","","","1","","","","","","","","",""
"null","212729","SARL_v6","SARL_v66ud7yczf","63e5a6690eeedc20da056717","fixation","","","img/fixation.png","null","","","test","","","","","","","","","","","","","","","","","","","",""
"414.7000000476837","213148","SARL_v6","SARL_v66ud7yczf","63e5a6690eeedc20da056717","freq","","","img/blue_2bandit_a2.png","70","","70","test","1","","7","","","","square","circle","7","7","1","1","","","","","","","",""
"null","213540","SARL_v6","SARL_v66ud7yczf","63e5a6690eeedc20da056717","freq_resp","","","img/blue_2bandit_a.png","70","img/blue_2bandit_a.png","70","test","","","","","","","","","","","1","","","","","","","","",""
"null","213703","SARL_v6","SARL_v66ud7yczf","63e5a6690eeedc20da056717","fixation","","","img/fixation.png","null","","","test","","","","","","","","","","","","","","","","","","","",""
"466.5","214173","SARL_v6","SARL_v66ud7yczf","63e5a6690eeedc20da056717","freq","","","img/blue_2bandit_a2.png","68","","70","test","0","","8","","","","square","circle","8","8","1","0.875","","","","","","","",""
"null","214523","SARL_v6","SARL_v66ud7yczf","63e5a6690eeedc20da056717","freq_resp","","","img/blue_2bandit_a.png","68","img/blue_2bandit_a.png","70","test","","","","","","","","","","","1","","","","","","","","",""
"null","214682","SARL_v6","SARL_v66ud7yczf","63e5a6690eeedc20da056717","fixation","","","img/fixation.png","null","","","test","","","","","","","","","","","","","","","","","","","",""
"387.2000000476837","215073","SARL_v6","SARL_v66ud7yczf","63e5a6690eeedc20da056717","freq","","","img/blue_2bandit_a2.png","70","","70","test","1","","9","","","","square","circle","9","9","1","0.8888888888888888","","","","","","","",""
"null","215497","SARL_v6","SARL_v66ud7yczf","63e5a6690eeedc20da056717","freq_resp","","","img/blue_2bandit_a.png","70","img/blue_2bandit_a.png","70","test","","","","","","","","","","","1","","","","","","","","",""
"null","215653","SARL_v6","SARL_v66ud7yczf","63e5a6690eeedc20da056717","fixation","","","img/fixation.png","null","","","test","","","","","","","","","","","","","","","","","","","",""
"360.10000014305115","216016","SARL_v6","SARL_v66ud7yczf","63e5a6690eeedc20da056717","freq","","","img/blue_2bandit_a2.png","70","","70","test","1","","10","","","","square","circle","10","10","1","0.9","","","","","","","",""
"null","216471","SARL_v6","SARL_v66ud7yczf","63e5a6690eeedc20da056717","freq_resp","","","img/blue_2bandit_a.png","70","img/blue_2bandit_a.png","70","test","","","","","","","","","","","1","","","","","","","","",""
"null","216628","SARL_v6","SARL_v66ud7yczf","63e5a6690eeedc20da056717","fixation","","","img/fixation.png","null","","","test","","","","","","","","","","","","","","","","","","","",""
"299","216931","SARL_v6","SARL_v66ud7yczf","63e5a6690eeedc20da056717","freq","","","img/blue_2bandit_a2.png","70","","70","test","1","","11","","","","square","circle","11","11","1","0.9090909090909091","","","","","","","",""
"null","217451","SARL_v6","SARL_v66ud7yczf","63e5a6690eeedc20da056717","freq_resp","","","img/blue_2bandit_a.png","70","img/blue_2bandit_a.png","70","test","","","","","","","","","","","1","","","","","","","","",""
"null","217607","SARL_v6","SARL_v66ud7yczf","63e5a6690eeedc20da056717","fixation","","","img/fixation.png","null","","","test","","","","","","","","","","","","","","","","","","","",""
"295.60000014305115","217906","SARL_v6","SARL_v66ud7yczf","63e5a6690eeedc20da056717","freq","","","img/blue_2bandit_a2.png","70","","70","test","1","","12","","","","square","circle","12","12","1","0.9166666666666666","","","","","","","",""
"null","218416","SARL_v6","SARL_v66ud7yczf","63e5a6690eeedc20da056717","freq_resp","","","img/blue_2bandit_a.png","70","img/blue_2bandit_a.png","70","test","","","","","","","","","","","1","","","","","","","","",""
"null","218575","SARL_v6","SARL_v66ud7yczf","63e5a6690eeedc20da056717","fixation","","","img/fixation.png","null","","","test","","","","","","","","","","","","","","","","","","","",""
"286.39999985694885","218865","SARL_v6","SARL_v66ud7yczf","63e5a6690eeedc20da056717","freq","","","img/blue_2bandit_a2.png","70","","70","test","1","","13","","","","square","circle","13","13","1","0.9230769230769231","","","","","","","",""
"null","219391","SARL_v6","SARL_v66ud7yczf","63e5a6690eeedc20da056717","freq_resp","","","img/blue_2bandit_a.png","70","img/blue_2bandit_a.png","70","test","","","","","","","","","","","1","","","","","","","","",""
"null","219549","SARL_v6","SARL_v66ud7yczf","63e5a6690eeedc20da056717","fixation","","","img/fixation.png","null","","","test","","","","","","","","","","","","","","","","","","","",""
"293.5","219845","SARL_v6","SARL_v66ud7yczf","63e5a6690eeedc20da056717","freq","","","img/blue_2bandit_a2.png","70","","70","test","1","","14","","","","square","circle","14","14","1","0.9285714285714286","","","","","","","",""
"null","220365","SARL_v6","SARL_v66ud7yczf","63e5a6690eeedc20da056717","freq_resp","","","img/blue_2bandit_a.png","70","img/blue_2bandit_a.png","70","test","","","","","","","","","","","1","","","","","","","","",""
"null","220519","SARL_v6","SARL_v66ud7yczf","63e5a6690eeedc20da056717","fixation","","","img/fixation.png","null","","","test","","","","","","","","","","","","","","","","","","","",""
"242.10000014305115","220765","SARL_v6","SARL_v66ud7yczf","63e5a6690eeedc20da056717","freq","","","img/blue_2bandit_a2.png","70","","70","test","1","","15","","","","square","circle","15","15","1","0.9333333333333333","","","","","","","",""
"null","221341","SARL_v6","SARL_v66ud7yczf","63e5a6690eeedc20da056717","freq_resp","","","img/blue_2bandit_a.png","70","img/blue_2bandit_a.png","70","test","","","","","","","","","","","1","","","","","","","","",""
"null","221497","SARL_v6","SARL_v66ud7yczf","63e5a6690eeedc20da056717","fixation","","","img/fixation.png","null","","","test","","","","","","","","","","","","","","","","","","","",""
"321.59999990463257","221822","SARL_v6","SARL_v66ud7yczf","63e5a6690eeedc20da056717","freq","","","img/blue_2bandit_a2.png","70","","70","test","1","","16","","","","square","circle","16","16","1","0.9375","","","","","","","",""
"null","222312","SARL_v6","SARL_v66ud7yczf","63e5a6690eeedc20da056717","freq_resp","","","img/blue_2bandit_a.png","70","img/blue_2bandit_a.png","70","test","","","","","","","","","","","1","","","","","","","","",""
"null","222472","SARL_v6","SARL_v66ud7yczf","63e5a6690eeedc20da056717","fixation","","","img/fixation.png","null","","","test","","","","","","","","","","","","","","","","","","","",""
"283.90000009536743","222759","SARL_v6","SARL_v66ud7yczf","63e5a6690eeedc20da056717","freq","","","img/blue_2bandit_a2.png","70","","70","test","1","","17","","","","square","circle","17","17","1","0.9411764705882353","","","","","","","",""
"null","223281","SARL_v6","SARL_v66ud7yczf","63e5a6690eeedc20da056717","freq_resp","","","img/blue_2bandit_a.png","70","img/blue_2bandit_a.png","70","test","","","","","","","","","","","1","","","","","","","","",""
"null","223437","SARL_v6","SARL_v66ud7yczf","63e5a6690eeedc20da056717","fixation","","","img/fixation.png","null","","","test","","","","","","","","","","","","","","","","","","","",""
"255.79999995231628","223695","SARL_v6","SARL_v66ud7yczf","63e5a6690eeedc20da056717","freq","","","img/blue_2bandit_a2.png","70","","70","test","1","","18","","","","square","circle","18","18","1","0.9444444444444444","","","","","","","",""
"null","224249","SARL_v6","SARL_v66ud7yczf","63e5a6690eeedc20da056717","freq_resp","","","img/blue_2bandit_a.png","70","img/blue_2bandit_a.png","70","test","","","","","","","","","","","1","","","","","","","","",""
"null","224404","SARL_v6","SARL_v66ud7yczf","63e5a6690eeedc20da056717","fixation","","","img/fixation.png","null","","","test","","","","","","","","","","","","","","","","","","","",""
"523.5","224931","SARL_v6","SARL_v66ud7yczf","63e5a6690eeedc20da056717","infreq","","","img/orange_2bandit_a2.png","68","","68","test","1","","19","","","","square","circle","19","19","1","0.9473684210526315","","","","","","","",""
"null","225215","SARL_v6","SARL_v66ud7yczf","63e5a6690eeedc20da056717","infreq_resp","","","img/orange_2bandit_a.png","68","img/orange_2bandit_a.png","68","test","","","","","","","","","","","1","","","","","","","","",""
"null","225370","SARL_v6","SARL_v66ud7yczf","63e5a6690eeedc20da056717","fixation","","","img/fixation.png","null","","","test","","","","","","","","","","","","","","","","","","","",""
"388.19999980926514","225761","SARL_v6","SARL_v66ud7yczf","63e5a6690eeedc20da056717","freq","","","img/blue_2bandit_a2.png","70","","70","test","1","","20","","","","square","circle","20","20","1","0.95","","","","","","","",""
"null","226185","SARL_v6","SARL_v66ud7yczf","63e5a6690eeedc20da056717","freq_resp","","","img/blue_2bandit_a.png","70","img/blue_2bandit_a.png","70","test","","","","","","","","","","","1","","","","","","","","",""
"null","226342","SARL_v6","SARL_v66ud7yczf","63e5a6690eeedc20da056717","fixation","","","img/fixation.png","null","","","test","","","","","","","","","","","","","","","","","","","",""
"373.09999990463257","226718","SARL_v6","SARL_v66ud7yczf","63e5a6690eeedc20da056717","freq","","","img/blue_2bandit_a2.png","68","","70","test","0","","21","","","","square","circle","21","21","1","0.9047619047619048","","","","","","","",""
"null","227160","SARL_v6","SARL_v66ud7yczf","63e5a6690eeedc20da056717","freq_resp","","","img/blue_2bandit_a.png","68","img/blue_2bandit_a.png","70","test","","","","","","","","","","","1","","","","","","","","",""
"null","227320","SARL_v6","SARL_v66ud7yczf","63e5a6690eeedc20da056717","fixation","","","img/fixation.png","null","","","test","","","","","","","","","","","","","","","","","","","",""
"394","227718","SARL_v6","SARL_v66ud7yczf","63e5a6690eeedc20da056717","freq","","","img/blue_2bandit_a2.png","70","","70","test","1","","22","","","","square","circle","22","22","1","0.9090909090909091","","","","","","","",""
"null","228134","SARL_v6","SARL_v66ud7yczf","63e5a6690eeedc20da056717","freq_resp","","","img/blue_2bandit_a.png","70","img/blue_2bandit_a.png","70","test","","","","","","","","","","","1","","","","","","","","",""
"null","228300","SARL_v6","SARL_v66ud7yczf","63e5a6690eeedc20da056717","fixation","","","img/fixation.png","null","","","test","","","","","","","","","","","","","","","","","","","",""
"309.7000000476837","228614","SARL_v6","SARL_v66ud7yczf","63e5a6690eeedc20da056717","freq","","","img/blue_2bandit_a2.png","70","","70","test","1","","23","","","","square","circle","23","23","1","0.9130434782608695","","","","","","","",""
"null","229116","SARL_v6","SARL_v66ud7yczf","63e5a6690eeedc20da056717","freq_resp","","","img/blue_2bandit_a.png","70","img/blue_2bandit_a.png","70","test","","","","","","","","","","","1","","","","","","","","",""
"null","229277","SARL_v6","SARL_v66ud7yczf","63e5a6690eeedc20da056717","fixation","","","img/fixation.png","null","","","test","","","","","","","","","","","","","","","","","","","",""
"271.59999990463257","229553","SARL_v6","SARL_v66ud7yczf","63e5a6690eeedc20da056717","freq","","","img/blue_2bandit_a2.png","70","","70","test","1","","24","","","","square","circle","24","24","1","0.9166666666666666","","","","","","","",""
"null","230099","SARL_v6","SARL_v66ud7yczf","63e5a6690eeedc20da056717","freq_resp","","","img/blue_2bandit_a.png","70","img/blue_2bandit_a.png","70","test","","","","","","","","","","","1","","","","","","","","",""
"null","230255","SARL_v6","SARL_v66ud7yczf","63e5a6690eeedc20da056717","fixation","","","img/fixation.png","null","","","test","","","","","","","","","","","","","","","","","","","",""
"293.7000000476837","230552","SARL_v6","SARL_v66ud7yczf","63e5a6690eeedc20da056717","freq","","","img/blue_2bandit_a2.png","70","","70","test","1","","25","","","","square","circle","25","25","1","0.92","","","","","","","",""
"null","231075","SARL_v6","SARL_v66ud7yczf","63e5a6690eeedc20da056717","freq_resp","","","img/blue_2bandit_a.png","70","img/blue_2bandit_a.png","70","test","","","","","","","","","","","1","","","","","","","","",""
"null","231234","SARL_v6","SARL_v66ud7yczf","63e5a6690eeedc20da056717","fixation","","","img/fixation.png","null","","","test","","","","","","","","","","","","","","","","","","","",""
"275.89999985694885","231512","SARL_v6","SARL_v66ud7yczf","63e5a6690eeedc20da056717","freq","","","img/blue_2bandit_a2.png","70","","70","test","1","","26","","","","square","circle","26","26","1","0.9230769230769231","","","","","","","",""
"null","232054","SARL_v6","SARL_v66ud7yczf","63e5a6690eeedc20da056717","freq_resp","","","img/blue_2bandit_a.png","70","img/blue_2bandit_a.png","70","test","","","","","","","","","","","1","","","","","","","","",""
"null","232216","SARL_v6","SARL_v66ud7yczf","63e5a6690eeedc20da056717","fixation","","","img/fixation.png","null","","","test","","","","","","","","","","","","","","","","","","","",""
"763.0999999046326","232985","SARL_v6","SARL_v66ud7yczf","63e5a6690eeedc20da056717","rl","","","img/black_2bandit_a2.png","75","","0","test","","","27","","","-3","square","circle","","0","1","","75","-3","-3","-3","-3","circle","1","0"
"null","233742","SARL_v6","SARL_v66ud7yczf","63e5a6690eeedc20da056717","feedback","","","<div class=""verylowPoints""> -3 </div>","null","","na","test","","","NaN","","","","","","","","1","","75","","","","","","1",""
"399.40000009536743","234145","SARL_v6","SARL_v66ud7yczf","63e5a6690eeedc20da056717","freq","","","img/blue_2bandit_a2.png","70","","70","test","1","","28","","","","square","circle","27","1","2","0.9259259259259259","","","","","","","",""
"null","234550","SARL_v6","SARL_v66ud7yczf","63e5a6690eeedc20da056717","freq_resp","","","img/blue_2bandit_a.png","70","img/blue_2bandit_a.png","70","test","","","","","","","","","","","2","","","","","","","","",""
"null","234705","SARL_v6","SARL_v66ud7yczf","63e5a6690eeedc20da056717","fixation","","","img/fixation.png","null","","","test","","","","","","","","","","","","","","","","","","","",""
"322.5","235032","SARL_v6","SARL_v66ud7yczf","63e5a6690eeedc20da056717","freq","","","img/blue_2bandit_a2.png","70","","70","test","1","","29","","","","square","circle","28","2","2","0.9285714285714286","","","","","","","",""
"null","235519","SARL_v6","SARL_v66ud7yczf","63e5a6690eeedc20da056717","freq_resp","","","img/blue_2bandit_a.png","70","img/blue_2bandit_a.png","70","test","","","","","","","","","","","2","","","","","","","","",""
"null","235675","SARL_v6","SARL_v66ud7yczf","63e5a6690eeedc20da056717","fixation","","","img/fixation.png","null","","","test","","","","","","","","","","","","","","","","","","","",""
"446.2000000476837","236125","SARL_v6","SARL_v66ud7yczf","63e5a6690eeedc20da056717","freq","","","img/blue_2bandit_a2.png","70","","70","test","1","","30","","","","square","circle","29","3","2","0.9310344827586207","","","","","","","",""
"null","236483","SARL_v6","SARL_v66ud7yczf","63e5a6690eeedc20da056717","freq_resp","","","img/blue_2bandit_a.png","70","img/blue_2bandit_a.png","70","test","","","","","","","","","","","2","","","","","","","","",""
"null","236649","SARL_v6","SARL_v66ud7yczf","63e5a6690eeedc20da056717","fixation","","","img/fixation.png","null","","","test","","","","","","","","","","","","","","","","","","","",""
"299.7999999523163","236952","SARL_v6","SARL_v66ud7yczf","63e5a6690eeedc20da056717","freq","","","img/blue_2bandit_a2.png","70","","70","test","1","","31","","","","square","circle","30","4","2","0.9333333333333333","","","","","","","",""
"null","237466","SARL_v6","SARL_v66ud7yczf","63e5a6690eeedc20da056717","freq_resp","","","img/blue_2bandit_a.png","70","img/blue_2bandit_a.png","70","test","","","","","","","","","","","2","","","","","","","","",""
"null","237621","SARL_v6","SARL_v66ud7yczf","63e5a6690eeedc20da056717","fixation","","","img/fixation.png","null","","","test","","","","","","","","","","","","","","","","","","","",""
"364.09999990463257","237988","SARL_v6","SARL_v66ud7yczf","63e5a6690eeedc20da056717","freq","","","img/blue_2bandit_a2.png","70","","70","test","1","","32","","","","square","circle","31","5","2","0.9354838709677419","","","","","","","",""
"null","238429","SARL_v6","SARL_v66ud7yczf","63e5a6690eeedc20da056717","freq_resp","","","img/blue_2bandit_a.png","70","img/blue_2bandit_a.png","70","test","","","","","","","","","","","2","","","","","","","","",""
"null","238592","SARL_v6","SARL_v66ud7yczf","63e5a6690eeedc20da056717","fixation","","","img/fixation.png","null","","","test","","","","","","","","","","","","","","","","","","","",""
"288.5","238885","SARL_v6","SARL_v66ud7yczf","63e5a6690eeedc20da056717","freq","","","img/blue_2bandit_a2.png","70","","70","test","1","","33","","","","square","circle","32","6","2","0.9375","","","","","","","",""
"null","239403","SARL_v6","SARL_v66ud7yczf","63e5a6690eeedc20da056717","freq_resp","","","img/blue_2bandit_a.png","70","img/blue_2bandit_a.png","70","test","","","","","","","","","","","2","","","","","","","","",""
"null","239559","SARL_v6","SARL_v66ud7yczf","63e5a6690eeedc20da056717","fixation","","","img/fixation.png","null","","","test","","","","","","","","","","","","","","","","","","","",""
"340.69999980926514","239903","SARL_v6","SARL_v66ud7yczf","63e5a6690eeedc20da056717","freq","","","img/blue_2bandit_a2.png","70","","70","test","1","","34","","","","square","circle","33","7","2","0.9393939393939394","","","","","","","",""
"null","240377","SARL_v6","SARL_v66ud7yczf","63e5a6690eeedc20da056717","freq_resp","","","img/blue_2bandit_a.png","70","img/blue_2bandit_a.png","70","test","","","","","","","","","","","2","","","","","","","","",""
"null","240533","SARL_v6","SARL_v66ud7yczf","63e5a6690eeedc20da056717","fixation","","","img/fixation.png","null","","","test","","","","","","","","","","","","","","","","","","","",""
"304.89999985694885","240841","SARL_v6","SARL_v66ud7yczf","63e5a6690eeedc20da056717","freq","","","img/blue_2bandit_a2.png","70","","70","test","1","","35","","","","square","circle","34","8","2","0.9411764705882353","","","","","","","",""
"null","241348","SARL_v6","SARL_v66ud7yczf","63e5a6690eeedc20da056717","freq_resp","","","img/blue_2bandit_a.png","70","img/blue_2bandit_a.png","70","test","","","","","","","","","","","2","","","","","","","","",""
"null","241505","SARL_v6","SARL_v66ud7yczf","63e5a6690eeedc20da056717","fixation","","","img/fixation.png","null","","","test","","","","","","","","","","","","","","","","","","","",""
"405.59999990463257","241914","SARL_v6","SARL_v66ud7yczf","63e5a6690eeedc20da056717","infreq","","","img/orange_2bandit_a2.png","70","","68","test","0","","36","","","","square","circle","35","9","2","0.9142857142857143","","","","","","","",""
"null","242311","SARL_v6","SARL_v66ud7yczf","63e5a6690eeedc20da056717","infreq_resp","","","img/orange_2bandit_a.png","70","img/orange_2bandit_a.png","68","test","","","","","","","","","","","2","","","","","","","","",""
"null","242476","SARL_v6","SARL_v66ud7yczf","63e5a6690eeedc20da056717","fixation","","","img/fixation.png","null","","","test","","","","","","","","","","","","","","","","","","","",""
"332.90000009536743","242814","SARL_v6","SARL_v66ud7yczf","63e5a6690eeedc20da056717","freq","","","img/blue_2bandit_a2.png","70","","70","test","1","","37","","","","square","circle","36","10","2","0.9166666666666666","","","","","","","",""
"null","243288","SARL_v6","SARL_v66ud7yczf","63e5a6690eeedc20da056717","freq_resp","","","img/blue_2bandit_a.png","70","img/blue_2bandit_a.png","70","test","","","","","","","","","","","2","","","","","","","","",""
"null","243446","SARL_v6","SARL_v66ud7yczf","63e5a6690eeedc20da056717","fixation","","","img/fixation.png","null","","","test","","","","","","","","","","","","","","","","","","","",""
"327.5","243777","SARL_v6","SARL_v66ud7yczf","63e5a6690eeedc20da056717","freq","","","img/blue_2bandit_a2.png","70","","70","test","1","","38","","","","square","circle","37","11","2","0.918918918918919","","","","","","","",""
"null","244259","SARL_v6","SARL_v66ud7yczf","63e5a6690eeedc20da056717","freq_resp","","","img/blue_2bandit_a.png","70","img/blue_2bandit_a.png","70","test","","","","","","","","","","","2","","","","","","","","",""
"null","244423","SARL_v6","SARL_v66ud7yczf","63e5a6690eeedc20da056717","fixation","","","img/fixation.png","null","","","test","","","","","","","","","","","","","","","","","","","",""
"296.2000000476837","244723","SARL_v6","SARL_v66ud7yczf","63e5a6690eeedc20da056717","freq","","","img/blue_2bandit_a2.png","70","","70","test","1","","39","","","","square","circle","38","12","2","0.9210526315789473","","","","","","","",""
"null","245232","SARL_v6","SARL_v66ud7yczf","63e5a6690eeedc20da056717","freq_resp","","","img/blue_2bandit_a.png","70","img/blue_2bandit_a.png","70","test","","","","","","","","","","","2","","","","","","","","",""
"null","245385","SARL_v6","SARL_v66ud7yczf","63e5a6690eeedc20da056717","fixation","","","img/fixation.png","null","","","test","","","","","","","","","","","","","","","","","","","",""
"359.5","245748","SARL_v6","SARL_v66ud7yczf","63e5a6690eeedc20da056717","freq","","","img/blue_2bandit_a2.png","70","","70","test","1","","40","","","","square","circle","39","13","2","0.9230769230769231","","","","","","","",""
"null","246195","SARL_v6","SARL_v66ud7yczf","63e5a6690eeedc20da056717","freq_resp","","","img/blue_2bandit_a.png","70","img/blue_2bandit_a.png","70","test","","","","","","","","","","","2","","","","","","","","",""
"null","246351","SARL_v6","SARL_v66ud7yczf","63e5a6690eeedc20da056717","fixation","","","img/fixation.png","null","","","test","","","","","","","","","","","","","","","","","","","",""
"367.90000009536743","246722","SARL_v6","SARL_v66ud7yczf","63e5a6690eeedc20da056717","freq","","","img/blue_2bandit_a2.png","70","","70","test","1","","41","","","","square","circle","40","14","2","0.925","","","","","","","",""
"null","247166","SARL_v6","SARL_v66ud7yczf","63e5a6690eeedc20da056717","freq_resp","","","img/blue_2bandit_a.png","70","img/blue_2bandit_a.png","70","test","","","","","","","","","","","2","","","","","","","","",""
"null","247327","SARL_v6","SARL_v66ud7yczf","63e5a6690eeedc20da056717","fixation","","","img/fixation.png","null","","","test","","","","","","","","","","","","","","","","","","","",""
"374.2999999523163","247704","SARL_v6","SARL_v66ud7yczf","63e5a6690eeedc20da056717","freq","","","img/blue_2bandit_a2.png","70","","70","test","1","","42","","","","square","circle","41","15","2","0.926829268292683","","","","","","","",""
"null","248145","SARL_v6","SARL_v66ud7yczf","63e5a6690eeedc20da056717","freq_resp","","","img/blue_2bandit_a.png","70","img/blue_2bandit_a.png","70","test","","","","","","","","","","","2","","","","","","","","",""
"null","248300","SARL_v6","SARL_v66ud7yczf","63e5a6690eeedc20da056717","fixation","","","img/fixation.png","null","","","test","","","","","","","","","","","","","","","","","","","",""
"411","248713","SARL_v6","SARL_v66ud7yczf","63e5a6690eeedc20da056717","freq","","","img/blue_2bandit_a2.png","70","","70","test","1","","43","","","","square","circle","42","16","2","0.9285714285714286","","","","","","","",""
"null","249119","SARL_v6","SARL_v66ud7yczf","63e5a6690eeedc20da056717","freq_resp","","","img/blue_2bandit_a.png","70","img/blue_2bandit_a.png","70","test","","","","","","","","","","","2","","","","","","","","",""
"null","249276","SARL_v6","SARL_v66ud7yczf","63e5a6690eeedc20da056717","fixation","","","img/fixation.png","null","","","test","","","","","","","","","","","","","","","","","","","",""
"455.89999985694885","249735","SARL_v6","SARL_v66ud7yczf","63e5a6690eeedc20da056717","infreq","","","img/orange_2bandit_a2.png","68","","68","test","1","","44","","","","square","circle","43","17","2","0.9302325581395349","","","","","","","",""
"null","250087","SARL_v6","SARL_v66ud7yczf","63e5a6690eeedc20da056717","infreq_resp","","","img/orange_2bandit_a.png","68","img/orange_2bandit_a.png","68","test","","","","","","","","","","","2","","","","","","","","",""
"null","250243","SARL_v6","SARL_v66ud7yczf","63e5a6690eeedc20da056717","fixation","","","img/fixation.png","null","","","test","","","","","","","","","","","","","","","","","","","",""
"408.2999999523163","250654","SARL_v6","SARL_v66ud7yczf","63e5a6690eeedc20da056717","infreq","","","img/orange_2bandit_a2.png","68","","68","test","1","","45","","","","square","circle","44","18","2","0.9318181818181818","","","","","","","",""
"null","251057","SARL_v6","SARL_v66ud7yczf","63e5a6690eeedc20da056717","infreq_resp","","","img/orange_2bandit_a.png","68","img/orange_2bandit_a.png","68","test","","","","","","","","","","","2","","","","","","","","",""
"null","251222","SARL_v6","SARL_v66ud7yczf","63e5a6690eeedc20da056717","fixation","","","img/fixation.png","null","","","test","","","","","","","","","","","","","","","","","","","",""
"351.60000014305115","251578","SARL_v6","SARL_v66ud7yczf","63e5a6690eeedc20da056717","freq","","","img/blue_2bandit_a2.png","70","","70","test","1","","46","","","","square","circle","45","19","2","0.9333333333333333","","","","","","","",""
"null","252032","SARL_v6","SARL_v66ud7yczf","63e5a6690eeedc20da056717","freq_resp","","","img/blue_2bandit_a.png","70","img/blue_2bandit_a.png","70","test","","","","","","","","","","","2","","","","","","","","",""
"null","252193","SARL_v6","SARL_v66ud7yczf","63e5a6690eeedc20da056717","fixation","","","img/fixation.png","null","","","test","","","","","","","","","","","","","","","","","","","",""
"288.90000009536743","252484","SARL_v6","SARL_v66ud7yczf","63e5a6690eeedc20da056717","freq","","","img/blue_2bandit_a2.png","70","","70","test","1","","47","","","","square","circle","46","20","2","0.9347826086956522","","","","","","","",""
"null","253004","SARL_v6","SARL_v66ud7yczf","63e5a6690eeedc20da056717","freq_resp","","","img/blue_2bandit_a.png","70","img/blue_2bandit_a.png","70","test","","","","","","","","","","","2","","","","","","","","",""
"null","253171","SARL_v6","SARL_v66ud7yczf","63e5a6690eeedc20da056717","fixation","","","img/fixation.png","null","","","test","","","","","","","","","","","","","","","","","","","",""
"318.7999999523163","253492","SARL_v6","SARL_v66ud7yczf","63e5a6690eeedc20da056717","freq","","","img/blue_2bandit_a2.png","70","","70","test","1","","48","","","","square","circle","47","21","2","0.9361702127659575","","","","","","","",""
"null","253988","SARL_v6","SARL_v66ud7yczf","63e5a6690eeedc20da056717","freq_resp","","","img/blue_2bandit_a.png","70","img/blue_2bandit_a.png","70","test","","","","","","","","","","","2","","","","","","","","",""
"null","254147","SARL_v6","SARL_v66ud7yczf","63e5a6690eeedc20da056717","fixation","","","img/fixation.png","null","","","test","","","","","","","","","","","","","","","","","","","",""
"815.3999998569489","254966","SARL_v6","SARL_v66ud7yczf","63e5a6690eeedc20da056717","rl","","","img/black_2bandit_a2.png","74","","0","test","","","49","","","-8","square","circle","","0","2","","74","-5","-8","-8","-5","square","2","0"
"null","255730","SARL_v6","SARL_v66ud7yczf","63e5a6690eeedc20da056717","feedback","","","<div class=""verylowPoints_sq""> -8 </div>","null","","na","test","","","NaN","","","","","","","","2","","74","","","","","","2",""
"569.2999999523163","256303","SARL_v6","SARL_v66ud7yczf","63e5a6690eeedc20da056717","freq","","","img/blue_2bandit_a2.png","70","","70","test","1","","50","","","","square","circle","48","1","3","0.9375","","","","","","","",""
"null","256538","SARL_v6","SARL_v66ud7yczf","63e5a6690eeedc20da056717","freq_resp","","","img/blue_2bandit_a.png","70","img/blue_2bandit_a.png","70","test","","","","","","","","","","","3","","","","","","","","",""
"null","256697","SARL_v6","SARL_v66ud7yczf","63e5a6690eeedc20da056717","fixation","","","img/fixation.png","null","","","test","","","","","","","","","","","","","","","","","","","",""
"319.7000000476837","257021","SARL_v6","SARL_v66ud7yczf","63e5a6690eeedc20da056717","freq","","","img/blue_2bandit_a2.png","70","","70","test","1","","51","","","","square","circle","49","2","3","0.9387755102040817","","","","","","","",""
"null","257515","SARL_v6","SARL_v66ud7yczf","63e5a6690eeedc20da056717","freq_resp","","","img/blue_2bandit_a.png","70","img/blue_2bandit_a.png","70","test","","","","","","","","","","","3","","","","","","","","",""
"null","257671","SARL_v6","SARL_v66ud7yczf","63e5a6690eeedc20da056717","fixation","","","img/fixation.png","null","","","test","","","","","","","","","","","","","","","","","","","",""
"298.10000014305115","257972","SARL_v6","SARL_v66ud7yczf","63e5a6690eeedc20da056717","freq","","","img/blue_2bandit_a2.png","70","","70","test","1","","52","","","","square","circle","50","3","3","0.94","","","","","","","",""
"null","258479","SARL_v6","SARL_v66ud7yczf","63e5a6690eeedc20da056717","freq_resp","","","img/blue_2bandit_a.png","70","img/blue_2bandit_a.png","70","test","","","","","","","","","","","3","","","","","","","","",""
"null","258635","SARL_v6","SARL_v66ud7yczf","63e5a6690eeedc20da056717","fixation","","","img/fixation.png","null","","","test","","","","","","","","","","","","","","","","","","","",""
"432","259071","SARL_v6","SARL_v66ud7yczf","63e5a6690eeedc20da056717","freq","","","img/blue_2bandit_a2.png","70","","70","test","1","","53","","","","square","circle","51","4","3","0.9411764705882353","","","","","","","",""
"null","259445","SARL_v6","SARL_v66ud7yczf","63e5a6690eeedc20da056717","freq_resp","","","img/blue_2bandit_a.png","70","img/blue_2bandit_a.png","70","test","","","","","","","","","","","3","","","","","","","","",""
"null","259607","SARL_v6","SARL_v66ud7yczf","63e5a6690eeedc20da056717","fixation","","","img/fixation.png","null","","","test","","","","","","","","","","","","","","","","","","","",""
"288.60000014305115","259899","SARL_v6","SARL_v66ud7yczf","63e5a6690eeedc20da056717","freq","","","img/blue_2bandit_a2.png","70","","70","test","1","","54","","","","square","circle","52","5","3","0.9423076923076923","","","","","","","",""
"null","260420","SARL_v6","SARL_v66ud7yczf","63e5a6690eeedc20da056717","freq_resp","","","img/blue_2bandit_a.png","70","img/blue_2bandit_a.png","70","test","","","","","","","","","","","3","","","","","","","","",""
"null","260575","SARL_v6","SARL_v66ud7yczf","63e5a6690eeedc20da056717","fixation","","","img/fixation.png","null","","","test","","","","","","","","","","","","","","","","","","","",""
"128.29999995231628","260706","SARL_v6","SARL_v66ud7yczf","63e5a6690eeedc20da056717","freq","","","img/blue_2bandit_a2.png","70","","70","test","1","","55","","","","square","circle","53","6","3","0.9433962264150944","","","","","","","",""
"null","261388","SARL_v6","SARL_v66ud7yczf","63e5a6690eeedc20da056717","freq_resp","","","img/blue_2bandit_a.png","70","img/blue_2bandit_a.png","70","test","","","","","","","","","","","3","","","","","","","","",""
"null","261545","SARL_v6","SARL_v66ud7yczf","63e5a6690eeedc20da056717","fixation","","","img/fixation.png","null","","","test","","","","","","","","","","","","","","","","","","","",""
"376.5","261925","SARL_v6","SARL_v66ud7yczf","63e5a6690eeedc20da056717","freq","","","img/blue_2bandit_a2.png","70","","70","test","1","","56","","","","square","circle","54","7","3","0.9444444444444444","","","","","","","",""
"null","262357","SARL_v6","SARL_v66ud7yczf","63e5a6690eeedc20da056717","freq_resp","","","img/blue_2bandit_a.png","70","img/blue_2bandit_a.png","70","test","","","","","","","","","","","3","","","","","","","","",""
"null","262522","SARL_v6","SARL_v66ud7yczf","63e5a6690eeedc20da056717","fixation","","","img/fixation.png","null","","","test","","","","","","","","","","","","","","","","","","","",""
"320.7000000476837","262847","SARL_v6","SARL_v66ud7yczf","63e5a6690eeedc20da056717","freq","","","img/blue_2bandit_a2.png","70","","70","test","1","","57","","","","square","circle","55","8","3","0.9454545454545454","","","","","","","",""
"null","263344","SARL_v6","SARL_v66ud7yczf","63e5a6690eeedc20da056717","freq_resp","","","img/blue_2bandit_a.png","70","img/blue_2bandit_a.png","70","test","","","","","","","","","","","3","","","","","","","","",""
"null","263513","SARL_v6","SARL_v66ud7yczf","63e5a6690eeedc20da056717","fixation","","","img/fixation.png","null","","","test","","","","","","","","","","","","","","","","","","","",""
"338.7999999523163","263855","SARL_v6","SARL_v66ud7yczf","63e5a6690eeedc20da056717","freq","","","img/blue_2bandit_a2.png","70","","70","test","1","","58","","","","square","circle","56","9","3","0.9464285714285714","","","","","","","",""
"null","264323","SARL_v6","SARL_v66ud7yczf","63e5a6690eeedc20da056717","freq_resp","","","img/blue_2bandit_a.png","70","img/blue_2bandit_a.png","70","test","","","","","","","","","","","3","","","","","","","","",""
"null","264483","SARL_v6","SARL_v66ud7yczf","63e5a6690eeedc20da056717","fixation","","","img/fixation.png","null","","","test","","","","","","","","","","","","","","","","","","","",""
"756.1000001430511","265242","SARL_v6","SARL_v66ud7yczf","63e5a6690eeedc20da056717","infreq","","","img/orange_2bandit_a2.png","68","","68","test","1","","59","","","","square","circle","57","10","3","0.9473684210526315","","","","","","","",""
"null","265288","SARL_v6","SARL_v66ud7yczf","63e5a6690eeedc20da056717","infreq_resp","","","img/orange_2bandit_a.png","68","img/orange_2bandit_a.png","68","test","","","","","","","","","","","3","","","","","","","","",""
"null","265447","SARL_v6","SARL_v66ud7yczf","63e5a6690eeedc20da056717","fixation","","","img/fixation.png","null","","","test","","","","","","","","","","","","","","","","","","","",""
"416.59999990463257","265867","SARL_v6","SARL_v66ud7yczf","63e5a6690eeedc20da056717","infreq","","","img/orange_2bandit_a2.png","68","","68","test","1","","60","","","","square","circle","58","11","3","0.9482758620689655","","","","","","","",""
"null","266256","SARL_v6","SARL_v66ud7yczf","63e5a6690eeedc20da056717","infreq_resp","","","img/orange_2bandit_a.png","68","img/orange_2bandit_a.png","68","test","","","","","","","","","","","3","","","","","","","","",""
"null","266412","SARL_v6","SARL_v66ud7yczf","63e5a6690eeedc20da056717","fixation","","","img/fixation.png","null","","","test","","","","","","","","","","","","","","","","","","","",""
"465.7999999523163","266881","SARL_v6","SARL_v66ud7yczf","63e5a6690eeedc20da056717","freq","","","img/blue_2bandit_a2.png","70","","70","test","1","","61","","","","square","circle","59","12","3","0.9491525423728814","","","","","","","",""
"null","267228","SARL_v6","SARL_v66ud7yczf","63e5a6690eeedc20da056717","freq_resp","","","img/blue_2bandit_a.png","70","img/blue_2bandit_a.png","70","test","","","","","","","","","","","3","","","","","","","","",""
"null","267384","SARL_v6","SARL_v66ud7yczf","63e5a6690eeedc20da056717","fixation","","","img/fixation.png","null","","","test","","","","","","","","","","","","","","","","","","","",""
"311.60000014305115","267699","SARL_v6","SARL_v66ud7yczf","63e5a6690eeedc20da056717","freq","","","img/blue_2bandit_a2.png","70","","70","test","1","","62","","","","square","circle","60","13","3","0.95","","","","","","","",""
"null","268196","SARL_v6","SARL_v66ud7yczf","63e5a6690eeedc20da056717","freq_resp","","","img/blue_2bandit_a.png","70","img/blue_2bandit_a.png","70","test","","","","","","","","","","","3","","","","","","","","",""
"null","268352","SARL_v6","SARL_v66ud7yczf","63e5a6690eeedc20da056717","fixation","","","img/fixation.png","null","","","test","","","","","","","","","","","","","","","","","","","",""
"290.09999990463257","268647","SARL_v6","SARL_v66ud7yczf","63e5a6690eeedc20da056717","freq","","","img/blue_2bandit_a2.png","70","","70","test","1","","63","","","","square","circle","61","14","3","0.9508196721311475","","","","","","","",""
"null","269164","SARL_v6","SARL_v66ud7yczf","63e5a6690eeedc20da056717","freq_resp","","","img/blue_2bandit_a.png","70","img/blue_2bandit_a.png","70","test","","","","","","","","","","","3","","","","","","","","",""
"null","269324","SARL_v6","SARL_v66ud7yczf","63e5a6690eeedc20da056717","fixation","","","img/fixation.png","null","","","test","","","","","","","","","","","","","","","","","","","",""
"335.40000009536743","269662","SARL_v6","SARL_v66ud7yczf","63e5a6690eeedc20da056717","freq","","","img/blue_2bandit_a2.png","70","","70","test","1","","64","","","","square","circle","62","15","3","0.9516129032258065","","","","","","","",""
"null","270132","SARL_v6","SARL_v66ud7yczf","63e5a6690eeedc20da056717","freq_resp","","","img/blue_2bandit_a.png","70","img/blue_2bandit_a.png","70","test","","","","","","","","","","","3","","","","","","","","",""
"null","270288","SARL_v6","SARL_v66ud7yczf","63e5a6690eeedc20da056717","fixation","","","img/fixation.png","null","","","test","","","","","","","","","","","","","","","","","","","",""
"479.60000014305115","270770","SARL_v6","SARL_v66ud7yczf","63e5a6690eeedc20da056717","freq","","","img/blue_2bandit_a2.png","70","","70","test","1","","65","","","","square","circle","63","16","3","0.9523809523809523","","","","","","","",""
"null","271108","SARL_v6","SARL_v66ud7yczf","63e5a6690eeedc20da056717","freq_resp","","","img/blue_2bandit_a.png","70","img/blue_2bandit_a.png","70","test","","","","","","","","","","","3","","","","","","","","",""
"null","271265","SARL_v6","SARL_v66ud7yczf","63e5a6690eeedc20da056717","fixation","","","img/fixation.png","null","","","test","","","","","","","","","","","","","","","","","","","",""
"297","271566","SARL_v6","SARL_v66ud7yczf","63e5a6690eeedc20da056717","freq","","","img/blue_2bandit_a2.png","70","","70","test","1","","66","","","","square","circle","64","17","3","0.953125","","","","","","","",""
"null","272081","SARL_v6","SARL_v66ud7yczf","63e5a6690eeedc20da056717","freq_resp","","","img/blue_2bandit_a.png","70","img/blue_2bandit_a.png","70","test","","","","","","","","","","","3","","","","","","","","",""
"null","272236","SARL_v6","SARL_v66ud7yczf","63e5a6690eeedc20da056717","fixation","","","img/fixation.png","null","","","test","","","","","","","","","","","","","","","","","","","",""
"339.2000000476837","272579","SARL_v6","SARL_v66ud7yczf","63e5a6690eeedc20da056717","freq","","","img/blue_2bandit_a2.png","70","","70","test","1","","67","","","","square","circle","65","18","3","0.9538461538461539","","","","","","","",""
"null","273056","SARL_v6","SARL_v66ud7yczf","63e5a6690eeedc20da056717","freq_resp","","","img/blue_2bandit_a.png","70","img/blue_2bandit_a.png","70","test","","","","","","","","","","","3","","","","","","","","",""
"null","273223","SARL_v6","SARL_v66ud7yczf","63e5a6690eeedc20da056717","fixation","","","img/fixation.png","null","","","test","","","","","","","","","","","","","","","","","","","",""
"404.2999999523163","273631","SARL_v6","SARL_v66ud7yczf","63e5a6690eeedc20da056717","freq","","","img/blue_2bandit_a2.png","70","","70","test","1","","68","","","","square","circle","66","19","3","0.9545454545454546","","","","","","","",""
"null","274038","SARL_v6","SARL_v66ud7yczf","63e5a6690eeedc20da056717","freq_resp","","","img/blue_2bandit_a.png","70","img/blue_2bandit_a.png","70","test","","","","","","","","","","","3","","","","","","","","",""
"null","274196","SARL_v6","SARL_v66ud7yczf","63e5a6690eeedc20da056717","fixation","","","img/fixation.png","null","","","test","","","","","","","","","","","","","","","","","","","",""
"315.69999980926514","274515","SARL_v6","SARL_v66ud7yczf","63e5a6690eeedc20da056717","freq","","","img/blue_2bandit_a2.png","70","","70","test","1","","69","","","","square","circle","67","20","3","0.9552238805970149","","","","","","","",""
"null","275008","SARL_v6","SARL_v66ud7yczf","63e5a6690eeedc20da056717","freq_resp","","","img/blue_2bandit_a.png","70","img/blue_2bandit_a.png","70","test","","","","","","","","","","","3","","","","","","","","",""
"null","275166","SARL_v6","SARL_v66ud7yczf","63e5a6690eeedc20da056717","fixation","","","img/fixation.png","null","","","test","","","","","","","","","","","","","","","","","","","",""
"350.7000000476837","275520","SARL_v6","SARL_v66ud7yczf","63e5a6690eeedc20da056717","freq","","","img/blue_2bandit_a2.png","70","","70","test","1","","70","","","","square","circle","68","21","3","0.9558823529411765","","","","","","","",""
"null","275972","SARL_v6","SARL_v66ud7yczf","63e5a6690eeedc20da056717","freq_resp","","","img/blue_2bandit_a.png","70","img/blue_2bandit_a.png","70","test","","","","","","","","","","","3","","","","","","","","",""
"null","276133","SARL_v6","SARL_v66ud7yczf","63e5a6690eeedc20da056717","fixation","","","img/fixation.png","null","","","test","","","","","","","","","","","","","","","","","","","",""
"706.5","276843","SARL_v6","SARL_v66ud7yczf","63e5a6690eeedc20da056717","rl","","","img/black_2bandit_a2.png","75","","0","test","","","71","","","-4","square","circle","","0","3","","75","-4","-8","-8","-4","circle","3","0"
"null","277599","SARL_v6","SARL_v66ud7yczf","63e5a6690eeedc20da056717","feedback","","","<div class=""verylowPoints""> -4 </div>","null","","na","test","","","NaN","","","","","","","","3","","75","","","","","","3",""
"417.7000000476837","278020","SARL_v6","SARL_v66ud7yczf","63e5a6690eeedc20da056717","freq","","","img/blue_2bandit_a2.png","70","","70","test","1","","72","","","","square","circle","69","1","4","0.9565217391304348","","","","","","","",""
"null","278413","SARL_v6","SARL_v66ud7yczf","63e5a6690eeedc20da056717","freq_resp","","","img/blue_2bandit_a.png","70","img/blue_2bandit_a.png","70","test","","","","","","","","","","","4","","","","","","","","",""
"null","278576","SARL_v6","SARL_v66ud7yczf","63e5a6690eeedc20da056717","fixation","","","img/fixation.png","null","","","test","","","","","","","","","","","","","","","","","","","",""
"280.7999999523163","278861","SARL_v6","SARL_v66ud7yczf","63e5a6690eeedc20da056717","freq","","","img/blue_2bandit_a2.png","70","","70","test","1","","73","","","","square","circle","70","2","4","0.9571428571428572","","","","","","","",""
"null","279388","SARL_v6","SARL_v66ud7yczf","63e5a6690eeedc20da056717","freq_resp","","","img/blue_2bandit_a.png","70","img/blue_2bandit_a.png","70","test","","","","","","","","","","","4","","","","","","","","",""
"null","279545","SARL_v6","SARL_v66ud7yczf","63e5a6690eeedc20da056717","fixation","","","img/fixation.png","null","","","test","","","","","","","","","","","","","","","","","","","",""
"277.7000000476837","279826","SARL_v6","SARL_v66ud7yczf","63e5a6690eeedc20da056717","freq","","","img/blue_2bandit_a2.png","70","","70","test","1","","74","","","","square","circle","71","3","4","0.9577464788732394","","","","","","","",""
"null","280365","SARL_v6","SARL_v66ud7yczf","63e5a6690eeedc20da056717","freq_resp","","","img/blue_2bandit_a.png","70","img/blue_2bandit_a.png","70","test","","","","","","","","","","","4","","","","","","","","",""
"null","280519","SARL_v6","SARL_v66ud7yczf","63e5a6690eeedc20da056717","fixation","","","img/fixation.png","null","","","test","","","","","","","","","","","","","","","","","","","",""
"303.7000000476837","280826","SARL_v6","SARL_v66ud7yczf","63e5a6690eeedc20da056717","freq","","","img/blue_2bandit_a2.png","70","","70","test","1","","75","","","","square","circle","72","4","4","0.9583333333333334","","","","","","","",""
"null","281327","SARL_v6","SARL_v66ud7yczf","63e5a6690eeedc20da056717","freq_resp","","","img/blue_2bandit_a.png","70","img/blue_2bandit_a.png","70","test","","","","","","","","","","","4","","","","","","","","",""
"null","281496","SARL_v6","SARL_v66ud7yczf","63e5a6690eeedc20da056717","fixation","","","img/fixation.png","null","","","test","","","","","","","","","","","","","","","","","","","",""
"276.30000019073486","281776","SARL_v6","SARL_v66ud7yczf","63e5a6690eeedc20da056717","freq","","","img/blue_2bandit_a2.png","70","","70","test","1","","76","","","","square","circle","73","5","4","0.958904109589041","","","","","","","",""
"null","282307","SARL_v6","SARL_v66ud7yczf","63e5a6690eeedc20da056717","freq_resp","","","img/blue_2bandit_a.png","70","img/blue_2bandit_a.png","70","test","","","","","","","","","","","4","","","","","","","","",""
"null","282465","SARL_v6","SARL_v66ud7yczf","63e5a6690eeedc20da056717","fixation","","","img/fixation.png","null","","","test","","","","","","","","","","","","","","","","","","","",""
"264.59999990463257","282732","SARL_v6","SARL_v66ud7yczf","63e5a6690eeedc20da056717","freq","","","img/blue_2bandit_a2.png","70","","70","test","1","","77","","","","square","circle","74","6","4","0.9594594594594594","","","","","","","",""
"null","283275","SARL_v6","SARL_v66ud7yczf","63e5a6690eeedc20da056717","freq_resp","","","img/blue_2bandit_a.png","70","img/blue_2bandit_a.png","70","test","","","","","","","","","","","4","","","","","","","","",""
"null","283431","SARL_v6","SARL_v66ud7yczf","63e5a6690eeedc20da056717","fixation","","","img/fixation.png","null","","","test","","","","","","","","","","","","","","","","","","","",""
"446.39999985694885","283882","SARL_v6","SARL_v66ud7yczf","63e5a6690eeedc20da056717","infreq","","","img/orange_2bandit_a2.png","68","","68","test","1","","78","","","","square","circle","75","7","4","0.96","","","","","","","",""
"null","284240","SARL_v6","SARL_v66ud7yczf","63e5a6690eeedc20da056717","infreq_resp","","","img/orange_2bandit_a.png","68","img/orange_2bandit_a.png","68","test","","","","","","","","","","","4","","","","","","","","",""
"null","284407","SARL_v6","SARL_v66ud7yczf","63e5a6690eeedc20da056717","fixation","","","img/fixation.png","null","","","test","","","","","","","","","","","","","","","","","","","",""
"434.7000000476837","284846","SARL_v6","SARL_v66ud7yczf","63e5a6690eeedc20da056717","freq","","","img/blue_2bandit_a2.png","70","","70","test","1","","79","","","","square","circle","76","8","4","0.9605263157894737","","","","","","","",""
"null","285223","SARL_v6","SARL_v66ud7yczf","63e5a6690eeedc20da056717","freq_resp","","","img/blue_2bandit_a.png","70","img/blue_2bandit_a.png","70","test","","","","","","","","","","","4","","","","","","","","",""
"null","285380","SARL_v6","SARL_v66ud7yczf","63e5a6690eeedc20da056717","fixation","","","img/fixation.png","null","","","test","","","","","","","","","","","","","","","","","","","",""
"311","285694","SARL_v6","SARL_v66ud7yczf","63e5a6690eeedc20da056717","freq","","","img/blue_2bandit_a2.png","70","","70","test","1","","80","","","","square","circle","77","9","4","0.961038961038961","","","","","","","",""
"null","286199","SARL_v6","SARL_v66ud7yczf","63e5a6690eeedc20da056717","freq_resp","","","img/blue_2bandit_a.png","70","img/blue_2bandit_a.png","70","test","","","","","","","","","","","4","","","","","","","","",""
"null","286357","SARL_v6","SARL_v66ud7yczf","63e5a6690eeedc20da056717","fixation","","","img/fixation.png","null","","","test","","","","","","","","","","","","","","","","","","","",""
"349.80000019073486","286711","SARL_v6","SARL_v66ud7yczf","63e5a6690eeedc20da056717","freq","","","img/blue_2bandit_a2.png","70","","70","test","1","","81","","","","square","circle","78","10","4","0.9615384615384616","","","","","","","",""
"null","287171","SARL_v6","SARL_v66ud7yczf","63e5a6690eeedc20da056717","freq_resp","","","img/blue_2bandit_a.png","70","img/blue_2bandit_a.png","70","test","","","","","","","","","","","4","","","","","","","","",""
"null","287328","SARL_v6","SARL_v66ud7yczf","63e5a6690eeedc20da056717","fixation","","","img/fixation.png","null","","","test","","","","","","","","","","","","","","","","","","","",""
"363.5","287696","SARL_v6","SARL_v66ud7yczf","63e5a6690eeedc20da056717","freq","","","img/blue_2bandit_a2.png","70","","70","test","1","","82","","","","square","circle","79","11","4","0.9620253164556962","","","","","","","",""
"null","288149","SARL_v6","SARL_v66ud7yczf","63e5a6690eeedc20da056717","freq_resp","","","img/blue_2bandit_a.png","70","img/blue_2bandit_a.png","70","test","","","","","","","","","","","4","","","","","","","","",""
"null","288305","SARL_v6","SARL_v66ud7yczf","63e5a6690eeedc20da056717","fixation","","","img/fixation.png","null","","","test","","","","","","","","","","","","","","","","","","","",""
"335.90000009536743","288646","SARL_v6","SARL_v66ud7yczf","63e5a6690eeedc20da056717","freq","","","img/blue_2bandit_a2.png","70","","70","test","1","","83","","","","square","circle","80","12","4","0.9625","","","","","","","",""
"null","289120","SARL_v6","SARL_v66ud7yczf","63e5a6690eeedc20da056717","freq_resp","","","img/blue_2bandit_a.png","70","img/blue_2bandit_a.png","70","test","","","","","","","","","","","4","","","","","","","","",""
"null","289278","SARL_v6","SARL_v66ud7yczf","63e5a6690eeedc20da056717","fixation","","","img/fixation.png","null","","","test","","","","","","","","","","","","","","","","","","","",""
"340","289621","SARL_v6","SARL_v66ud7yczf","63e5a6690eeedc20da056717","freq","","","img/blue_2bandit_a2.png","70","","70","test","1","","84","","","","square","circle","81","13","4","0.9629629629629629","","","","","","","",""
"null","290095","SARL_v6","SARL_v66ud7yczf","63e5a6690eeedc20da056717","freq_resp","","","img/blue_2bandit_a.png","70","img/blue_2bandit_a.png","70","test","","","","","","","","","","","4","","","","","","","","",""
"null","290250","SARL_v6","SARL_v66ud7yczf","63e5a6690eeedc20da056717","fixation","","","img/fixation.png","null","","","test","","","","","","","","","","","","","","","","","","","",""
"671.7000000476837","290925","SARL_v6","SARL_v66ud7yczf","63e5a6690eeedc20da056717","infreq","","","img/orange_2bandit_a2.png","68","","68","test","1","","85","","","","square","circle","82","14","4","0.9634146341463414","","","","","","","",""
"null","291068","SARL_v6","SARL_v66ud7yczf","63e5a6690eeedc20da056717","infreq_resp","","","img/orange_2bandit_a.png","68","img/orange_2bandit_a.png","68","test","","","","","","","","","","","4","","","","","","","","",""
"null","291233","SARL_v6","SARL_v66ud7yczf","63e5a6690eeedc20da056717","fixation","","","img/fixation.png","null","","","test","","","","","","","","","","","","","","","","","","","",""
"530.6000001430511","291768","SARL_v6","SARL_v66ud7yczf","63e5a6690eeedc20da056717","freq","","","img/blue_2bandit_a2.png","70","","70","test","1","","86","","","","square","circle","83","15","4","0.963855421686747","","","","","","","",""
"null","292041","SARL_v6","SARL_v66ud7yczf","63e5a6690eeedc20da056717","freq_resp","","","img/blue_2bandit_a.png","70","img/blue_2bandit_a.png","70","test","","","","","","","","","","","4","","","","","","","","",""
"null","292197","SARL_v6","SARL_v66ud7yczf","63e5a6690eeedc20da056717","fixation","","","img/fixation.png","null","","","test","","","","","","","","","","","","","","","","","","","",""
"483.7999999523163","292684","SARL_v6","SARL_v66ud7yczf","63e5a6690eeedc20da056717","freq","","","img/blue_2bandit_a2.png","70","","70","test","1","","87","","","","square","circle","84","16","4","0.9642857142857143","","","","","","","",""
"null","293009","SARL_v6","SARL_v66ud7yczf","63e5a6690eeedc20da056717","freq_resp","","","img/blue_2bandit_a.png","70","img/blue_2bandit_a.png","70","test","","","","","","","","","","","4","","","","","","","","",""
"null","293164","SARL_v6","SARL_v66ud7yczf","63e5a6690eeedc20da056717","fixation","","","img/fixation.png","null","","","test","","","","","","","","","","","","","","","","","","","",""
"323.30000019073486","293490","SARL_v6","SARL_v66ud7yczf","63e5a6690eeedc20da056717","freq","","","img/blue_2bandit_a2.png","70","","70","test","1","","88","","","","square","circle","85","17","4","0.9647058823529412","","","","","","","",""
"null","293977","SARL_v6","SARL_v66ud7yczf","63e5a6690eeedc20da056717","freq_resp","","","img/blue_2bandit_a.png","70","img/blue_2bandit_a.png","70","test","","","","","","","","","","","4","","","","","","","","",""
"null","294131","SARL_v6","SARL_v66ud7yczf","63e5a6690eeedc20da056717","fixation","","","img/fixation.png","null","","","test","","","","","","","","","","","","","","","","","","","",""
"293.2000000476837","294429","SARL_v6","SARL_v66ud7yczf","63e5a6690eeedc20da056717","freq","","","img/blue_2bandit_a2.png","70","","70","test","1","","89","","","","square","circle","86","18","4","0.9651162790697675","","","","","","","",""
"null","294952","SARL_v6","SARL_v66ud7yczf","63e5a6690eeedc20da056717","freq_resp","","","img/blue_2bandit_a.png","70","img/blue_2bandit_a.png","70","test","","","","","","","","","","","4","","","","","","","","",""
"null","295115","SARL_v6","SARL_v66ud7yczf","63e5a6690eeedc20da056717","fixation","","","img/fixation.png","null","","","test","","","","","","","","","","","","","","","","","","","",""
"365.7000000476837","295484","SARL_v6","SARL_v66ud7yczf","63e5a6690eeedc20da056717","freq","","","img/blue_2bandit_a2.png","70","","70","test","1","","90","","","","square","circle","87","19","4","0.9655172413793104","","","","","","","",""
"null","295930","SARL_v6","SARL_v66ud7yczf","63e5a6690eeedc20da056717","freq_resp","","","img/blue_2bandit_a.png","70","img/blue_2bandit_a.png","70","test","","","","","","","","","","","4","","","","","","","","",""
"null","296086","SARL_v6","SARL_v66ud7yczf","63e5a6690eeedc20da056717","fixation","","","img/fixation.png","null","","","test","","","","","","","","","","","","","","","","","","","",""
"309.89999985694885","296399","SARL_v6","SARL_v66ud7yczf","63e5a6690eeedc20da056717","freq","","","img/blue_2bandit_a2.png","70","","70","test","1","","91","","","","square","circle","88","20","4","0.9659090909090909","","","","","","","",""
"null","296893","SARL_v6","SARL_v66ud7yczf","63e5a6690eeedc20da056717","freq_resp","","","img/blue_2bandit_a.png","70","img/blue_2bandit_a.png","70","test","","","","","","","","","","","4","","","","","","","","",""
"null","297048","SARL_v6","SARL_v66ud7yczf","63e5a6690eeedc20da056717","fixation","","","img/fixation.png","null","","","test","","","","","","","","","","","","","","","","","","","",""
"334","297386","SARL_v6","SARL_v66ud7yczf","63e5a6690eeedc20da056717","freq","","","img/blue_2bandit_a2.png","70","","70","test","1","","92","","","","square","circle","89","21","4","0.9662921348314607","","","","","","","",""
"null","297857","SARL_v6","SARL_v66ud7yczf","63e5a6690eeedc20da056717","freq_resp","","","img/blue_2bandit_a.png","70","img/blue_2bandit_a.png","70","test","","","","","","","","","","","4","","","","","","","","",""
"null","298014","SARL_v6","SARL_v66ud7yczf","63e5a6690eeedc20da056717","fixation","","","img/fixation.png","null","","","test","","","","","","","","","","","","","","","","","","","",""
"964.6000001430511","298982","SARL_v6","SARL_v66ud7yczf","63e5a6690eeedc20da056717","rl","","","img/black_2bandit_a2.png","75","","0","test","","","93","","","0","square","circle","","0","4","","75","0","-12","-12","0","circle","4","0"
"null","299749","SARL_v6","SARL_v66ud7yczf","63e5a6690eeedc20da056717","feedback","","","<div class=""verylowPoints""> 0 </div>","null","","na","test","","","NaN","","","","","","","","4","","75","","","","","","4",""
"484","300236","SARL_v6","SARL_v66ud7yczf","63e5a6690eeedc20da056717","freq","","","img/blue_2bandit_a2.png","70","","70","test","1","","94","","","","square","circle","90","1","5","0.9666666666666667","","","","","","","",""
"null","300565","SARL_v6","SARL_v66ud7yczf","63e5a6690eeedc20da056717","freq_resp","","","img/blue_2bandit_a.png","70","img/blue_2bandit_a.png","70","test","","","","","","","","","","","5","","","","","","","","",""
"null","300722","SARL_v6","SARL_v66ud7yczf","63e5a6690eeedc20da056717","fixation","","","img/fixation.png","null","","","test","","","","","","","","","","","","","","","","","","","",""
"316.60000014305115","301042","SARL_v6","SARL_v66ud7yczf","63e5a6690eeedc20da056717","freq","","","img/blue_2bandit_a2.png","70","","70","test","1","","95","","","","square","circle","91","2","5","0.967032967032967","","","","","","","",""
"null","301531","SARL_v6","SARL_v66ud7yczf","63e5a6690eeedc20da056717","freq_resp","","","img/blue_2bandit_a.png","70","img/blue_2bandit_a.png","70","test","","","","","","","","","","","5","","","","","","","","",""
"null","301697","SARL_v6","SARL_v66ud7yczf","63e5a6690eeedc20da056717","fixation","","","img/fixation.png","null","","","test","","","","","","","","","","","","","","","","","","","",""
"317.40000009536743","302019","SARL_v6","SARL_v66ud7yczf","63e5a6690eeedc20da056717","freq","","","img/blue_2bandit_a2.png","70","","70","test","1","","96","","","","square","circle","92","3","5","0.967391304347826","","","","","","","",""
"null","302507","SARL_v6","SARL_v66ud7yczf","63e5a6690eeedc20da056717","freq_resp","","","img/blue_2bandit_a.png","70","img/blue_2bandit_a.png","70","test","","","","","","","","","","","5","","","","","","","","",""
"null","302673","SARL_v6","SARL_v66ud7yczf","63e5a6690eeedc20da056717","fixation","","","img/fixation.png","null","","","test","","","","","","","","","","","","","","","","","","","",""
"309.2999999523163","302986","SARL_v6","SARL_v66ud7yczf","63e5a6690eeedc20da056717","freq","","","img/blue_2bandit_a2.png","70","","70","test","1","","97","","","","square","circle","93","4","5","0.967741935483871","","","","","","","",""
"null","303496","SARL_v6","SARL_v66ud7yczf","63e5a6690eeedc20da056717","freq_resp","","","img/blue_2bandit_a.png","70","img/blue_2bandit_a.png","70","test","","","","","","","","","","","5","","","","","","","","",""
"null","303652","SARL_v6","SARL_v66ud7yczf","63e5a6690eeedc20da056717","fixation","","","img/fixation.png","null","","","test","","","","","","","","","","","","","","","","","","","",""
"641.5","304298","SARL_v6","SARL_v66ud7yczf","63e5a6690eeedc20da056717","infreq","","","img/orange_2bandit_a2.png","68","","68","test","1","","98","","","","square","circle","94","5","5","0.9680851063829787","","","","","","","",""
"null","304468","SARL_v6","SARL_v66ud7yczf","63e5a6690eeedc20da056717","infreq_resp","","","img/orange_2bandit_a.png","68","img/orange_2bandit_a.png","68","test","","","","","","","","","","","5","","","","","","","","",""
"null","304631","SARL_v6","SARL_v66ud7yczf","63e5a6690eeedc20da056717","fixation","","","img/fixation.png","null","","","test","","","","","","","","","","","","","","","","","","","",""
"386.5","305020","SARL_v6","SARL_v66ud7yczf","63e5a6690eeedc20da056717","infreq","","","img/orange_2bandit_a2.png","68","","68","test","1","","99","","","","square","circle","95","6","5","0.968421052631579","","","","","","","",""
"null","305445","SARL_v6","SARL_v66ud7yczf","63e5a6690eeedc20da056717","infreq_resp","","","img/orange_2bandit_a.png","68","img/orange_2bandit_a.png","68","test","","","","","","","","","","","5","","","","","","","","",""
"null","305607","SARL_v6","SARL_v66ud7yczf","63e5a6690eeedc20da056717","fixation","","","img/fixation.png","null","","","test","","","","","","","","","","","","","","","","","","","",""
"534","306145","SARL_v6","SARL_v66ud7yczf","63e5a6690eeedc20da056717","freq","","","img/blue_2bandit_a2.png","70","","70","test","1","","100","","","","square","circle","96","7","5","0.96875","","","","","","","",""
"null","306428","SARL_v6","SARL_v66ud7yczf","63e5a6690eeedc20da056717","freq_resp","","","img/blue_2bandit_a.png","70","img/blue_2bandit_a.png","70","test","","","","","","","","","","","5","","","","","","","","",""
"null","306585","SARL_v6","SARL_v66ud7yczf","63e5a6690eeedc20da056717","fixation","","","img/fixation.png","null","","","test","","","","","","","","","","","","","","","","","","","",""
"296.7000000476837","306885","SARL_v6","SARL_v66ud7yczf","63e5a6690eeedc20da056717","freq","","","img/blue_2bandit_a2.png","70","","70","test","1","","101","","","","square","circle","97","8","5","0.9690721649484536","","","","","","","",""
"null","307395","SARL_v6","SARL_v66ud7yczf","63e5a6690eeedc20da056717","freq_resp","","","img/blue_2bandit_a.png","70","img/blue_2bandit_a.png","70","test","","","","","","","","","","","5","","","","","","","","",""
"null","307562","SARL_v6","SARL_v66ud7yczf","63e5a6690eeedc20da056717","fixation","","","img/fixation.png","null","","","test","","","","","","","","","","","","","","","","","","","",""
"369.10000014305115","307935","SARL_v6","SARL_v66ud7yczf","63e5a6690eeedc20da056717","freq","","","img/blue_2bandit_a2.png","70","","70","test","1","","102","","","","square","circle","98","9","5","0.9693877551020408","","","","","","","",""
"null","308370","SARL_v6","SARL_v66ud7yczf","63e5a6690eeedc20da056717","freq_resp","","","img/blue_2bandit_a.png","70","img/blue_2bandit_a.png","70","test","","","","","","","","","","","5","","","","","","","","",""
"null","308527","SARL_v6","SARL_v66ud7yczf","63e5a6690eeedc20da056717","fixation","","","img/fixation.png","null","","","test","","","","","","","","","","","","","","","","","","","",""
"273.59999990463257","308804","SARL_v6","SARL_v66ud7yczf","63e5a6690eeedc20da056717","freq","","","img/blue_2bandit_a2.png","70","","70","test","1","","103","","","","square","circle","99","10","5","0.9696969696969697","","","","","","","",""
"null","309338","SARL_v6","SARL_v66ud7yczf","63e5a6690eeedc20da056717","freq_resp","","","img/blue_2bandit_a.png","70","img/blue_2bandit_a.png","70","test","","","","","","","","","","","5","","","","","","","","",""
"null","309495","SARL_v6","SARL_v66ud7yczf","63e5a6690eeedc20da056717","fixation","","","img/fixation.png","null","","","test","","","","","","","","","","","","","","","","","","","",""
"382.09999990463257","309880","SARL_v6","SARL_v66ud7yczf","63e5a6690eeedc20da056717","freq","","","img/blue_2bandit_a2.png","70","","70","test","1","","104","","","","square","circle","100","11","5","0.97","","","","","","","",""
"null","310313","SARL_v6","SARL_v66ud7yczf","63e5a6690eeedc20da056717","freq_resp","","","img/blue_2bandit_a.png","70","img/blue_2bandit_a.png","70","test","","","","","","","","","","","5","","","","","","","","",""
"null","310467","SARL_v6","SARL_v66ud7yczf","63e5a6690eeedc20da056717","fixation","","","img/fixation.png","null","","","test","","","","","","","","","","","","","","","","","","","",""
"295.39999985694885","310766","SARL_v6","SARL_v66ud7yczf","63e5a6690eeedc20da056717","freq","","","img/blue_2bandit_a2.png","70","","70","test","1","","105","","","","square","circle","101","12","5","0.9702970297029703","","","","","","","",""
"null","311280","SARL_v6","SARL_v66ud7yczf","63e5a6690eeedc20da056717","freq_resp","","","img/blue_2bandit_a.png","70","img/blue_2bandit_a.png","70","test","","","","","","","","","","","5","","","","","","","","",""
"null","311435","SARL_v6","SARL_v66ud7yczf","63e5a6690eeedc20da056717","fixation","","","img/fixation.png","null","","","test","","","","","","","","","","","","","","","","","","","",""
"272.10000014305115","311712","SARL_v6","SARL_v66ud7yczf","63e5a6690eeedc20da056717","freq","","","img/blue_2bandit_a2.png","70","","70","test","1","","106","","","","square","circle","102","13","5","0.9705882352941176","","","","","","","",""
"null","312246","SARL_v6","SARL_v66ud7yczf","63e5a6690eeedc20da056717","freq_resp","","","img/blue_2bandit_a.png","70","img/blue_2bandit_a.png","70","test","","","","","","","","","","","5","","","","","","","","",""
"null","312404","SARL_v6","SARL_v66ud7yczf","63e5a6690eeedc20da056717","fixation","","","img/fixation.png","null","","","test","","","","","","","","","","","","","","","","","","","",""
"341","312748","SARL_v6","SARL_v66ud7yczf","63e5a6690eeedc20da056717","freq","","","img/blue_2bandit_a2.png","70","","70","test","1","","107","","","","square","circle","103","14","5","0.970873786407767","","","","","","","",""
"null","313223","SARL_v6","SARL_v66ud7yczf","63e5a6690eeedc20da056717","freq_resp","","","img/blue_2bandit_a.png","70","img/blue_2bandit_a.png","70","test","","","","","","","","","","","5","","","","","","","","",""
"null","313388","SARL_v6","SARL_v66ud7yczf","63e5a6690eeedc20da056717","fixation","","","img/fixation.png","null","","","test","","","","","","","","","","","","","","","","","","","",""
"386.80000019073486","313779","SARL_v6","SARL_v66ud7yczf","63e5a6690eeedc20da056717","freq","","","img/blue_2bandit_a2.png","70","","70","test","1","","108","","","","square","circle","104","15","5","0.9711538461538461","","","","","","","",""
"null","314213","SARL_v6","SARL_v66ud7yczf","63e5a6690eeedc20da056717","freq_resp","","","img/blue_2bandit_a.png","70","img/blue_2bandit_a.png","70","test","","","","","","","","","","","5","","","","","","","","",""
"null","314376","SARL_v6","SARL_v66ud7yczf","63e5a6690eeedc20da056717","fixation","","","img/fixation.png","null","","","test","","","","","","","","","","","","","","","","","","","",""
"294.40000009536743","314674","SARL_v6","SARL_v66ud7yczf","63e5a6690eeedc20da056717","freq","","","img/blue_2bandit_a2.png","70","","70","test","1","","109","","","","square","circle","105","16","5","0.9714285714285714","","","","","","","",""
"null","315189","SARL_v6","SARL_v66ud7yczf","63e5a6690eeedc20da056717","freq_resp","","","img/blue_2bandit_a.png","70","img/blue_2bandit_a.png","70","test","","","","","","","","","","","5","","","","","","","","",""
"null","315357","SARL_v6","SARL_v66ud7yczf","63e5a6690eeedc20da056717","fixation","","","img/fixation.png","null","","","test","","","","","","","","","","","","","","","","","","","",""
"319","315679","SARL_v6","SARL_v66ud7yczf","63e5a6690eeedc20da056717","freq","","","img/blue_2bandit_a2.png","70","","70","test","1","","110","","","","square","circle","106","17","5","0.9716981132075472","","","","","","","",""
"null","316173","SARL_v6","SARL_v66ud7yczf","63e5a6690eeedc20da056717","freq_resp","","","img/blue_2bandit_a.png","70","img/blue_2bandit_a.png","70","test","","","","","","","","","","","5","","","","","","","","",""
"null","316330","SARL_v6","SARL_v66ud7yczf","63e5a6690eeedc20da056717","fixation","","","img/fixation.png","null","","","test","","","","","","","","","","","","","","","","","","","",""
"288.90000009536743","316622","SARL_v6","SARL_v66ud7yczf","63e5a6690eeedc20da056717","freq","","","img/blue_2bandit_a2.png","70","","70","test","1","","111","","","","square","circle","107","18","5","0.9719626168224299","","","","","","","",""
"null","317146","SARL_v6","SARL_v66ud7yczf","63e5a6690eeedc20da056717","freq_resp","","","img/blue_2bandit_a.png","70","img/blue_2bandit_a.png","70","test","","","","","","","","","","","5","","","","","","","","",""
"null","317307","SARL_v6","SARL_v66ud7yczf","63e5a6690eeedc20da056717","fixation","","","img/fixation.png","null","","","test","","","","","","","","","","","","","","","","","","","",""
"129.69999980926514","317440","SARL_v6","SARL_v66ud7yczf","63e5a6690eeedc20da056717","freq","","","img/blue_2bandit_a2.png","70","","70","test","1","","112","","","","square","circle","108","19","5","0.9722222222222222","","","","","","","",""
"null","318130","SARL_v6","SARL_v66ud7yczf","63e5a6690eeedc20da056717","freq_resp","","","img/blue_2bandit_a.png","70","img/blue_2bandit_a.png","70","test","","","","","","","","","","","5","","","","","","","","",""
"null","318288","SARL_v6","SARL_v66ud7yczf","63e5a6690eeedc20da056717","fixation","","","img/fixation.png","null","","","test","","","","","","","","","","","","","","","","","","","",""
"376.5","318669","SARL_v6","SARL_v66ud7yczf","63e5a6690eeedc20da056717","freq","","","img/blue_2bandit_a2.png","70","","70","test","1","","113","","","","square","circle","109","20","5","0.9724770642201835","","","","","","","",""
"null","319110","SARL_v6","SARL_v66ud7yczf","63e5a6690eeedc20da056717","freq_resp","","","img/blue_2bandit_a.png","70","img/blue_2bandit_a.png","70","test","","","","","","","","","","","5","","","","","","","","",""
"null","319267","SARL_v6","SARL_v66ud7yczf","63e5a6690eeedc20da056717","fixation","","","img/fixation.png","null","","","test","","","","","","","","","","","","","","","","","","","",""
"264.60000014305115","319535","SARL_v6","SARL_v66ud7yczf","63e5a6690eeedc20da056717","freq","","","img/blue_2bandit_a2.png","70","","70","test","1","","114","","","","square","circle","110","21","5","0.9727272727272728","","","","","","","",""
"null","320085","SARL_v6","SARL_v66ud7yczf","63e5a6690eeedc20da056717","freq_resp","","","img/blue_2bandit_a.png","70","img/blue_2bandit_a.png","70","test","","","","","","","","","","","5","","","","","","","","",""
"null","320238","SARL_v6","SARL_v66ud7yczf","63e5a6690eeedc20da056717","fixation","","","img/fixation.png","null","","","test","","","","","","","","","","","","","","","","","","","",""
"291.09999990463257","320533","SARL_v6","SARL_v66ud7yczf","63e5a6690eeedc20da056717","freq","","","img/blue_2bandit_a2.png","70","","70","test","1","","115","","","","square","circle","111","22","5","0.972972972972973","","","","","","","",""
"null","321048","SARL_v6","SARL_v66ud7yczf","63e5a6690eeedc20da056717","freq_resp","","","img/blue_2bandit_a.png","70","img/blue_2bandit_a.png","70","test","","","","","","","","","","","5","","","","","","","","",""
"null","321202","SARL_v6","SARL_v66ud7yczf","63e5a6690eeedc20da056717","fixation","","","img/fixation.png","null","","","test","","","","","","","","","","","","","","","","","","","",""
"288.2000000476837","321496","SARL_v6","SARL_v66ud7yczf","63e5a6690eeedc20da056717","freq","","","img/blue_2bandit_a2.png","70","","70","test","1","","116","","","","square","circle","112","23","5","0.9732142857142857","","","","","","","",""
"null","322015","SARL_v6","SARL_v66ud7yczf","63e5a6690eeedc20da056717","freq_resp","","","img/blue_2bandit_a.png","70","img/blue_2bandit_a.png","70","test","","","","","","","","","","","5","","","","","","","","",""
"null","322169","SARL_v6","SARL_v66ud7yczf","63e5a6690eeedc20da056717","fixation","","","img/fixation.png","null","","","test","","","","","","","","","","","","","","","","","","","",""
"503.5","322675","SARL_v6","SARL_v66ud7yczf","63e5a6690eeedc20da056717","infreq","","","img/orange_2bandit_a2.png","68","","68","test","1","","117","","","","square","circle","113","24","5","0.9734513274336283","","","","","","","",""
"null","322990","SARL_v6","SARL_v66ud7yczf","63e5a6690eeedc20da056717","infreq_resp","","","img/orange_2bandit_a.png","68","img/orange_2bandit_a.png","68","test","","","","","","","","","","","5","","","","","","","","",""
"null","323145","SARL_v6","SARL_v66ud7yczf","63e5a6690eeedc20da056717","fixation","","","img/fixation.png","null","","","test","","","","","","","","","","","","","","","","","","","",""
"518.5","323668","SARL_v6","SARL_v66ud7yczf","63e5a6690eeedc20da056717","freq","","","img/blue_2bandit_a2.png","70","","70","test","1","","118","","","","square","circle","114","25","5","0.9736842105263158","","","","","","","",""
"null","323960","SARL_v6","SARL_v66ud7yczf","63e5a6690eeedc20da056717","freq_resp","","","img/blue_2bandit_a.png","70","img/blue_2bandit_a.png","70","test","","","","","","","","","","","5","","","","","","","","",""
"null","324117","SARL_v6","SARL_v66ud7yczf","63e5a6690eeedc20da056717","fixation","","","img/fixation.png","null","","","test","","","","","","","","","","","","","","","","","","","",""
"537.2999999523163","324658","SARL_v6","SARL_v66ud7yczf","63e5a6690eeedc20da056717","rl","","","img/black_2bandit_a2.png","75","","0","test","","","119","","","4","square","circle","","0","5","","75","4","-7","-7","4","circle","5","0"
"null","325423","SARL_v6","SARL_v66ud7yczf","63e5a6690eeedc20da056717","feedback","","","<div class=""veryhighPoints""> 4 </div>","null","","na","test","","","NaN","","","","","","","","5","","75","","","","","","5",""
"444.59999990463257","325870","SARL_v6","SARL_v66ud7yczf","63e5a6690eeedc20da056717","freq","","","img/blue_2bandit_a2.png","70","","70","test","1","","120","","","","square","circle","115","1","6","0.9739130434782609","","","","","","","",""
"null","326230","SARL_v6","SARL_v66ud7yczf","63e5a6690eeedc20da056717","freq_resp","","","img/blue_2bandit_a.png","70","img/blue_2bandit_a.png","70","test","","","","","","","","","","","6","","","","","","","","",""
"null","326396","SARL_v6","SARL_v66ud7yczf","63e5a6690eeedc20da056717","fixation","","","img/fixation.png","null","","","test","","","","","","","","","","","","","","","","","","","",""
"340.09999990463257","326740","SARL_v6","SARL_v66ud7yczf","63e5a6690eeedc20da056717","freq","","","img/blue_2bandit_a2.png","70","","70","test","1","","121","","","","square","circle","116","2","6","0.9741379310344828","","","","","","","",""
"null","327215","SARL_v6","SARL_v66ud7yczf","63e5a6690eeedc20da056717","freq_resp","","","img/blue_2bandit_a.png","70","img/blue_2bandit_a.png","70","test","","","","","","","","","","","6","","","","","","","","",""
"null","327373","SARL_v6","SARL_v66ud7yczf","63e5a6690eeedc20da056717","fixation","","","img/fixation.png","null","","","test","","","","","","","","","","","","","","","","","","","",""
"161.70000004768372","327538","SARL_v6","SARL_v66ud7yczf","63e5a6690eeedc20da056717","freq","","","img/blue_2bandit_a2.png","70","","70","test","1","","122","","","","square","circle","117","3","6","0.9743589743589743","","","","","","","",""
"null","328181","SARL_v6","SARL_v66ud7yczf","63e5a6690eeedc20da056717","freq_resp","","","img/blue_2bandit_a.png","70","img/blue_2bandit_a.png","70","test","","","","","","","","","","","6","","","","","","","","",""
"null","328342","SARL_v6","SARL_v66ud7yczf","63e5a6690eeedc20da056717","fixation","","","img/fixation.png","null","","","test","","","","","","","","","","","","","","","","","","","",""
"98.29999995231628","328443","SARL_v6","SARL_v66ud7yczf","63e5a6690eeedc20da056717","freq","","","img/blue_2bandit_a2.png","70","","70","test","1","","123","","","","square","circle","118","4","6","0.9745762711864406","","","","","","","",""
"null","329156","SARL_v6","SARL_v66ud7yczf","63e5a6690eeedc20da056717","freq_resp","","","img/blue_2bandit_a.png","70","img/blue_2bandit_a.png","70","test","","","","","","","","","","","6","","","","","","","","",""
"null","329316","SARL_v6","SARL_v66ud7yczf","63e5a6690eeedc20da056717","fixation","","","img/fixation.png","null","","","test","","","","","","","","","","","","","","","","","","","",""
"331.09999990463257","329649","SARL_v6","SARL_v66ud7yczf","63e5a6690eeedc20da056717","freq","","","img/blue_2bandit_a2.png","70","","70","test","1","","124","","","","square","circle","119","5","6","0.9747899159663865","","","","","","","",""
"null","330128","SARL_v6","SARL_v66ud7yczf","63e5a6690eeedc20da056717","freq_resp","","","img/blue_2bandit_a.png","70","img/blue_2bandit_a.png","70","test","","","","","","","","","","","6","","","","","","","","",""
"null","330283","SARL_v6","SARL_v66ud7yczf","63e5a6690eeedc20da056717","fixation","","","img/fixation.png","null","","","test","","","","","","","","","","","","","","","","","","","",""
"351.90000009536743","330638","SARL_v6","SARL_v66ud7yczf","63e5a6690eeedc20da056717","freq","","","img/blue_2bandit_a2.png","70","","70","test","1","","125","","","","square","circle","120","6","6","0.975","","","","","","","",""
"null","331102","SARL_v6","SARL_v66ud7yczf","63e5a6690eeedc20da056717","freq_resp","","","img/blue_2bandit_a.png","70","img/blue_2bandit_a.png","70","test","","","","","","","","","","","6","","","","","","","","",""
"null","331264","SARL_v6","SARL_v66ud7yczf","63e5a6690eeedc20da056717","fixation","","","img/fixation.png","null","","","test","","","","","","","","","","","","","","","","","","","",""
"264.69999980926514","331532","SARL_v6","SARL_v66ud7yczf","63e5a6690eeedc20da056717","freq","","","img/blue_2bandit_a2.png","70","","70","test","1","","126","","","","square","circle","121","7","6","0.9752066115702479","","","","","","","",""
"null","332077","SARL_v6","SARL_v66ud7yczf","63e5a6690eeedc20da056717","freq_resp","","","img/blue_2bandit_a.png","70","img/blue_2bandit_a.png","70","test","","","","","","","","","","","6","","","","","","","","",""
"null","332235","SARL_v6","SARL_v66ud7yczf","63e5a6690eeedc20da056717","fixation","","","img/fixation.png","null","","","test","","","","","","","","","","","","","","","","","","","",""
"354.90000009536743","332593","SARL_v6","SARL_v66ud7yczf","63e5a6690eeedc20da056717","freq","","","img/blue_2bandit_a2.png","70","","70","test","1","","127","","","","square","circle","122","8","6","0.9754098360655737","","","","","","","",""
"null","333046","SARL_v6","SARL_v66ud7yczf","63e5a6690eeedc20da056717","freq_resp","","","img/blue_2bandit_a.png","70","img/blue_2bandit_a.png","70","test","","","","","","","","","","","6","","","","","","","","",""
"null","333203","SARL_v6","SARL_v66ud7yczf","63e5a6690eeedc20da056717","fixation","","","img/fixation.png","null","","","test","","","","","","","","","","","","","","","","","","","",""
"507.59999990463257","333713","SARL_v6","SARL_v66ud7yczf","63e5a6690eeedc20da056717","infreq","","","img/orange_2bandit_a2.png","68","","68","test","1","","128","","","","square","circle","123","9","6","0.975609756097561","","","","","","","",""
"null","334011","SARL_v6","SARL_v66ud7yczf","63e5a6690eeedc20da056717","infreq_resp","","","img/orange_2bandit_a.png","68","img/orange_2bandit_a.png","68","test","","","","","","","","","","","6","","","","","","","","",""
"null","334167","SARL_v6","SARL_v66ud7yczf","63e5a6690eeedc20da056717","fixation","","","img/fixation.png","null","","","test","","","","","","","","","","","","","","","","","","","",""
"404.89999985694885","334575","SARL_v6","SARL_v66ud7yczf","63e5a6690eeedc20da056717","freq","","","img/blue_2bandit_a2.png","70","","70","test","1","","129","","","","square","circle","124","10","6","0.9758064516129032","","","","","","","",""
"null","334987","SARL_v6","SARL_v66ud7yczf","63e5a6690eeedc20da056717","freq_resp","","","img/blue_2bandit_a.png","70","img/blue_2bandit_a.png","70","test","","","","","","","","","","","6","","","","","","","","",""
"null","335146","SARL_v6","SARL_v66ud7yczf","63e5a6690eeedc20da056717","fixation","","","img/fixation.png","null","","","test","","","","","","","","","","","","","","","","","","","",""
