"rt","time_elapsed","expId","subject","prolificID","trialType","rlType","attType","stimulus","key_press","stim","corrresp","phase","corr","pracCounter","trialNum","rewardOne","rewardTwo","reward","bandOne","bandTwo","attentionNum","attentionRunNum","blockNum","performance","bandChosen","circleVal","squareVal","bandOneVal","bandTwoVal","shapeChosen","rlNum","badFlag"
"19989.5","19994","SARL_v6","SARL_v69617dncv","611131e47725f6a04c723651","","","","","","","","","","","","","","","","","","","","","","","","","","","",""
"","23433","SARL_v6","SARL_v69617dncv","611131e47725f6a04c723651","fullscreen","fullscreen","fullscreen","","","","","","","","","","","","","","","","","","","","","","","","",""
"65922","89355","SARL_v6","SARL_v69617dncv","611131e47725f6a04c723651","","","","","","","","","","","","","","","","","","","","","","","","","","","",""
"731.7000000476837","90091","SARL_v6","SARL_v69617dncv","611131e47725f6a04c723651","freqPrac","","","img/blue_2bandit_b2.png","68","img/blue_2bandit_b2.png","70","prac","0","1","","","","","","","","","","","","","","","","","",""
"731.7000000476837","90173","SARL_v6","SARL_v69617dncv","611131e47725f6a04c723651","freqPrac_resp","","","img/blue_2bandit_b.png","68","img/blue_2bandit_b.png","70","prac","","","","","","","","","","","","","","","","","","","",""
"null","91183","SARL_v6","SARL_v69617dncv","611131e47725f6a04c723651","feedback","","","img/wrongKey.png","null","","na","prac","","","","","","","","","","","","","","","","","","","",""
"null","91342","SARL_v6","SARL_v69617dncv","611131e47725f6a04c723651","fixation","","","img/fixation.png","null","","","prac","","","","","","","","","","","","","","","","","","","",""
"681.1000000238419","92026","SARL_v6","SARL_v69617dncv","611131e47725f6a04c723651","infreqPrac","","","img/orange_2bandit_b2.png","68","img/orange_2bandit_b2.png","68","prac","1","1","","","","","","","","","","","","","","","","","",""
"681.1000000238419","92157","SARL_v6","SARL_v69617dncv","611131e47725f6a04c723651","infreqPrac_resp","","","img/orange_2bandit_b.png","68","img/orange_2bandit_b.png","68","prac","","","","","","","","","","","","","","","","","","","",""
"null","92318","SARL_v6","SARL_v69617dncv","611131e47725f6a04c723651","fixation","","","img/fixation.png","null","","","prac","","","","","","","","","","","","","","","","","","","",""
"424.10000002384186","92745","SARL_v6","SARL_v69617dncv","611131e47725f6a04c723651","freqPrac","","","img/blue_2bandit_b2.png","70","img/blue_2bandit_b2.png","70","prac","1","1","","","","","","","","","","","","","","","","","",""
"424.10000002384186","93131","SARL_v6","SARL_v69617dncv","611131e47725f6a04c723651","freqPrac_resp","","","img/blue_2bandit_b.png","70","img/blue_2bandit_b.png","70","prac","","","","","","","","","","","","","","","","","","","",""
"null","93293","SARL_v6","SARL_v69617dncv","611131e47725f6a04c723651","fixation","","","img/fixation.png","null","","","prac","","","","","","","","","","","","","","","","","","","",""
"289.2999999523163","93586","SARL_v6","SARL_v69617dncv","611131e47725f6a04c723651","infreqPrac","","","img/orange_2bandit_b2.png","68","img/orange_2bandit_b2.png","68","prac","1","1","","","","","","","","","","","","","","","","","",""
"289.2999999523163","94108","SARL_v6","SARL_v69617dncv","611131e47725f6a04c723651","infreqPrac_resp","","","img/orange_2bandit_b.png","68","img/orange_2bandit_b.png","68","prac","","","","","","","","","","","","","","","","","","","",""
"null","94266","SARL_v6","SARL_v69617dncv","611131e47725f6a04c723651","fixation","","","img/fixation.png","null","","","prac","","","","","","","","","","","","","","","","","","","",""
"180.20000004768372","94449","SARL_v6","SARL_v69617dncv","611131e47725f6a04c723651","infreqPrac","","","img/orange_2bandit_b2.png","70","img/orange_2bandit_b2.png","68","prac","0","2","","","","","","","","","","","","","","","","","",""
"180.20000004768372","95078","SARL_v6","SARL_v69617dncv","611131e47725f6a04c723651","infreqPrac_resp","","","img/orange_2bandit_b.png","70","img/orange_2bandit_b.png","68","prac","","","","","","","","","","","","","","","","","","","",""
"null","96093","SARL_v6","SARL_v69617dncv","611131e47725f6a04c723651","feedback","","","img/wrongKey.png","null","","na","prac","","","","","","","","","","","","","","","","","","","",""
"null","96252","SARL_v6","SARL_v69617dncv","611131e47725f6a04c723651","fixation","","","img/fixation.png","null","","","prac","","","","","","","","","","","","","","","","","","","",""
"530.1000000238419","96785","SARL_v6","SARL_v69617dncv","611131e47725f6a04c723651","infreqPrac","","","img/orange_2bandit_b2.png","68","img/orange_2bandit_b2.png","68","prac","1","2","","","","","","","","","","","","","","","","","",""
"530.1000000238419","97062","SARL_v6","SARL_v69617dncv","611131e47725f6a04c723651","infreqPrac_resp","","","img/orange_2bandit_b.png","68","img/orange_2bandit_b.png","68","prac","","","","","","","","","","","","","","","","","","","",""
"null","97220","SARL_v6","SARL_v69617dncv","611131e47725f6a04c723651","fixation","","","img/fixation.png","null","","","prac","","","","","","","","","","","","","","","","","","","",""
"458.5","97681","SARL_v6","SARL_v69617dncv","611131e47725f6a04c723651","freqPrac","","","img/blue_2bandit_b2.png","70","img/blue_2bandit_b2.png","70","prac","1","2","","","","","","","","","","","","","","","","","",""
"458.5","98026","SARL_v6","SARL_v69617dncv","611131e47725f6a04c723651","freqPrac_resp","","","img/blue_2bandit_b.png","70","img/blue_2bandit_b.png","70","prac","","","","","","","","","","","","","","","","","","","",""
"null","98190","SARL_v6","SARL_v69617dncv","611131e47725f6a04c723651","fixation","","","img/fixation.png","null","","","prac","","","","","","","","","","","","","","","","","","","",""
"328.6999999284744","98521","SARL_v6","SARL_v69617dncv","611131e47725f6a04c723651","infreqPrac","","","img/orange_2bandit_b2.png","68","img/orange_2bandit_b2.png","68","prac","1","2","","","","","","","","","","","","","","","","","",""
"328.6999999284744","99002","SARL_v6","SARL_v69617dncv","611131e47725f6a04c723651","infreqPrac_resp","","","img/orange_2bandit_b.png","68","img/orange_2bandit_b.png","68","prac","","","","","","","","","","","","","","","","","","","",""
"null","99161","SARL_v6","SARL_v69617dncv","611131e47725f6a04c723651","fixation","","","img/fixation.png","null","","","prac","","","","","","","","","","","","","","","","","","","",""
"333.2999999523163","99496","SARL_v6","SARL_v69617dncv","611131e47725f6a04c723651","freqPrac","","","img/blue_2bandit_b2.png","70","img/blue_2bandit_b2.png","70","prac","1","2","","","","","","","","","","","","","","","","","",""
"333.2999999523163","99972","SARL_v6","SARL_v69617dncv","611131e47725f6a04c723651","freqPrac_resp","","","img/blue_2bandit_b.png","70","img/blue_2bandit_b.png","70","prac","","","","","","","","","","","","","","","","","","","",""
"null","100134","SARL_v6","SARL_v69617dncv","611131e47725f6a04c723651","fixation","","","img/fixation.png","null","","","prac","","","","","","","","","","","","","","","","","","","",""
"392.2999999523163","100529","SARL_v6","SARL_v69617dncv","611131e47725f6a04c723651","freqPrac","","","img/blue_2bandit_b2.png","70","img/blue_2bandit_b2.png","70","prac","1","2","","","","","","","","","","","","","","","","","",""
"392.2999999523163","100950","SARL_v6","SARL_v69617dncv","611131e47725f6a04c723651","freqPrac_resp","","","img/blue_2bandit_b.png","70","img/blue_2bandit_b.png","70","prac","","","","","","","","","","","","","","","","","","","",""
"null","101108","SARL_v6","SARL_v69617dncv","611131e47725f6a04c723651","fixation","","","img/fixation.png","null","","","prac","","","","","","","","","","","","","","","","","","","",""
"24675","125784","SARL_v6","SARL_v69617dncv","611131e47725f6a04c723651","","","","","","","","prac","","","","","","","","","","","","","","","","","","","",""
"844.9000000953674","126631","SARL_v6","SARL_v69617dncv","611131e47725f6a04c723651","rlPractice","","","img/black_2bandit_b2.png","75","img/black_2bandit_b2.png","","prac","","","0","","","","","","","","","","","","","","","","",""
"null","127397","SARL_v6","SARL_v69617dncv","611131e47725f6a04c723651","feedback","","","<div class=""verylowPoints_sq""> -14 </div>","null","","na","prac","","","1","10","-14","10","","","","","","","","","","","","","",""
"null","127557","SARL_v6","SARL_v69617dncv","611131e47725f6a04c723651","fixation","","","img/fixation.png","null","","","prac","","","","","","","","","","","","","","","","","","","",""
"791.8999999761581","128351","SARL_v6","SARL_v69617dncv","611131e47725f6a04c723651","rlPractice","","","img/black_2bandit_b2.png","74","img/black_2bandit_b2.png","","prac","","","1","","","","","","","","","","","","","","","","",""
"null","129114","SARL_v6","SARL_v69617dncv","611131e47725f6a04c723651","feedback","","","<div class=""veryhighPoints""> 5 </div>","null","","na","prac","","","2","5","-5","5","","","","","","","","","","","","","",""
"null","129273","SARL_v6","SARL_v69617dncv","611131e47725f6a04c723651","fixation","","","img/fixation.png","null","","","prac","","","","","","","","","","","","","","","","","","","",""
"348.90000009536743","129624","SARL_v6","SARL_v69617dncv","611131e47725f6a04c723651","rlPractice","","","img/black_2bandit_b2.png","74","img/black_2bandit_b2.png","","prac","","","2","","","","","","","","","","","","","","","","",""
"null","130389","SARL_v6","SARL_v69617dncv","611131e47725f6a04c723651","feedback","","","<div class=""veryhighPoints""> 30 </div>","null","","na","prac","","","3","30","2","30","","","","","","","","","","","","","",""
"null","130546","SARL_v6","SARL_v69617dncv","611131e47725f6a04c723651","fixation","","","img/fixation.png","null","","","prac","","","","","","","","","","","","","","","","","","","",""
"394.60000002384186","130943","SARL_v6","SARL_v69617dncv","611131e47725f6a04c723651","rlPractice","","","img/black_2bandit_b2.png","74","img/black_2bandit_b2.png","","prac","","","3","","","","","","","","","","","","","","","","",""
"null","131709","SARL_v6","SARL_v69617dncv","611131e47725f6a04c723651","feedback","","","<div class=""verylowPoints""> -2 </div>","null","","na","prac","","","4","-2","20","-2","","","","","","","","","","","","","",""
"null","131869","SARL_v6","SARL_v69617dncv","611131e47725f6a04c723651","fixation","","","img/fixation.png","null","","","prac","","","","","","","","","","","","","","","","","","","",""
"8889.300000071526","140759","SARL_v6","SARL_v69617dncv","611131e47725f6a04c723651","","","","","","","","prac","","","","","","","","","","","","","","","","","","","",""
"644.8999999761581","141407","SARL_v6","SARL_v69617dncv","611131e47725f6a04c723651","mixAttFreqPrac","","","img/blue_2bandit_b2.png","70","img/blue_2bandit_b2.png","70","prac","","","1","","","","","","","","","","","","","","","","",""
"644.8999999761581","141569","SARL_v6","SARL_v69617dncv","611131e47725f6a04c723651","freqPrac_resp","","","img/blue_2bandit_b.png","70","img/blue_2bandit_b.png","70","prac","","","1","","","","","","","","","","","","","","","","",""
"null","141730","SARL_v6","SARL_v69617dncv","611131e47725f6a04c723651","fixation","","","img/fixation.png","null","","","prac","","","","","","","","","","","","","","","","","","","",""
"386.60000002384186","142119","SARL_v6","SARL_v69617dncv","611131e47725f6a04c723651","mixAttInfreqPrac","","","img/orange_2bandit_b2.png","68","img/orange_2bandit_b2.png","68","prac","","","2","","","","","","","","","","","","","","","","",""
"386.60000002384186","142548","SARL_v6","SARL_v69617dncv","611131e47725f6a04c723651","infreqPrac_resp","","","img/orange_2bandit_b.png","68","img/blue_2bandit_b.png","68","prac","","","2","","","","","","","","","","","","","","","","",""
"null","142702","SARL_v6","SARL_v69617dncv","611131e47725f6a04c723651","fixation","","","img/fixation.png","null","","","prac","","","","","","","","","","","","","","","","","","","",""
"462","143167","SARL_v6","SARL_v69617dncv","611131e47725f6a04c723651","mixAttInfreqPrac","","","img/orange_2bandit_b2.png","68","img/orange_2bandit_b2.png","68","prac","","","3","","","","","","","","","","","","","","","","",""
"462","143516","SARL_v6","SARL_v69617dncv","611131e47725f6a04c723651","infreqPrac_resp","","","img/orange_2bandit_b.png","68","img/blue_2bandit_b.png","68","prac","","","3","","","","","","","","","","","","","","","","",""
"null","143672","SARL_v6","SARL_v69617dncv","611131e47725f6a04c723651","fixation","","","img/fixation.png","null","","","prac","","","","","","","","","","","","","","","","","","","",""
"380.09999990463257","144055","SARL_v6","SARL_v69617dncv","611131e47725f6a04c723651","mixAttInfreqPrac","","","img/orange_2bandit_b2.png","68","img/orange_2bandit_b2.png","68","prac","","","4","","","","","","","","","","","","","","","","",""
"380.09999990463257","144481","SARL_v6","SARL_v69617dncv","611131e47725f6a04c723651","infreqPrac_resp","","","img/orange_2bandit_b.png","68","img/blue_2bandit_b.png","68","prac","","","4","","","","","","","","","","","","","","","","",""
"null","144642","SARL_v6","SARL_v69617dncv","611131e47725f6a04c723651","fixation","","","img/fixation.png","null","","","prac","","","","","","","","","","","","","","","","","","","",""
"449.5","145094","SARL_v6","SARL_v69617dncv","611131e47725f6a04c723651","mixAttFreqPrac","","","img/blue_2bandit_b2.png","70","img/blue_2bandit_b2.png","70","prac","","","5","","","","","","","","","","","","","","","","",""
"449.5","145458","SARL_v6","SARL_v69617dncv","611131e47725f6a04c723651","freqPrac_resp","","","img/blue_2bandit_b.png","70","img/blue_2bandit_b.png","70","prac","","","5","","","","","","","","","","","","","","","","",""
"null","145618","SARL_v6","SARL_v69617dncv","611131e47725f6a04c723651","fixation","","","img/fixation.png","null","","","prac","","","","","","","","","","","","","","","","","","","",""
"610.5","146231","SARL_v6","SARL_v69617dncv","611131e47725f6a04c723651","mixRLPractice","","","img/black_2bandit_b2.png","74","img/black_2bandit_b2.png","","prac","","","5","","","","","","","","","","","","","","","","",""
"null","146991","SARL_v6","SARL_v69617dncv","611131e47725f6a04c723651","feedback","","","<div class=""verylowPoints""> -14 </div>","null","","na","prac","","","6","-14","10","-14","","","","","","","","","","","","","",""
"null","147152","SARL_v6","SARL_v69617dncv","611131e47725f6a04c723651","fixation","","","img/fixation.png","null","","","prac","","","","","","","","","","","","","","","","","","","",""
"755.1999999284744","147910","SARL_v6","SARL_v69617dncv","611131e47725f6a04c723651","mixAttFreqPrac","","","img/blue_2bandit_b2.png","70","img/blue_2bandit_b2.png","70","prac","","","7","","","","","","","","","","","","","","","","",""
"755.1999999284744","147959","SARL_v6","SARL_v69617dncv","611131e47725f6a04c723651","freqPrac_resp","","","img/blue_2bandit_b.png","70","img/blue_2bandit_b.png","70","prac","","","7","","","","","","","","","","","","","","","","",""
"null","148120","SARL_v6","SARL_v69617dncv","611131e47725f6a04c723651","fixation","","","img/fixation.png","null","","","prac","","","","","","","","","","","","","","","","","","","",""
"459.2000000476837","148581","SARL_v6","SARL_v69617dncv","611131e47725f6a04c723651","mixAttInfreqPrac","","","img/orange_2bandit_b2.png","68","img/orange_2bandit_b2.png","68","prac","","","8","","","","","","","","","","","","","","","","",""
"459.2000000476837","148932","SARL_v6","SARL_v69617dncv","611131e47725f6a04c723651","infreqPrac_resp","","","img/orange_2bandit_b.png","68","img/blue_2bandit_b.png","68","prac","","","8","","","","","","","","","","","","","","","","",""
"null","149087","SARL_v6","SARL_v69617dncv","611131e47725f6a04c723651","fixation","","","img/fixation.png","null","","","prac","","","","","","","","","","","","","","","","","","","",""
"356.89999997615814","149446","SARL_v6","SARL_v69617dncv","611131e47725f6a04c723651","mixAttFreqPrac","","","img/blue_2bandit_b2.png","70","img/blue_2bandit_b2.png","70","prac","","","9","","","","","","","","","","","","","","","","",""
"356.89999997615814","149896","SARL_v6","SARL_v69617dncv","611131e47725f6a04c723651","freqPrac_resp","","","img/blue_2bandit_b.png","70","img/blue_2bandit_b.png","70","prac","","","9","","","","","","","","","","","","","","","","",""
"null","150060","SARL_v6","SARL_v69617dncv","611131e47725f6a04c723651","fixation","","","img/fixation.png","null","","","prac","","","","","","","","","","","","","","","","","","","",""
"447.10000002384186","150509","SARL_v6","SARL_v69617dncv","611131e47725f6a04c723651","mixAttFreqPrac","","","img/blue_2bandit_b2.png","70","img/blue_2bandit_b2.png","70","prac","","","10","","","","","","","","","","","","","","","","",""
"447.10000002384186","150876","SARL_v6","SARL_v69617dncv","611131e47725f6a04c723651","freqPrac_resp","","","img/blue_2bandit_b.png","70","img/blue_2bandit_b.png","70","prac","","","10","","","","","","","","","","","","","","","","",""
"null","151032","SARL_v6","SARL_v69617dncv","611131e47725f6a04c723651","fixation","","","img/fixation.png","null","","","prac","","","","","","","","","","","","","","","","","","","",""
"388.10000002384186","151423","SARL_v6","SARL_v69617dncv","611131e47725f6a04c723651","mixAttInfreqPrac","","","img/orange_2bandit_b2.png","68","img/orange_2bandit_b2.png","68","prac","","","11","","","","","","","","","","","","","","","","",""
"388.10000002384186","151839","SARL_v6","SARL_v69617dncv","611131e47725f6a04c723651","infreqPrac_resp","","","img/orange_2bandit_b.png","68","img/blue_2bandit_b.png","68","prac","","","11","","","","","","","","","","","","","","","","",""
"null","152000","SARL_v6","SARL_v69617dncv","611131e47725f6a04c723651","fixation","","","img/fixation.png","null","","","prac","","","","","","","","","","","","","","","","","","","",""
"572.1999999284744","152574","SARL_v6","SARL_v69617dncv","611131e47725f6a04c723651","mixRLPractice","","","img/black_2bandit_b2.png","74","img/black_2bandit_b2.png","","prac","","","11","","","","","","","","","","","","","","","","",""
"null","153339","SARL_v6","SARL_v69617dncv","611131e47725f6a04c723651","feedback","","","<div class=""veryhighPoints""> 5 </div>","null","","na","prac","","","12","5","-5","5","","","","","","","","","","","","","",""
"null","153499","SARL_v6","SARL_v69617dncv","611131e47725f6a04c723651","fixation","","","img/fixation.png","null","","","prac","","","","","","","","","","","","","","","","","","","",""
"10177.300000071526","163679","SARL_v6","SARL_v69617dncv","611131e47725f6a04c723651","","","","","","","","prac","","","","","","","","","","","","","","","","","","","",""
"null","164488","SARL_v6","SARL_v69617dncv","611131e47725f6a04c723651","freq","","","img/blue_2bandit_b2.png","null","","70","test","0","","1","","","","circle","square","1","1","1","0","","","","","","","",""
"null","164646","SARL_v6","SARL_v69617dncv","611131e47725f6a04c723651","fixation","","","img/fixation.png","null","","","test","","","","","","","","","","","","","","","","","","","",""
"485.6999999284744","165134","SARL_v6","SARL_v69617dncv","611131e47725f6a04c723651","freq","","","img/blue_2bandit_b2.png","70","","70","test","1","","2","","","","circle","square","2","2","1","0.5","","","","","","","",""
"null","165459","SARL_v6","SARL_v69617dncv","611131e47725f6a04c723651","freq_resp","","","img/blue_2bandit_b.png","70","img/blue_2bandit_b.png","70","test","","","","","","","","","","","1","","","","","","","","",""
"null","165619","SARL_v6","SARL_v69617dncv","611131e47725f6a04c723651","fixation","","","img/fixation.png","null","","","test","","","","","","","","","","","","","","","","","","","",""
"400.2999999523163","166022","SARL_v6","SARL_v69617dncv","611131e47725f6a04c723651","freq","","","img/blue_2bandit_b2.png","70","","70","test","1","","3","","","","circle","square","3","3","1","0.6666666666666666","","","","","","","",""
"null","166435","SARL_v6","SARL_v69617dncv","611131e47725f6a04c723651","freq_resp","","","img/blue_2bandit_b.png","70","img/blue_2bandit_b.png","70","test","","","","","","","","","","","1","","","","","","","","",""
"null","166593","SARL_v6","SARL_v69617dncv","611131e47725f6a04c723651","fixation","","","img/fixation.png","null","","","test","","","","","","","","","","","","","","","","","","","",""
"386","166981","SARL_v6","SARL_v69617dncv","611131e47725f6a04c723651","infreq","","","img/orange_2bandit_b2.png","68","","68","test","1","","4","","","","circle","square","4","4","1","0.75","","","","","","","",""
"null","167408","SARL_v6","SARL_v69617dncv","611131e47725f6a04c723651","infreq_resp","","","img/orange_2bandit_b.png","68","img/orange_2bandit_b.png","68","test","","","","","","","","","","","1","","","","","","","","",""
"null","167571","SARL_v6","SARL_v69617dncv","611131e47725f6a04c723651","fixation","","","img/fixation.png","null","","","test","","","","","","","","","","","","","","","","","","","",""
"423.39999997615814","167997","SARL_v6","SARL_v69617dncv","611131e47725f6a04c723651","freq","","","img/blue_2bandit_b2.png","70","","70","test","1","","5","","","","circle","square","5","5","1","0.8","","","","","","","",""
"null","168387","SARL_v6","SARL_v69617dncv","611131e47725f6a04c723651","freq_resp","","","img/blue_2bandit_b.png","70","img/blue_2bandit_b.png","70","test","","","","","","","","","","","1","","","","","","","","",""
"null","168544","SARL_v6","SARL_v69617dncv","611131e47725f6a04c723651","fixation","","","img/fixation.png","null","","","test","","","","","","","","","","","","","","","","","","","",""
"394.6999999284744","168942","SARL_v6","SARL_v69617dncv","611131e47725f6a04c723651","freq","","","img/blue_2bandit_b2.png","70","","70","test","1","","6","","","","circle","square","6","6","1","0.8333333333333334","","","","","","","",""
"null","169355","SARL_v6","SARL_v69617dncv","611131e47725f6a04c723651","freq_resp","","","img/blue_2bandit_b.png","70","img/blue_2bandit_b.png","70","test","","","","","","","","","","","1","","","","","","","","",""
"null","169510","SARL_v6","SARL_v69617dncv","611131e47725f6a04c723651","fixation","","","img/fixation.png","null","","","test","","","","","","","","","","","","","","","","","","","",""
"509.10000002384186","170022","SARL_v6","SARL_v69617dncv","611131e47725f6a04c723651","infreq","","","img/orange_2bandit_b2.png","68","","68","test","1","","7","","","","circle","square","7","7","1","0.8571428571428571","","","","","","","",""
"null","170322","SARL_v6","SARL_v69617dncv","611131e47725f6a04c723651","infreq_resp","","","img/orange_2bandit_b.png","68","img/orange_2bandit_b.png","68","test","","","","","","","","","","","1","","","","","","","","",""
"null","170478","SARL_v6","SARL_v69617dncv","611131e47725f6a04c723651","fixation","","","img/fixation.png","null","","","test","","","","","","","","","","","","","","","","","","","",""
"436.5","170917","SARL_v6","SARL_v69617dncv","611131e47725f6a04c723651","freq","","","img/blue_2bandit_b2.png","70","","70","test","1","","8","","","","circle","square","8","8","1","0.875","","","","","","","",""
"null","171289","SARL_v6","SARL_v69617dncv","611131e47725f6a04c723651","freq_resp","","","img/blue_2bandit_b.png","70","img/blue_2bandit_b.png","70","test","","","","","","","","","","","1","","","","","","","","",""
"null","171448","SARL_v6","SARL_v69617dncv","611131e47725f6a04c723651","fixation","","","img/fixation.png","null","","","test","","","","","","","","","","","","","","","","","","","",""
"378.2000000476837","171829","SARL_v6","SARL_v69617dncv","611131e47725f6a04c723651","freq","","","img/blue_2bandit_b2.png","70","","70","test","1","","9","","","","circle","square","9","9","1","0.8888888888888888","","","","","","","",""
"null","172256","SARL_v6","SARL_v69617dncv","611131e47725f6a04c723651","freq_resp","","","img/blue_2bandit_b.png","70","img/blue_2bandit_b.png","70","test","","","","","","","","","","","1","","","","","","","","",""
"null","172416","SARL_v6","SARL_v69617dncv","611131e47725f6a04c723651","fixation","","","img/fixation.png","null","","","test","","","","","","","","","","","","","","","","","","","",""
"410.7999999523163","172829","SARL_v6","SARL_v69617dncv","611131e47725f6a04c723651","freq","","","img/blue_2bandit_b2.png","70","","70","test","1","","10","","","","circle","square","10","10","1","0.9","","","","","","","",""
"null","173226","SARL_v6","SARL_v69617dncv","611131e47725f6a04c723651","freq_resp","","","img/blue_2bandit_b.png","70","img/blue_2bandit_b.png","70","test","","","","","","","","","","","1","","","","","","","","",""
"null","173384","SARL_v6","SARL_v69617dncv","611131e47725f6a04c723651","fixation","","","img/fixation.png","null","","","test","","","","","","","","","","","","","","","","","","","",""
"378.2000000476837","173765","SARL_v6","SARL_v69617dncv","611131e47725f6a04c723651","freq","","","img/blue_2bandit_b2.png","70","","70","test","1","","11","","","","circle","square","11","11","1","0.9090909090909091","","","","","","","",""
"null","174194","SARL_v6","SARL_v69617dncv","611131e47725f6a04c723651","freq_resp","","","img/blue_2bandit_b.png","70","img/blue_2bandit_b.png","70","test","","","","","","","","","","","1","","","","","","","","",""
"null","174354","SARL_v6","SARL_v69617dncv","611131e47725f6a04c723651","fixation","","","img/fixation.png","null","","","test","","","","","","","","","","","","","","","","","","","",""
"376.2999999523163","174733","SARL_v6","SARL_v69617dncv","611131e47725f6a04c723651","freq","","","img/blue_2bandit_b2.png","70","","70","test","1","","12","","","","circle","square","12","12","1","0.9166666666666666","","","","","","","",""
"null","175169","SARL_v6","SARL_v69617dncv","611131e47725f6a04c723651","freq_resp","","","img/blue_2bandit_b.png","70","img/blue_2bandit_b.png","70","test","","","","","","","","","","","1","","","","","","","","",""
"null","175330","SARL_v6","SARL_v69617dncv","611131e47725f6a04c723651","fixation","","","img/fixation.png","null","","","test","","","","","","","","","","","","","","","","","","","",""
"384.10000002384186","175717","SARL_v6","SARL_v69617dncv","611131e47725f6a04c723651","freq","","","img/blue_2bandit_b2.png","70","","70","test","1","","13","","","","circle","square","13","13","1","0.9230769230769231","","","","","","","",""
"null","176146","SARL_v6","SARL_v69617dncv","611131e47725f6a04c723651","freq_resp","","","img/blue_2bandit_b.png","70","img/blue_2bandit_b.png","70","test","","","","","","","","","","","1","","","","","","","","",""
"null","176302","SARL_v6","SARL_v69617dncv","611131e47725f6a04c723651","fixation","","","img/fixation.png","null","","","test","","","","","","","","","","","","","","","","","","","",""
"340.39999997615814","176645","SARL_v6","SARL_v69617dncv","611131e47725f6a04c723651","freq","","","img/blue_2bandit_b2.png","70","","70","test","1","","14","","","","circle","square","14","14","1","0.9285714285714286","","","","","","","",""
"null","177114","SARL_v6","SARL_v69617dncv","611131e47725f6a04c723651","freq_resp","","","img/blue_2bandit_b.png","70","img/blue_2bandit_b.png","70","test","","","","","","","","","","","1","","","","","","","","",""
"null","177270","SARL_v6","SARL_v69617dncv","611131e47725f6a04c723651","fixation","","","img/fixation.png","null","","","test","","","","","","","","","","","","","","","","","","","",""
"387.7999999523163","177660","SARL_v6","SARL_v69617dncv","611131e47725f6a04c723651","freq","","","img/blue_2bandit_b2.png","70","","70","test","1","","15","","","","circle","square","15","15","1","0.9333333333333333","","","","","","","",""
"null","178082","SARL_v6","SARL_v69617dncv","611131e47725f6a04c723651","freq_resp","","","img/blue_2bandit_b.png","70","img/blue_2bandit_b.png","70","test","","","","","","","","","","","1","","","","","","","","",""
"null","178242","SARL_v6","SARL_v69617dncv","611131e47725f6a04c723651","fixation","","","img/fixation.png","null","","","test","","","","","","","","","","","","","","","","","","","",""
"472","178717","SARL_v6","SARL_v69617dncv","611131e47725f6a04c723651","infreq","","","img/orange_2bandit_b2.png","68","","68","test","1","","16","","","","circle","square","16","16","1","0.9375","","","","","","","",""
"null","179057","SARL_v6","SARL_v69617dncv","611131e47725f6a04c723651","infreq_resp","","","img/orange_2bandit_b.png","68","img/orange_2bandit_b.png","68","test","","","","","","","","","","","1","","","","","","","","",""
"null","179218","SARL_v6","SARL_v69617dncv","611131e47725f6a04c723651","fixation","","","img/fixation.png","null","","","test","","","","","","","","","","","","","","","","","","","",""
"472.2999999523163","179693","SARL_v6","SARL_v69617dncv","611131e47725f6a04c723651","freq","","","img/blue_2bandit_b2.png","70","","70","test","1","","17","","","","circle","square","17","17","1","0.9411764705882353","","","","","","","",""
"null","180023","SARL_v6","SARL_v69617dncv","611131e47725f6a04c723651","freq_resp","","","img/blue_2bandit_b.png","70","img/blue_2bandit_b.png","70","test","","","","","","","","","","","1","","","","","","","","",""
"null","180182","SARL_v6","SARL_v69617dncv","611131e47725f6a04c723651","fixation","","","img/fixation.png","null","","","test","","","","","","","","","","","","","","","","","","","",""
"540.2999999523163","180725","SARL_v6","SARL_v69617dncv","611131e47725f6a04c723651","freq","","","img/blue_2bandit_b2.png","70","","70","test","1","","18","","","","circle","square","18","18","1","0.9444444444444444","","","","","","","",""
"null","180991","SARL_v6","SARL_v69617dncv","611131e47725f6a04c723651","freq_resp","","","img/blue_2bandit_b.png","70","img/blue_2bandit_b.png","70","test","","","","","","","","","","","1","","","","","","","","",""
"null","181153","SARL_v6","SARL_v69617dncv","611131e47725f6a04c723651","fixation","","","img/fixation.png","null","","","test","","","","","","","","","","","","","","","","","","","",""
"345.60000002384186","181501","SARL_v6","SARL_v69617dncv","611131e47725f6a04c723651","freq","","","img/blue_2bandit_b2.png","70","","70","test","1","","19","","","","circle","square","19","19","1","0.9473684210526315","","","","","","","",""
"null","181970","SARL_v6","SARL_v69617dncv","611131e47725f6a04c723651","freq_resp","","","img/blue_2bandit_b.png","70","img/blue_2bandit_b.png","70","test","","","","","","","","","","","1","","","","","","","","",""
"null","182130","SARL_v6","SARL_v69617dncv","611131e47725f6a04c723651","fixation","","","img/fixation.png","null","","","test","","","","","","","","","","","","","","","","","","","",""
"368.2999999523163","182500","SARL_v6","SARL_v69617dncv","611131e47725f6a04c723651","freq","","","img/blue_2bandit_b2.png","70","","70","test","1","","20","","","","circle","square","20","20","1","0.95","","","","","","","",""
"null","182946","SARL_v6","SARL_v69617dncv","611131e47725f6a04c723651","freq_resp","","","img/blue_2bandit_b.png","70","img/blue_2bandit_b.png","70","test","","","","","","","","","","","1","","","","","","","","",""
"null","183103","SARL_v6","SARL_v69617dncv","611131e47725f6a04c723651","fixation","","","img/fixation.png","null","","","test","","","","","","","","","","","","","","","","","","","",""
"490.5","183597","SARL_v6","SARL_v69617dncv","611131e47725f6a04c723651","rl","","","img/black_2bandit_b2.png","74","","0","test","","","21","","","-3","circle","square","","0","1","","74","-3","-3","-3","-3","circle","1","0"
"null","184361","SARL_v6","SARL_v69617dncv","611131e47725f6a04c723651","feedback","","","<div class=""verylowPoints""> -3 </div>","null","","na","test","","","NaN","","","","","","","","1","","74","","","","","","1",""
"761.2000000476837","185124","SARL_v6","SARL_v69617dncv","611131e47725f6a04c723651","freq","","","img/blue_2bandit_b2.png","70","","70","test","1","","22","","","","circle","square","21","1","2","0.9523809523809523","","","","","","","",""
"null","185174","SARL_v6","SARL_v69617dncv","611131e47725f6a04c723651","freq_resp","","","img/blue_2bandit_b.png","70","img/blue_2bandit_b.png","70","test","","","","","","","","","","","2","","","","","","","","",""
"null","185338","SARL_v6","SARL_v69617dncv","611131e47725f6a04c723651","fixation","","","img/fixation.png","null","","","test","","","","","","","","","","","","","","","","","","","",""
"472.1999999284744","185813","SARL_v6","SARL_v69617dncv","611131e47725f6a04c723651","freq","","","img/blue_2bandit_b2.png","70","","70","test","1","","23","","","","circle","square","22","2","2","0.9545454545454546","","","","","","","",""
"null","186152","SARL_v6","SARL_v69617dncv","611131e47725f6a04c723651","freq_resp","","","img/blue_2bandit_b.png","70","img/blue_2bandit_b.png","70","test","","","","","","","","","","","2","","","","","","","","",""
"null","186311","SARL_v6","SARL_v69617dncv","611131e47725f6a04c723651","fixation","","","img/fixation.png","null","","","test","","","","","","","","","","","","","","","","","","","",""
"378.7999999523163","186692","SARL_v6","SARL_v69617dncv","611131e47725f6a04c723651","freq","","","img/blue_2bandit_b2.png","70","","70","test","1","","24","","","","circle","square","23","3","2","0.9565217391304348","","","","","","","",""
"null","187122","SARL_v6","SARL_v69617dncv","611131e47725f6a04c723651","freq_resp","","","img/blue_2bandit_b.png","70","img/blue_2bandit_b.png","70","test","","","","","","","","","","","2","","","","","","","","",""
"null","187278","SARL_v6","SARL_v69617dncv","611131e47725f6a04c723651","fixation","","","img/fixation.png","null","","","test","","","","","","","","","","","","","","","","","","","",""
"395.89999997615814","187676","SARL_v6","SARL_v69617dncv","611131e47725f6a04c723651","freq","","","img/blue_2bandit_b2.png","70","","70","test","1","","25","","","","circle","square","24","4","2","0.9583333333333334","","","","","","","",""
"null","188085","SARL_v6","SARL_v69617dncv","611131e47725f6a04c723651","freq_resp","","","img/blue_2bandit_b.png","70","img/blue_2bandit_b.png","70","test","","","","","","","","","","","2","","","","","","","","",""
"null","188249","SARL_v6","SARL_v69617dncv","611131e47725f6a04c723651","fixation","","","img/fixation.png","null","","","test","","","","","","","","","","","","","","","","","","","",""
"296.60000002384186","188548","SARL_v6","SARL_v69617dncv","611131e47725f6a04c723651","freq","","","img/blue_2bandit_b2.png","70","","70","test","1","","26","","","","circle","square","25","5","2","0.96","","","","","","","",""
"null","189057","SARL_v6","SARL_v69617dncv","611131e47725f6a04c723651","freq_resp","","","img/blue_2bandit_b.png","70","img/blue_2bandit_b.png","70","test","","","","","","","","","","","2","","","","","","","","",""
"null","189215","SARL_v6","SARL_v69617dncv","611131e47725f6a04c723651","fixation","","","img/fixation.png","null","","","test","","","","","","","","","","","","","","","","","","","",""
"378.6999999284744","189597","SARL_v6","SARL_v69617dncv","611131e47725f6a04c723651","freq","","","img/blue_2bandit_b2.png","70","","70","test","1","","27","","","","circle","square","26","6","2","0.9615384615384616","","","","","","","",""
"null","190026","SARL_v6","SARL_v69617dncv","611131e47725f6a04c723651","freq_resp","","","img/blue_2bandit_b.png","70","img/blue_2bandit_b.png","70","test","","","","","","","","","","","2","","","","","","","","",""
"null","190185","SARL_v6","SARL_v69617dncv","611131e47725f6a04c723651","fixation","","","img/fixation.png","null","","","test","","","","","","","","","","","","","","","","","","","",""
"368.39999997615814","190556","SARL_v6","SARL_v69617dncv","611131e47725f6a04c723651","freq","","","img/blue_2bandit_b2.png","70","","70","test","1","","28","","","","circle","square","27","7","2","0.9629629629629629","","","","","","","",""
"null","190997","SARL_v6","SARL_v69617dncv","611131e47725f6a04c723651","freq_resp","","","img/blue_2bandit_b.png","70","img/blue_2bandit_b.png","70","test","","","","","","","","","","","2","","","","","","","","",""
"null","191157","SARL_v6","SARL_v69617dncv","611131e47725f6a04c723651","fixation","","","img/fixation.png","null","","","test","","","","","","","","","","","","","","","","","","","",""
"316.39999997615814","191477","SARL_v6","SARL_v69617dncv","611131e47725f6a04c723651","freq","","","img/blue_2bandit_b2.png","70","","70","test","1","","29","","","","circle","square","28","8","2","0.9642857142857143","","","","","","","",""
"null","191970","SARL_v6","SARL_v69617dncv","611131e47725f6a04c723651","freq_resp","","","img/blue_2bandit_b.png","70","img/blue_2bandit_b.png","70","test","","","","","","","","","","","2","","","","","","","","",""
"null","192129","SARL_v6","SARL_v69617dncv","611131e47725f6a04c723651","fixation","","","img/fixation.png","null","","","test","","","","","","","","","","","","","","","","","","","",""
"304.1999999284744","192436","SARL_v6","SARL_v69617dncv","611131e47725f6a04c723651","freq","","","img/blue_2bandit_b2.png","70","","70","test","1","","30","","","","circle","square","29","9","2","0.9655172413793104","","","","","","","",""
"null","192942","SARL_v6","SARL_v69617dncv","611131e47725f6a04c723651","freq_resp","","","img/blue_2bandit_b.png","70","img/blue_2bandit_b.png","70","test","","","","","","","","","","","2","","","","","","","","",""
"null","193103","SARL_v6","SARL_v69617dncv","611131e47725f6a04c723651","fixation","","","img/fixation.png","null","","","test","","","","","","","","","","","","","","","","","","","",""
"306.60000002384186","193412","SARL_v6","SARL_v69617dncv","611131e47725f6a04c723651","freq","","","img/blue_2bandit_b2.png","70","","70","test","1","","31","","","","circle","square","30","10","2","0.9666666666666667","","","","","","","",""
"null","193919","SARL_v6","SARL_v69617dncv","611131e47725f6a04c723651","freq_resp","","","img/blue_2bandit_b.png","70","img/blue_2bandit_b.png","70","test","","","","","","","","","","","2","","","","","","","","",""
"null","194079","SARL_v6","SARL_v69617dncv","611131e47725f6a04c723651","fixation","","","img/fixation.png","null","","","test","","","","","","","","","","","","","","","","","","","",""
"330.10000002384186","194412","SARL_v6","SARL_v69617dncv","611131e47725f6a04c723651","freq","","","img/blue_2bandit_b2.png","70","","70","test","1","","32","","","","circle","square","31","11","2","0.967741935483871","","","","","","","",""
"null","194888","SARL_v6","SARL_v69617dncv","611131e47725f6a04c723651","freq_resp","","","img/blue_2bandit_b.png","70","img/blue_2bandit_b.png","70","test","","","","","","","","","","","2","","","","","","","","",""
"null","195049","SARL_v6","SARL_v69617dncv","611131e47725f6a04c723651","fixation","","","img/fixation.png","null","","","test","","","","","","","","","","","","","","","","","","","",""
"288.7000000476837","195340","SARL_v6","SARL_v69617dncv","611131e47725f6a04c723651","freq","","","img/blue_2bandit_b2.png","70","","70","test","1","","33","","","","circle","square","32","12","2","0.96875","","","","","","","",""
"null","195864","SARL_v6","SARL_v69617dncv","611131e47725f6a04c723651","freq_resp","","","img/blue_2bandit_b.png","70","img/blue_2bandit_b.png","70","test","","","","","","","","","","","2","","","","","","","","",""
"null","196022","SARL_v6","SARL_v69617dncv","611131e47725f6a04c723651","fixation","","","img/fixation.png","null","","","test","","","","","","","","","","","","","","","","","","","",""
"315.39999997615814","196340","SARL_v6","SARL_v69617dncv","611131e47725f6a04c723651","freq","","","img/blue_2bandit_b2.png","70","","70","test","1","","34","","","","circle","square","33","13","2","0.9696969696969697","","","","","","","",""
"null","196828","SARL_v6","SARL_v69617dncv","611131e47725f6a04c723651","freq_resp","","","img/blue_2bandit_b.png","70","img/blue_2bandit_b.png","70","test","","","","","","","","","","","2","","","","","","","","",""
"null","196991","SARL_v6","SARL_v69617dncv","611131e47725f6a04c723651","fixation","","","img/fixation.png","null","","","test","","","","","","","","","","","","","","","","","","","",""
"306.3000000715256","197300","SARL_v6","SARL_v69617dncv","611131e47725f6a04c723651","freq","","","img/blue_2bandit_b2.png","70","","70","test","1","","35","","","","circle","square","34","14","2","0.9705882352941176","","","","","","","",""
"null","197801","SARL_v6","SARL_v69617dncv","611131e47725f6a04c723651","freq_resp","","","img/blue_2bandit_b.png","70","img/blue_2bandit_b.png","70","test","","","","","","","","","","","2","","","","","","","","",""
"null","197961","SARL_v6","SARL_v69617dncv","611131e47725f6a04c723651","fixation","","","img/fixation.png","null","","","test","","","","","","","","","","","","","","","","","","","",""
"320.5","198284","SARL_v6","SARL_v69617dncv","611131e47725f6a04c723651","freq","","","img/blue_2bandit_b2.png","70","","70","test","1","","36","","","","circle","square","35","15","2","0.9714285714285714","","","","","","","",""
"null","198777","SARL_v6","SARL_v69617dncv","611131e47725f6a04c723651","freq_resp","","","img/blue_2bandit_b.png","70","img/blue_2bandit_b.png","70","test","","","","","","","","","","","2","","","","","","","","",""
"null","198933","SARL_v6","SARL_v69617dncv","611131e47725f6a04c723651","fixation","","","img/fixation.png","null","","","test","","","","","","","","","","","","","","","","","","","",""
"324.1999999284744","199260","SARL_v6","SARL_v69617dncv","611131e47725f6a04c723651","freq","","","img/blue_2bandit_b2.png","70","","70","test","1","","37","","","","circle","square","36","16","2","0.9722222222222222","","","","","","","",""
"null","199745","SARL_v6","SARL_v69617dncv","611131e47725f6a04c723651","freq_resp","","","img/blue_2bandit_b.png","70","img/blue_2bandit_b.png","70","test","","","","","","","","","","","2","","","","","","","","",""
"null","199903","SARL_v6","SARL_v69617dncv","611131e47725f6a04c723651","fixation","","","img/fixation.png","null","","","test","","","","","","","","","","","","","","","","","","","",""
"258.59999990463257","200164","SARL_v6","SARL_v69617dncv","611131e47725f6a04c723651","infreq","","","img/orange_2bandit_b2.png","70","","68","test","0","","38","","","","circle","square","37","17","2","0.9459459459459459","","","","","","","",""
"null","200709","SARL_v6","SARL_v69617dncv","611131e47725f6a04c723651","infreq_resp","","","img/orange_2bandit_b.png","70","img/orange_2bandit_b.png","68","test","","","","","","","","","","","2","","","","","","","","",""
"null","200873","SARL_v6","SARL_v69617dncv","611131e47725f6a04c723651","fixation","","","img/fixation.png","null","","","test","","","","","","","","","","","","","","","","","","","",""
"512","201387","SARL_v6","SARL_v69617dncv","611131e47725f6a04c723651","freq","","","img/blue_2bandit_b2.png","70","","70","test","1","","39","","","","circle","square","38","18","2","0.9473684210526315","","","","","","","",""
"null","201688","SARL_v6","SARL_v69617dncv","611131e47725f6a04c723651","freq_resp","","","img/blue_2bandit_b.png","70","img/blue_2bandit_b.png","70","test","","","","","","","","","","","2","","","","","","","","",""
"null","201849","SARL_v6","SARL_v69617dncv","611131e47725f6a04c723651","fixation","","","img/fixation.png","null","","","test","","","","","","","","","","","","","","","","","","","",""
"520.5","202372","SARL_v6","SARL_v69617dncv","611131e47725f6a04c723651","freq","","","img/blue_2bandit_b2.png","70","","70","test","1","","40","","","","circle","square","39","19","2","0.9487179487179487","","","","","","","",""
"null","202665","SARL_v6","SARL_v69617dncv","611131e47725f6a04c723651","freq_resp","","","img/blue_2bandit_b.png","70","img/blue_2bandit_b.png","70","test","","","","","","","","","","","2","","","","","","","","",""
"null","202825","SARL_v6","SARL_v69617dncv","611131e47725f6a04c723651","fixation","","","img/fixation.png","null","","","test","","","","","","","","","","","","","","","","","","","",""
"392.2999999523163","203220","SARL_v6","SARL_v69617dncv","611131e47725f6a04c723651","freq","","","img/blue_2bandit_b2.png","70","","70","test","1","","41","","","","circle","square","40","20","2","0.95","","","","","","","",""
"null","203641","SARL_v6","SARL_v69617dncv","611131e47725f6a04c723651","freq_resp","","","img/blue_2bandit_b.png","70","img/blue_2bandit_b.png","70","test","","","","","","","","","","","2","","","","","","","","",""
"null","203801","SARL_v6","SARL_v69617dncv","611131e47725f6a04c723651","fixation","","","img/fixation.png","null","","","test","","","","","","","","","","","","","","","","","","","",""
"368.2999999523163","204171","SARL_v6","SARL_v69617dncv","611131e47725f6a04c723651","freq","","","img/blue_2bandit_b2.png","70","","70","test","1","","42","","","","circle","square","41","21","2","0.9512195121951219","","","","","","","",""
"null","204617","SARL_v6","SARL_v69617dncv","611131e47725f6a04c723651","freq_resp","","","img/blue_2bandit_b.png","70","img/blue_2bandit_b.png","70","test","","","","","","","","","","","2","","","","","","","","",""
"null","204777","SARL_v6","SARL_v69617dncv","611131e47725f6a04c723651","fixation","","","img/fixation.png","null","","","test","","","","","","","","","","","","","","","","","","","",""
"367.89999997615814","205148","SARL_v6","SARL_v69617dncv","611131e47725f6a04c723651","freq","","","img/blue_2bandit_b2.png","70","","70","test","1","","43","","","","circle","square","42","22","2","0.9523809523809523","","","","","","","",""
"null","205592","SARL_v6","SARL_v69617dncv","611131e47725f6a04c723651","freq_resp","","","img/blue_2bandit_b.png","70","img/blue_2bandit_b.png","70","test","","","","","","","","","","","2","","","","","","","","",""
"null","205748","SARL_v6","SARL_v69617dncv","611131e47725f6a04c723651","fixation","","","img/fixation.png","null","","","test","","","","","","","","","","","","","","","","","","","",""
"309.2000000476837","206060","SARL_v6","SARL_v69617dncv","611131e47725f6a04c723651","freq","","","img/blue_2bandit_b2.png","70","","70","test","1","","44","","","","circle","square","43","23","2","0.9534883720930233","","","","","","","",""
"null","206556","SARL_v6","SARL_v69617dncv","611131e47725f6a04c723651","freq_resp","","","img/blue_2bandit_b.png","70","img/blue_2bandit_b.png","70","test","","","","","","","","","","","2","","","","","","","","",""
"null","206721","SARL_v6","SARL_v69617dncv","611131e47725f6a04c723651","fixation","","","img/fixation.png","null","","","test","","","","","","","","","","","","","","","","","","","",""
"352.2999999523163","207076","SARL_v6","SARL_v69617dncv","611131e47725f6a04c723651","freq","","","img/blue_2bandit_b2.png","70","","70","test","1","","45","","","","circle","square","44","24","2","0.9545454545454546","","","","","","","",""
"null","207536","SARL_v6","SARL_v69617dncv","611131e47725f6a04c723651","freq_resp","","","img/blue_2bandit_b.png","70","img/blue_2bandit_b.png","70","test","","","","","","","","","","","2","","","","","","","","",""
"null","207697","SARL_v6","SARL_v69617dncv","611131e47725f6a04c723651","fixation","","","img/fixation.png","null","","","test","","","","","","","","","","","","","","","","","","","",""
"447.7999999523163","208147","SARL_v6","SARL_v69617dncv","611131e47725f6a04c723651","infreq","","","img/orange_2bandit_b2.png","68","","68","test","1","","46","","","","circle","square","45","25","2","0.9555555555555556","","","","","","","",""
"null","208509","SARL_v6","SARL_v69617dncv","611131e47725f6a04c723651","infreq_resp","","","img/orange_2bandit_b.png","68","img/orange_2bandit_b.png","68","test","","","","","","","","","","","2","","","","","","","","",""
"null","208670","SARL_v6","SARL_v69617dncv","611131e47725f6a04c723651","fixation","","","img/fixation.png","null","","","test","","","","","","","","","","","","","","","","","","","",""
"426.3000000715256","209099","SARL_v6","SARL_v69617dncv","611131e47725f6a04c723651","freq","","","img/blue_2bandit_b2.png","70","","70","test","1","","47","","","","circle","square","46","26","2","0.9565217391304348","","","","","","","",""
"null","209478","SARL_v6","SARL_v69617dncv","611131e47725f6a04c723651","freq_resp","","","img/blue_2bandit_b.png","70","img/blue_2bandit_b.png","70","test","","","","","","","","","","","2","","","","","","","","",""
"null","209636","SARL_v6","SARL_v69617dncv","611131e47725f6a04c723651","fixation","","","img/fixation.png","null","","","test","","","","","","","","","","","","","","","","","","","",""
"644.6999999284744","210283","SARL_v6","SARL_v69617dncv","611131e47725f6a04c723651","rl","","","img/black_2bandit_b2.png","74","","0","test","","","48","","","-5","circle","square","","0","2","","74","-5","-8","-5","-8","circle","2","0"
"null","211047","SARL_v6","SARL_v69617dncv","611131e47725f6a04c723651","feedback","","","<div class=""verylowPoints""> -5 </div>","null","","na","test","","","NaN","","","","","","","","2","","74","","","","","","2",""
"761.4000000953674","211811","SARL_v6","SARL_v69617dncv","611131e47725f6a04c723651","freq","","","img/blue_2bandit_b2.png","70","","70","test","1","","49","","","","circle","square","47","1","3","0.9574468085106383","","","","","","","",""
"null","211855","SARL_v6","SARL_v69617dncv","611131e47725f6a04c723651","freq_resp","","","img/blue_2bandit_b.png","70","img/blue_2bandit_b.png","70","test","","","","","","","","","","","3","","","","","","","","",""
"null","212017","SARL_v6","SARL_v69617dncv","611131e47725f6a04c723651","fixation","","","img/fixation.png","null","","","test","","","","","","","","","","","","","","","","","","","",""
"416.1999999284744","212436","SARL_v6","SARL_v69617dncv","611131e47725f6a04c723651","freq","","","img/blue_2bandit_b2.png","70","","70","test","1","","50","","","","circle","square","48","2","3","0.9583333333333334","","","","","","","",""
"null","212830","SARL_v6","SARL_v69617dncv","611131e47725f6a04c723651","freq_resp","","","img/blue_2bandit_b.png","70","img/blue_2bandit_b.png","70","test","","","","","","","","","","","3","","","","","","","","",""
"null","212991","SARL_v6","SARL_v69617dncv","611131e47725f6a04c723651","fixation","","","img/fixation.png","null","","","test","","","","","","","","","","","","","","","","","","","",""
"337.2999999523163","213331","SARL_v6","SARL_v69617dncv","611131e47725f6a04c723651","freq","","","img/blue_2bandit_b2.png","70","","70","test","1","","51","","","","circle","square","49","3","3","0.9591836734693877","","","","","","","",""
"null","213806","SARL_v6","SARL_v69617dncv","611131e47725f6a04c723651","freq_resp","","","img/blue_2bandit_b.png","70","img/blue_2bandit_b.png","70","test","","","","","","","","","","","3","","","","","","","","",""
"null","213968","SARL_v6","SARL_v69617dncv","611131e47725f6a04c723651","fixation","","","img/fixation.png","null","","","test","","","","","","","","","","","","","","","","","","","",""
"381.7999999523163","214352","SARL_v6","SARL_v69617dncv","611131e47725f6a04c723651","freq","","","img/blue_2bandit_b2.png","70","","70","test","1","","52","","","","circle","square","50","4","3","0.96","","","","","","","",""
"null","214781","SARL_v6","SARL_v69617dncv","611131e47725f6a04c723651","freq_resp","","","img/blue_2bandit_b.png","70","img/blue_2bandit_b.png","70","test","","","","","","","","","","","3","","","","","","","","",""
"null","214941","SARL_v6","SARL_v69617dncv","611131e47725f6a04c723651","fixation","","","img/fixation.png","null","","","test","","","","","","","","","","","","","","","","","","","",""
"339.5","215283","SARL_v6","SARL_v69617dncv","611131e47725f6a04c723651","freq","","","img/blue_2bandit_b2.png","70","","70","test","1","","53","","","","circle","square","51","5","3","0.9607843137254902","","","","","","","",""
"null","215748","SARL_v6","SARL_v69617dncv","611131e47725f6a04c723651","freq_resp","","","img/blue_2bandit_b.png","70","img/blue_2bandit_b.png","70","test","","","","","","","","","","","3","","","","","","","","",""
"null","215912","SARL_v6","SARL_v69617dncv","611131e47725f6a04c723651","fixation","","","img/fixation.png","null","","","test","","","","","","","","","","","","","","","","","","","",""
"335.90000009536743","216250","SARL_v6","SARL_v69617dncv","611131e47725f6a04c723651","freq","","","img/blue_2bandit_b2.png","70","","70","test","1","","54","","","","circle","square","52","6","3","0.9615384615384616","","","","","","","",""
"null","216727","SARL_v6","SARL_v69617dncv","611131e47725f6a04c723651","freq_resp","","","img/blue_2bandit_b.png","70","img/blue_2bandit_b.png","70","test","","","","","","","","","","","3","","","","","","","","",""
"null","216883","SARL_v6","SARL_v69617dncv","611131e47725f6a04c723651","fixation","","","img/fixation.png","null","","","test","","","","","","","","","","","","","","","","","","","",""
"381.1999999284744","217267","SARL_v6","SARL_v69617dncv","611131e47725f6a04c723651","freq","","","img/blue_2bandit_b2.png","70","","70","test","1","","55","","","","circle","square","53","7","3","0.9622641509433962","","","","","","","",""
"null","217696","SARL_v6","SARL_v69617dncv","611131e47725f6a04c723651","freq_resp","","","img/blue_2bandit_b.png","70","img/blue_2bandit_b.png","70","test","","","","","","","","","","","3","","","","","","","","",""
"null","217856","SARL_v6","SARL_v69617dncv","611131e47725f6a04c723651","fixation","","","img/fixation.png","null","","","test","","","","","","","","","","","","","","","","","","","",""
"464.1999999284744","218323","SARL_v6","SARL_v69617dncv","611131e47725f6a04c723651","infreq","","","img/orange_2bandit_b2.png","68","","68","test","1","","56","","","","circle","square","54","8","3","0.9629629629629629","","","","","","","",""
"null","218669","SARL_v6","SARL_v69617dncv","611131e47725f6a04c723651","infreq_resp","","","img/orange_2bandit_b.png","68","img/orange_2bandit_b.png","68","test","","","","","","","","","","","3","","","","","","","","",""
"null","218827","SARL_v6","SARL_v69617dncv","611131e47725f6a04c723651","fixation","","","img/fixation.png","null","","","test","","","","","","","","","","","","","","","","","","","",""
"637.3999999761581","219467","SARL_v6","SARL_v69617dncv","611131e47725f6a04c723651","freq","","","img/blue_2bandit_b2.png","70","","70","test","1","","57","","","","circle","square","55","9","3","0.9636363636363636","","","","","","","",""
"null","219636","SARL_v6","SARL_v69617dncv","611131e47725f6a04c723651","freq_resp","","","img/blue_2bandit_b.png","70","img/blue_2bandit_b.png","70","test","","","","","","","","","","","3","","","","","","","","",""
"null","219793","SARL_v6","SARL_v69617dncv","611131e47725f6a04c723651","fixation","","","img/fixation.png","null","","","test","","","","","","","","","","","","","","","","","","","",""
"398.7000000476837","220194","SARL_v6","SARL_v69617dncv","611131e47725f6a04c723651","freq","","","img/blue_2bandit_b2.png","70","","70","test","1","","58","","","","circle","square","56","10","3","0.9642857142857143","","","","","","","",""
"null","220606","SARL_v6","SARL_v69617dncv","611131e47725f6a04c723651","freq_resp","","","img/blue_2bandit_b.png","70","img/blue_2bandit_b.png","70","test","","","","","","","","","","","3","","","","","","","","",""
"null","220768","SARL_v6","SARL_v69617dncv","611131e47725f6a04c723651","fixation","","","img/fixation.png","null","","","test","","","","","","","","","","","","","","","","","","","",""
"351.89999997615814","221123","SARL_v6","SARL_v69617dncv","611131e47725f6a04c723651","freq","","","img/blue_2bandit_b2.png","70","","70","test","1","","59","","","","circle","square","57","11","3","0.9649122807017544","","","","","","","",""
"null","221580","SARL_v6","SARL_v69617dncv","611131e47725f6a04c723651","freq_resp","","","img/blue_2bandit_b.png","70","img/blue_2bandit_b.png","70","test","","","","","","","","","","","3","","","","","","","","",""
"null","221743","SARL_v6","SARL_v69617dncv","611131e47725f6a04c723651","fixation","","","img/fixation.png","null","","","test","","","","","","","","","","","","","","","","","","","",""
"353.2999999523163","222098","SARL_v6","SARL_v69617dncv","611131e47725f6a04c723651","freq","","","img/blue_2bandit_b2.png","70","","70","test","1","","60","","","","circle","square","58","12","3","0.9655172413793104","","","","","","","",""
"null","222558","SARL_v6","SARL_v69617dncv","611131e47725f6a04c723651","freq_resp","","","img/blue_2bandit_b.png","70","img/blue_2bandit_b.png","70","test","","","","","","","","","","","3","","","","","","","","",""
"null","222716","SARL_v6","SARL_v69617dncv","611131e47725f6a04c723651","fixation","","","img/fixation.png","null","","","test","","","","","","","","","","","","","","","","","","","",""
"332.10000002384186","223050","SARL_v6","SARL_v69617dncv","611131e47725f6a04c723651","freq","","","img/blue_2bandit_b2.png","70","","70","test","1","","61","","","","circle","square","59","13","3","0.9661016949152542","","","","","","","",""
"null","223528","SARL_v6","SARL_v69617dncv","611131e47725f6a04c723651","freq_resp","","","img/blue_2bandit_b.png","70","img/blue_2bandit_b.png","70","test","","","","","","","","","","","3","","","","","","","","",""
"null","223686","SARL_v6","SARL_v69617dncv","611131e47725f6a04c723651","fixation","","","img/fixation.png","null","","","test","","","","","","","","","","","","","","","","","","","",""
"330.8000000715256","224018","SARL_v6","SARL_v69617dncv","611131e47725f6a04c723651","freq","","","img/blue_2bandit_b2.png","70","","70","test","1","","62","","","","circle","square","60","14","3","0.9666666666666667","","","","","","","",""
"null","224496","SARL_v6","SARL_v69617dncv","611131e47725f6a04c723651","freq_resp","","","img/blue_2bandit_b.png","70","img/blue_2bandit_b.png","70","test","","","","","","","","","","","3","","","","","","","","",""
"null","224655","SARL_v6","SARL_v69617dncv","611131e47725f6a04c723651","fixation","","","img/fixation.png","null","","","test","","","","","","","","","","","","","","","","","","","",""
"345.5","225002","SARL_v6","SARL_v69617dncv","611131e47725f6a04c723651","freq","","","img/blue_2bandit_b2.png","70","","70","test","1","","63","","","","circle","square","61","15","3","0.9672131147540983","","","","","","","",""
"null","225467","SARL_v6","SARL_v69617dncv","611131e47725f6a04c723651","freq_resp","","","img/blue_2bandit_b.png","70","img/blue_2bandit_b.png","70","test","","","","","","","","","","","3","","","","","","","","",""
"null","225627","SARL_v6","SARL_v69617dncv","611131e47725f6a04c723651","fixation","","","img/fixation.png","null","","","test","","","","","","","","","","","","","","","","","","","",""
"388.7000000476837","226019","SARL_v6","SARL_v69617dncv","611131e47725f6a04c723651","freq","","","img/blue_2bandit_b2.png","70","","70","test","1","","64","","","","circle","square","62","16","3","0.967741935483871","","","","","","","",""
"null","226439","SARL_v6","SARL_v69617dncv","611131e47725f6a04c723651","freq_resp","","","img/blue_2bandit_b.png","70","img/blue_2bandit_b.png","70","test","","","","","","","","","","","3","","","","","","","","",""
"null","226599","SARL_v6","SARL_v69617dncv","611131e47725f6a04c723651","fixation","","","img/fixation.png","null","","","test","","","","","","","","","","","","","","","","","","","",""
"352.89999997615814","226955","SARL_v6","SARL_v69617dncv","611131e47725f6a04c723651","freq","","","img/blue_2bandit_b2.png","70","","70","test","1","","65","","","","circle","square","63","17","3","0.9682539682539683","","","","","","","",""
"null","227415","SARL_v6","SARL_v69617dncv","611131e47725f6a04c723651","freq_resp","","","img/blue_2bandit_b.png","70","img/blue_2bandit_b.png","70","test","","","","","","","","","","","3","","","","","","","","",""
"null","227572","SARL_v6","SARL_v69617dncv","611131e47725f6a04c723651","fixation","","","img/fixation.png","null","","","test","","","","","","","","","","","","","","","","","","","",""
"307.8000000715256","227882","SARL_v6","SARL_v69617dncv","611131e47725f6a04c723651","freq","","","img/blue_2bandit_b2.png","70","","70","test","1","","66","","","","circle","square","64","18","3","0.96875","","","","","","","",""
"null","228384","SARL_v6","SARL_v69617dncv","611131e47725f6a04c723651","freq_resp","","","img/blue_2bandit_b.png","70","img/blue_2bandit_b.png","70","test","","","","","","","","","","","3","","","","","","","","",""
"null","228540","SARL_v6","SARL_v69617dncv","611131e47725f6a04c723651","fixation","","","img/fixation.png","null","","","test","","","","","","","","","","","","","","","","","","","",""
"340.39999997615814","228882","SARL_v6","SARL_v69617dncv","611131e47725f6a04c723651","freq","","","img/blue_2bandit_b2.png","70","","70","test","1","","67","","","","circle","square","65","19","3","0.9692307692307692","","","","","","","",""
"null","229352","SARL_v6","SARL_v69617dncv","611131e47725f6a04c723651","freq_resp","","","img/blue_2bandit_b.png","70","img/blue_2bandit_b.png","70","test","","","","","","","","","","","3","","","","","","","","",""
"null","229512","SARL_v6","SARL_v69617dncv","611131e47725f6a04c723651","fixation","","","img/fixation.png","null","","","test","","","","","","","","","","","","","","","","","","","",""
"344.1999999284744","229859","SARL_v6","SARL_v69617dncv","611131e47725f6a04c723651","freq","","","img/blue_2bandit_b2.png","70","","70","test","1","","68","","","","circle","square","66","20","3","0.9696969696969697","","","","","","","",""
"null","230328","SARL_v6","SARL_v69617dncv","611131e47725f6a04c723651","freq_resp","","","img/blue_2bandit_b.png","70","img/blue_2bandit_b.png","70","test","","","","","","","","","","","3","","","","","","","","",""
"null","230484","SARL_v6","SARL_v69617dncv","611131e47725f6a04c723651","fixation","","","img/fixation.png","null","","","test","","","","","","","","","","","","","","","","","","","",""
"467.60000002384186","230954","SARL_v6","SARL_v69617dncv","611131e47725f6a04c723651","infreq","","","img/orange_2bandit_b2.png","68","","68","test","1","","69","","","","circle","square","67","21","3","0.9701492537313433","","","","","","","",""
"null","231294","SARL_v6","SARL_v69617dncv","611131e47725f6a04c723651","infreq_resp","","","img/orange_2bandit_b.png","68","img/orange_2bandit_b.png","68","test","","","","","","","","","","","3","","","","","","","","",""
"null","231452","SARL_v6","SARL_v69617dncv","611131e47725f6a04c723651","fixation","","","img/fixation.png","null","","","test","","","","","","","","","","","","","","","","","","","",""
"348.2999999523163","231802","SARL_v6","SARL_v69617dncv","611131e47725f6a04c723651","freq","","","img/blue_2bandit_b2.png","68","","70","test","0","","70","","","","circle","square","68","22","3","0.9558823529411765","","","","","","","",""
"null","232263","SARL_v6","SARL_v69617dncv","611131e47725f6a04c723651","freq_resp","","","img/blue_2bandit_b.png","68","img/blue_2bandit_b.png","70","test","","","","","","","","","","","3","","","","","","","","",""
"null","232424","SARL_v6","SARL_v69617dncv","611131e47725f6a04c723651","fixation","","","img/fixation.png","null","","","test","","","","","","","","","","","","","","","","","","","",""
"392","232818","SARL_v6","SARL_v69617dncv","611131e47725f6a04c723651","freq","","","img/blue_2bandit_b2.png","70","","70","test","1","","71","","","","circle","square","69","23","3","0.9565217391304348","","","","","","","",""
"null","233240","SARL_v6","SARL_v69617dncv","611131e47725f6a04c723651","freq_resp","","","img/blue_2bandit_b.png","70","img/blue_2bandit_b.png","70","test","","","","","","","","","","","3","","","","","","","","",""
"null","233399","SARL_v6","SARL_v69617dncv","611131e47725f6a04c723651","fixation","","","img/fixation.png","null","","","test","","","","","","","","","","","","","","","","","","","",""
"552.1000000238419","233954","SARL_v6","SARL_v69617dncv","611131e47725f6a04c723651","rl","","","img/black_2bandit_b2.png","75","","0","test","","","72","","","-8","circle","square","","0","3","","75","-4","-8","-4","-8","square","3","0"
"null","234720","SARL_v6","SARL_v69617dncv","611131e47725f6a04c723651","feedback","","","<div class=""verylowPoints_sq""> -8 </div>","null","","na","test","","","NaN","","","","","","","","3","","75","","","","","","3",""
"568","235290","SARL_v6","SARL_v69617dncv","611131e47725f6a04c723651","freq","","","img/blue_2bandit_b2.png","70","","70","test","1","","73","","","","circle","square","70","1","4","0.9571428571428572","","","","","","","",""
"null","235535","SARL_v6","SARL_v69617dncv","611131e47725f6a04c723651","freq_resp","","","img/blue_2bandit_b.png","70","img/blue_2bandit_b.png","70","test","","","","","","","","","","","4","","","","","","","","",""
"null","235695","SARL_v6","SARL_v69617dncv","611131e47725f6a04c723651","fixation","","","img/fixation.png","null","","","test","","","","","","","","","","","","","","","","","","","",""
"288.39999997615814","235986","SARL_v6","SARL_v69617dncv","611131e47725f6a04c723651","freq","","","img/blue_2bandit_b2.png","70","","70","test","1","","74","","","","circle","square","71","2","4","0.9577464788732394","","","","","","","",""
"null","236510","SARL_v6","SARL_v69617dncv","611131e47725f6a04c723651","freq_resp","","","img/blue_2bandit_b.png","70","img/blue_2bandit_b.png","70","test","","","","","","","","","","","4","","","","","","","","",""
"null","236667","SARL_v6","SARL_v69617dncv","611131e47725f6a04c723651","fixation","","","img/fixation.png","null","","","test","","","","","","","","","","","","","","","","","","","",""
"340.39999997615814","237010","SARL_v6","SARL_v69617dncv","611131e47725f6a04c723651","freq","","","img/blue_2bandit_b2.png","70","","70","test","1","","75","","","","circle","square","72","3","4","0.9583333333333334","","","","","","","",""
"null","237476","SARL_v6","SARL_v69617dncv","611131e47725f6a04c723651","freq_resp","","","img/blue_2bandit_b.png","70","img/blue_2bandit_b.png","70","test","","","","","","","","","","","4","","","","","","","","",""
"null","237637","SARL_v6","SARL_v69617dncv","611131e47725f6a04c723651","fixation","","","img/fixation.png","null","","","test","","","","","","","","","","","","","","","","","","","",""
"338.6999999284744","237978","SARL_v6","SARL_v69617dncv","611131e47725f6a04c723651","freq","","","img/blue_2bandit_b2.png","70","","70","test","1","","76","","","","circle","square","73","4","4","0.958904109589041","","","","","","","",""
"null","238450","SARL_v6","SARL_v69617dncv","611131e47725f6a04c723651","freq_resp","","","img/blue_2bandit_b.png","70","img/blue_2bandit_b.png","70","test","","","","","","","","","","","4","","","","","","","","",""
"null","238615","SARL_v6","SARL_v69617dncv","611131e47725f6a04c723651","fixation","","","img/fixation.png","null","","","test","","","","","","","","","","","","","","","","","","","",""
"327.90000009536743","238946","SARL_v6","SARL_v69617dncv","611131e47725f6a04c723651","freq","","","img/blue_2bandit_b2.png","70","","70","test","1","","77","","","","circle","square","74","5","4","0.9594594594594594","","","","","","","",""
"null","239431","SARL_v6","SARL_v69617dncv","611131e47725f6a04c723651","freq_resp","","","img/blue_2bandit_b.png","70","img/blue_2bandit_b.png","70","test","","","","","","","","","","","4","","","","","","","","",""
"null","239586","SARL_v6","SARL_v69617dncv","611131e47725f6a04c723651","fixation","","","img/fixation.png","null","","","test","","","","","","","","","","","","","","","","","","","",""
"341.2999999523163","239930","SARL_v6","SARL_v69617dncv","611131e47725f6a04c723651","freq","","","img/blue_2bandit_b2.png","70","","70","test","1","","78","","","","circle","square","75","6","4","0.96","","","","","","","",""
"null","240395","SARL_v6","SARL_v69617dncv","611131e47725f6a04c723651","freq_resp","","","img/blue_2bandit_b.png","70","img/blue_2bandit_b.png","70","test","","","","","","","","","","","4","","","","","","","","",""
"null","240555","SARL_v6","SARL_v69617dncv","611131e47725f6a04c723651","fixation","","","img/fixation.png","null","","","test","","","","","","","","","","","","","","","","","","","",""
"340.39999997615814","240898","SARL_v6","SARL_v69617dncv","611131e47725f6a04c723651","freq","","","img/blue_2bandit_b2.png","70","","70","test","1","","79","","","","circle","square","76","7","4","0.9605263157894737","","","","","","","",""
"null","241367","SARL_v6","SARL_v69617dncv","611131e47725f6a04c723651","freq_resp","","","img/blue_2bandit_b.png","70","img/blue_2bandit_b.png","70","test","","","","","","","","","","","4","","","","","","","","",""
"null","241523","SARL_v6","SARL_v69617dncv","611131e47725f6a04c723651","fixation","","","img/fixation.png","null","","","test","","","","","","","","","","","","","","","","","","","",""
"292.2000000476837","241818","SARL_v6","SARL_v69617dncv","611131e47725f6a04c723651","infreq","","","img/orange_2bandit_b2.png","70","","68","test","0","","80","","","","circle","square","77","8","4","0.948051948051948","","","","","","","",""
"null","242332","SARL_v6","SARL_v69617dncv","611131e47725f6a04c723651","infreq_resp","","","img/orange_2bandit_b.png","70","img/orange_2bandit_b.png","68","test","","","","","","","","","","","4","","","","","","","","",""
"null","242490","SARL_v6","SARL_v69617dncv","611131e47725f6a04c723651","fixation","","","img/fixation.png","null","","","test","","","","","","","","","","","","","","","","","","","",""
"509.3000000715256","243002","SARL_v6","SARL_v69617dncv","611131e47725f6a04c723651","freq","","","img/blue_2bandit_b2.png","70","","70","test","1","","81","","","","circle","square","78","9","4","0.9487179487179487","","","","","","","",""
"null","243301","SARL_v6","SARL_v69617dncv","611131e47725f6a04c723651","freq_resp","","","img/blue_2bandit_b.png","70","img/blue_2bandit_b.png","70","test","","","","","","","","","","","4","","","","","","","","",""
"null","243460","SARL_v6","SARL_v69617dncv","611131e47725f6a04c723651","fixation","","","img/fixation.png","null","","","test","","","","","","","","","","","","","","","","","","","",""
"370.90000009536743","243834","SARL_v6","SARL_v69617dncv","611131e47725f6a04c723651","freq","","","img/blue_2bandit_b2.png","70","","70","test","1","","82","","","","circle","square","79","10","4","0.9493670886075949","","","","","","","",""
"null","244268","SARL_v6","SARL_v69617dncv","611131e47725f6a04c723651","freq_resp","","","img/blue_2bandit_b.png","70","img/blue_2bandit_b.png","70","test","","","","","","","","","","","4","","","","","","","","",""
"null","244431","SARL_v6","SARL_v69617dncv","611131e47725f6a04c723651","fixation","","","img/fixation.png","null","","","test","","","","","","","","","","","","","","","","","","","",""
"352.39999997615814","244785","SARL_v6","SARL_v69617dncv","611131e47725f6a04c723651","freq","","","img/blue_2bandit_b2.png","70","","70","test","1","","83","","","","circle","square","80","11","4","0.95","","","","","","","",""
"null","245247","SARL_v6","SARL_v69617dncv","611131e47725f6a04c723651","freq_resp","","","img/blue_2bandit_b.png","70","img/blue_2bandit_b.png","70","test","","","","","","","","","","","4","","","","","","","","",""
"null","245405","SARL_v6","SARL_v69617dncv","611131e47725f6a04c723651","fixation","","","img/fixation.png","null","","","test","","","","","","","","","","","","","","","","","","","",""
"322.60000002384186","245730","SARL_v6","SARL_v69617dncv","611131e47725f6a04c723651","freq","","","img/blue_2bandit_b2.png","70","","70","test","1","","84","","","","circle","square","81","12","4","0.9506172839506173","","","","","","","",""
"null","246215","SARL_v6","SARL_v69617dncv","611131e47725f6a04c723651","freq_resp","","","img/blue_2bandit_b.png","70","img/blue_2bandit_b.png","70","test","","","","","","","","","","","4","","","","","","","","",""
"null","246375","SARL_v6","SARL_v69617dncv","611131e47725f6a04c723651","fixation","","","img/fixation.png","null","","","test","","","","","","","","","","","","","","","","","","","",""
"312.1999999284744","246689","SARL_v6","SARL_v69617dncv","611131e47725f6a04c723651","freq","","","img/blue_2bandit_b2.png","70","","70","test","1","","85","","","","circle","square","82","13","4","0.9512195121951219","","","","","","","",""
"null","247189","SARL_v6","SARL_v69617dncv","611131e47725f6a04c723651","freq_resp","","","img/blue_2bandit_b.png","70","img/blue_2bandit_b.png","70","test","","","","","","","","","","","4","","","","","","","","",""
"null","247351","SARL_v6","SARL_v69617dncv","611131e47725f6a04c723651","fixation","","","img/fixation.png","null","","","test","","","","","","","","","","","","","","","","","","","",""
"336.39999997615814","247690","SARL_v6","SARL_v69617dncv","611131e47725f6a04c723651","freq","","","img/blue_2bandit_b2.png","70","","70","test","1","","86","","","","circle","square","83","14","4","0.9518072289156626","","","","","","","",""
"null","248165","SARL_v6","SARL_v69617dncv","611131e47725f6a04c723651","freq_resp","","","img/blue_2bandit_b.png","70","img/blue_2bandit_b.png","70","test","","","","","","","","","","","4","","","","","","","","",""
"null","248319","SARL_v6","SARL_v69617dncv","611131e47725f6a04c723651","fixation","","","img/fixation.png","null","","","test","","","","","","","","","","","","","","","","","","","",""
"384","248706","SARL_v6","SARL_v69617dncv","611131e47725f6a04c723651","freq","","","img/blue_2bandit_b2.png","70","","70","test","1","","87","","","","circle","square","84","15","4","0.9523809523809523","","","","","","","",""
"null","249131","SARL_v6","SARL_v69617dncv","611131e47725f6a04c723651","freq_resp","","","img/blue_2bandit_b.png","70","img/blue_2bandit_b.png","70","test","","","","","","","","","","","4","","","","","","","","",""
"null","249291","SARL_v6","SARL_v69617dncv","611131e47725f6a04c723651","fixation","","","img/fixation.png","null","","","test","","","","","","","","","","","","","","","","","","","",""
"508.1999999284744","249801","SARL_v6","SARL_v69617dncv","611131e47725f6a04c723651","infreq","","","img/orange_2bandit_b2.png","68","","68","test","1","","88","","","","circle","square","85","16","4","0.9529411764705882","","","","","","","",""
"null","250100","SARL_v6","SARL_v69617dncv","611131e47725f6a04c723651","infreq_resp","","","img/orange_2bandit_b.png","68","img/orange_2bandit_b.png","68","test","","","","","","","","","","","4","","","","","","","","",""
"null","250259","SARL_v6","SARL_v69617dncv","611131e47725f6a04c723651","fixation","","","img/fixation.png","null","","","test","","","","","","","","","","","","","","","","","","","",""
"466.8000000715256","250728","SARL_v6","SARL_v69617dncv","611131e47725f6a04c723651","freq","","","img/blue_2bandit_b2.png","70","","70","test","1","","89","","","","circle","square","86","17","4","0.9534883720930233","","","","","","","",""
"null","251068","SARL_v6","SARL_v69617dncv","611131e47725f6a04c723651","freq_resp","","","img/blue_2bandit_b.png","70","img/blue_2bandit_b.png","70","test","","","","","","","","","","","4","","","","","","","","",""
"null","251230","SARL_v6","SARL_v69617dncv","611131e47725f6a04c723651","fixation","","","img/fixation.png","null","","","test","","","","","","","","","","","","","","","","","","","",""
"416.89999997615814","251649","SARL_v6","SARL_v69617dncv","611131e47725f6a04c723651","freq","","","img/blue_2bandit_b2.png","70","","70","test","1","","90","","","","circle","square","87","18","4","0.9540229885057471","","","","","","","",""
"null","252043","SARL_v6","SARL_v69617dncv","611131e47725f6a04c723651","freq_resp","","","img/blue_2bandit_b.png","70","img/blue_2bandit_b.png","70","test","","","","","","","","","","","4","","","","","","","","",""
"null","252204","SARL_v6","SARL_v69617dncv","611131e47725f6a04c723651","fixation","","","img/fixation.png","null","","","test","","","","","","","","","","","","","","","","","","","",""
"354.7000000476837","252561","SARL_v6","SARL_v69617dncv","611131e47725f6a04c723651","freq","","","img/blue_2bandit_b2.png","70","","70","test","1","","91","","","","circle","square","88","19","4","0.9545454545454546","","","","","","","",""
"null","253015","SARL_v6","SARL_v69617dncv","611131e47725f6a04c723651","freq_resp","","","img/blue_2bandit_b.png","70","img/blue_2bandit_b.png","70","test","","","","","","","","","","","4","","","","","","","","",""
"null","253173","SARL_v6","SARL_v69617dncv","611131e47725f6a04c723651","fixation","","","img/fixation.png","null","","","test","","","","","","","","","","","","","","","","","","","",""
"314.10000002384186","253489","SARL_v6","SARL_v69617dncv","611131e47725f6a04c723651","freq","","","img/blue_2bandit_b2.png","70","","70","test","1","","92","","","","circle","square","89","20","4","0.9550561797752809","","","","","","","",""
"null","253983","SARL_v6","SARL_v69617dncv","611131e47725f6a04c723651","freq_resp","","","img/blue_2bandit_b.png","70","img/blue_2bandit_b.png","70","test","","","","","","","","","","","4","","","","","","","","",""
"null","254142","SARL_v6","SARL_v69617dncv","611131e47725f6a04c723651","fixation","","","img/fixation.png","null","","","test","","","","","","","","","","","","","","","","","","","",""
"752","254897","SARL_v6","SARL_v69617dncv","611131e47725f6a04c723651","rl","","","img/black_2bandit_b2.png","75","","0","test","","","93","","","-12","circle","square","","0","4","","75","0","-12","0","-12","square","4","0"
"null","255660","SARL_v6","SARL_v69617dncv","611131e47725f6a04c723651","feedback","","","<div class=""verylowPoints_sq""> -12 </div>","null","","na","test","","","NaN","","","","","","","","4","","75","","","","","","4",""
"null","256470","SARL_v6","SARL_v69617dncv","611131e47725f6a04c723651","freq","","","img/blue_2bandit_b2.png","null","","70","test","0","","94","","","","circle","square","90","1","5","0.9444444444444444","","","","","","","",""
"null","256629","SARL_v6","SARL_v69617dncv","611131e47725f6a04c723651","fixation","","","img/fixation.png","null","","","test","","","","","","","","","","","","","","","","","","","",""
"1.6999999284744263","256634","SARL_v6","SARL_v69617dncv","611131e47725f6a04c723651","freq","","","img/blue_2bandit_b2.png","70","","70","test","1","","95","","","","circle","square","91","2","5","0.945054945054945","","","","","","","",""
"null","257446","SARL_v6","SARL_v69617dncv","611131e47725f6a04c723651","freq_resp","","","img/blue_2bandit_b.png","70","img/blue_2bandit_b.png","70","test","","","","","","","","","","","5","","","","","","","","",""
"null","257603","SARL_v6","SARL_v69617dncv","611131e47725f6a04c723651","fixation","","","img/fixation.png","null","","","test","","","","","","","","","","","","","","","","","","","",""
"97.80000007152557","257703","SARL_v6","SARL_v69617dncv","611131e47725f6a04c723651","freq","","","img/blue_2bandit_b2.png","70","","70","test","1","","96","","","","circle","square","92","3","5","0.9456521739130435","","","","","","","",""
"null","258412","SARL_v6","SARL_v69617dncv","611131e47725f6a04c723651","freq_resp","","","img/blue_2bandit_b.png","70","img/blue_2bandit_b.png","70","test","","","","","","","","","","","5","","","","","","","","",""
"null","258572","SARL_v6","SARL_v69617dncv","611131e47725f6a04c723651","fixation","","","img/fixation.png","null","","","test","","","","","","","","","","","","","","","","","","","",""
"89.79999995231628","258665","SARL_v6","SARL_v69617dncv","611131e47725f6a04c723651","freq","","","img/blue_2bandit_b2.png","70","","70","test","1","","97","","","","circle","square","93","4","5","0.946236559139785","","","","","","","",""
"null","259390","SARL_v6","SARL_v69617dncv","611131e47725f6a04c723651","freq_resp","","","img/blue_2bandit_b.png","70","img/blue_2bandit_b.png","70","test","","","","","","","","","","","5","","","","","","","","",""
"null","259550","SARL_v6","SARL_v69617dncv","611131e47725f6a04c723651","fixation","","","img/fixation.png","null","","","test","","","","","","","","","","","","","","","","","","","",""
"336.7000000476837","259889","SARL_v6","SARL_v69617dncv","611131e47725f6a04c723651","freq","","","img/blue_2bandit_b2.png","70","","70","test","1","","98","","","","circle","square","94","5","5","0.9468085106382979","","","","","","","",""
"null","260362","SARL_v6","SARL_v69617dncv","611131e47725f6a04c723651","freq_resp","","","img/blue_2bandit_b.png","70","img/blue_2bandit_b.png","70","test","","","","","","","","","","","5","","","","","","","","",""
"null","260526","SARL_v6","SARL_v69617dncv","611131e47725f6a04c723651","fixation","","","img/fixation.png","null","","","test","","","","","","","","","","","","","","","","","","","",""
"303.60000002384186","260832","SARL_v6","SARL_v69617dncv","611131e47725f6a04c723651","freq","","","img/blue_2bandit_b2.png","70","","70","test","1","","99","","","","circle","square","95","6","5","0.9473684210526315","","","","","","","",""
"null","261342","SARL_v6","SARL_v69617dncv","611131e47725f6a04c723651","freq_resp","","","img/blue_2bandit_b.png","70","img/blue_2bandit_b.png","70","test","","","","","","","","","","","5","","","","","","","","",""
"null","261502","SARL_v6","SARL_v69617dncv","611131e47725f6a04c723651","fixation","","","img/fixation.png","null","","","test","","","","","","","","","","","","","","","","","","","",""
"264.5","261769","SARL_v6","SARL_v69617dncv","611131e47725f6a04c723651","freq","","","img/blue_2bandit_b2.png","70","","70","test","1","","100","","","","circle","square","96","7","5","0.9479166666666666","","","","","","","",""
"null","262318","SARL_v6","SARL_v69617dncv","611131e47725f6a04c723651","freq_resp","","","img/blue_2bandit_b.png","70","img/blue_2bandit_b.png","70","test","","","","","","","","","","","5","","","","","","","","",""
"null","262475","SARL_v6","SARL_v69617dncv","611131e47725f6a04c723651","fixation","","","img/fixation.png","null","","","test","","","","","","","","","","","","","","","","","","","",""
"307.39999997615814","262784","SARL_v6","SARL_v69617dncv","611131e47725f6a04c723651","freq","","","img/blue_2bandit_b2.png","70","","70","test","1","","101","","","","circle","square","97","8","5","0.9484536082474226","","","","","","","",""
"null","263285","SARL_v6","SARL_v69617dncv","611131e47725f6a04c723651","freq_resp","","","img/blue_2bandit_b.png","70","img/blue_2bandit_b.png","70","test","","","","","","","","","","","5","","","","","","","","",""
"null","263438","SARL_v6","SARL_v69617dncv","611131e47725f6a04c723651","fixation","","","img/fixation.png","null","","","test","","","","","","","","","","","","","","","","","","","",""
"312","263753","SARL_v6","SARL_v69617dncv","611131e47725f6a04c723651","freq","","","img/blue_2bandit_b2.png","70","","70","test","1","","102","","","","circle","square","98","9","5","0.9489795918367347","","","","","","","",""
"null","264254","SARL_v6","SARL_v69617dncv","611131e47725f6a04c723651","freq_resp","","","img/blue_2bandit_b.png","70","img/blue_2bandit_b.png","70","test","","","","","","","","","","","5","","","","","","","","",""
"null","264411","SARL_v6","SARL_v69617dncv","611131e47725f6a04c723651","fixation","","","img/fixation.png","null","","","test","","","","","","","","","","","","","","","","","","","",""
"307.39999997615814","264720","SARL_v6","SARL_v69617dncv","611131e47725f6a04c723651","freq","","","img/blue_2bandit_b2.png","70","","70","test","1","","103","","","","circle","square","99","10","5","0.9494949494949495","","","","","","","",""
"null","265222","SARL_v6","SARL_v69617dncv","611131e47725f6a04c723651","freq_resp","","","img/blue_2bandit_b.png","70","img/blue_2bandit_b.png","70","test","","","","","","","","","","","5","","","","","","","","",""
"null","265382","SARL_v6","SARL_v69617dncv","611131e47725f6a04c723651","fixation","","","img/fixation.png","null","","","test","","","","","","","","","","","","","","","","","","","",""
"296.1999999284744","265681","SARL_v6","SARL_v69617dncv","611131e47725f6a04c723651","freq","","","img/blue_2bandit_b2.png","70","","70","test","1","","104","","","","circle","square","100","11","5","0.95","","","","","","","",""
"null","266194","SARL_v6","SARL_v69617dncv","611131e47725f6a04c723651","freq_resp","","","img/blue_2bandit_b.png","70","img/blue_2bandit_b.png","70","test","","","","","","","","","","","5","","","","","","","","",""
"null","266357","SARL_v6","SARL_v69617dncv","611131e47725f6a04c723651","fixation","","","img/fixation.png","null","","","test","","","","","","","","","","","","","","","","","","","",""
"248.70000004768372","266608","SARL_v6","SARL_v69617dncv","611131e47725f6a04c723651","freq","","","img/blue_2bandit_b2.png","70","","70","test","1","","105","","","","circle","square","101","12","5","0.9504950495049505","","","","","","","",""
"null","267173","SARL_v6","SARL_v69617dncv","611131e47725f6a04c723651","freq_resp","","","img/blue_2bandit_b.png","70","img/blue_2bandit_b.png","70","test","","","","","","","","","","","5","","","","","","","","",""
"null","267329","SARL_v6","SARL_v69617dncv","611131e47725f6a04c723651","fixation","","","img/fixation.png","null","","","test","","","","","","","","","","","","","","","","","","","",""
"316.8000000715256","267648","SARL_v6","SARL_v69617dncv","611131e47725f6a04c723651","freq","","","img/blue_2bandit_b2.png","70","","70","test","1","","106","","","","circle","square","102","13","5","0.9509803921568627","","","","","","","",""
"null","268137","SARL_v6","SARL_v69617dncv","611131e47725f6a04c723651","freq_resp","","","img/blue_2bandit_b.png","70","img/blue_2bandit_b.png","70","test","","","","","","","","","","","5","","","","","","","","",""
"null","268299","SARL_v6","SARL_v69617dncv","611131e47725f6a04c723651","fixation","","","img/fixation.png","null","","","test","","","","","","","","","","","","","","","","","","","",""
"298.89999997615814","268600","SARL_v6","SARL_v69617dncv","611131e47725f6a04c723651","freq","","","img/blue_2bandit_b2.png","70","","70","test","1","","107","","","","circle","square","103","14","5","0.9514563106796117","","","","","","","",""
"null","269110","SARL_v6","SARL_v69617dncv","611131e47725f6a04c723651","freq_resp","","","img/blue_2bandit_b.png","70","img/blue_2bandit_b.png","70","test","","","","","","","","","","","5","","","","","","","","",""
"null","269269","SARL_v6","SARL_v69617dncv","611131e47725f6a04c723651","fixation","","","img/fixation.png","null","","","test","","","","","","","","","","","","","","","","","","","",""
"297","269569","SARL_v6","SARL_v69617dncv","611131e47725f6a04c723651","freq","","","img/blue_2bandit_b2.png","70","","70","test","1","","108","","","","circle","square","104","15","5","0.9519230769230769","","","","","","","",""
"null","270077","SARL_v6","SARL_v69617dncv","611131e47725f6a04c723651","freq_resp","","","img/blue_2bandit_b.png","70","img/blue_2bandit_b.png","70","test","","","","","","","","","","","5","","","","","","","","",""
"null","270238","SARL_v6","SARL_v69617dncv","611131e47725f6a04c723651","fixation","","","img/fixation.png","null","","","test","","","","","","","","","","","","","","","","","","","",""
"248.60000002384186","270489","SARL_v6","SARL_v69617dncv","611131e47725f6a04c723651","freq","","","img/blue_2bandit_b2.png","70","","70","test","1","","109","","","","circle","square","105","16","5","0.9523809523809523","","","","","","","",""
"null","271053","SARL_v6","SARL_v69617dncv","611131e47725f6a04c723651","freq_resp","","","img/blue_2bandit_b.png","70","img/blue_2bandit_b.png","70","test","","","","","","","","","","","5","","","","","","","","",""
"null","271210","SARL_v6","SARL_v69617dncv","611131e47725f6a04c723651","fixation","","","img/fixation.png","null","","","test","","","","","","","","","","","","","","","","","","","",""
"331.10000002384186","271544","SARL_v6","SARL_v69617dncv","611131e47725f6a04c723651","freq","","","img/blue_2bandit_b2.png","70","","70","test","1","","110","","","","circle","square","106","17","5","0.9528301886792453","","","","","","","",""
"null","272022","SARL_v6","SARL_v69617dncv","611131e47725f6a04c723651","freq_resp","","","img/blue_2bandit_b.png","70","img/blue_2bandit_b.png","70","test","","","","","","","","","","","5","","","","","","","","",""
"null","272182","SARL_v6","SARL_v69617dncv","611131e47725f6a04c723651","fixation","","","img/fixation.png","null","","","test","","","","","","","","","","","","","","","","","","","",""
"288","272472","SARL_v6","SARL_v69617dncv","611131e47725f6a04c723651","freq","","","img/blue_2bandit_b2.png","70","","70","test","1","","111","","","","circle","square","107","18","5","0.9532710280373832","","","","","","","",""
"null","272996","SARL_v6","SARL_v69617dncv","611131e47725f6a04c723651","freq_resp","","","img/blue_2bandit_b.png","70","img/blue_2bandit_b.png","70","test","","","","","","","","","","","5","","","","","","","","",""
"null","273153","SARL_v6","SARL_v69617dncv","611131e47725f6a04c723651","fixation","","","img/fixation.png","null","","","test","","","","","","","","","","","","","","","","","","","",""
"237","273392","SARL_v6","SARL_v69617dncv","611131e47725f6a04c723651","infreq","","","img/orange_2bandit_b2.png","70","","68","test","0","","112","","","","circle","square","108","19","5","0.9444444444444444","","","","","","","",""
"null","273965","SARL_v6","SARL_v69617dncv","611131e47725f6a04c723651","infreq_resp","","","img/orange_2bandit_b.png","70","img/orange_2bandit_b.png","68","test","","","","","","","","","","","5","","","","","","","","",""
"null","274125","SARL_v6","SARL_v69617dncv","611131e47725f6a04c723651","fixation","","","img/fixation.png","null","","","test","","","","","","","","","","","","","","","","","","","",""
"456.2000000476837","274584","SARL_v6","SARL_v69617dncv","611131e47725f6a04c723651","infreq","","","img/orange_2bandit_b2.png","68","","68","test","1","","113","","","","circle","square","109","20","5","0.944954128440367","","","","","","","",""
"null","274941","SARL_v6","SARL_v69617dncv","611131e47725f6a04c723651","infreq_resp","","","img/orange_2bandit_b.png","68","img/orange_2bandit_b.png","68","test","","","","","","","","","","","5","","","","","","","","",""
"null","275097","SARL_v6","SARL_v69617dncv","611131e47725f6a04c723651","fixation","","","img/fixation.png","null","","","test","","","","","","","","","","","","","","","","","","","",""
"428.39999997615814","275528","SARL_v6","SARL_v69617dncv","611131e47725f6a04c723651","freq","","","img/blue_2bandit_b2.png","70","","70","test","1","","114","","","","circle","square","110","21","5","0.9454545454545454","","","","","","","",""
"null","275909","SARL_v6","SARL_v69617dncv","611131e47725f6a04c723651","freq_resp","","","img/blue_2bandit_b.png","70","img/blue_2bandit_b.png","70","test","","","","","","","","","","","5","","","","","","","","",""
"null","276064","SARL_v6","SARL_v69617dncv","611131e47725f6a04c723651","fixation","","","img/fixation.png","null","","","test","","","","","","","","","","","","","","","","","","","",""
"437.7999999523163","276504","SARL_v6","SARL_v69617dncv","611131e47725f6a04c723651","freq","","","img/blue_2bandit_b2.png","70","","70","test","1","","115","","","","circle","square","111","22","5","0.9459459459459459","","","","","","","",""
"null","276874","SARL_v6","SARL_v69617dncv","611131e47725f6a04c723651","freq_resp","","","img/blue_2bandit_b.png","70","img/blue_2bandit_b.png","70","test","","","","","","","","","","","5","","","","","","","","",""
"null","277032","SARL_v6","SARL_v69617dncv","611131e47725f6a04c723651","fixation","","","img/fixation.png","null","","","test","","","","","","","","","","","","","","","","","","","",""
"373.40000009536743","277408","SARL_v6","SARL_v69617dncv","611131e47725f6a04c723651","freq","","","img/blue_2bandit_b2.png","70","","70","test","1","","116","","","","circle","square","112","23","5","0.9464285714285714","","","","","","","",""
"null","277843","SARL_v6","SARL_v69617dncv","611131e47725f6a04c723651","freq_resp","","","img/blue_2bandit_b.png","70","img/blue_2bandit_b.png","70","test","","","","","","","","","","","5","","","","","","","","",""
"null","278003","SARL_v6","SARL_v69617dncv","611131e47725f6a04c723651","fixation","","","img/fixation.png","null","","","test","","","","","","","","","","","","","","","","","","","",""
"306.1999999284744","278312","SARL_v6","SARL_v69617dncv","611131e47725f6a04c723651","freq","","","img/blue_2bandit_b2.png","70","","70","test","1","","117","","","","circle","square","113","24","5","0.9469026548672567","","","","","","","",""
"null","278813","SARL_v6","SARL_v69617dncv","611131e47725f6a04c723651","freq_resp","","","img/blue_2bandit_b.png","70","img/blue_2bandit_b.png","70","test","","","","","","","","","","","5","","","","","","","","",""
"null","278973","SARL_v6","SARL_v69617dncv","611131e47725f6a04c723651","fixation","","","img/fixation.png","null","","","test","","","","","","","","","","","","","","","","","","","",""
"864.2000000476837","279840","SARL_v6","SARL_v69617dncv","611131e47725f6a04c723651","rl","","","img/black_2bandit_b2.png","74","","0","test","","","118","","","4","circle","square","","0","5","","74","4","-7","4","-7","circle","5","0"
"null","280602","SARL_v6","SARL_v69617dncv","611131e47725f6a04c723651","feedback","","","<div class=""veryhighPoints""> 4 </div>","null","","na","test","","","NaN","","","","","","","","5","","74","","","","","","5",""
"723.3999999761581","281328","SARL_v6","SARL_v69617dncv","611131e47725f6a04c723651","freq","","","img/blue_2bandit_b2.png","70","","70","test","1","","119","","","","circle","square","114","1","6","0.9473684210526315","","","","","","","",""
"null","281413","SARL_v6","SARL_v69617dncv","611131e47725f6a04c723651","freq_resp","","","img/blue_2bandit_b.png","70","img/blue_2bandit_b.png","70","test","","","","","","","","","","","6","","","","","","","","",""
"null","281573","SARL_v6","SARL_v69617dncv","611131e47725f6a04c723651","fixation","","","img/fixation.png","null","","","test","","","","","","","","","","","","","","","","","","","",""
"552.0999999046326","282128","SARL_v6","SARL_v69617dncv","611131e47725f6a04c723651","infreq","","","img/orange_2bandit_b2.png","68","","68","test","1","","120","","","","circle","square","115","2","6","0.9478260869565217","","","","","","","",""
"null","282389","SARL_v6","SARL_v69617dncv","611131e47725f6a04c723651","infreq_resp","","","img/orange_2bandit_b.png","68","img/orange_2bandit_b.png","68","test","","","","","","","","","","","6","","","","","","","","",""
"null","282549","SARL_v6","SARL_v69617dncv","611131e47725f6a04c723651","fixation","","","img/fixation.png","null","","","test","","","","","","","","","","","","","","","","","","","",""
"384.2999999523163","282936","SARL_v6","SARL_v69617dncv","611131e47725f6a04c723651","infreq","","","img/orange_2bandit_b2.png","68","","68","test","1","","121","","","","circle","square","116","3","6","0.9482758620689655","","","","","","","",""
"null","283365","SARL_v6","SARL_v69617dncv","611131e47725f6a04c723651","infreq_resp","","","img/orange_2bandit_b.png","68","img/orange_2bandit_b.png","68","test","","","","","","","","","","","6","","","","","","","","",""
"null","283525","SARL_v6","SARL_v69617dncv","611131e47725f6a04c723651","fixation","","","img/fixation.png","null","","","test","","","","","","","","","","","","","","","","","","","",""
"383.89999997615814","283911","SARL_v6","SARL_v69617dncv","611131e47725f6a04c723651","freq","","","img/blue_2bandit_b2.png","68","","70","test","0","","122","","","","circle","square","117","4","6","0.9401709401709402","","","","","","","",""
"null","284341","SARL_v6","SARL_v69617dncv","611131e47725f6a04c723651","freq_resp","","","img/blue_2bandit_b.png","68","img/blue_2bandit_b.png","70","test","","","","","","","","","","","6","","","","","","","","",""
"null","284498","SARL_v6","SARL_v69617dncv","611131e47725f6a04c723651","fixation","","","img/fixation.png","null","","","test","","","","","","","","","","","","","","","","","","","",""
"523.5","285024","SARL_v6","SARL_v69617dncv","611131e47725f6a04c723651","freq","","","img/blue_2bandit_b2.png","70","","70","test","1","","123","","","","circle","square","118","5","6","0.940677966101695","","","","","","","",""
"null","285309","SARL_v6","SARL_v69617dncv","611131e47725f6a04c723651","freq_resp","","","img/blue_2bandit_b.png","70","img/blue_2bandit_b.png","70","test","","","","","","","","","","","6","","","","","","","","",""
"null","285466","SARL_v6","SARL_v69617dncv","611131e47725f6a04c723651","fixation","","","img/fixation.png","null","","","test","","","","","","","","","","","","","","","","","","","",""
"434.40000009536743","285904","SARL_v6","SARL_v69617dncv","611131e47725f6a04c723651","freq","","","img/blue_2bandit_b2.png","70","","70","test","1","","124","","","","circle","square","119","6","6","0.9411764705882353","","","","","","","",""
"null","286277","SARL_v6","SARL_v69617dncv","611131e47725f6a04c723651","freq_resp","","","img/blue_2bandit_b.png","70","img/blue_2bandit_b.png","70","test","","","","","","","","","","","6","","","","","","","","",""
"null","286436","SARL_v6","SARL_v69617dncv","611131e47725f6a04c723651","fixation","","","img/fixation.png","null","","","test","","","","","","","","","","","","","","","","","","","",""
"368.7000000476837","286808","SARL_v6","SARL_v69617dncv","611131e47725f6a04c723651","freq","","","img/blue_2bandit_b2.png","70","","70","test","1","","125","","","","circle","square","120","7","6","0.9416666666666667","","","","","","","",""
"null","287252","SARL_v6","SARL_v69617dncv","611131e47725f6a04c723651","freq_resp","","","img/blue_2bandit_b.png","70","img/blue_2bandit_b.png","70","test","","","","","","","","","","","6","","","","","","","","",""
"null","287410","SARL_v6","SARL_v69617dncv","611131e47725f6a04c723651","fixation","","","img/fixation.png","null","","","test","","","","","","","","","","","","","","","","","","","",""
"363","287775","SARL_v6","SARL_v69617dncv","611131e47725f6a04c723651","freq","","","img/blue_2bandit_b2.png","70","","70","test","1","","126","","","","circle","square","121","8","6","0.9421487603305785","","","","","","","",""
"null","288221","SARL_v6","SARL_v69617dncv","611131e47725f6a04c723651","freq_resp","","","img/blue_2bandit_b.png","70","img/blue_2bandit_b.png","70","test","","","","","","","","","","","6","","","","","","","","",""
"null","288380","SARL_v6","SARL_v69617dncv","611131e47725f6a04c723651","fixation","","","img/fixation.png","null","","","test","","","","","","","","","","","","","","","","","","","",""
"440.89999997615814","288824","SARL_v6","SARL_v69617dncv","611131e47725f6a04c723651","freq","","","img/blue_2bandit_b2.png","70","","70","test","1","","127","","","","circle","square","122","9","6","0.9426229508196722","","","","","","","",""
"null","289197","SARL_v6","SARL_v69617dncv","611131e47725f6a04c723651","freq_resp","","","img/blue_2bandit_b.png","70","img/blue_2bandit_b.png","70","test","","","","","","","","","","","6","","","","","","","","",""
"null","289352","SARL_v6","SARL_v69617dncv","611131e47725f6a04c723651","fixation","","","img/fixation.png","null","","","test","","","","","","","","","","","","","","","","","","","",""
"357","289711","SARL_v6","SARL_v69617dncv","611131e47725f6a04c723651","freq","","","img/blue_2bandit_b2.png","70","","70","test","1","","128","","","","circle","square","123","10","6","0.943089430894309","","","","","","","",""
"null","290160","SARL_v6","SARL_v69617dncv","611131e47725f6a04c723651","freq_resp","","","img/blue_2bandit_b.png","70","img/blue_2bandit_b.png","70","test","","","","","","","","","","","6","","","","","","","","",""
"null","290323","SARL_v6","SARL_v69617dncv","611131e47725f6a04c723651","fixation","","","img/fixation.png","null","","","test","","","","","","","","","","","","","","","","","","","",""
"329.89999997615814","290656","SARL_v6","SARL_v69617dncv","611131e47725f6a04c723651","freq","","","img/blue_2bandit_b2.png","70","","70","test","1","","129","","","","circle","square","124","11","6","0.9435483870967742","","","","","","","",""
"null","291137","SARL_v6","SARL_v69617dncv","611131e47725f6a04c723651","freq_resp","","","img/blue_2bandit_b.png","70","img/blue_2bandit_b.png","70","test","","","","","","","","","","","6","","","","","","","","",""
