"rt","time_elapsed","expId","subject","prolificID","trialType","rlType","attType","stimulus","key_press","stim","corrresp","phase","corr","pracCounter","trialNum","rewardOne","rewardTwo","reward","bandOne","bandTwo","attentionNum","attentionRunNum","blockNum","performance","bandChosen","circleVal","squareVal","bandOneVal","bandTwoVal","shapeChosen","rlNum","badFlag"
"12181","12183","SARL_v6","SARL_v6xp78foud","5700616b8a49c7000d0c73ad","","","","","","","","","","","","","","","","","","","","","","","","","","","",""
"","14559","SARL_v6","SARL_v6xp78foud","5700616b8a49c7000d0c73ad","fullscreen","fullscreen","fullscreen","","","","","","","","","","","","","","","","","","","","","","","","",""
"55678.20000000298","70239","SARL_v6","SARL_v6xp78foud","5700616b8a49c7000d0c73ad","","","","","","","","","","","","","","","","","","","","","","","","","","","",""
"null","71047","SARL_v6","SARL_v6xp78foud","5700616b8a49c7000d0c73ad","freqPrac","","","img/blue_2bandit_a2.png","null","img/blue_2bandit_a2.png","70","prac","0","1","","","","","","","","","","","","","","","","","",""
"null","72054","SARL_v6","SARL_v6xp78foud","5700616b8a49c7000d0c73ad","feedback","","","img/tooSlow.png","null","","na","prac","","","","","","","","","","","","","","","","","","","",""
"null","72213","SARL_v6","SARL_v6xp78foud","5700616b8a49c7000d0c73ad","fixation","","","img/fixation.png","null","","","prac","","","","","","","","","","","","","","","","","","","",""
"464.29999999701977","72679","SARL_v6","SARL_v6xp78foud","5700616b8a49c7000d0c73ad","infreqPrac","","","img/orange_2bandit_a2.png","68","img/orange_2bandit_a2.png","68","prac","1","1","","","","","","","","","","","","","","","","","",""
"464.29999999701977","73017","SARL_v6","SARL_v6xp78foud","5700616b8a49c7000d0c73ad","infreqPrac_resp","","","img/orange_2bandit_a.png","68","img/orange_2bandit_a.png","68","prac","","","","","","","","","","","","","","","","","","","",""
"null","73177","SARL_v6","SARL_v6xp78foud","5700616b8a49c7000d0c73ad","fixation","","","img/fixation.png","null","","","prac","","","","","","","","","","","","","","","","","","","",""
"517.0999999940395","73695","SARL_v6","SARL_v6xp78foud","5700616b8a49c7000d0c73ad","freqPrac","","","img/blue_2bandit_a2.png","70","img/blue_2bandit_a2.png","70","prac","1","1","","","","","","","","","","","","","","","","","",""
"517.0999999940395","73994","SARL_v6","SARL_v6xp78foud","5700616b8a49c7000d0c73ad","freqPrac_resp","","","img/blue_2bandit_a.png","70","img/blue_2bandit_a.png","70","prac","","","","","","","","","","","","","","","","","","","",""
"null","74149","SARL_v6","SARL_v6xp78foud","5700616b8a49c7000d0c73ad","fixation","","","img/fixation.png","null","","","prac","","","","","","","","","","","","","","","","","","","",""
"465","74615","SARL_v6","SARL_v6xp78foud","5700616b8a49c7000d0c73ad","infreqPrac","","","img/orange_2bandit_a2.png","68","img/orange_2bandit_a2.png","68","prac","1","1","","","","","","","","","","","","","","","","","",""
"465","74952","SARL_v6","SARL_v6xp78foud","5700616b8a49c7000d0c73ad","infreqPrac_resp","","","img/orange_2bandit_a.png","68","img/orange_2bandit_a.png","68","prac","","","","","","","","","","","","","","","","","","","",""
"null","75109","SARL_v6","SARL_v6xp78foud","5700616b8a49c7000d0c73ad","fixation","","","img/fixation.png","null","","","prac","","","","","","","","","","","","","","","","","","","",""
"473.19999998807907","75583","SARL_v6","SARL_v6xp78foud","5700616b8a49c7000d0c73ad","infreqPrac","","","img/orange_2bandit_a2.png","68","img/orange_2bandit_a2.png","68","prac","1","1","","","","","","","","","","","","","","","","","",""
"473.19999998807907","75915","SARL_v6","SARL_v6xp78foud","5700616b8a49c7000d0c73ad","infreqPrac_resp","","","img/orange_2bandit_a.png","68","img/orange_2bandit_a.png","68","prac","","","","","","","","","","","","","","","","","","","",""
"null","76072","SARL_v6","SARL_v6xp78foud","5700616b8a49c7000d0c73ad","fixation","","","img/fixation.png","null","","","prac","","","","","","","","","","","","","","","","","","","",""
"373.5","76447","SARL_v6","SARL_v6xp78foud","5700616b8a49c7000d0c73ad","infreqPrac","","","img/orange_2bandit_a2.png","68","img/orange_2bandit_a2.png","68","prac","1","1","","","","","","","","","","","","","","","","","",""
"373.5","76875","SARL_v6","SARL_v6xp78foud","5700616b8a49c7000d0c73ad","infreqPrac_resp","","","img/orange_2bandit_a.png","68","img/orange_2bandit_a.png","68","prac","","","","","","","","","","","","","","","","","","","",""
"null","77033","SARL_v6","SARL_v6xp78foud","5700616b8a49c7000d0c73ad","fixation","","","img/fixation.png","null","","","prac","","","","","","","","","","","","","","","","","","","",""
"580.5999999940395","77615","SARL_v6","SARL_v6xp78foud","5700616b8a49c7000d0c73ad","freqPrac","","","img/blue_2bandit_a2.png","70","img/blue_2bandit_a2.png","70","prac","1","1","","","","","","","","","","","","","","","","","",""
"580.5999999940395","77837","SARL_v6","SARL_v6xp78foud","5700616b8a49c7000d0c73ad","freqPrac_resp","","","img/blue_2bandit_a.png","70","img/blue_2bandit_a.png","70","prac","","","","","","","","","","","","","","","","","","","",""
"null","77996","SARL_v6","SARL_v6xp78foud","5700616b8a49c7000d0c73ad","fixation","","","img/fixation.png","null","","","prac","","","","","","","","","","","","","","","","","","","",""
"457.80000001192093","78455","SARL_v6","SARL_v6xp78foud","5700616b8a49c7000d0c73ad","infreqPrac","","","img/orange_2bandit_a2.png","68","img/orange_2bandit_a2.png","68","prac","1","1","","","","","","","","","","","","","","","","","",""
"457.80000001192093","78799","SARL_v6","SARL_v6xp78foud","5700616b8a49c7000d0c73ad","infreqPrac_resp","","","img/orange_2bandit_a.png","68","img/orange_2bandit_a.png","68","prac","","","","","","","","","","","","","","","","","","","",""
"null","78957","SARL_v6","SARL_v6xp78foud","5700616b8a49c7000d0c73ad","fixation","","","img/fixation.png","null","","","prac","","","","","","","","","","","","","","","","","","","",""
"432.80000001192093","79391","SARL_v6","SARL_v6xp78foud","5700616b8a49c7000d0c73ad","freqPrac","","","img/blue_2bandit_a2.png","70","img/blue_2bandit_a2.png","70","prac","1","1","","","","","","","","","","","","","","","","","",""
"432.80000001192093","79771","SARL_v6","SARL_v6xp78foud","5700616b8a49c7000d0c73ad","freqPrac_resp","","","img/blue_2bandit_a.png","70","img/blue_2bandit_a.png","70","prac","","","","","","","","","","","","","","","","","","","",""
"null","79929","SARL_v6","SARL_v6xp78foud","5700616b8a49c7000d0c73ad","fixation","","","img/fixation.png","null","","","prac","","","","","","","","","","","","","","","","","","","",""
"460.3999999910593","80391","SARL_v6","SARL_v6xp78foud","5700616b8a49c7000d0c73ad","freqPrac","","","img/blue_2bandit_a2.png","70","img/blue_2bandit_a2.png","70","prac","1","1","","","","","","","","","","","","","","","","","",""
"460.3999999910593","80747","SARL_v6","SARL_v6xp78foud","5700616b8a49c7000d0c73ad","freqPrac_resp","","","img/blue_2bandit_a.png","70","img/blue_2bandit_a.png","70","prac","","","","","","","","","","","","","","","","","","","",""
"null","80905","SARL_v6","SARL_v6xp78foud","5700616b8a49c7000d0c73ad","fixation","","","img/fixation.png","null","","","prac","","","","","","","","","","","","","","","","","","","",""
"39044.69999998808","119951","SARL_v6","SARL_v6xp78foud","5700616b8a49c7000d0c73ad","","","","","","","","prac","","","","","","","","","","","","","","","","","","","",""
"718.6000000089407","120670","SARL_v6","SARL_v6xp78foud","5700616b8a49c7000d0c73ad","rlPractice","","","img/black_2bandit_a2.png","74","img/black_2bandit_a2.png","","prac","","","0","","","","","","","","","","","","","","","","",""
"null","121437","SARL_v6","SARL_v6xp78foud","5700616b8a49c7000d0c73ad","feedback","","","<div class=""verylowPoints_sq""> -14 </div>","null","","na","prac","","","1","10","-14","10","","","","","","","","","","","","","",""
"null","121594","SARL_v6","SARL_v6xp78foud","5700616b8a49c7000d0c73ad","fixation","","","img/fixation.png","null","","","prac","","","","","","","","","","","","","","","","","","","",""
"306.80000001192093","121902","SARL_v6","SARL_v6xp78foud","5700616b8a49c7000d0c73ad","rlPractice","","","img/black_2bandit_a2.png","75","img/black_2bandit_a2.png","","prac","","","1","","","","","","","","","","","","","","","","",""
"null","122666","SARL_v6","SARL_v6xp78foud","5700616b8a49c7000d0c73ad","feedback","","","<div class=""veryhighPoints""> 5 </div>","null","","na","prac","","","2","5","-5","5","","","","","","","","","","","","","",""
"null","122820","SARL_v6","SARL_v6xp78foud","5700616b8a49c7000d0c73ad","fixation","","","img/fixation.png","null","","","prac","","","","","","","","","","","","","","","","","","","",""
"281.29999999701977","123103","SARL_v6","SARL_v6xp78foud","5700616b8a49c7000d0c73ad","rlPractice","","","img/black_2bandit_a2.png","75","img/black_2bandit_a2.png","","prac","","","2","","","","","","","","","","","","","","","","",""
"null","123855","SARL_v6","SARL_v6xp78foud","5700616b8a49c7000d0c73ad","feedback","","","<div class=""veryhighPoints""> 30 </div>","null","","na","prac","","","3","30","2","30","","","","","","","","","","","","","",""
"null","124011","SARL_v6","SARL_v6xp78foud","5700616b8a49c7000d0c73ad","fixation","","","img/fixation.png","null","","","prac","","","","","","","","","","","","","","","","","","","",""
"298.09999999403954","124311","SARL_v6","SARL_v6xp78foud","5700616b8a49c7000d0c73ad","rlPractice","","","img/black_2bandit_a2.png","75","img/black_2bandit_a2.png","","prac","","","3","","","","","","","","","","","","","","","","",""
"null","125065","SARL_v6","SARL_v6xp78foud","5700616b8a49c7000d0c73ad","feedback","","","<div class=""verylowPoints""> -2 </div>","null","","na","prac","","","4","-2","20","-2","","","","","","","","","","","","","",""
"null","125223","SARL_v6","SARL_v6xp78foud","5700616b8a49c7000d0c73ad","fixation","","","img/fixation.png","null","","","prac","","","","","","","","","","","","","","","","","","","",""
"14990.60000000894","140215","SARL_v6","SARL_v6xp78foud","5700616b8a49c7000d0c73ad","","","","","","","","prac","","","","","","","","","","","","","","","","","","","",""
"406.6000000089407","140623","SARL_v6","SARL_v6xp78foud","5700616b8a49c7000d0c73ad","mixAttFreqPrac","","","img/blue_2bandit_a2.png","70","img/blue_2bandit_a2.png","70","prac","","","1","","","","","","","","","","","","","","","","",""
"406.6000000089407","141025","SARL_v6","SARL_v6xp78foud","5700616b8a49c7000d0c73ad","freqPrac_resp","","","img/blue_2bandit_a.png","70","img/blue_2bandit_a.png","70","prac","","","1","","","","","","","","","","","","","","","","",""
"null","141183","SARL_v6","SARL_v6xp78foud","5700616b8a49c7000d0c73ad","fixation","","","img/fixation.png","null","","","prac","","","","","","","","","","","","","","","","","","","",""
"454.5","141639","SARL_v6","SARL_v6xp78foud","5700616b8a49c7000d0c73ad","mixAttInfreqPrac","","","img/orange_2bandit_a2.png","70","img/orange_2bandit_a2.png","68","prac","","","2","","","","","","","","","","","","","","","","",""
"454.5","141991","SARL_v6","SARL_v6xp78foud","5700616b8a49c7000d0c73ad","infreqPrac_resp","","","img/orange_2bandit_a.png","70","img/blue_2bandit_a.png","68","prac","","","2","","","","","","","","","","","","","","","","",""
"null","142148","SARL_v6","SARL_v6xp78foud","5700616b8a49c7000d0c73ad","fixation","","","img/fixation.png","null","","","prac","","","","","","","","","","","","","","","","","","","",""
"521.2000000029802","142670","SARL_v6","SARL_v6xp78foud","5700616b8a49c7000d0c73ad","mixAttInfreqPrac","","","img/orange_2bandit_a2.png","68","img/orange_2bandit_a2.png","68","prac","","","3","","","","","","","","","","","","","","","","",""
"521.2000000029802","142951","SARL_v6","SARL_v6xp78foud","5700616b8a49c7000d0c73ad","infreqPrac_resp","","","img/orange_2bandit_a.png","68","img/blue_2bandit_a.png","68","prac","","","3","","","","","","","","","","","","","","","","",""
"null","143106","SARL_v6","SARL_v6xp78foud","5700616b8a49c7000d0c73ad","fixation","","","img/fixation.png","null","","","prac","","","","","","","","","","","","","","","","","","","",""
"450.90000000596046","143558","SARL_v6","SARL_v6xp78foud","5700616b8a49c7000d0c73ad","mixAttInfreqPrac","","","img/orange_2bandit_a2.png","68","img/orange_2bandit_a2.png","68","prac","","","4","","","","","","","","","","","","","","","","",""
"450.90000000596046","143920","SARL_v6","SARL_v6xp78foud","5700616b8a49c7000d0c73ad","infreqPrac_resp","","","img/orange_2bandit_a.png","68","img/blue_2bandit_a.png","68","prac","","","4","","","","","","","","","","","","","","","","",""
"null","144077","SARL_v6","SARL_v6xp78foud","5700616b8a49c7000d0c73ad","fixation","","","img/fixation.png","null","","","prac","","","","","","","","","","","","","","","","","","","",""
"496.29999999701977","144575","SARL_v6","SARL_v6xp78foud","5700616b8a49c7000d0c73ad","mixAttFreqPrac","","","img/blue_2bandit_a2.png","70","img/blue_2bandit_a2.png","70","prac","","","5","","","","","","","","","","","","","","","","",""
"496.29999999701977","144895","SARL_v6","SARL_v6xp78foud","5700616b8a49c7000d0c73ad","freqPrac_resp","","","img/blue_2bandit_a.png","70","img/blue_2bandit_a.png","70","prac","","","5","","","","","","","","","","","","","","","","",""
"null","145054","SARL_v6","SARL_v6xp78foud","5700616b8a49c7000d0c73ad","fixation","","","img/fixation.png","null","","","prac","","","","","","","","","","","","","","","","","","","",""
"647.2000000029802","145703","SARL_v6","SARL_v6xp78foud","5700616b8a49c7000d0c73ad","mixRLPractice","","","img/black_2bandit_a2.png","74","img/black_2bandit_a2.png","","prac","","","5","","","","","","","","","","","","","","","","",""
"null","146457","SARL_v6","SARL_v6xp78foud","5700616b8a49c7000d0c73ad","feedback","","","<div class=""veryhighPoints_sq""> 10 </div>","null","","na","prac","","","6","-14","10","-14","","","","","","","","","","","","","",""
"null","146615","SARL_v6","SARL_v6xp78foud","5700616b8a49c7000d0c73ad","fixation","","","img/fixation.png","null","","","prac","","","","","","","","","","","","","","","","","","","",""
"470.20000000298023","147086","SARL_v6","SARL_v6xp78foud","5700616b8a49c7000d0c73ad","mixAttFreqPrac","","","img/blue_2bandit_a2.png","70","img/blue_2bandit_a2.png","70","prac","","","7","","","","","","","","","","","","","","","","",""
"470.20000000298023","147418","SARL_v6","SARL_v6xp78foud","5700616b8a49c7000d0c73ad","freqPrac_resp","","","img/blue_2bandit_a.png","70","img/blue_2bandit_a.png","70","prac","","","7","","","","","","","","","","","","","","","","",""
"null","147576","SARL_v6","SARL_v6xp78foud","5700616b8a49c7000d0c73ad","fixation","","","img/fixation.png","null","","","prac","","","","","","","","","","","","","","","","","","","",""
"356.90000000596046","147934","SARL_v6","SARL_v6xp78foud","5700616b8a49c7000d0c73ad","mixAttInfreqPrac","","","img/orange_2bandit_a2.png","68","img/orange_2bandit_a2.png","68","prac","","","8","","","","","","","","","","","","","","","","",""
"356.90000000596046","148395","SARL_v6","SARL_v6xp78foud","5700616b8a49c7000d0c73ad","infreqPrac_resp","","","img/orange_2bandit_a.png","68","img/blue_2bandit_a.png","68","prac","","","8","","","","","","","","","","","","","","","","",""
"null","148550","SARL_v6","SARL_v6xp78foud","5700616b8a49c7000d0c73ad","fixation","","","img/fixation.png","null","","","prac","","","","","","","","","","","","","","","","","","","",""
"359.5","148910","SARL_v6","SARL_v6xp78foud","5700616b8a49c7000d0c73ad","mixAttFreqPrac","","","img/blue_2bandit_a2.png","70","img/blue_2bandit_a2.png","70","prac","","","9","","","","","","","","","","","","","","","","",""
"359.5","149364","SARL_v6","SARL_v6xp78foud","5700616b8a49c7000d0c73ad","freqPrac_resp","","","img/blue_2bandit_a.png","70","img/blue_2bandit_a.png","70","prac","","","9","","","","","","","","","","","","","","","","",""
"null","149524","SARL_v6","SARL_v6xp78foud","5700616b8a49c7000d0c73ad","fixation","","","img/fixation.png","null","","","prac","","","","","","","","","","","","","","","","","","","",""
"465.59999999403954","149990","SARL_v6","SARL_v6xp78foud","5700616b8a49c7000d0c73ad","mixAttFreqPrac","","","img/blue_2bandit_a2.png","70","img/blue_2bandit_a2.png","70","prac","","","10","","","","","","","","","","","","","","","","",""
"465.59999999403954","150337","SARL_v6","SARL_v6xp78foud","5700616b8a49c7000d0c73ad","freqPrac_resp","","","img/blue_2bandit_a.png","70","img/blue_2bandit_a.png","70","prac","","","10","","","","","","","","","","","","","","","","",""
"null","150493","SARL_v6","SARL_v6xp78foud","5700616b8a49c7000d0c73ad","fixation","","","img/fixation.png","null","","","prac","","","","","","","","","","","","","","","","","","","",""
"464.5","150959","SARL_v6","SARL_v6xp78foud","5700616b8a49c7000d0c73ad","mixAttInfreqPrac","","","img/orange_2bandit_a2.png","68","img/orange_2bandit_a2.png","68","prac","","","11","","","","","","","","","","","","","","","","",""
"464.5","151308","SARL_v6","SARL_v6xp78foud","5700616b8a49c7000d0c73ad","infreqPrac_resp","","","img/orange_2bandit_a.png","68","img/blue_2bandit_a.png","68","prac","","","11","","","","","","","","","","","","","","","","",""
"null","151462","SARL_v6","SARL_v6xp78foud","5700616b8a49c7000d0c73ad","fixation","","","img/fixation.png","null","","","prac","","","","","","","","","","","","","","","","","","","",""
"623.7000000029802","152087","SARL_v6","SARL_v6xp78foud","5700616b8a49c7000d0c73ad","mixRLPractice","","","img/black_2bandit_a2.png","74","img/black_2bandit_a2.png","","prac","","","11","","","","","","","","","","","","","","","","",""
"null","152852","SARL_v6","SARL_v6xp78foud","5700616b8a49c7000d0c73ad","feedback","","","<div class=""verylowPoints_sq""> -5 </div>","null","","na","prac","","","12","5","-5","5","","","","","","","","","","","","","",""
"null","153008","SARL_v6","SARL_v6xp78foud","5700616b8a49c7000d0c73ad","fixation","","","img/fixation.png","null","","","prac","","","","","","","","","","","","","","","","","","","",""
"9581.39999999106","162591","SARL_v6","SARL_v6xp78foud","5700616b8a49c7000d0c73ad","","","","","","","","prac","","","","","","","","","","","","","","","","","","","",""
"534.6000000089407","163126","SARL_v6","SARL_v6xp78foud","5700616b8a49c7000d0c73ad","freq","","","img/blue_2bandit_a2.png","70","","70","test","1","","1","","","","square","circle","1","1","1","1","","","","","","","",""
"null","163407","SARL_v6","SARL_v6xp78foud","5700616b8a49c7000d0c73ad","freq_resp","","","img/blue_2bandit_a.png","70","img/blue_2bandit_a.png","70","test","","","","","","","","","","","1","","","","","","","","",""
"null","163564","SARL_v6","SARL_v6xp78foud","5700616b8a49c7000d0c73ad","fixation","","","img/fixation.png","null","","","test","","","","","","","","","","","","","","","","","","","",""
"345.40000000596046","163910","SARL_v6","SARL_v6xp78foud","5700616b8a49c7000d0c73ad","freq","","","img/blue_2bandit_a2.png","70","","70","test","1","","2","","","","square","circle","2","2","1","1","","","","","","","",""
"null","164380","SARL_v6","SARL_v6xp78foud","5700616b8a49c7000d0c73ad","freq_resp","","","img/blue_2bandit_a.png","70","img/blue_2bandit_a.png","70","test","","","","","","","","","","","1","","","","","","","","",""
"null","164537","SARL_v6","SARL_v6xp78foud","5700616b8a49c7000d0c73ad","fixation","","","img/fixation.png","null","","","test","","","","","","","","","","","","","","","","","","","",""
"315.90000000596046","164854","SARL_v6","SARL_v6xp78foud","5700616b8a49c7000d0c73ad","freq","","","img/blue_2bandit_a2.png","70","","70","test","1","","3","","","","square","circle","3","3","1","1","","","","","","","",""
"null","165352","SARL_v6","SARL_v6xp78foud","5700616b8a49c7000d0c73ad","freq_resp","","","img/blue_2bandit_a.png","70","img/blue_2bandit_a.png","70","test","","","","","","","","","","","1","","","","","","","","",""
"null","165509","SARL_v6","SARL_v6xp78foud","5700616b8a49c7000d0c73ad","fixation","","","img/fixation.png","null","","","test","","","","","","","","","","","","","","","","","","","",""
"336.30000001192093","165846","SARL_v6","SARL_v6xp78foud","5700616b8a49c7000d0c73ad","freq","","","img/blue_2bandit_a2.png","70","","70","test","1","","4","","","","square","circle","4","4","1","1","","","","","","","",""
"null","166321","SARL_v6","SARL_v6xp78foud","5700616b8a49c7000d0c73ad","freq_resp","","","img/blue_2bandit_a.png","70","img/blue_2bandit_a.png","70","test","","","","","","","","","","","1","","","","","","","","",""
"null","166477","SARL_v6","SARL_v6xp78foud","5700616b8a49c7000d0c73ad","fixation","","","img/fixation.png","null","","","test","","","","","","","","","","","","","","","","","","","",""
"303.80000001192093","166783","SARL_v6","SARL_v6xp78foud","5700616b8a49c7000d0c73ad","freq","","","img/blue_2bandit_a2.png","70","","70","test","1","","5","","","","square","circle","5","5","1","1","","","","","","","",""
"null","167294","SARL_v6","SARL_v6xp78foud","5700616b8a49c7000d0c73ad","freq_resp","","","img/blue_2bandit_a.png","70","img/blue_2bandit_a.png","70","test","","","","","","","","","","","1","","","","","","","","",""
"null","167452","SARL_v6","SARL_v6xp78foud","5700616b8a49c7000d0c73ad","fixation","","","img/fixation.png","null","","","test","","","","","","","","","","","","","","","","","","","",""
"313.70000000298023","167767","SARL_v6","SARL_v6xp78foud","5700616b8a49c7000d0c73ad","freq","","","img/blue_2bandit_a2.png","70","","70","test","1","","6","","","","square","circle","6","6","1","1","","","","","","","",""
"null","168255","SARL_v6","SARL_v6xp78foud","5700616b8a49c7000d0c73ad","freq_resp","","","img/blue_2bandit_a.png","70","img/blue_2bandit_a.png","70","test","","","","","","","","","","","1","","","","","","","","",""
"null","168412","SARL_v6","SARL_v6xp78foud","5700616b8a49c7000d0c73ad","fixation","","","img/fixation.png","null","","","test","","","","","","","","","","","","","","","","","","","",""
"329.69999998807907","168743","SARL_v6","SARL_v6xp78foud","5700616b8a49c7000d0c73ad","freq","","","img/blue_2bandit_a2.png","70","","70","test","1","","7","","","","square","circle","7","7","1","1","","","","","","","",""
"null","169228","SARL_v6","SARL_v6xp78foud","5700616b8a49c7000d0c73ad","freq_resp","","","img/blue_2bandit_a.png","70","img/blue_2bandit_a.png","70","test","","","","","","","","","","","1","","","","","","","","",""
"null","169386","SARL_v6","SARL_v6xp78foud","5700616b8a49c7000d0c73ad","fixation","","","img/fixation.png","null","","","test","","","","","","","","","","","","","","","","","","","",""
"299.29999999701977","169687","SARL_v6","SARL_v6xp78foud","5700616b8a49c7000d0c73ad","freq","","","img/blue_2bandit_a2.png","70","","70","test","1","","8","","","","square","circle","8","8","1","1","","","","","","","",""
"null","170200","SARL_v6","SARL_v6xp78foud","5700616b8a49c7000d0c73ad","freq_resp","","","img/blue_2bandit_a.png","70","img/blue_2bandit_a.png","70","test","","","","","","","","","","","1","","","","","","","","",""
"null","170357","SARL_v6","SARL_v6xp78foud","5700616b8a49c7000d0c73ad","fixation","","","img/fixation.png","null","","","test","","","","","","","","","","","","","","","","","","","",""
"296.70000000298023","170655","SARL_v6","SARL_v6xp78foud","5700616b8a49c7000d0c73ad","freq","","","img/blue_2bandit_a2.png","70","","70","test","1","","9","","","","square","circle","9","9","1","1","","","","","","","",""
"null","171174","SARL_v6","SARL_v6xp78foud","5700616b8a49c7000d0c73ad","freq_resp","","","img/blue_2bandit_a.png","70","img/blue_2bandit_a.png","70","test","","","","","","","","","","","1","","","","","","","","",""
"null","171331","SARL_v6","SARL_v6xp78foud","5700616b8a49c7000d0c73ad","fixation","","","img/fixation.png","null","","","test","","","","","","","","","","","","","","","","","","","",""
"378","171711","SARL_v6","SARL_v6xp78foud","5700616b8a49c7000d0c73ad","infreq","","","img/orange_2bandit_a2.png","68","","68","test","1","","10","","","","square","circle","10","10","1","1","","","","","","","",""
"null","172137","SARL_v6","SARL_v6xp78foud","5700616b8a49c7000d0c73ad","infreq_resp","","","img/orange_2bandit_a.png","68","img/orange_2bandit_a.png","68","test","","","","","","","","","","","1","","","","","","","","",""
"null","172295","SARL_v6","SARL_v6xp78foud","5700616b8a49c7000d0c73ad","fixation","","","img/fixation.png","null","","","test","","","","","","","","","","","","","","","","","","","",""
"422.09999999403954","172719","SARL_v6","SARL_v6xp78foud","5700616b8a49c7000d0c73ad","freq","","","img/blue_2bandit_a2.png","70","","70","test","1","","11","","","","square","circle","11","11","1","1","","","","","","","",""
"null","173102","SARL_v6","SARL_v6xp78foud","5700616b8a49c7000d0c73ad","freq_resp","","","img/blue_2bandit_a.png","70","img/blue_2bandit_a.png","70","test","","","","","","","","","","","1","","","","","","","","",""
"null","173260","SARL_v6","SARL_v6xp78foud","5700616b8a49c7000d0c73ad","fixation","","","img/fixation.png","null","","","test","","","","","","","","","","","","","","","","","","","",""
"289.30000001192093","173550","SARL_v6","SARL_v6xp78foud","5700616b8a49c7000d0c73ad","freq","","","img/blue_2bandit_a2.png","70","","70","test","1","","12","","","","square","circle","12","12","1","1","","","","","","","",""
"null","174068","SARL_v6","SARL_v6xp78foud","5700616b8a49c7000d0c73ad","freq_resp","","","img/blue_2bandit_a.png","70","img/blue_2bandit_a.png","70","test","","","","","","","","","","","1","","","","","","","","",""
"null","174226","SARL_v6","SARL_v6xp78foud","5700616b8a49c7000d0c73ad","fixation","","","img/fixation.png","null","","","test","","","","","","","","","","","","","","","","","","","",""
"155.79999999701977","174383","SARL_v6","SARL_v6xp78foud","5700616b8a49c7000d0c73ad","freq","","","img/blue_2bandit_a2.png","70","","70","test","1","","13","","","","square","circle","13","13","1","1","","","","","","","",""
"null","175031","SARL_v6","SARL_v6xp78foud","5700616b8a49c7000d0c73ad","freq_resp","","","img/blue_2bandit_a.png","70","img/blue_2bandit_a.png","70","test","","","","","","","","","","","1","","","","","","","","",""
"null","175189","SARL_v6","SARL_v6xp78foud","5700616b8a49c7000d0c73ad","fixation","","","img/fixation.png","null","","","test","","","","","","","","","","","","","","","","","","","",""
"272.59999999403954","175463","SARL_v6","SARL_v6xp78foud","5700616b8a49c7000d0c73ad","infreq","","","img/orange_2bandit_a2.png","70","","68","test","0","","14","","","","square","circle","14","14","1","0.9285714285714286","","","","","","","",""
"null","175993","SARL_v6","SARL_v6xp78foud","5700616b8a49c7000d0c73ad","infreq_resp","","","img/orange_2bandit_a.png","70","img/orange_2bandit_a.png","68","test","","","","","","","","","","","1","","","","","","","","",""
"null","176150","SARL_v6","SARL_v6xp78foud","5700616b8a49c7000d0c73ad","fixation","","","img/fixation.png","null","","","test","","","","","","","","","","","","","","","","","","","",""
"391.59999999403954","176543","SARL_v6","SARL_v6xp78foud","5700616b8a49c7000d0c73ad","freq","","","img/blue_2bandit_a2.png","70","","70","test","1","","15","","","","square","circle","15","15","1","0.9333333333333333","","","","","","","",""
"null","176965","SARL_v6","SARL_v6xp78foud","5700616b8a49c7000d0c73ad","freq_resp","","","img/blue_2bandit_a.png","70","img/blue_2bandit_a.png","70","test","","","","","","","","","","","1","","","","","","","","",""
"null","177123","SARL_v6","SARL_v6xp78foud","5700616b8a49c7000d0c73ad","fixation","","","img/fixation.png","null","","","test","","","","","","","","","","","","","","","","","","","",""
"298.8999999910593","177423","SARL_v6","SARL_v6xp78foud","5700616b8a49c7000d0c73ad","freq","","","img/blue_2bandit_a2.png","70","","70","test","1","","16","","","","square","circle","16","16","1","0.9375","","","","","","","",""
"null","177936","SARL_v6","SARL_v6xp78foud","5700616b8a49c7000d0c73ad","freq_resp","","","img/blue_2bandit_a.png","70","img/blue_2bandit_a.png","70","test","","","","","","","","","","","1","","","","","","","","",""
"null","178094","SARL_v6","SARL_v6xp78foud","5700616b8a49c7000d0c73ad","fixation","","","img/fixation.png","null","","","test","","","","","","","","","","","","","","","","","","","",""
"288.20000000298023","178383","SARL_v6","SARL_v6xp78foud","5700616b8a49c7000d0c73ad","freq","","","img/blue_2bandit_a2.png","70","","70","test","1","","17","","","","square","circle","17","17","1","0.9411764705882353","","","","","","","",""
"null","178896","SARL_v6","SARL_v6xp78foud","5700616b8a49c7000d0c73ad","freq_resp","","","img/blue_2bandit_a.png","70","img/blue_2bandit_a.png","70","test","","","","","","","","","","","1","","","","","","","","",""
"null","179054","SARL_v6","SARL_v6xp78foud","5700616b8a49c7000d0c73ad","fixation","","","img/fixation.png","null","","","test","","","","","","","","","","","","","","","","","","","",""
"304.20000000298023","179359","SARL_v6","SARL_v6xp78foud","5700616b8a49c7000d0c73ad","freq","","","img/blue_2bandit_a2.png","70","","70","test","1","","18","","","","square","circle","18","18","1","0.9444444444444444","","","","","","","",""
"null","179869","SARL_v6","SARL_v6xp78foud","5700616b8a49c7000d0c73ad","freq_resp","","","img/blue_2bandit_a.png","70","img/blue_2bandit_a.png","70","test","","","","","","","","","","","1","","","","","","","","",""
"null","180026","SARL_v6","SARL_v6xp78foud","5700616b8a49c7000d0c73ad","fixation","","","img/fixation.png","null","","","test","","","","","","","","","","","","","","","","","","","",""
"323.70000000298023","180351","SARL_v6","SARL_v6xp78foud","5700616b8a49c7000d0c73ad","freq","","","img/blue_2bandit_a2.png","70","","70","test","1","","19","","","","square","circle","19","19","1","0.9473684210526315","","","","","","","",""
"null","180842","SARL_v6","SARL_v6xp78foud","5700616b8a49c7000d0c73ad","freq_resp","","","img/blue_2bandit_a.png","70","img/blue_2bandit_a.png","70","test","","","","","","","","","","","1","","","","","","","","",""
"null","181000","SARL_v6","SARL_v6xp78foud","5700616b8a49c7000d0c73ad","fixation","","","img/fixation.png","null","","","test","","","","","","","","","","","","","","","","","","","",""
"238.1000000089407","181239","SARL_v6","SARL_v6xp78foud","5700616b8a49c7000d0c73ad","freq","","","img/blue_2bandit_a2.png","70","","70","test","1","","20","","","","square","circle","20","20","1","0.95","","","","","","","",""
"null","181817","SARL_v6","SARL_v6xp78foud","5700616b8a49c7000d0c73ad","freq_resp","","","img/blue_2bandit_a.png","70","img/blue_2bandit_a.png","70","test","","","","","","","","","","","1","","","","","","","","",""
"null","181974","SARL_v6","SARL_v6xp78foud","5700616b8a49c7000d0c73ad","fixation","","","img/fixation.png","null","","","test","","","","","","","","","","","","","","","","","","","",""
"303.90000000596046","182279","SARL_v6","SARL_v6xp78foud","5700616b8a49c7000d0c73ad","freq","","","img/blue_2bandit_a2.png","70","","70","test","1","","21","","","","square","circle","21","21","1","0.9523809523809523","","","","","","","",""
"null","182787","SARL_v6","SARL_v6xp78foud","5700616b8a49c7000d0c73ad","freq_resp","","","img/blue_2bandit_a.png","70","img/blue_2bandit_a.png","70","test","","","","","","","","","","","1","","","","","","","","",""
"null","182943","SARL_v6","SARL_v6xp78foud","5700616b8a49c7000d0c73ad","fixation","","","img/fixation.png","null","","","test","","","","","","","","","","","","","","","","","","","",""
"686.9000000059605","183631","SARL_v6","SARL_v6xp78foud","5700616b8a49c7000d0c73ad","rl","","","img/black_2bandit_a2.png","74","","0","test","","","22","","","-3","square","circle","","0","1","","74","-3","-3","-3","-3","square","1","0"
"null","184387","SARL_v6","SARL_v6xp78foud","5700616b8a49c7000d0c73ad","feedback","","","<div class=""verylowPoints_sq""> -3 </div>","null","","na","test","","","NaN","","","","","","","","1","","74","","","","","","1",""
"370.30000001192093","184759","SARL_v6","SARL_v6xp78foud","5700616b8a49c7000d0c73ad","freq","","","img/blue_2bandit_a2.png","70","","70","test","1","","23","","","","square","circle","22","1","2","0.9545454545454546","","","","","","","",""
"null","185200","SARL_v6","SARL_v6xp78foud","5700616b8a49c7000d0c73ad","freq_resp","","","img/blue_2bandit_a.png","70","img/blue_2bandit_a.png","70","test","","","","","","","","","","","2","","","","","","","","",""
"null","185355","SARL_v6","SARL_v6xp78foud","5700616b8a49c7000d0c73ad","fixation","","","img/fixation.png","null","","","test","","","","","","","","","","","","","","","","","","","",""
"339.40000000596046","185695","SARL_v6","SARL_v6xp78foud","5700616b8a49c7000d0c73ad","freq","","","img/blue_2bandit_a2.png","70","","70","test","1","","24","","","","square","circle","23","2","2","0.9565217391304348","","","","","","","",""
"null","186158","SARL_v6","SARL_v6xp78foud","5700616b8a49c7000d0c73ad","freq_resp","","","img/blue_2bandit_a.png","70","img/blue_2bandit_a.png","70","test","","","","","","","","","","","2","","","","","","","","",""
"null","186316","SARL_v6","SARL_v6xp78foud","5700616b8a49c7000d0c73ad","fixation","","","img/fixation.png","null","","","test","","","","","","","","","","","","","","","","","","","",""
"353.70000000298023","186671","SARL_v6","SARL_v6xp78foud","5700616b8a49c7000d0c73ad","freq","","","img/blue_2bandit_a2.png","70","","70","test","1","","25","","","","square","circle","24","3","2","0.9583333333333334","","","","","","","",""
"null","187134","SARL_v6","SARL_v6xp78foud","5700616b8a49c7000d0c73ad","freq_resp","","","img/blue_2bandit_a.png","70","img/blue_2bandit_a.png","70","test","","","","","","","","","","","2","","","","","","","","",""
"null","187289","SARL_v6","SARL_v6xp78foud","5700616b8a49c7000d0c73ad","fixation","","","img/fixation.png","null","","","test","","","","","","","","","","","","","","","","","","","",""
"308.3999999910593","187599","SARL_v6","SARL_v6xp78foud","5700616b8a49c7000d0c73ad","freq","","","img/blue_2bandit_a2.png","70","","70","test","1","","26","","","","square","circle","25","4","2","0.96","","","","","","","",""
"null","188098","SARL_v6","SARL_v6xp78foud","5700616b8a49c7000d0c73ad","freq_resp","","","img/blue_2bandit_a.png","70","img/blue_2bandit_a.png","70","test","","","","","","","","","","","2","","","","","","","","",""
"null","188256","SARL_v6","SARL_v6xp78foud","5700616b8a49c7000d0c73ad","fixation","","","img/fixation.png","null","","","test","","","","","","","","","","","","","","","","","","","",""
"358.30000001192093","188615","SARL_v6","SARL_v6xp78foud","5700616b8a49c7000d0c73ad","freq","","","img/blue_2bandit_a2.png","70","","70","test","1","","27","","","","square","circle","26","5","2","0.9615384615384616","","","","","","","",""
"null","189058","SARL_v6","SARL_v6xp78foud","5700616b8a49c7000d0c73ad","freq_resp","","","img/blue_2bandit_a.png","70","img/blue_2bandit_a.png","70","test","","","","","","","","","","","2","","","","","","","","",""
"null","189217","SARL_v6","SARL_v6xp78foud","5700616b8a49c7000d0c73ad","fixation","","","img/fixation.png","null","","","test","","","","","","","","","","","","","","","","","","","",""
"309.29999999701977","189528","SARL_v6","SARL_v6xp78foud","5700616b8a49c7000d0c73ad","freq","","","img/blue_2bandit_a2.png","70","","70","test","1","","28","","","","square","circle","27","6","2","0.9629629629629629","","","","","","","",""
"null","190025","SARL_v6","SARL_v6xp78foud","5700616b8a49c7000d0c73ad","freq_resp","","","img/blue_2bandit_a.png","70","img/blue_2bandit_a.png","70","test","","","","","","","","","","","2","","","","","","","","",""
"null","190181","SARL_v6","SARL_v6xp78foud","5700616b8a49c7000d0c73ad","fixation","","","img/fixation.png","null","","","test","","","","","","","","","","","","","","","","","","","",""
"296.80000001192093","190479","SARL_v6","SARL_v6xp78foud","5700616b8a49c7000d0c73ad","freq","","","img/blue_2bandit_a2.png","70","","70","test","1","","29","","","","square","circle","28","7","2","0.9642857142857143","","","","","","","",""
"null","190996","SARL_v6","SARL_v6xp78foud","5700616b8a49c7000d0c73ad","freq_resp","","","img/blue_2bandit_a.png","70","img/blue_2bandit_a.png","70","test","","","","","","","","","","","2","","","","","","","","",""
"null","191153","SARL_v6","SARL_v6xp78foud","5700616b8a49c7000d0c73ad","fixation","","","img/fixation.png","null","","","test","","","","","","","","","","","","","","","","","","","",""
"292.40000000596046","191447","SARL_v6","SARL_v6xp78foud","5700616b8a49c7000d0c73ad","freq","","","img/blue_2bandit_a2.png","70","","70","test","1","","30","","","","square","circle","29","8","2","0.9655172413793104","","","","","","","",""
"null","191962","SARL_v6","SARL_v6xp78foud","5700616b8a49c7000d0c73ad","freq_resp","","","img/blue_2bandit_a.png","70","img/blue_2bandit_a.png","70","test","","","","","","","","","","","2","","","","","","","","",""
"null","192118","SARL_v6","SARL_v6xp78foud","5700616b8a49c7000d0c73ad","fixation","","","img/fixation.png","null","","","test","","","","","","","","","","","","","","","","","","","",""
"303.5","192423","SARL_v6","SARL_v6xp78foud","5700616b8a49c7000d0c73ad","freq","","","img/blue_2bandit_a2.png","70","","70","test","1","","31","","","","square","circle","30","9","2","0.9666666666666667","","","","","","","",""
"null","192922","SARL_v6","SARL_v6xp78foud","5700616b8a49c7000d0c73ad","freq_resp","","","img/blue_2bandit_a.png","70","img/blue_2bandit_a.png","70","test","","","","","","","","","","","2","","","","","","","","",""
"null","193080","SARL_v6","SARL_v6xp78foud","5700616b8a49c7000d0c73ad","fixation","","","img/fixation.png","null","","","test","","","","","","","","","","","","","","","","","","","",""
"414.40000000596046","193496","SARL_v6","SARL_v6xp78foud","5700616b8a49c7000d0c73ad","infreq","","","img/orange_2bandit_a2.png","68","","68","test","1","","32","","","","square","circle","31","10","2","0.967741935483871","","","","","","","",""
"null","193898","SARL_v6","SARL_v6xp78foud","5700616b8a49c7000d0c73ad","infreq_resp","","","img/orange_2bandit_a.png","68","img/orange_2bandit_a.png","68","test","","","","","","","","","","","2","","","","","","","","",""
"null","194052","SARL_v6","SARL_v6xp78foud","5700616b8a49c7000d0c73ad","fixation","","","img/fixation.png","null","","","test","","","","","","","","","","","","","","","","","","","",""
"330.1000000089407","194383","SARL_v6","SARL_v6xp78foud","5700616b8a49c7000d0c73ad","freq","","","img/blue_2bandit_a2.png","70","","70","test","1","","33","","","","square","circle","32","11","2","0.96875","","","","","","","",""
"null","194853","SARL_v6","SARL_v6xp78foud","5700616b8a49c7000d0c73ad","freq_resp","","","img/blue_2bandit_a.png","70","img/blue_2bandit_a.png","70","test","","","","","","","","","","","2","","","","","","","","",""
"null","195009","SARL_v6","SARL_v6xp78foud","5700616b8a49c7000d0c73ad","fixation","","","img/fixation.png","null","","","test","","","","","","","","","","","","","","","","","","","",""
"197.09999999403954","195207","SARL_v6","SARL_v6xp78foud","5700616b8a49c7000d0c73ad","freq","","","img/blue_2bandit_a2.png","70","","70","test","1","","34","","","","square","circle","33","12","2","0.9696969696969697","","","","","","","",""
"null","195812","SARL_v6","SARL_v6xp78foud","5700616b8a49c7000d0c73ad","freq_resp","","","img/blue_2bandit_a.png","70","img/blue_2bandit_a.png","70","test","","","","","","","","","","","2","","","","","","","","",""
"null","195969","SARL_v6","SARL_v6xp78foud","5700616b8a49c7000d0c73ad","fixation","","","img/fixation.png","null","","","test","","","","","","","","","","","","","","","","","","","",""
"252.59999999403954","196223","SARL_v6","SARL_v6xp78foud","5700616b8a49c7000d0c73ad","infreq","","","img/orange_2bandit_a2.png","70","","68","test","0","","35","","","","square","circle","34","13","2","0.9411764705882353","","","","","","","",""
"null","196776","SARL_v6","SARL_v6xp78foud","5700616b8a49c7000d0c73ad","infreq_resp","","","img/orange_2bandit_a.png","70","img/orange_2bandit_a.png","68","test","","","","","","","","","","","2","","","","","","","","",""
"null","196933","SARL_v6","SARL_v6xp78foud","5700616b8a49c7000d0c73ad","fixation","","","img/fixation.png","null","","","test","","","","","","","","","","","","","","","","","","","",""
"376.5","197311","SARL_v6","SARL_v6xp78foud","5700616b8a49c7000d0c73ad","freq","","","img/blue_2bandit_a2.png","70","","70","test","1","","36","","","","square","circle","35","14","2","0.9428571428571428","","","","","","","",""
"null","197751","SARL_v6","SARL_v6xp78foud","5700616b8a49c7000d0c73ad","freq_resp","","","img/blue_2bandit_a.png","70","img/blue_2bandit_a.png","70","test","","","","","","","","","","","2","","","","","","","","",""
"null","197909","SARL_v6","SARL_v6xp78foud","5700616b8a49c7000d0c73ad","fixation","","","img/fixation.png","null","","","test","","","","","","","","","","","","","","","","","","","",""
"385.19999998807907","198295","SARL_v6","SARL_v6xp78foud","5700616b8a49c7000d0c73ad","freq","","","img/blue_2bandit_a2.png","70","","70","test","1","","37","","","","square","circle","36","15","2","0.9444444444444444","","","","","","","",""
"null","198714","SARL_v6","SARL_v6xp78foud","5700616b8a49c7000d0c73ad","freq_resp","","","img/blue_2bandit_a.png","70","img/blue_2bandit_a.png","70","test","","","","","","","","","","","2","","","","","","","","",""
"null","198872","SARL_v6","SARL_v6xp78foud","5700616b8a49c7000d0c73ad","fixation","","","img/fixation.png","null","","","test","","","","","","","","","","","","","","","","","","","",""
"365.70000000298023","199239","SARL_v6","SARL_v6xp78foud","5700616b8a49c7000d0c73ad","freq","","","img/blue_2bandit_a2.png","70","","70","test","1","","38","","","","square","circle","37","16","2","0.9459459459459459","","","","","","","",""
"null","199676","SARL_v6","SARL_v6xp78foud","5700616b8a49c7000d0c73ad","freq_resp","","","img/blue_2bandit_a.png","70","img/blue_2bandit_a.png","70","test","","","","","","","","","","","2","","","","","","","","",""
"null","199833","SARL_v6","SARL_v6xp78foud","5700616b8a49c7000d0c73ad","fixation","","","img/fixation.png","null","","","test","","","","","","","","","","","","","","","","","","","",""
"308.90000000596046","200143","SARL_v6","SARL_v6xp78foud","5700616b8a49c7000d0c73ad","freq","","","img/blue_2bandit_a2.png","70","","70","test","1","","39","","","","square","circle","38","17","2","0.9473684210526315","","","","","","","",""
"null","200638","SARL_v6","SARL_v6xp78foud","5700616b8a49c7000d0c73ad","freq_resp","","","img/blue_2bandit_a.png","70","img/blue_2bandit_a.png","70","test","","","","","","","","","","","2","","","","","","","","",""
"null","200796","SARL_v6","SARL_v6xp78foud","5700616b8a49c7000d0c73ad","fixation","","","img/fixation.png","null","","","test","","","","","","","","","","","","","","","","","","","",""
"298.20000000298023","201095","SARL_v6","SARL_v6xp78foud","5700616b8a49c7000d0c73ad","freq","","","img/blue_2bandit_a2.png","70","","70","test","1","","40","","","","square","circle","39","18","2","0.9487179487179487","","","","","","","",""
"null","201612","SARL_v6","SARL_v6xp78foud","5700616b8a49c7000d0c73ad","freq_resp","","","img/blue_2bandit_a.png","70","img/blue_2bandit_a.png","70","test","","","","","","","","","","","2","","","","","","","","",""
"null","201769","SARL_v6","SARL_v6xp78foud","5700616b8a49c7000d0c73ad","fixation","","","img/fixation.png","null","","","test","","","","","","","","","","","","","","","","","","","",""
"389","202160","SARL_v6","SARL_v6xp78foud","5700616b8a49c7000d0c73ad","infreq","","","img/orange_2bandit_a2.png","68","","68","test","1","","41","","","","square","circle","40","19","2","0.95","","","","","","","",""
"null","202588","SARL_v6","SARL_v6xp78foud","5700616b8a49c7000d0c73ad","infreq_resp","","","img/orange_2bandit_a.png","68","img/orange_2bandit_a.png","68","test","","","","","","","","","","","2","","","","","","","","",""
"null","202743","SARL_v6","SARL_v6xp78foud","5700616b8a49c7000d0c73ad","fixation","","","img/fixation.png","null","","","test","","","","","","","","","","","","","","","","","","","",""
"311","203055","SARL_v6","SARL_v6xp78foud","5700616b8a49c7000d0c73ad","freq","","","img/blue_2bandit_a2.png","70","","70","test","1","","42","","","","square","circle","41","20","2","0.9512195121951219","","","","","","","",""
"null","203555","SARL_v6","SARL_v6xp78foud","5700616b8a49c7000d0c73ad","freq_resp","","","img/blue_2bandit_a.png","70","img/blue_2bandit_a.png","70","test","","","","","","","","","","","2","","","","","","","","",""
"null","203715","SARL_v6","SARL_v6xp78foud","5700616b8a49c7000d0c73ad","fixation","","","img/fixation.png","null","","","test","","","","","","","","","","","","","","","","","","","",""
"283.40000000596046","203999","SARL_v6","SARL_v6xp78foud","5700616b8a49c7000d0c73ad","freq","","","img/blue_2bandit_a2.png","70","","70","test","1","","43","","","","square","circle","42","21","2","0.9523809523809523","","","","","","","",""
"null","204529","SARL_v6","SARL_v6xp78foud","5700616b8a49c7000d0c73ad","freq_resp","","","img/blue_2bandit_a.png","70","img/blue_2bandit_a.png","70","test","","","","","","","","","","","2","","","","","","","","",""
"null","204688","SARL_v6","SARL_v6xp78foud","5700616b8a49c7000d0c73ad","fixation","","","img/fixation.png","null","","","test","","","","","","","","","","","","","","","","","","","",""
"286.3999999910593","204975","SARL_v6","SARL_v6xp78foud","5700616b8a49c7000d0c73ad","freq","","","img/blue_2bandit_a2.png","70","","70","test","1","","44","","","","square","circle","43","22","2","0.9534883720930233","","","","","","","",""
"null","205491","SARL_v6","SARL_v6xp78foud","5700616b8a49c7000d0c73ad","freq_resp","","","img/blue_2bandit_a.png","70","img/blue_2bandit_a.png","70","test","","","","","","","","","","","2","","","","","","","","",""
"null","205648","SARL_v6","SARL_v6xp78foud","5700616b8a49c7000d0c73ad","fixation","","","img/fixation.png","null","","","test","","","","","","","","","","","","","","","","","","","",""
"278.30000001192093","205927","SARL_v6","SARL_v6xp78foud","5700616b8a49c7000d0c73ad","freq","","","img/blue_2bandit_a2.png","70","","70","test","1","","45","","","","square","circle","44","23","2","0.9545454545454546","","","","","","","",""
"null","206463","SARL_v6","SARL_v6xp78foud","5700616b8a49c7000d0c73ad","freq_resp","","","img/blue_2bandit_a.png","70","img/blue_2bandit_a.png","70","test","","","","","","","","","","","2","","","","","","","","",""
"null","206623","SARL_v6","SARL_v6xp78foud","5700616b8a49c7000d0c73ad","fixation","","","img/fixation.png","null","","","test","","","","","","","","","","","","","","","","","","","",""
"311.09999999403954","206935","SARL_v6","SARL_v6xp78foud","5700616b8a49c7000d0c73ad","freq","","","img/blue_2bandit_a2.png","70","","70","test","1","","46","","","","square","circle","45","24","2","0.9555555555555556","","","","","","","",""
"null","207426","SARL_v6","SARL_v6xp78foud","5700616b8a49c7000d0c73ad","freq_resp","","","img/blue_2bandit_a.png","70","img/blue_2bandit_a.png","70","test","","","","","","","","","","","2","","","","","","","","",""
"null","207586","SARL_v6","SARL_v6xp78foud","5700616b8a49c7000d0c73ad","fixation","","","img/fixation.png","null","","","test","","","","","","","","","","","","","","","","","","","",""
"315.6000000089407","207903","SARL_v6","SARL_v6xp78foud","5700616b8a49c7000d0c73ad","freq","","","img/blue_2bandit_a2.png","70","","70","test","1","","47","","","","square","circle","46","25","2","0.9565217391304348","","","","","","","",""
"null","208391","SARL_v6","SARL_v6xp78foud","5700616b8a49c7000d0c73ad","freq_resp","","","img/blue_2bandit_a.png","70","img/blue_2bandit_a.png","70","test","","","","","","","","","","","2","","","","","","","","",""
"null","208548","SARL_v6","SARL_v6xp78foud","5700616b8a49c7000d0c73ad","fixation","","","img/fixation.png","null","","","test","","","","","","","","","","","","","","","","","","","",""
"337.70000000298023","208887","SARL_v6","SARL_v6xp78foud","5700616b8a49c7000d0c73ad","rl","","","img/black_2bandit_a2.png","75","","0","test","","","48","","","-5","square","circle","","0","2","","75","-5","-8","-8","-5","circle","2","0"
"null","209653","SARL_v6","SARL_v6xp78foud","5700616b8a49c7000d0c73ad","feedback","","","<div class=""verylowPoints""> -5 </div>","null","","na","test","","","NaN","","","","","","","","2","","75","","","","","","2",""
"297.1000000089407","209951","SARL_v6","SARL_v6xp78foud","5700616b8a49c7000d0c73ad","freq","","","img/blue_2bandit_a2.png","70","","70","test","1","","49","","","","square","circle","47","1","3","0.9574468085106383","","","","","","","",""
"null","210466","SARL_v6","SARL_v6xp78foud","5700616b8a49c7000d0c73ad","freq_resp","","","img/blue_2bandit_a.png","70","img/blue_2bandit_a.png","70","test","","","","","","","","","","","3","","","","","","","","",""
"null","210623","SARL_v6","SARL_v6xp78foud","5700616b8a49c7000d0c73ad","fixation","","","img/fixation.png","null","","","test","","","","","","","","","","","","","","","","","","","",""
"262.90000000596046","210887","SARL_v6","SARL_v6xp78foud","5700616b8a49c7000d0c73ad","freq","","","img/blue_2bandit_a2.png","70","","70","test","1","","50","","","","square","circle","48","2","3","0.9583333333333334","","","","","","","",""
"null","211427","SARL_v6","SARL_v6xp78foud","5700616b8a49c7000d0c73ad","freq_resp","","","img/blue_2bandit_a.png","70","img/blue_2bandit_a.png","70","test","","","","","","","","","","","3","","","","","","","","",""
"null","211584","SARL_v6","SARL_v6xp78foud","5700616b8a49c7000d0c73ad","fixation","","","img/fixation.png","null","","","test","","","","","","","","","","","","","","","","","","","",""
"301.5","211887","SARL_v6","SARL_v6xp78foud","5700616b8a49c7000d0c73ad","freq","","","img/blue_2bandit_a2.png","70","","70","test","1","","51","","","","square","circle","49","3","3","0.9591836734693877","","","","","","","",""
"null","212394","SARL_v6","SARL_v6xp78foud","5700616b8a49c7000d0c73ad","freq_resp","","","img/blue_2bandit_a.png","70","img/blue_2bandit_a.png","70","test","","","","","","","","","","","3","","","","","","","","",""
"null","212551","SARL_v6","SARL_v6xp78foud","5700616b8a49c7000d0c73ad","fixation","","","img/fixation.png","null","","","test","","","","","","","","","","","","","","","","","","","",""
"270.90000000596046","212823","SARL_v6","SARL_v6xp78foud","5700616b8a49c7000d0c73ad","freq","","","img/blue_2bandit_a2.png","70","","70","test","1","","52","","","","square","circle","50","4","3","0.96","","","","","","","",""
"null","213357","SARL_v6","SARL_v6xp78foud","5700616b8a49c7000d0c73ad","freq_resp","","","img/blue_2bandit_a.png","70","img/blue_2bandit_a.png","70","test","","","","","","","","","","","3","","","","","","","","",""
"null","213515","SARL_v6","SARL_v6xp78foud","5700616b8a49c7000d0c73ad","fixation","","","img/fixation.png","null","","","test","","","","","","","","","","","","","","","","","","","",""
"378.80000001192093","213895","SARL_v6","SARL_v6xp78foud","5700616b8a49c7000d0c73ad","infreq","","","img/orange_2bandit_a2.png","68","","68","test","1","","53","","","","square","circle","51","5","3","0.9607843137254902","","","","","","","",""
"null","214321","SARL_v6","SARL_v6xp78foud","5700616b8a49c7000d0c73ad","infreq_resp","","","img/orange_2bandit_a.png","68","img/orange_2bandit_a.png","68","test","","","","","","","","","","","3","","","","","","","","",""
"null","214478","SARL_v6","SARL_v6xp78foud","5700616b8a49c7000d0c73ad","fixation","","","img/fixation.png","null","","","test","","","","","","","","","","","","","","","","","","","",""
"319.90000000596046","214800","SARL_v6","SARL_v6xp78foud","5700616b8a49c7000d0c73ad","freq","","","img/blue_2bandit_a2.png","70","","70","test","1","","54","","","","square","circle","52","6","3","0.9615384615384616","","","","","","","",""
"null","215296","SARL_v6","SARL_v6xp78foud","5700616b8a49c7000d0c73ad","freq_resp","","","img/blue_2bandit_a.png","70","img/blue_2bandit_a.png","70","test","","","","","","","","","","","3","","","","","","","","",""
"null","215453","SARL_v6","SARL_v6xp78foud","5700616b8a49c7000d0c73ad","fixation","","","img/fixation.png","null","","","test","","","","","","","","","","","","","","","","","","","",""
"224.70000000298023","215679","SARL_v6","SARL_v6xp78foud","5700616b8a49c7000d0c73ad","freq","","","img/blue_2bandit_a2.png","70","","70","test","1","","55","","","","square","circle","53","7","3","0.9622641509433962","","","","","","","",""
"null","216271","SARL_v6","SARL_v6xp78foud","5700616b8a49c7000d0c73ad","freq_resp","","","img/blue_2bandit_a.png","70","img/blue_2bandit_a.png","70","test","","","","","","","","","","","3","","","","","","","","",""
"null","216430","SARL_v6","SARL_v6xp78foud","5700616b8a49c7000d0c73ad","fixation","","","img/fixation.png","null","","","test","","","","","","","","","","","","","","","","","","","",""
"375.79999999701977","216807","SARL_v6","SARL_v6xp78foud","5700616b8a49c7000d0c73ad","freq","","","img/blue_2bandit_a2.png","70","","70","test","1","","56","","","","square","circle","54","8","3","0.9629629629629629","","","","","","","",""
"null","217248","SARL_v6","SARL_v6xp78foud","5700616b8a49c7000d0c73ad","freq_resp","","","img/blue_2bandit_a.png","70","img/blue_2bandit_a.png","70","test","","","","","","","","","","","3","","","","","","","","",""
"null","217405","SARL_v6","SARL_v6xp78foud","5700616b8a49c7000d0c73ad","fixation","","","img/fixation.png","null","","","test","","","","","","","","","","","","","","","","","","","",""
"312.59999999403954","217719","SARL_v6","SARL_v6xp78foud","5700616b8a49c7000d0c73ad","freq","","","img/blue_2bandit_a2.png","70","","70","test","1","","57","","","","square","circle","55","9","3","0.9636363636363636","","","","","","","",""
"null","218214","SARL_v6","SARL_v6xp78foud","5700616b8a49c7000d0c73ad","freq_resp","","","img/blue_2bandit_a.png","70","img/blue_2bandit_a.png","70","test","","","","","","","","","","","3","","","","","","","","",""
"null","218372","SARL_v6","SARL_v6xp78foud","5700616b8a49c7000d0c73ad","fixation","","","img/fixation.png","null","","","test","","","","","","","","","","","","","","","","","","","",""
"290.20000000298023","218663","SARL_v6","SARL_v6xp78foud","5700616b8a49c7000d0c73ad","freq","","","img/blue_2bandit_a2.png","70","","70","test","1","","58","","","","square","circle","56","10","3","0.9642857142857143","","","","","","","",""
"null","219175","SARL_v6","SARL_v6xp78foud","5700616b8a49c7000d0c73ad","freq_resp","","","img/blue_2bandit_a.png","70","img/blue_2bandit_a.png","70","test","","","","","","","","","","","3","","","","","","","","",""
"null","219335","SARL_v6","SARL_v6xp78foud","5700616b8a49c7000d0c73ad","fixation","","","img/fixation.png","null","","","test","","","","","","","","","","","","","","","","","","","",""
"478.59999999403954","219816","SARL_v6","SARL_v6xp78foud","5700616b8a49c7000d0c73ad","infreq","","","img/orange_2bandit_a2.png","68","","68","test","1","","59","","","","square","circle","57","11","3","0.9649122807017544","","","","","","","",""
"null","220154","SARL_v6","SARL_v6xp78foud","5700616b8a49c7000d0c73ad","infreq_resp","","","img/orange_2bandit_a.png","68","img/orange_2bandit_a.png","68","test","","","","","","","","","","","3","","","","","","","","",""
"null","220313","SARL_v6","SARL_v6xp78foud","5700616b8a49c7000d0c73ad","fixation","","","img/fixation.png","null","","","test","","","","","","","","","","","","","","","","","","","",""
"508.59999999403954","220823","SARL_v6","SARL_v6xp78foud","5700616b8a49c7000d0c73ad","freq","","","img/blue_2bandit_a2.png","70","","70","test","1","","60","","","","square","circle","58","12","3","0.9655172413793104","","","","","","","",""
"null","221120","SARL_v6","SARL_v6xp78foud","5700616b8a49c7000d0c73ad","freq_resp","","","img/blue_2bandit_a.png","70","img/blue_2bandit_a.png","70","test","","","","","","","","","","","3","","","","","","","","",""
"null","221278","SARL_v6","SARL_v6xp78foud","5700616b8a49c7000d0c73ad","fixation","","","img/fixation.png","null","","","test","","","","","","","","","","","","","","","","","","","",""
"447.90000000596046","221727","SARL_v6","SARL_v6xp78foud","5700616b8a49c7000d0c73ad","freq","","","img/blue_2bandit_a2.png","70","","70","test","1","","61","","","","square","circle","59","13","3","0.9661016949152542","","","","","","","",""
"null","222084","SARL_v6","SARL_v6xp78foud","5700616b8a49c7000d0c73ad","freq_resp","","","img/blue_2bandit_a.png","70","img/blue_2bandit_a.png","70","test","","","","","","","","","","","3","","","","","","","","",""
"null","222237","SARL_v6","SARL_v6xp78foud","5700616b8a49c7000d0c73ad","fixation","","","img/fixation.png","null","","","test","","","","","","","","","","","","","","","","","","","",""
"345.1000000089407","222583","SARL_v6","SARL_v6xp78foud","5700616b8a49c7000d0c73ad","freq","","","img/blue_2bandit_a2.png","70","","70","test","1","","62","","","","square","circle","60","14","3","0.9666666666666667","","","","","","","",""
"null","223048","SARL_v6","SARL_v6xp78foud","5700616b8a49c7000d0c73ad","freq_resp","","","img/blue_2bandit_a.png","70","img/blue_2bandit_a.png","70","test","","","","","","","","","","","3","","","","","","","","",""
"null","223205","SARL_v6","SARL_v6xp78foud","5700616b8a49c7000d0c73ad","fixation","","","img/fixation.png","null","","","test","","","","","","","","","","","","","","","","","","","",""
"320.59999999403954","223527","SARL_v6","SARL_v6xp78foud","5700616b8a49c7000d0c73ad","freq","","","img/blue_2bandit_a2.png","70","","70","test","1","","63","","","","square","circle","61","15","3","0.9672131147540983","","","","","","","",""
"null","224019","SARL_v6","SARL_v6xp78foud","5700616b8a49c7000d0c73ad","freq_resp","","","img/blue_2bandit_a.png","70","img/blue_2bandit_a.png","70","test","","","","","","","","","","","3","","","","","","","","",""
"null","224177","SARL_v6","SARL_v6xp78foud","5700616b8a49c7000d0c73ad","fixation","","","img/fixation.png","null","","","test","","","","","","","","","","","","","","","","","","","",""
"324.80000001192093","224503","SARL_v6","SARL_v6xp78foud","5700616b8a49c7000d0c73ad","freq","","","img/blue_2bandit_a2.png","70","","70","test","1","","64","","","","square","circle","62","16","3","0.967741935483871","","","","","","","",""
"null","224991","SARL_v6","SARL_v6xp78foud","5700616b8a49c7000d0c73ad","freq_resp","","","img/blue_2bandit_a.png","70","img/blue_2bandit_a.png","70","test","","","","","","","","","","","3","","","","","","","","",""
"null","225149","SARL_v6","SARL_v6xp78foud","5700616b8a49c7000d0c73ad","fixation","","","img/fixation.png","null","","","test","","","","","","","","","","","","","","","","","","","",""
"313","225463","SARL_v6","SARL_v6xp78foud","5700616b8a49c7000d0c73ad","freq","","","img/blue_2bandit_a2.png","70","","70","test","1","","65","","","","square","circle","63","17","3","0.9682539682539683","","","","","","","",""
"null","225953","SARL_v6","SARL_v6xp78foud","5700616b8a49c7000d0c73ad","freq_resp","","","img/blue_2bandit_a.png","70","img/blue_2bandit_a.png","70","test","","","","","","","","","","","3","","","","","","","","",""
"null","226111","SARL_v6","SARL_v6xp78foud","5700616b8a49c7000d0c73ad","fixation","","","img/fixation.png","null","","","test","","","","","","","","","","","","","","","","","","","",""
"318.90000000596046","226431","SARL_v6","SARL_v6xp78foud","5700616b8a49c7000d0c73ad","freq","","","img/blue_2bandit_a2.png","70","","70","test","1","","66","","","","square","circle","64","18","3","0.96875","","","","","","","",""
"null","226926","SARL_v6","SARL_v6xp78foud","5700616b8a49c7000d0c73ad","freq_resp","","","img/blue_2bandit_a.png","70","img/blue_2bandit_a.png","70","test","","","","","","","","","","","3","","","","","","","","",""
"null","227084","SARL_v6","SARL_v6xp78foud","5700616b8a49c7000d0c73ad","fixation","","","img/fixation.png","null","","","test","","","","","","","","","","","","","","","","","","","",""
"306.20000000298023","227391","SARL_v6","SARL_v6xp78foud","5700616b8a49c7000d0c73ad","freq","","","img/blue_2bandit_a2.png","70","","70","test","1","","67","","","","square","circle","65","19","3","0.9692307692307692","","","","","","","",""
"null","227895","SARL_v6","SARL_v6xp78foud","5700616b8a49c7000d0c73ad","freq_resp","","","img/blue_2bandit_a.png","70","img/blue_2bandit_a.png","70","test","","","","","","","","","","","3","","","","","","","","",""
"null","228049","SARL_v6","SARL_v6xp78foud","5700616b8a49c7000d0c73ad","fixation","","","img/fixation.png","null","","","test","","","","","","","","","","","","","","","","","","","",""
"292.59999999403954","228343","SARL_v6","SARL_v6xp78foud","5700616b8a49c7000d0c73ad","freq","","","img/blue_2bandit_a2.png","70","","70","test","1","","68","","","","square","circle","66","20","3","0.9696969696969697","","","","","","","",""
"null","228867","SARL_v6","SARL_v6xp78foud","5700616b8a49c7000d0c73ad","freq_resp","","","img/blue_2bandit_a.png","70","img/blue_2bandit_a.png","70","test","","","","","","","","","","","3","","","","","","","","",""
"null","229021","SARL_v6","SARL_v6xp78foud","5700616b8a49c7000d0c73ad","fixation","","","img/fixation.png","null","","","test","","","","","","","","","","","","","","","","","","","",""
"1016.8999999910593","230039","SARL_v6","SARL_v6xp78foud","5700616b8a49c7000d0c73ad","rl","","","img/black_2bandit_a2.png","75","","0","test","","","69","","","-4","square","circle","","0","3","","75","-4","-8","-8","-4","circle","3","0"
"null","230795","SARL_v6","SARL_v6xp78foud","5700616b8a49c7000d0c73ad","feedback","","","<div class=""verylowPoints""> -4 </div>","null","","na","test","","","NaN","","","","","","","","3","","75","","","","","","3",""
"378.5","231175","SARL_v6","SARL_v6xp78foud","5700616b8a49c7000d0c73ad","freq","","","img/blue_2bandit_a2.png","70","","70","test","1","","70","","","","square","circle","67","1","4","0.9701492537313433","","","","","","","",""
"null","231605","SARL_v6","SARL_v6xp78foud","5700616b8a49c7000d0c73ad","freq_resp","","","img/blue_2bandit_a.png","70","img/blue_2bandit_a.png","70","test","","","","","","","","","","","4","","","","","","","","",""
"null","231762","SARL_v6","SARL_v6xp78foud","5700616b8a49c7000d0c73ad","fixation","","","img/fixation.png","null","","","test","","","","","","","","","","","","","","","","","","","",""
"355.8999999910593","232119","SARL_v6","SARL_v6xp78foud","5700616b8a49c7000d0c73ad","freq","","","img/blue_2bandit_a2.png","70","","70","test","1","","71","","","","square","circle","68","2","4","0.9705882352941176","","","","","","","",""
"null","232578","SARL_v6","SARL_v6xp78foud","5700616b8a49c7000d0c73ad","freq_resp","","","img/blue_2bandit_a.png","70","img/blue_2bandit_a.png","70","test","","","","","","","","","","","4","","","","","","","","",""
"null","232736","SARL_v6","SARL_v6xp78foud","5700616b8a49c7000d0c73ad","fixation","","","img/fixation.png","null","","","test","","","","","","","","","","","","","","","","","","","",""
"325.90000000596046","233063","SARL_v6","SARL_v6xp78foud","5700616b8a49c7000d0c73ad","freq","","","img/blue_2bandit_a2.png","70","","70","test","1","","72","","","","square","circle","69","3","4","0.9710144927536232","","","","","","","",""
"null","233554","SARL_v6","SARL_v6xp78foud","5700616b8a49c7000d0c73ad","freq_resp","","","img/blue_2bandit_a.png","70","img/blue_2bandit_a.png","70","test","","","","","","","","","","","4","","","","","","","","",""
"null","233713","SARL_v6","SARL_v6xp78foud","5700616b8a49c7000d0c73ad","fixation","","","img/fixation.png","null","","","test","","","","","","","","","","","","","","","","","","","",""
"300.90000000596046","234015","SARL_v6","SARL_v6xp78foud","5700616b8a49c7000d0c73ad","freq","","","img/blue_2bandit_a2.png","70","","70","test","1","","73","","","","square","circle","70","4","4","0.9714285714285714","","","","","","","",""
"null","234528","SARL_v6","SARL_v6xp78foud","5700616b8a49c7000d0c73ad","freq_resp","","","img/blue_2bandit_a.png","70","img/blue_2bandit_a.png","70","test","","","","","","","","","","","4","","","","","","","","",""
"null","234684","SARL_v6","SARL_v6xp78foud","5700616b8a49c7000d0c73ad","fixation","","","img/fixation.png","null","","","test","","","","","","","","","","","","","","","","","","","",""
"490.59999999403954","235175","SARL_v6","SARL_v6xp78foud","5700616b8a49c7000d0c73ad","freq","","","img/blue_2bandit_a2.png","70","","70","test","1","","74","","","","square","circle","71","5","4","0.971830985915493","","","","","","","",""
"null","235494","SARL_v6","SARL_v6xp78foud","5700616b8a49c7000d0c73ad","freq_resp","","","img/blue_2bandit_a.png","70","img/blue_2bandit_a.png","70","test","","","","","","","","","","","4","","","","","","","","",""
"null","235650","SARL_v6","SARL_v6xp78foud","5700616b8a49c7000d0c73ad","fixation","","","img/fixation.png","null","","","test","","","","","","","","","","","","","","","","","","","",""
"307.30000001192093","235959","SARL_v6","SARL_v6xp78foud","5700616b8a49c7000d0c73ad","freq","","","img/blue_2bandit_a2.png","70","","70","test","1","","75","","","","square","circle","72","6","4","0.9722222222222222","","","","","","","",""
"null","236465","SARL_v6","SARL_v6xp78foud","5700616b8a49c7000d0c73ad","freq_resp","","","img/blue_2bandit_a.png","70","img/blue_2bandit_a.png","70","test","","","","","","","","","","","4","","","","","","","","",""
"null","236623","SARL_v6","SARL_v6xp78foud","5700616b8a49c7000d0c73ad","fixation","","","img/fixation.png","null","","","test","","","","","","","","","","","","","","","","","","","",""
"422.6000000089407","237046","SARL_v6","SARL_v6xp78foud","5700616b8a49c7000d0c73ad","infreq","","","img/orange_2bandit_a2.png","68","","68","test","1","","76","","","","square","circle","73","7","4","0.9726027397260274","","","","","","","",""
"null","237428","SARL_v6","SARL_v6xp78foud","5700616b8a49c7000d0c73ad","infreq_resp","","","img/orange_2bandit_a.png","68","img/orange_2bandit_a.png","68","test","","","","","","","","","","","4","","","","","","","","",""
"null","237587","SARL_v6","SARL_v6xp78foud","5700616b8a49c7000d0c73ad","fixation","","","img/fixation.png","null","","","test","","","","","","","","","","","","","","","","","","","",""
"282.20000000298023","237871","SARL_v6","SARL_v6xp78foud","5700616b8a49c7000d0c73ad","freq","","","img/blue_2bandit_a2.png","70","","70","test","1","","77","","","","square","circle","74","8","4","0.972972972972973","","","","","","","",""
"null","238404","SARL_v6","SARL_v6xp78foud","5700616b8a49c7000d0c73ad","freq_resp","","","img/blue_2bandit_a.png","70","img/blue_2bandit_a.png","70","test","","","","","","","","","","","4","","","","","","","","",""
"null","238558","SARL_v6","SARL_v6xp78foud","5700616b8a49c7000d0c73ad","fixation","","","img/fixation.png","null","","","test","","","","","","","","","","","","","","","","","","","",""
"254.90000000596046","238815","SARL_v6","SARL_v6xp78foud","5700616b8a49c7000d0c73ad","freq","","","img/blue_2bandit_a2.png","70","","70","test","1","","78","","","","square","circle","75","9","4","0.9733333333333334","","","","","","","",""
"null","239367","SARL_v6","SARL_v6xp78foud","5700616b8a49c7000d0c73ad","freq_resp","","","img/blue_2bandit_a.png","70","img/blue_2bandit_a.png","70","test","","","","","","","","","","","4","","","","","","","","",""
"null","239526","SARL_v6","SARL_v6xp78foud","5700616b8a49c7000d0c73ad","fixation","","","img/fixation.png","null","","","test","","","","","","","","","","","","","","","","","","","",""
"279.69999998807907","239807","SARL_v6","SARL_v6xp78foud","5700616b8a49c7000d0c73ad","freq","","","img/blue_2bandit_a2.png","70","","70","test","1","","79","","","","square","circle","76","10","4","0.9736842105263158","","","","","","","",""
"null","240339","SARL_v6","SARL_v6xp78foud","5700616b8a49c7000d0c73ad","freq_resp","","","img/blue_2bandit_a.png","70","img/blue_2bandit_a.png","70","test","","","","","","","","","","","4","","","","","","","","",""
"null","240496","SARL_v6","SARL_v6xp78foud","5700616b8a49c7000d0c73ad","fixation","","","img/fixation.png","null","","","test","","","","","","","","","","","","","","","","","","","",""
"269.59999999403954","240767","SARL_v6","SARL_v6xp78foud","5700616b8a49c7000d0c73ad","freq","","","img/blue_2bandit_a2.png","70","","70","test","1","","80","","","","square","circle","77","11","4","0.974025974025974","","","","","","","",""
"null","241306","SARL_v6","SARL_v6xp78foud","5700616b8a49c7000d0c73ad","freq_resp","","","img/blue_2bandit_a.png","70","img/blue_2bandit_a.png","70","test","","","","","","","","","","","4","","","","","","","","",""
"null","241464","SARL_v6","SARL_v6xp78foud","5700616b8a49c7000d0c73ad","fixation","","","img/fixation.png","null","","","test","","","","","","","","","","","","","","","","","","","",""
"205.3999999910593","241670","SARL_v6","SARL_v6xp78foud","5700616b8a49c7000d0c73ad","freq","","","img/blue_2bandit_a2.png","70","","70","test","1","","81","","","","square","circle","78","12","4","0.9743589743589743","","","","","","","",""
"null","242269","SARL_v6","SARL_v6xp78foud","5700616b8a49c7000d0c73ad","freq_resp","","","img/blue_2bandit_a.png","70","img/blue_2bandit_a.png","70","test","","","","","","","","","","","4","","","","","","","","",""
"null","242425","SARL_v6","SARL_v6xp78foud","5700616b8a49c7000d0c73ad","fixation","","","img/fixation.png","null","","","test","","","","","","","","","","","","","","","","","","","",""
"267.90000000596046","242695","SARL_v6","SARL_v6xp78foud","5700616b8a49c7000d0c73ad","freq","","","img/blue_2bandit_a2.png","70","","70","test","1","","82","","","","square","circle","79","13","4","0.9746835443037974","","","","","","","",""
"null","243231","SARL_v6","SARL_v6xp78foud","5700616b8a49c7000d0c73ad","freq_resp","","","img/blue_2bandit_a.png","70","img/blue_2bandit_a.png","70","test","","","","","","","","","","","4","","","","","","","","",""
"null","243389","SARL_v6","SARL_v6xp78foud","5700616b8a49c7000d0c73ad","fixation","","","img/fixation.png","null","","","test","","","","","","","","","","","","","","","","","","","",""
"256.3999999910593","243647","SARL_v6","SARL_v6xp78foud","5700616b8a49c7000d0c73ad","infreq","","","img/orange_2bandit_a2.png","70","","68","test","0","","83","","","","square","circle","80","14","4","0.9625","","","","","","","",""
"null","244204","SARL_v6","SARL_v6xp78foud","5700616b8a49c7000d0c73ad","infreq_resp","","","img/orange_2bandit_a.png","70","img/orange_2bandit_a.png","68","test","","","","","","","","","","","4","","","","","","","","",""
"null","244361","SARL_v6","SARL_v6xp78foud","5700616b8a49c7000d0c73ad","fixation","","","img/fixation.png","null","","","test","","","","","","","","","","","","","","","","","","","",""
"356.6000000089407","244719","SARL_v6","SARL_v6xp78foud","5700616b8a49c7000d0c73ad","freq","","","img/blue_2bandit_a2.png","70","","70","test","1","","84","","","","square","circle","81","15","4","0.9629629629629629","","","","","","","",""
"null","245167","SARL_v6","SARL_v6xp78foud","5700616b8a49c7000d0c73ad","freq_resp","","","img/blue_2bandit_a.png","70","img/blue_2bandit_a.png","70","test","","","","","","","","","","","4","","","","","","","","",""
"null","245322","SARL_v6","SARL_v6xp78foud","5700616b8a49c7000d0c73ad","fixation","","","img/fixation.png","null","","","test","","","","","","","","","","","","","","","","","","","",""
"298.90000000596046","245622","SARL_v6","SARL_v6xp78foud","5700616b8a49c7000d0c73ad","freq","","","img/blue_2bandit_a2.png","70","","70","test","1","","85","","","","square","circle","82","16","4","0.9634146341463414","","","","","","","",""
"null","246133","SARL_v6","SARL_v6xp78foud","5700616b8a49c7000d0c73ad","freq_resp","","","img/blue_2bandit_a.png","70","img/blue_2bandit_a.png","70","test","","","","","","","","","","","4","","","","","","","","",""
"null","246292","SARL_v6","SARL_v6xp78foud","5700616b8a49c7000d0c73ad","fixation","","","img/fixation.png","null","","","test","","","","","","","","","","","","","","","","","","","",""
"265.20000000298023","246558","SARL_v6","SARL_v6xp78foud","5700616b8a49c7000d0c73ad","freq","","","img/blue_2bandit_a2.png","70","","70","test","1","","86","","","","square","circle","83","17","4","0.963855421686747","","","","","","","",""
"null","247104","SARL_v6","SARL_v6xp78foud","5700616b8a49c7000d0c73ad","freq_resp","","","img/blue_2bandit_a.png","70","img/blue_2bandit_a.png","70","test","","","","","","","","","","","4","","","","","","","","",""
"null","247260","SARL_v6","SARL_v6xp78foud","5700616b8a49c7000d0c73ad","fixation","","","img/fixation.png","null","","","test","","","","","","","","","","","","","","","","","","","",""
"169.09999999403954","247431","SARL_v6","SARL_v6xp78foud","5700616b8a49c7000d0c73ad","freq","","","img/blue_2bandit_a2.png","70","","70","test","1","","87","","","","square","circle","84","18","4","0.9642857142857143","","","","","","","",""
"null","248066","SARL_v6","SARL_v6xp78foud","5700616b8a49c7000d0c73ad","freq_resp","","","img/blue_2bandit_a.png","70","img/blue_2bandit_a.png","70","test","","","","","","","","","","","4","","","","","","","","",""
"null","248222","SARL_v6","SARL_v6xp78foud","5700616b8a49c7000d0c73ad","fixation","","","img/fixation.png","null","","","test","","","","","","","","","","","","","","","","","","","",""
"271.09999999403954","248495","SARL_v6","SARL_v6xp78foud","5700616b8a49c7000d0c73ad","freq","","","img/blue_2bandit_a2.png","70","","70","test","1","","88","","","","square","circle","85","19","4","0.9647058823529412","","","","","","","",""
"null","249033","SARL_v6","SARL_v6xp78foud","5700616b8a49c7000d0c73ad","freq_resp","","","img/blue_2bandit_a.png","70","img/blue_2bandit_a.png","70","test","","","","","","","","","","","4","","","","","","","","",""
"null","249191","SARL_v6","SARL_v6xp78foud","5700616b8a49c7000d0c73ad","fixation","","","img/fixation.png","null","","","test","","","","","","","","","","","","","","","","","","","",""
"270.70000000298023","249463","SARL_v6","SARL_v6xp78foud","5700616b8a49c7000d0c73ad","freq","","","img/blue_2bandit_a2.png","70","","70","test","1","","89","","","","square","circle","86","20","4","0.9651162790697675","","","","","","","",""
"null","249995","SARL_v6","SARL_v6xp78foud","5700616b8a49c7000d0c73ad","freq_resp","","","img/blue_2bandit_a.png","70","img/blue_2bandit_a.png","70","test","","","","","","","","","","","4","","","","","","","","",""
"null","250151","SARL_v6","SARL_v6xp78foud","5700616b8a49c7000d0c73ad","fixation","","","img/fixation.png","null","","","test","","","","","","","","","","","","","","","","","","","",""
"598.2999999970198","250751","SARL_v6","SARL_v6xp78foud","5700616b8a49c7000d0c73ad","rl","","","img/black_2bandit_a2.png","74","","0","test","","","90","","","-12","square","circle","","0","4","","74","0","-12","-12","0","square","4","0"
"null","251514","SARL_v6","SARL_v6xp78foud","5700616b8a49c7000d0c73ad","feedback","","","<div class=""verylowPoints_sq""> -12 </div>","null","","na","test","","","NaN","","","","","","","","4","","74","","","","","","4",""
"387.29999999701977","251903","SARL_v6","SARL_v6xp78foud","5700616b8a49c7000d0c73ad","freq","","","img/blue_2bandit_a2.png","70","","70","test","1","","91","","","","square","circle","87","1","5","0.9655172413793104","","","","","","","",""
"null","252327","SARL_v6","SARL_v6xp78foud","5700616b8a49c7000d0c73ad","freq_resp","","","img/blue_2bandit_a.png","70","img/blue_2bandit_a.png","70","test","","","","","","","","","","","5","","","","","","","","",""
"null","252484","SARL_v6","SARL_v6xp78foud","5700616b8a49c7000d0c73ad","fixation","","","img/fixation.png","null","","","test","","","","","","","","","","","","","","","","","","","",""
"345.6000000089407","252831","SARL_v6","SARL_v6xp78foud","5700616b8a49c7000d0c73ad","freq","","","img/blue_2bandit_a2.png","70","","70","test","1","","92","","","","square","circle","88","2","5","0.9659090909090909","","","","","","","",""
"null","253291","SARL_v6","SARL_v6xp78foud","5700616b8a49c7000d0c73ad","freq_resp","","","img/blue_2bandit_a.png","70","img/blue_2bandit_a.png","70","test","","","","","","","","","","","5","","","","","","","","",""
"null","253451","SARL_v6","SARL_v6xp78foud","5700616b8a49c7000d0c73ad","fixation","","","img/fixation.png","null","","","test","","","","","","","","","","","","","","","","","","","",""
"306.6000000089407","253759","SARL_v6","SARL_v6xp78foud","5700616b8a49c7000d0c73ad","freq","","","img/blue_2bandit_a2.png","70","","70","test","1","","93","","","","square","circle","89","3","5","0.9662921348314607","","","","","","","",""
"null","254260","SARL_v6","SARL_v6xp78foud","5700616b8a49c7000d0c73ad","freq_resp","","","img/blue_2bandit_a.png","70","img/blue_2bandit_a.png","70","test","","","","","","","","","","","5","","","","","","","","",""
"null","254417","SARL_v6","SARL_v6xp78foud","5700616b8a49c7000d0c73ad","fixation","","","img/fixation.png","null","","","test","","","","","","","","","","","","","","","","","","","",""
"188.59999999403954","254606","SARL_v6","SARL_v6xp78foud","5700616b8a49c7000d0c73ad","infreq","","","img/orange_2bandit_a2.png","70","","68","test","0","","94","","","","square","circle","90","4","5","0.9555555555555556","","","","","","","",""
"null","255225","SARL_v6","SARL_v6xp78foud","5700616b8a49c7000d0c73ad","infreq_resp","","","img/orange_2bandit_a.png","70","img/orange_2bandit_a.png","68","test","","","","","","","","","","","5","","","","","","","","",""
"null","255384","SARL_v6","SARL_v6xp78foud","5700616b8a49c7000d0c73ad","fixation","","","img/fixation.png","null","","","test","","","","","","","","","","","","","","","","","","","",""
"309","255695","SARL_v6","SARL_v6xp78foud","5700616b8a49c7000d0c73ad","freq","","","img/blue_2bandit_a2.png","70","","70","test","1","","95","","","","square","circle","91","5","5","0.9560439560439561","","","","","","","",""
"null","256192","SARL_v6","SARL_v6xp78foud","5700616b8a49c7000d0c73ad","freq_resp","","","img/blue_2bandit_a.png","70","img/blue_2bandit_a.png","70","test","","","","","","","","","","","5","","","","","","","","",""
"null","256349","SARL_v6","SARL_v6xp78foud","5700616b8a49c7000d0c73ad","fixation","","","img/fixation.png","null","","","test","","","","","","","","","","","","","","","","","","","",""
"296.70000000298023","256647","SARL_v6","SARL_v6xp78foud","5700616b8a49c7000d0c73ad","freq","","","img/blue_2bandit_a2.png","70","","70","test","1","","96","","","","square","circle","92","6","5","0.9565217391304348","","","","","","","",""
"null","257152","SARL_v6","SARL_v6xp78foud","5700616b8a49c7000d0c73ad","freq_resp","","","img/blue_2bandit_a.png","70","img/blue_2bandit_a.png","70","test","","","","","","","","","","","5","","","","","","","","",""
"null","257308","SARL_v6","SARL_v6xp78foud","5700616b8a49c7000d0c73ad","fixation","","","img/fixation.png","null","","","test","","","","","","","","","","","","","","","","","","","",""
"273.79999999701977","257583","SARL_v6","SARL_v6xp78foud","5700616b8a49c7000d0c73ad","freq","","","img/blue_2bandit_a2.png","70","","70","test","1","","97","","","","square","circle","93","7","5","0.956989247311828","","","","","","","",""
"null","258124","SARL_v6","SARL_v6xp78foud","5700616b8a49c7000d0c73ad","freq_resp","","","img/blue_2bandit_a.png","70","img/blue_2bandit_a.png","70","test","","","","","","","","","","","5","","","","","","","","",""
"null","258283","SARL_v6","SARL_v6xp78foud","5700616b8a49c7000d0c73ad","fixation","","","img/fixation.png","null","","","test","","","","","","","","","","","","","","","","","","","",""
"282.8999999910593","258567","SARL_v6","SARL_v6xp78foud","5700616b8a49c7000d0c73ad","freq","","","img/blue_2bandit_a2.png","70","","70","test","1","","98","","","","square","circle","94","8","5","0.9574468085106383","","","","","","","",""
"null","259088","SARL_v6","SARL_v6xp78foud","5700616b8a49c7000d0c73ad","freq_resp","","","img/blue_2bandit_a.png","70","img/blue_2bandit_a.png","70","test","","","","","","","","","","","5","","","","","","","","",""
"null","259243","SARL_v6","SARL_v6xp78foud","5700616b8a49c7000d0c73ad","fixation","","","img/fixation.png","null","","","test","","","","","","","","","","","","","","","","","","","",""
"274.20000000298023","259519","SARL_v6","SARL_v6xp78foud","5700616b8a49c7000d0c73ad","freq","","","img/blue_2bandit_a2.png","70","","70","test","1","","99","","","","square","circle","95","9","5","0.9578947368421052","","","","","","","",""
"null","260056","SARL_v6","SARL_v6xp78foud","5700616b8a49c7000d0c73ad","freq_resp","","","img/blue_2bandit_a.png","70","img/blue_2bandit_a.png","70","test","","","","","","","","","","","5","","","","","","","","",""
"null","260212","SARL_v6","SARL_v6xp78foud","5700616b8a49c7000d0c73ad","fixation","","","img/fixation.png","null","","","test","","","","","","","","","","","","","","","","","","","",""
"296.90000000596046","260511","SARL_v6","SARL_v6xp78foud","5700616b8a49c7000d0c73ad","freq","","","img/blue_2bandit_a2.png","70","","70","test","1","","100","","","","square","circle","96","10","5","0.9583333333333334","","","","","","","",""
"null","261026","SARL_v6","SARL_v6xp78foud","5700616b8a49c7000d0c73ad","freq_resp","","","img/blue_2bandit_a.png","70","img/blue_2bandit_a.png","70","test","","","","","","","","","","","5","","","","","","","","",""
"null","261183","SARL_v6","SARL_v6xp78foud","5700616b8a49c7000d0c73ad","fixation","","","img/fixation.png","null","","","test","","","","","","","","","","","","","","","","","","","",""
"302.1000000089407","261487","SARL_v6","SARL_v6xp78foud","5700616b8a49c7000d0c73ad","freq","","","img/blue_2bandit_a2.png","70","","70","test","1","","101","","","","square","circle","97","11","5","0.9587628865979382","","","","","","","",""
"null","261986","SARL_v6","SARL_v6xp78foud","5700616b8a49c7000d0c73ad","freq_resp","","","img/blue_2bandit_a.png","70","img/blue_2bandit_a.png","70","test","","","","","","","","","","","5","","","","","","","","",""
"null","262142","SARL_v6","SARL_v6xp78foud","5700616b8a49c7000d0c73ad","fixation","","","img/fixation.png","null","","","test","","","","","","","","","","","","","","","","","","","",""
"311.6000000089407","262455","SARL_v6","SARL_v6xp78foud","5700616b8a49c7000d0c73ad","infreq","","","img/orange_2bandit_a2.png","68","","68","test","1","","102","","","","square","circle","98","12","5","0.9591836734693877","","","","","","","",""
"null","262947","SARL_v6","SARL_v6xp78foud","5700616b8a49c7000d0c73ad","infreq_resp","","","img/orange_2bandit_a.png","68","img/orange_2bandit_a.png","68","test","","","","","","","","","","","5","","","","","","","","",""
"null","263104","SARL_v6","SARL_v6xp78foud","5700616b8a49c7000d0c73ad","fixation","","","img/fixation.png","null","","","test","","","","","","","","","","","","","","","","","","","",""
"309.30000001192093","263415","SARL_v6","SARL_v6xp78foud","5700616b8a49c7000d0c73ad","freq","","","img/blue_2bandit_a2.png","70","","70","test","1","","103","","","","square","circle","99","13","5","0.9595959595959596","","","","","","","",""
"null","263910","SARL_v6","SARL_v6xp78foud","5700616b8a49c7000d0c73ad","freq_resp","","","img/blue_2bandit_a.png","70","img/blue_2bandit_a.png","70","test","","","","","","","","","","","5","","","","","","","","",""
"null","264069","SARL_v6","SARL_v6xp78foud","5700616b8a49c7000d0c73ad","fixation","","","img/fixation.png","null","","","test","","","","","","","","","","","","","","","","","","","",""
"296.09999999403954","264367","SARL_v6","SARL_v6xp78foud","5700616b8a49c7000d0c73ad","freq","","","img/blue_2bandit_a2.png","70","","70","test","1","","104","","","","square","circle","100","14","5","0.96","","","","","","","",""
"null","264871","SARL_v6","SARL_v6xp78foud","5700616b8a49c7000d0c73ad","freq_resp","","","img/blue_2bandit_a.png","70","img/blue_2bandit_a.png","70","test","","","","","","","","","","","5","","","","","","","","",""
"null","265027","SARL_v6","SARL_v6xp78foud","5700616b8a49c7000d0c73ad","fixation","","","img/fixation.png","null","","","test","","","","","","","","","","","","","","","","","","","",""
"233.90000000596046","265263","SARL_v6","SARL_v6xp78foud","5700616b8a49c7000d0c73ad","freq","","","img/blue_2bandit_a2.png","70","","70","test","1","","105","","","","square","circle","101","15","5","0.9603960396039604","","","","","","","",""
"null","265845","SARL_v6","SARL_v6xp78foud","5700616b8a49c7000d0c73ad","freq_resp","","","img/blue_2bandit_a.png","70","img/blue_2bandit_a.png","70","test","","","","","","","","","","","5","","","","","","","","",""
"null","266002","SARL_v6","SARL_v6xp78foud","5700616b8a49c7000d0c73ad","fixation","","","img/fixation.png","null","","","test","","","","","","","","","","","","","","","","","","","",""
"243.79999999701977","266247","SARL_v6","SARL_v6xp78foud","5700616b8a49c7000d0c73ad","freq","","","img/blue_2bandit_a2.png","70","","70","test","1","","106","","","","square","circle","102","16","5","0.9607843137254902","","","","","","","",""
"null","266820","SARL_v6","SARL_v6xp78foud","5700616b8a49c7000d0c73ad","freq_resp","","","img/blue_2bandit_a.png","70","img/blue_2bandit_a.png","70","test","","","","","","","","","","","5","","","","","","","","",""
"null","266977","SARL_v6","SARL_v6xp78foud","5700616b8a49c7000d0c73ad","fixation","","","img/fixation.png","null","","","test","","","","","","","","","","","","","","","","","","","",""
"284.69999998807907","267263","SARL_v6","SARL_v6xp78foud","5700616b8a49c7000d0c73ad","freq","","","img/blue_2bandit_a2.png","70","","70","test","1","","107","","","","square","circle","103","17","5","0.9611650485436893","","","","","","","",""
"null","267795","SARL_v6","SARL_v6xp78foud","5700616b8a49c7000d0c73ad","freq_resp","","","img/blue_2bandit_a.png","70","img/blue_2bandit_a.png","70","test","","","","","","","","","","","5","","","","","","","","",""
"null","267954","SARL_v6","SARL_v6xp78foud","5700616b8a49c7000d0c73ad","fixation","","","img/fixation.png","null","","","test","","","","","","","","","","","","","","","","","","","",""
"308.1000000089407","268263","SARL_v6","SARL_v6xp78foud","5700616b8a49c7000d0c73ad","freq","","","img/blue_2bandit_a2.png","70","","70","test","1","","108","","","","square","circle","104","18","5","0.9615384615384616","","","","","","","",""
"null","268758","SARL_v6","SARL_v6xp78foud","5700616b8a49c7000d0c73ad","freq_resp","","","img/blue_2bandit_a.png","70","img/blue_2bandit_a.png","70","test","","","","","","","","","","","5","","","","","","","","",""
"null","268914","SARL_v6","SARL_v6xp78foud","5700616b8a49c7000d0c73ad","fixation","","","img/fixation.png","null","","","test","","","","","","","","","","","","","","","","","","","",""
"291.3999999910593","269207","SARL_v6","SARL_v6xp78foud","5700616b8a49c7000d0c73ad","freq","","","img/blue_2bandit_a2.png","70","","70","test","1","","109","","","","square","circle","105","19","5","0.9619047619047619","","","","","","","",""
"null","269730","SARL_v6","SARL_v6xp78foud","5700616b8a49c7000d0c73ad","freq_resp","","","img/blue_2bandit_a.png","70","img/blue_2bandit_a.png","70","test","","","","","","","","","","","5","","","","","","","","",""
"null","269887","SARL_v6","SARL_v6xp78foud","5700616b8a49c7000d0c73ad","fixation","","","img/fixation.png","null","","","test","","","","","","","","","","","","","","","","","","","",""
"294.29999999701977","270183","SARL_v6","SARL_v6xp78foud","5700616b8a49c7000d0c73ad","freq","","","img/blue_2bandit_a2.png","70","","70","test","1","","110","","","","square","circle","106","20","5","0.9622641509433962","","","","","","","",""
"null","270697","SARL_v6","SARL_v6xp78foud","5700616b8a49c7000d0c73ad","freq_resp","","","img/blue_2bandit_a.png","70","img/blue_2bandit_a.png","70","test","","","","","","","","","","","5","","","","","","","","",""
"null","270854","SARL_v6","SARL_v6xp78foud","5700616b8a49c7000d0c73ad","fixation","","","img/fixation.png","null","","","test","","","","","","","","","","","","","","","","","","","",""
"319.3999999910593","271174","SARL_v6","SARL_v6xp78foud","5700616b8a49c7000d0c73ad","freq","","","img/blue_2bandit_a2.png","70","","70","test","1","","111","","","","square","circle","107","21","5","0.9626168224299065","","","","","","","",""
"null","271659","SARL_v6","SARL_v6xp78foud","5700616b8a49c7000d0c73ad","freq_resp","","","img/blue_2bandit_a.png","70","img/blue_2bandit_a.png","70","test","","","","","","","","","","","5","","","","","","","","",""
"null","271818","SARL_v6","SARL_v6xp78foud","5700616b8a49c7000d0c73ad","fixation","","","img/fixation.png","null","","","test","","","","","","","","","","","","","","","","","","","",""
"299.1000000089407","272119","SARL_v6","SARL_v6xp78foud","5700616b8a49c7000d0c73ad","freq","","","img/blue_2bandit_a2.png","70","","70","test","1","","112","","","","square","circle","108","22","5","0.9629629629629629","","","","","","","",""
"null","272622","SARL_v6","SARL_v6xp78foud","5700616b8a49c7000d0c73ad","freq_resp","","","img/blue_2bandit_a.png","70","img/blue_2bandit_a.png","70","test","","","","","","","","","","","5","","","","","","","","",""
"null","272781","SARL_v6","SARL_v6xp78foud","5700616b8a49c7000d0c73ad","fixation","","","img/fixation.png","null","","","test","","","","","","","","","","","","","","","","","","","",""
"344.59999999403954","273127","SARL_v6","SARL_v6xp78foud","5700616b8a49c7000d0c73ad","freq","","","img/blue_2bandit_a2.png","70","","70","test","1","","113","","","","square","circle","109","23","5","0.963302752293578","","","","","","","",""
"null","273589","SARL_v6","SARL_v6xp78foud","5700616b8a49c7000d0c73ad","freq_resp","","","img/blue_2bandit_a.png","70","img/blue_2bandit_a.png","70","test","","","","","","","","","","","5","","","","","","","","",""
"null","273747","SARL_v6","SARL_v6xp78foud","5700616b8a49c7000d0c73ad","fixation","","","img/fixation.png","null","","","test","","","","","","","","","","","","","","","","","","","",""
"722.2000000029802","274471","SARL_v6","SARL_v6xp78foud","5700616b8a49c7000d0c73ad","rl","","","img/black_2bandit_a2.png","74","","0","test","","","114","","","-7","square","circle","","0","5","","74","4","-7","-7","4","square","5","0"
"null","275232","SARL_v6","SARL_v6xp78foud","5700616b8a49c7000d0c73ad","feedback","","","<div class=""verylowPoints_sq""> -7 </div>","null","","na","test","","","NaN","","","","","","","","5","","74","","","","","","5",""
"389.30000001192093","275623","SARL_v6","SARL_v6xp78foud","5700616b8a49c7000d0c73ad","freq","","","img/blue_2bandit_a2.png","70","","70","test","1","","115","","","","square","circle","110","1","6","0.9636363636363636","","","","","","","",""
"null","276035","SARL_v6","SARL_v6xp78foud","5700616b8a49c7000d0c73ad","freq_resp","","","img/blue_2bandit_a.png","70","img/blue_2bandit_a.png","70","test","","","","","","","","","","","6","","","","","","","","",""
"null","276194","SARL_v6","SARL_v6xp78foud","5700616b8a49c7000d0c73ad","fixation","","","img/fixation.png","null","","","test","","","","","","","","","","","","","","","","","","","",""
"283.20000000298023","276478","SARL_v6","SARL_v6xp78foud","5700616b8a49c7000d0c73ad","freq","","","img/blue_2bandit_a2.png","70","","70","test","1","","116","","","","square","circle","111","2","6","0.963963963963964","","","","","","","",""
"null","277012","SARL_v6","SARL_v6xp78foud","5700616b8a49c7000d0c73ad","freq_resp","","","img/blue_2bandit_a.png","70","img/blue_2bandit_a.png","70","test","","","","","","","","","","","6","","","","","","","","",""
"null","277170","SARL_v6","SARL_v6xp78foud","5700616b8a49c7000d0c73ad","fixation","","","img/fixation.png","null","","","test","","","","","","","","","","","","","","","","","","","",""
"267.59999999403954","277439","SARL_v6","SARL_v6xp78foud","5700616b8a49c7000d0c73ad","freq","","","img/blue_2bandit_a2.png","70","","70","test","1","","117","","","","square","circle","112","3","6","0.9642857142857143","","","","","","","",""
"null","277972","SARL_v6","SARL_v6xp78foud","5700616b8a49c7000d0c73ad","freq_resp","","","img/blue_2bandit_a.png","70","img/blue_2bandit_a.png","70","test","","","","","","","","","","","6","","","","","","","","",""
"null","278130","SARL_v6","SARL_v6xp78foud","5700616b8a49c7000d0c73ad","fixation","","","img/fixation.png","null","","","test","","","","","","","","","","","","","","","","","","","",""
"275.20000000298023","278407","SARL_v6","SARL_v6xp78foud","5700616b8a49c7000d0c73ad","freq","","","img/blue_2bandit_a2.png","70","","70","test","1","","118","","","","square","circle","113","4","6","0.9646017699115044","","","","","","","",""
"null","278944","SARL_v6","SARL_v6xp78foud","5700616b8a49c7000d0c73ad","freq_resp","","","img/blue_2bandit_a.png","70","img/blue_2bandit_a.png","70","test","","","","","","","","","","","6","","","","","","","","",""
"null","279101","SARL_v6","SARL_v6xp78foud","5700616b8a49c7000d0c73ad","fixation","","","img/fixation.png","null","","","test","","","","","","","","","","","","","","","","","","","",""
"248.29999999701977","279351","SARL_v6","SARL_v6xp78foud","5700616b8a49c7000d0c73ad","freq","","","img/blue_2bandit_a2.png","70","","70","test","1","","119","","","","square","circle","114","5","6","0.9649122807017544","","","","","","","",""
"null","279916","SARL_v6","SARL_v6xp78foud","5700616b8a49c7000d0c73ad","freq_resp","","","img/blue_2bandit_a.png","70","img/blue_2bandit_a.png","70","test","","","","","","","","","","","6","","","","","","","","",""
"null","280073","SARL_v6","SARL_v6xp78foud","5700616b8a49c7000d0c73ad","fixation","","","img/fixation.png","null","","","test","","","","","","","","","","","","","","","","","","","",""
"380","280454","SARL_v6","SARL_v6xp78foud","5700616b8a49c7000d0c73ad","infreq","","","img/orange_2bandit_a2.png","68","","68","test","1","","120","","","","square","circle","115","6","6","0.9652173913043478","","","","","","","",""
"null","280886","SARL_v6","SARL_v6xp78foud","5700616b8a49c7000d0c73ad","infreq_resp","","","img/orange_2bandit_a.png","68","img/orange_2bandit_a.png","68","test","","","","","","","","","","","6","","","","","","","","",""
"null","281042","SARL_v6","SARL_v6xp78foud","5700616b8a49c7000d0c73ad","fixation","","","img/fixation.png","null","","","test","","","","","","","","","","","","","","","","","","","",""
"330.80000001192093","281375","SARL_v6","SARL_v6xp78foud","5700616b8a49c7000d0c73ad","freq","","","img/blue_2bandit_a2.png","70","","70","test","1","","121","","","","square","circle","116","7","6","0.9655172413793104","","","","","","","",""
"null","281857","SARL_v6","SARL_v6xp78foud","5700616b8a49c7000d0c73ad","freq_resp","","","img/blue_2bandit_a.png","70","img/blue_2bandit_a.png","70","test","","","","","","","","","","","6","","","","","","","","",""
"null","282013","SARL_v6","SARL_v6xp78foud","5700616b8a49c7000d0c73ad","fixation","","","img/fixation.png","null","","","test","","","","","","","","","","","","","","","","","","","",""
"232","282247","SARL_v6","SARL_v6xp78foud","5700616b8a49c7000d0c73ad","freq","","","img/blue_2bandit_a2.png","70","","70","test","1","","122","","","","square","circle","117","8","6","0.9658119658119658","","","","","","","",""
"null","282821","SARL_v6","SARL_v6xp78foud","5700616b8a49c7000d0c73ad","freq_resp","","","img/blue_2bandit_a.png","70","img/blue_2bandit_a.png","70","test","","","","","","","","","","","6","","","","","","","","",""
"null","282980","SARL_v6","SARL_v6xp78foud","5700616b8a49c7000d0c73ad","fixation","","","img/fixation.png","null","","","test","","","","","","","","","","","","","","","","","","","",""
"137.70000000298023","283119","SARL_v6","SARL_v6xp78foud","5700616b8a49c7000d0c73ad","infreq","","","img/orange_2bandit_a2.png","70","","68","test","0","","123","","","","square","circle","118","9","6","0.9576271186440678","","","","","","","",""
"null","283786","SARL_v6","SARL_v6xp78foud","5700616b8a49c7000d0c73ad","infreq_resp","","","img/orange_2bandit_a.png","70","img/orange_2bandit_a.png","68","test","","","","","","","","","","","6","","","","","","","","",""
"null","283941","SARL_v6","SARL_v6xp78foud","5700616b8a49c7000d0c73ad","fixation","","","img/fixation.png","null","","","test","","","","","","","","","","","","","","","","","","","",""
"407.8999999910593","284350","SARL_v6","SARL_v6xp78foud","5700616b8a49c7000d0c73ad","freq","","","img/blue_2bandit_a2.png","70","","70","test","1","","124","","","","square","circle","119","10","6","0.957983193277311","","","","","","","",""
"null","284748","SARL_v6","SARL_v6xp78foud","5700616b8a49c7000d0c73ad","freq_resp","","","img/blue_2bandit_a.png","70","img/blue_2bandit_a.png","70","test","","","","","","","","","","","6","","","","","","","","",""
"null","284907","SARL_v6","SARL_v6xp78foud","5700616b8a49c7000d0c73ad","fixation","","","img/fixation.png","null","","","test","","","","","","","","","","","","","","","","","","","",""
"314.3999999910593","285223","SARL_v6","SARL_v6xp78foud","5700616b8a49c7000d0c73ad","freq","","","img/blue_2bandit_a2.png","70","","70","test","1","","125","","","","square","circle","120","11","6","0.9583333333333334","","","","","","","",""
"null","285723","SARL_v6","SARL_v6xp78foud","5700616b8a49c7000d0c73ad","freq_resp","","","img/blue_2bandit_a.png","70","img/blue_2bandit_a.png","70","test","","","","","","","","","","","6","","","","","","","","",""
"null","285883","SARL_v6","SARL_v6xp78foud","5700616b8a49c7000d0c73ad","fixation","","","img/fixation.png","null","","","test","","","","","","","","","","","","","","","","","","","",""
"234.40000000596046","286119","SARL_v6","SARL_v6xp78foud","5700616b8a49c7000d0c73ad","freq","","","img/blue_2bandit_a2.png","70","","70","test","1","","126","","","","square","circle","121","12","6","0.9586776859504132","","","","","","","",""
"null","286690","SARL_v6","SARL_v6xp78foud","5700616b8a49c7000d0c73ad","freq_resp","","","img/blue_2bandit_a.png","70","img/blue_2bandit_a.png","70","test","","","","","","","","","","","6","","","","","","","","",""
"null","286845","SARL_v6","SARL_v6xp78foud","5700616b8a49c7000d0c73ad","fixation","","","img/fixation.png","null","","","test","","","","","","","","","","","","","","","","","","","",""
"288.40000000596046","287135","SARL_v6","SARL_v6xp78foud","5700616b8a49c7000d0c73ad","freq","","","img/blue_2bandit_a2.png","70","","70","test","1","","127","","","","square","circle","122","13","6","0.9590163934426229","","","","","","","",""
"null","287653","SARL_v6","SARL_v6xp78foud","5700616b8a49c7000d0c73ad","freq_resp","","","img/blue_2bandit_a.png","70","img/blue_2bandit_a.png","70","test","","","","","","","","","","","6","","","","","","","","",""
"null","287809","SARL_v6","SARL_v6xp78foud","5700616b8a49c7000d0c73ad","fixation","","","img/fixation.png","null","","","test","","","","","","","","","","","","","","","","","","","",""
"276.20000000298023","288087","SARL_v6","SARL_v6xp78foud","5700616b8a49c7000d0c73ad","freq","","","img/blue_2bandit_a2.png","70","","70","test","1","","128","","","","square","circle","123","14","6","0.959349593495935","","","","","","","",""
"null","288624","SARL_v6","SARL_v6xp78foud","5700616b8a49c7000d0c73ad","freq_resp","","","img/blue_2bandit_a.png","70","img/blue_2bandit_a.png","70","test","","","","","","","","","","","6","","","","","","","","",""
"null","288783","SARL_v6","SARL_v6xp78foud","5700616b8a49c7000d0c73ad","fixation","","","img/fixation.png","null","","","test","","","","","","","","","","","","","","","","","","","",""
"285.8999999910593","289070","SARL_v6","SARL_v6xp78foud","5700616b8a49c7000d0c73ad","freq","","","img/blue_2bandit_a2.png","70","","70","test","1","","129","","","","square","circle","124","15","6","0.9596774193548387","","","","","","","",""
