"rt","time_elapsed","expId","subject","prolificID","trialType","rlType","attType","stimulus","key_press","stim","corrresp","phase","corr","pracCounter","trialNum","rewardOne","rewardTwo","reward","bandOne","bandTwo","attentionNum","attentionRunNum","blockNum","performance","bandChosen","circleVal","squareVal","bandOneVal","bandTwoVal","shapeChosen","rlNum","badFlag"
"5075.900000035763","5080","SARL_v6","SARL_v6v2ans024","62964d27c2b2866faa677493","","","","","","","","","","","","","","","","","","","","","","","","","","","",""
"","8649","SARL_v6","SARL_v6v2ans024","62964d27c2b2866faa677493","fullscreen","fullscreen","fullscreen","","","","","","","","","","","","","","","","","","","","","","","","",""
"31249.299999952316","39900","SARL_v6","SARL_v6v2ans024","62964d27c2b2866faa677493","","","","","","","","","","","","","","","","","","","","","","","","","","","",""
"null","40704","SARL_v6","SARL_v6v2ans024","62964d27c2b2866faa677493","freqPrac","","","img/blue_2bandit_a2.png","null","img/blue_2bandit_a2.png","70","prac","0","1","","","","","","","","","","","","","","","","","",""
"null","41708","SARL_v6","SARL_v6v2ans024","62964d27c2b2866faa677493","feedback","","","img/tooSlow.png","null","","na","prac","","","","","","","","","","","","","","","","","","","",""
"null","41861","SARL_v6","SARL_v6v2ans024","62964d27c2b2866faa677493","fixation","","","img/fixation.png","null","","","prac","","","","","","","","","","","","","","","","","","","",""
"537.3000000119209","42399","SARL_v6","SARL_v6v2ans024","62964d27c2b2866faa677493","infreqPrac","","","img/orange_2bandit_a2.png","68","img/orange_2bandit_a2.png","68","prac","1","1","","","","","","","","","","","","","","","","","",""
"537.3000000119209","42665","SARL_v6","SARL_v6v2ans024","62964d27c2b2866faa677493","infreqPrac_resp","","","img/orange_2bandit_a.png","68","img/orange_2bandit_a.png","68","prac","","","","","","","","","","","","","","","","","","","",""
"null","42817","SARL_v6","SARL_v6v2ans024","62964d27c2b2866faa677493","fixation","","","img/fixation.png","null","","","prac","","","","","","","","","","","","","","","","","","","",""
"493.30000001192093","43311","SARL_v6","SARL_v6v2ans024","62964d27c2b2866faa677493","freqPrac","","","img/blue_2bandit_a2.png","70","img/blue_2bandit_a2.png","70","prac","1","1","","","","","","","","","","","","","","","","","",""
"493.30000001192093","43621","SARL_v6","SARL_v6v2ans024","62964d27c2b2866faa677493","freqPrac_resp","","","img/blue_2bandit_a.png","70","img/blue_2bandit_a.png","70","prac","","","","","","","","","","","","","","","","","","","",""
"null","43773","SARL_v6","SARL_v6v2ans024","62964d27c2b2866faa677493","fixation","","","img/fixation.png","null","","","prac","","","","","","","","","","","","","","","","","","","",""
"679.9000000357628","44454","SARL_v6","SARL_v6v2ans024","62964d27c2b2866faa677493","infreqPrac","","","img/orange_2bandit_a2.png","68","img/orange_2bandit_a2.png","68","prac","1","1","","","","","","","","","","","","","","","","","",""
"679.9000000357628","44576","SARL_v6","SARL_v6v2ans024","62964d27c2b2866faa677493","infreqPrac_resp","","","img/orange_2bandit_a.png","68","img/orange_2bandit_a.png","68","prac","","","","","","","","","","","","","","","","","","","",""
"null","44728","SARL_v6","SARL_v6v2ans024","62964d27c2b2866faa677493","fixation","","","img/fixation.png","null","","","prac","","","","","","","","","","","","","","","","","","","",""
"519.6999999880791","45250","SARL_v6","SARL_v6v2ans024","62964d27c2b2866faa677493","infreqPrac","","","img/orange_2bandit_a2.png","68","img/orange_2bandit_a2.png","68","prac","1","1","","","","","","","","","","","","","","","","","",""
"519.6999999880791","45532","SARL_v6","SARL_v6v2ans024","62964d27c2b2866faa677493","infreqPrac_resp","","","img/orange_2bandit_a.png","68","img/orange_2bandit_a.png","68","prac","","","","","","","","","","","","","","","","","","","",""
"null","45684","SARL_v6","SARL_v6v2ans024","62964d27c2b2866faa677493","fixation","","","img/fixation.png","null","","","prac","","","","","","","","","","","","","","","","","","","",""
"488.60000002384186","46174","SARL_v6","SARL_v6v2ans024","62964d27c2b2866faa677493","infreqPrac","","","img/orange_2bandit_a2.png","68","img/orange_2bandit_a2.png","68","prac","1","1","","","","","","","","","","","","","","","","","",""
"488.60000002384186","46489","SARL_v6","SARL_v6v2ans024","62964d27c2b2866faa677493","infreqPrac_resp","","","img/orange_2bandit_a.png","68","img/orange_2bandit_a.png","68","prac","","","","","","","","","","","","","","","","","","","",""
"null","46641","SARL_v6","SARL_v6v2ans024","62964d27c2b2866faa677493","fixation","","","img/fixation.png","null","","","prac","","","","","","","","","","","","","","","","","","","",""
"393.5","47035","SARL_v6","SARL_v6v2ans024","62964d27c2b2866faa677493","freqPrac","","","img/blue_2bandit_a2.png","70","img/blue_2bandit_a2.png","70","prac","1","1","","","","","","","","","","","","","","","","","",""
"393.5","47445","SARL_v6","SARL_v6v2ans024","62964d27c2b2866faa677493","freqPrac_resp","","","img/blue_2bandit_a.png","70","img/blue_2bandit_a.png","70","prac","","","","","","","","","","","","","","","","","","","",""
"null","47597","SARL_v6","SARL_v6v2ans024","62964d27c2b2866faa677493","fixation","","","img/fixation.png","null","","","prac","","","","","","","","","","","","","","","","","","","",""
"393.2000000476837","47991","SARL_v6","SARL_v6v2ans024","62964d27c2b2866faa677493","infreqPrac","","","img/orange_2bandit_a2.png","68","img/orange_2bandit_a2.png","68","prac","1","1","","","","","","","","","","","","","","","","","",""
"393.2000000476837","48401","SARL_v6","SARL_v6v2ans024","62964d27c2b2866faa677493","infreqPrac_resp","","","img/orange_2bandit_a.png","68","img/orange_2bandit_a.png","68","prac","","","","","","","","","","","","","","","","","","","",""
"null","48553","SARL_v6","SARL_v6v2ans024","62964d27c2b2866faa677493","fixation","","","img/fixation.png","null","","","prac","","","","","","","","","","","","","","","","","","","",""
"483.89999997615814","49038","SARL_v6","SARL_v6v2ans024","62964d27c2b2866faa677493","freqPrac","","","img/blue_2bandit_a2.png","70","img/blue_2bandit_a2.png","70","prac","1","1","","","","","","","","","","","","","","","","","",""
"483.89999997615814","49356","SARL_v6","SARL_v6v2ans024","62964d27c2b2866faa677493","freqPrac_resp","","","img/blue_2bandit_a.png","70","img/blue_2bandit_a.png","70","prac","","","","","","","","","","","","","","","","","","","",""
"null","49508","SARL_v6","SARL_v6v2ans024","62964d27c2b2866faa677493","fixation","","","img/fixation.png","null","","","prac","","","","","","","","","","","","","","","","","","","",""
"394.7000000476837","49904","SARL_v6","SARL_v6v2ans024","62964d27c2b2866faa677493","freqPrac","","","img/blue_2bandit_a2.png","70","img/blue_2bandit_a2.png","70","prac","1","1","","","","","","","","","","","","","","","","","",""
"394.7000000476837","50312","SARL_v6","SARL_v6v2ans024","62964d27c2b2866faa677493","freqPrac_resp","","","img/blue_2bandit_a.png","70","img/blue_2bandit_a.png","70","prac","","","","","","","","","","","","","","","","","","","",""
"null","50464","SARL_v6","SARL_v6v2ans024","62964d27c2b2866faa677493","fixation","","","img/fixation.png","null","","","prac","","","","","","","","","","","","","","","","","","","",""
"19334.19999998808","69800","SARL_v6","SARL_v6v2ans024","62964d27c2b2866faa677493","","","","","","","","prac","","","","","","","","","","","","","","","","","","","",""
"null","71304","SARL_v6","SARL_v6v2ans024","62964d27c2b2866faa677493","rlPractice","","","img/black_2bandit_a2.png","null","img/black_2bandit_a2.png","","prac","","","0","","","","","","","","","","","","","","","","",""
"null","72057","SARL_v6","SARL_v6v2ans024","62964d27c2b2866faa677493","feedback","","","<div font size = 80> TOO SLOW  </div>","null","","na","prac","","","1","10","-14","10","","","","","","","","","","","","","",""
"null","72208","SARL_v6","SARL_v6v2ans024","62964d27c2b2866faa677493","fixation","","","img/fixation.png","null","","","prac","","","","","","","","","","","","","","","","","","","",""
"null","73713","SARL_v6","SARL_v6v2ans024","62964d27c2b2866faa677493","rlPractice","","","img/black_2bandit_a2.png","null","img/black_2bandit_a2.png","","prac","","","1","","","","","","","","","","","","","","","","",""
"null","74465","SARL_v6","SARL_v6v2ans024","62964d27c2b2866faa677493","feedback","","","<div font size = 80> TOO SLOW  </div>","null","","na","prac","","","2","5","-5","5","","","","","","","","","","","","","",""
"null","74617","SARL_v6","SARL_v6v2ans024","62964d27c2b2866faa677493","fixation","","","img/fixation.png","null","","","prac","","","","","","","","","","","","","","","","","","","",""
"null","76120","SARL_v6","SARL_v6v2ans024","62964d27c2b2866faa677493","rlPractice","","","img/black_2bandit_a2.png","null","img/black_2bandit_a2.png","","prac","","","2","","","","","","","","","","","","","","","","",""
"null","76872","SARL_v6","SARL_v6v2ans024","62964d27c2b2866faa677493","feedback","","","<div font size = 80> TOO SLOW  </div>","null","","na","prac","","","3","30","2","30","","","","","","","","","","","","","",""
"null","77024","SARL_v6","SARL_v6v2ans024","62964d27c2b2866faa677493","fixation","","","img/fixation.png","null","","","prac","","","","","","","","","","","","","","","","","","","",""
"null","78529","SARL_v6","SARL_v6v2ans024","62964d27c2b2866faa677493","rlPractice","","","img/black_2bandit_a2.png","null","img/black_2bandit_a2.png","","prac","","","3","","","","","","","","","","","","","","","","",""
"null","79281","SARL_v6","SARL_v6v2ans024","62964d27c2b2866faa677493","feedback","","","<div font size = 80> TOO SLOW  </div>","null","","na","prac","","","4","-2","20","-2","","","","","","","","","","","","","",""
"null","79433","SARL_v6","SARL_v6v2ans024","62964d27c2b2866faa677493","fixation","","","img/fixation.png","null","","","prac","","","","","","","","","","","","","","","","","","","",""
"21327.400000035763","100761","SARL_v6","SARL_v6v2ans024","62964d27c2b2866faa677493","","","","","","","","prac","","","","","","","","","","","","","","","","","","","",""
"553.3999999761581","101317","SARL_v6","SARL_v6v2ans024","62964d27c2b2866faa677493","mixAttFreqPrac","","","img/blue_2bandit_a2.png","70","img/blue_2bandit_a2.png","70","prac","","","1","","","","","","","","","","","","","","","","",""
"553.3999999761581","101565","SARL_v6","SARL_v6v2ans024","62964d27c2b2866faa677493","freqPrac_resp","","","img/blue_2bandit_a.png","70","img/blue_2bandit_a.png","70","prac","","","1","","","","","","","","","","","","","","","","",""
"null","101717","SARL_v6","SARL_v6v2ans024","62964d27c2b2866faa677493","fixation","","","img/fixation.png","null","","","prac","","","","","","","","","","","","","","","","","","","",""
"664.8999999761581","102383","SARL_v6","SARL_v6v2ans024","62964d27c2b2866faa677493","mixAttInfreqPrac","","","img/orange_2bandit_a2.png","68","img/orange_2bandit_a2.png","68","prac","","","2","","","","","","","","","","","","","","","","",""
"664.8999999761581","102520","SARL_v6","SARL_v6v2ans024","62964d27c2b2866faa677493","infreqPrac_resp","","","img/orange_2bandit_a.png","68","img/blue_2bandit_a.png","68","prac","","","2","","","","","","","","","","","","","","","","",""
"null","102672","SARL_v6","SARL_v6v2ans024","62964d27c2b2866faa677493","fixation","","","img/fixation.png","null","","","prac","","","","","","","","","","","","","","","","","","","",""
"741.6999999880791","103415","SARL_v6","SARL_v6v2ans024","62964d27c2b2866faa677493","mixAttInfreqPrac","","","img/orange_2bandit_a2.png","68","img/orange_2bandit_a2.png","68","prac","","","3","","","","","","","","","","","","","","","","",""
"741.6999999880791","103476","SARL_v6","SARL_v6v2ans024","62964d27c2b2866faa677493","infreqPrac_resp","","","img/orange_2bandit_a.png","68","img/blue_2bandit_a.png","68","prac","","","3","","","","","","","","","","","","","","","","",""
"null","103629","SARL_v6","SARL_v6v2ans024","62964d27c2b2866faa677493","fixation","","","img/fixation.png","null","","","prac","","","","","","","","","","","","","","","","","","","",""
"415.0999999642372","104045","SARL_v6","SARL_v6v2ans024","62964d27c2b2866faa677493","mixAttInfreqPrac","","","img/orange_2bandit_a2.png","68","img/orange_2bandit_a2.png","68","prac","","","4","","","","","","","","","","","","","","","","",""
"415.0999999642372","104433","SARL_v6","SARL_v6v2ans024","62964d27c2b2866faa677493","infreqPrac_resp","","","img/orange_2bandit_a.png","68","img/blue_2bandit_a.png","68","prac","","","4","","","","","","","","","","","","","","","","",""
"null","104585","SARL_v6","SARL_v6v2ans024","62964d27c2b2866faa677493","fixation","","","img/fixation.png","null","","","prac","","","","","","","","","","","","","","","","","","","",""
"681.3000000119209","105268","SARL_v6","SARL_v6v2ans024","62964d27c2b2866faa677493","mixAttFreqPrac","","","img/blue_2bandit_a2.png","70","img/blue_2bandit_a2.png","70","prac","","","5","","","","","","","","","","","","","","","","",""
"681.3000000119209","105389","SARL_v6","SARL_v6v2ans024","62964d27c2b2866faa677493","freqPrac_resp","","","img/blue_2bandit_a.png","70","img/blue_2bandit_a.png","70","prac","","","5","","","","","","","","","","","","","","","","",""
"null","105541","SARL_v6","SARL_v6v2ans024","62964d27c2b2866faa677493","fixation","","","img/fixation.png","null","","","prac","","","","","","","","","","","","","","","","","","","",""
"608.3000000119209","106151","SARL_v6","SARL_v6v2ans024","62964d27c2b2866faa677493","mixRLPractice","","","img/black_2bandit_a2.png","75","img/black_2bandit_a2.png","","prac","","","5","","","","","","","","","","","","","","","","",""
"null","106904","SARL_v6","SARL_v6v2ans024","62964d27c2b2866faa677493","feedback","","","<div class=""verylowPoints""> -14 </div>","null","","na","prac","","","6","-14","10","-14","","","","","","","","","","","","","",""
"null","107056","SARL_v6","SARL_v6v2ans024","62964d27c2b2866faa677493","fixation","","","img/fixation.png","null","","","prac","","","","","","","","","","","","","","","","","","","",""
"597.6999999880791","107655","SARL_v6","SARL_v6v2ans024","62964d27c2b2866faa677493","mixAttFreqPrac","","","img/blue_2bandit_a2.png","70","img/blue_2bandit_a2.png","70","prac","","","7","","","","","","","","","","","","","","","","",""
"597.6999999880791","107860","SARL_v6","SARL_v6v2ans024","62964d27c2b2866faa677493","freqPrac_resp","","","img/blue_2bandit_a.png","70","img/blue_2bandit_a.png","70","prac","","","7","","","","","","","","","","","","","","","","",""
"null","108012","SARL_v6","SARL_v6v2ans024","62964d27c2b2866faa677493","fixation","","","img/fixation.png","null","","","prac","","","","","","","","","","","","","","","","","","","",""
"715.7000000476837","108729","SARL_v6","SARL_v6v2ans024","62964d27c2b2866faa677493","mixAttInfreqPrac","","","img/orange_2bandit_a2.png","68","img/orange_2bandit_a2.png","68","prac","","","8","","","","","","","","","","","","","","","","",""
"715.7000000476837","108817","SARL_v6","SARL_v6v2ans024","62964d27c2b2866faa677493","infreqPrac_resp","","","img/orange_2bandit_a.png","68","img/blue_2bandit_a.png","68","prac","","","8","","","","","","","","","","","","","","","","",""
"null","108969","SARL_v6","SARL_v6v2ans024","62964d27c2b2866faa677493","fixation","","","img/fixation.png","null","","","prac","","","","","","","","","","","","","","","","","","","",""
"700.1999999880791","109670","SARL_v6","SARL_v6v2ans024","62964d27c2b2866faa677493","mixAttFreqPrac","","","img/blue_2bandit_a2.png","70","img/blue_2bandit_a2.png","70","prac","","","9","","","","","","","","","","","","","","","","",""
"700.1999999880791","109773","SARL_v6","SARL_v6v2ans024","62964d27c2b2866faa677493","freqPrac_resp","","","img/blue_2bandit_a.png","70","img/blue_2bandit_a.png","70","prac","","","9","","","","","","","","","","","","","","","","",""
"null","109925","SARL_v6","SARL_v6v2ans024","62964d27c2b2866faa677493","fixation","","","img/fixation.png","null","","","prac","","","","","","","","","","","","","","","","","","","",""
"614.1000000238419","110540","SARL_v6","SARL_v6v2ans024","62964d27c2b2866faa677493","mixAttFreqPrac","","","img/blue_2bandit_a2.png","70","img/blue_2bandit_a2.png","70","prac","","","10","","","","","","","","","","","","","","","","",""
"614.1000000238419","110729","SARL_v6","SARL_v6v2ans024","62964d27c2b2866faa677493","freqPrac_resp","","","img/blue_2bandit_a.png","70","img/blue_2bandit_a.png","70","prac","","","10","","","","","","","","","","","","","","","","",""
"null","110881","SARL_v6","SARL_v6v2ans024","62964d27c2b2866faa677493","fixation","","","img/fixation.png","null","","","prac","","","","","","","","","","","","","","","","","","","",""
"null","111684","SARL_v6","SARL_v6v2ans024","62964d27c2b2866faa677493","mixAttInfreqPrac","","","img/orange_2bandit_a2.png","null","img/orange_2bandit_a2.png","68","prac","","","11","","","","","","","","","","","","","","","","",""
"null","111836","SARL_v6","SARL_v6v2ans024","62964d27c2b2866faa677493","fixation","","","img/fixation.png","null","","","prac","","","","","","","","","","","","","","","","","","","",""
"943.5999999642372","112781","SARL_v6","SARL_v6v2ans024","62964d27c2b2866faa677493","mixRLPractice","","","img/black_2bandit_a2.png","74","img/black_2bandit_a2.png","","prac","","","11","","","","","","","","","","","","","","","","",""
"null","113533","SARL_v6","SARL_v6v2ans024","62964d27c2b2866faa677493","feedback","","","<div class=""verylowPoints_sq""> -5 </div>","null","","na","prac","","","12","5","-5","5","","","","","","","","","","","","","",""
"null","113685","SARL_v6","SARL_v6v2ans024","62964d27c2b2866faa677493","fixation","","","img/fixation.png","null","","","prac","","","","","","","","","","","","","","","","","","","",""
"6083.699999988079","119770","SARL_v6","SARL_v6v2ans024","62964d27c2b2866faa677493","","","","","","","","prac","","","","","","","","","","","","","","","","","","","",""
"null","120572","SARL_v6","SARL_v6v2ans024","62964d27c2b2866faa677493","freq","","","img/blue_2bandit_a2.png","null","","70","test","0","","1","","","","square","circle","1","1","1","0","","","","","","","",""
"null","120724","SARL_v6","SARL_v6v2ans024","62964d27c2b2866faa677493","fixation","","","img/fixation.png","null","","","test","","","","","","","","","","","","","","","","","","","",""
"69.59999996423721","120795","SARL_v6","SARL_v6v2ans024","62964d27c2b2866faa677493","freq","","","img/blue_2bandit_a2.png","70","","70","test","1","","2","","","","square","circle","2","2","1","0.5","","","","","","","",""
"null","121528","SARL_v6","SARL_v6v2ans024","62964d27c2b2866faa677493","freq_resp","","","img/blue_2bandit_a.png","70","img/blue_2bandit_a.png","70","test","","","","","","","","","","","1","","","","","","","","",""
"null","121680","SARL_v6","SARL_v6v2ans024","62964d27c2b2866faa677493","fixation","","","img/fixation.png","null","","","test","","","","","","","","","","","","","","","","","","","",""
"103.39999997615814","121785","SARL_v6","SARL_v6v2ans024","62964d27c2b2866faa677493","freq","","","img/blue_2bandit_a2.png","70","","70","test","1","","3","","","","square","circle","3","3","1","0.6666666666666666","","","","","","","",""
"null","122484","SARL_v6","SARL_v6v2ans024","62964d27c2b2866faa677493","freq_resp","","","img/blue_2bandit_a.png","70","img/blue_2bandit_a.png","70","test","","","","","","","","","","","1","","","","","","","","",""
"null","122636","SARL_v6","SARL_v6v2ans024","62964d27c2b2866faa677493","fixation","","","img/fixation.png","null","","","test","","","","","","","","","","","","","","","","","","","",""
"456.30000001192093","123094","SARL_v6","SARL_v6v2ans024","62964d27c2b2866faa677493","freq","","","img/blue_2bandit_a2.png","70","","70","test","1","","4","","","","square","circle","4","4","1","0.75","","","","","","","",""
"null","123441","SARL_v6","SARL_v6v2ans024","62964d27c2b2866faa677493","freq_resp","","","img/blue_2bandit_a.png","70","img/blue_2bandit_a.png","70","test","","","","","","","","","","","1","","","","","","","","",""
"null","123593","SARL_v6","SARL_v6v2ans024","62964d27c2b2866faa677493","fixation","","","img/fixation.png","null","","","test","","","","","","","","","","","","","","","","","","","",""
"370.89999997615814","123965","SARL_v6","SARL_v6v2ans024","62964d27c2b2866faa677493","freq","","","img/blue_2bandit_a2.png","70","","70","test","1","","5","","","","square","circle","5","5","1","0.8","","","","","","","",""
"null","124397","SARL_v6","SARL_v6v2ans024","62964d27c2b2866faa677493","freq_resp","","","img/blue_2bandit_a.png","70","img/blue_2bandit_a.png","70","test","","","","","","","","","","","1","","","","","","","","",""
"null","124549","SARL_v6","SARL_v6v2ans024","62964d27c2b2866faa677493","fixation","","","img/fixation.png","null","","","test","","","","","","","","","","","","","","","","","","","",""
"327.80000001192093","124878","SARL_v6","SARL_v6v2ans024","62964d27c2b2866faa677493","freq","","","img/blue_2bandit_a2.png","70","","70","test","1","","6","","","","square","circle","6","6","1","0.8333333333333334","","","","","","","",""
"null","125352","SARL_v6","SARL_v6v2ans024","62964d27c2b2866faa677493","freq_resp","","","img/blue_2bandit_a.png","70","img/blue_2bandit_a.png","70","test","","","","","","","","","","","1","","","","","","","","",""
"null","125504","SARL_v6","SARL_v6v2ans024","62964d27c2b2866faa677493","fixation","","","img/fixation.png","null","","","test","","","","","","","","","","","","","","","","","","","",""
"354.39999997615814","125860","SARL_v6","SARL_v6v2ans024","62964d27c2b2866faa677493","freq","","","img/blue_2bandit_a2.png","70","","70","test","1","","7","","","","square","circle","7","7","1","0.8571428571428571","","","","","","","",""
"null","126308","SARL_v6","SARL_v6v2ans024","62964d27c2b2866faa677493","freq_resp","","","img/blue_2bandit_a.png","70","img/blue_2bandit_a.png","70","test","","","","","","","","","","","1","","","","","","","","",""
"null","126460","SARL_v6","SARL_v6v2ans024","62964d27c2b2866faa677493","fixation","","","img/fixation.png","null","","","test","","","","","","","","","","","","","","","","","","","",""
"301.2999999523163","126763","SARL_v6","SARL_v6v2ans024","62964d27c2b2866faa677493","freq","","","img/blue_2bandit_a2.png","70","","70","test","1","","8","","","","square","circle","8","8","1","0.875","","","","","","","",""
"null","127265","SARL_v6","SARL_v6v2ans024","62964d27c2b2866faa677493","freq_resp","","","img/blue_2bandit_a.png","70","img/blue_2bandit_a.png","70","test","","","","","","","","","","","1","","","","","","","","",""
"null","127417","SARL_v6","SARL_v6v2ans024","62964d27c2b2866faa677493","fixation","","","img/fixation.png","null","","","test","","","","","","","","","","","","","","","","","","","",""
"287.0999999642372","127705","SARL_v6","SARL_v6v2ans024","62964d27c2b2866faa677493","freq","","","img/blue_2bandit_a2.png","70","","70","test","1","","9","","","","square","circle","9","9","1","0.8888888888888888","","","","","","","",""
"null","128221","SARL_v6","SARL_v6v2ans024","62964d27c2b2866faa677493","freq_resp","","","img/blue_2bandit_a.png","70","img/blue_2bandit_a.png","70","test","","","","","","","","","","","1","","","","","","","","",""
"null","128373","SARL_v6","SARL_v6v2ans024","62964d27c2b2866faa677493","fixation","","","img/fixation.png","null","","","test","","","","","","","","","","","","","","","","","","","",""
"198.89999997615814","128573","SARL_v6","SARL_v6v2ans024","62964d27c2b2866faa677493","freq","","","img/blue_2bandit_a2.png","70","","70","test","1","","10","","","","square","circle","10","10","1","0.9","","","","","","","",""
"null","129176","SARL_v6","SARL_v6v2ans024","62964d27c2b2866faa677493","freq_resp","","","img/blue_2bandit_a.png","70","img/blue_2bandit_a.png","70","test","","","","","","","","","","","1","","","","","","","","",""
"null","129328","SARL_v6","SARL_v6v2ans024","62964d27c2b2866faa677493","fixation","","","img/fixation.png","null","","","test","","","","","","","","","","","","","","","","","","","",""
"121.59999996423721","129451","SARL_v6","SARL_v6v2ans024","62964d27c2b2866faa677493","freq","","","img/blue_2bandit_a2.png","70","","70","test","1","","11","","","","square","circle","11","11","1","0.9090909090909091","","","","","","","",""
"null","130132","SARL_v6","SARL_v6v2ans024","62964d27c2b2866faa677493","freq_resp","","","img/blue_2bandit_a.png","70","img/blue_2bandit_a.png","70","test","","","","","","","","","","","1","","","","","","","","",""
"null","130284","SARL_v6","SARL_v6v2ans024","62964d27c2b2866faa677493","fixation","","","img/fixation.png","null","","","test","","","","","","","","","","","","","","","","","","","",""
"204.10000002384186","130490","SARL_v6","SARL_v6v2ans024","62964d27c2b2866faa677493","infreq","","","img/orange_2bandit_a2.png","70","","68","test","0","","12","","","","square","circle","12","12","1","0.8333333333333334","","","","","","","",""
"null","131088","SARL_v6","SARL_v6v2ans024","62964d27c2b2866faa677493","infreq_resp","","","img/orange_2bandit_a.png","70","img/orange_2bandit_a.png","68","test","","","","","","","","","","","1","","","","","","","","",""
"null","131241","SARL_v6","SARL_v6v2ans024","62964d27c2b2866faa677493","fixation","","","img/fixation.png","null","","","test","","","","","","","","","","","","","","","","","","","",""
"504.0999999642372","131746","SARL_v6","SARL_v6v2ans024","62964d27c2b2866faa677493","freq","","","img/blue_2bandit_a2.png","70","","70","test","1","","13","","","","square","circle","13","13","1","0.8461538461538461","","","","","","","",""
"null","132045","SARL_v6","SARL_v6v2ans024","62964d27c2b2866faa677493","freq_resp","","","img/blue_2bandit_a.png","70","img/blue_2bandit_a.png","70","test","","","","","","","","","","","1","","","","","","","","",""
"null","132197","SARL_v6","SARL_v6v2ans024","62964d27c2b2866faa677493","fixation","","","img/fixation.png","null","","","test","","","","","","","","","","","","","","","","","","","",""
"315.9000000357628","132514","SARL_v6","SARL_v6v2ans024","62964d27c2b2866faa677493","freq","","","img/blue_2bandit_a2.png","70","","70","test","1","","14","","","","square","circle","14","14","1","0.8571428571428571","","","","","","","",""
"null","133001","SARL_v6","SARL_v6v2ans024","62964d27c2b2866faa677493","freq_resp","","","img/blue_2bandit_a.png","70","img/blue_2bandit_a.png","70","test","","","","","","","","","","","1","","","","","","","","",""
"null","133153","SARL_v6","SARL_v6v2ans024","62964d27c2b2866faa677493","fixation","","","img/fixation.png","null","","","test","","","","","","","","","","","","","","","","","","","",""
"219.0999999642372","133373","SARL_v6","SARL_v6v2ans024","62964d27c2b2866faa677493","freq","","","img/blue_2bandit_a2.png","70","","70","test","1","","15","","","","square","circle","15","15","1","0.8666666666666667","","","","","","","",""
"null","133957","SARL_v6","SARL_v6v2ans024","62964d27c2b2866faa677493","freq_resp","","","img/blue_2bandit_a.png","70","img/blue_2bandit_a.png","70","test","","","","","","","","","","","1","","","","","","","","",""
"null","134112","SARL_v6","SARL_v6v2ans024","62964d27c2b2866faa677493","fixation","","","img/fixation.png","null","","","test","","","","","","","","","","","","","","","","","","","",""
"338.5999999642372","134452","SARL_v6","SARL_v6v2ans024","62964d27c2b2866faa677493","freq","","","img/blue_2bandit_a2.png","70","","70","test","1","","16","","","","square","circle","16","16","1","0.875","","","","","","","",""
"null","134916","SARL_v6","SARL_v6v2ans024","62964d27c2b2866faa677493","freq_resp","","","img/blue_2bandit_a.png","70","img/blue_2bandit_a.png","70","test","","","","","","","","","","","1","","","","","","","","",""
"null","135068","SARL_v6","SARL_v6v2ans024","62964d27c2b2866faa677493","fixation","","","img/fixation.png","null","","","test","","","","","","","","","","","","","","","","","","","",""
"251.29999995231628","135321","SARL_v6","SARL_v6v2ans024","62964d27c2b2866faa677493","freq","","","img/blue_2bandit_a2.png","70","","70","test","1","","17","","","","square","circle","17","17","1","0.8823529411764706","","","","","","","",""
"null","135873","SARL_v6","SARL_v6v2ans024","62964d27c2b2866faa677493","freq_resp","","","img/blue_2bandit_a.png","70","img/blue_2bandit_a.png","70","test","","","","","","","","","","","1","","","","","","","","",""
"null","136025","SARL_v6","SARL_v6v2ans024","62964d27c2b2866faa677493","fixation","","","img/fixation.png","null","","","test","","","","","","","","","","","","","","","","","","","",""
"227.0999999642372","136253","SARL_v6","SARL_v6v2ans024","62964d27c2b2866faa677493","freq","","","img/blue_2bandit_a2.png","70","","70","test","1","","18","","","","square","circle","18","18","1","0.8888888888888888","","","","","","","",""
"null","136829","SARL_v6","SARL_v6v2ans024","62964d27c2b2866faa677493","freq_resp","","","img/blue_2bandit_a.png","70","img/blue_2bandit_a.png","70","test","","","","","","","","","","","1","","","","","","","","",""
"null","136982","SARL_v6","SARL_v6v2ans024","62964d27c2b2866faa677493","fixation","","","img/fixation.png","null","","","test","","","","","","","","","","","","","","","","","","","",""
"227","137210","SARL_v6","SARL_v6v2ans024","62964d27c2b2866faa677493","freq","","","img/blue_2bandit_a2.png","70","","70","test","1","","19","","","","square","circle","19","19","1","0.8947368421052632","","","","","","","",""
"null","137785","SARL_v6","SARL_v6v2ans024","62964d27c2b2866faa677493","freq_resp","","","img/blue_2bandit_a.png","70","img/blue_2bandit_a.png","70","test","","","","","","","","","","","1","","","","","","","","",""
"null","137937","SARL_v6","SARL_v6v2ans024","62964d27c2b2866faa677493","fixation","","","img/fixation.png","null","","","test","","","","","","","","","","","","","","","","","","","",""
"227.79999995231628","138166","SARL_v6","SARL_v6v2ans024","62964d27c2b2866faa677493","freq","","","img/blue_2bandit_a2.png","70","","70","test","1","","20","","","","square","circle","20","20","1","0.9","","","","","","","",""
"null","138741","SARL_v6","SARL_v6v2ans024","62964d27c2b2866faa677493","freq_resp","","","img/blue_2bandit_a.png","70","img/blue_2bandit_a.png","70","test","","","","","","","","","","","1","","","","","","","","",""
"null","138892","SARL_v6","SARL_v6v2ans024","62964d27c2b2866faa677493","fixation","","","img/fixation.png","null","","","test","","","","","","","","","","","","","","","","","","","",""
"179.39999997615814","139073","SARL_v6","SARL_v6v2ans024","62964d27c2b2866faa677493","freq","","","img/blue_2bandit_a2.png","70","","70","test","1","","21","","","","square","circle","21","21","1","0.9047619047619048","","","","","","","",""
"null","139696","SARL_v6","SARL_v6v2ans024","62964d27c2b2866faa677493","freq_resp","","","img/blue_2bandit_a.png","70","img/blue_2bandit_a.png","70","test","","","","","","","","","","","1","","","","","","","","",""
"null","139848","SARL_v6","SARL_v6v2ans024","62964d27c2b2866faa677493","fixation","","","img/fixation.png","null","","","test","","","","","","","","","","","","","","","","","","","",""
"418.2999999523163","140268","SARL_v6","SARL_v6v2ans024","62964d27c2b2866faa677493","infreq","","","img/orange_2bandit_a2.png","68","","68","test","1","","22","","","","square","circle","22","22","1","0.9090909090909091","","","","","","","",""
"null","140653","SARL_v6","SARL_v6v2ans024","62964d27c2b2866faa677493","infreq_resp","","","img/orange_2bandit_a.png","68","img/orange_2bandit_a.png","68","test","","","","","","","","","","","1","","","","","","","","",""
"null","140805","SARL_v6","SARL_v6v2ans024","62964d27c2b2866faa677493","fixation","","","img/fixation.png","null","","","test","","","","","","","","","","","","","","","","","","","",""
"398.19999998807907","141204","SARL_v6","SARL_v6v2ans024","62964d27c2b2866faa677493","freq","","","img/blue_2bandit_a2.png","70","","70","test","1","","23","","","","square","circle","23","23","1","0.9130434782608695","","","","","","","",""
"null","141609","SARL_v6","SARL_v6v2ans024","62964d27c2b2866faa677493","freq_resp","","","img/blue_2bandit_a.png","70","img/blue_2bandit_a.png","70","test","","","","","","","","","","","1","","","","","","","","",""
"null","141761","SARL_v6","SARL_v6v2ans024","62964d27c2b2866faa677493","fixation","","","img/fixation.png","null","","","test","","","","","","","","","","","","","","","","","","","",""
"509.89999997615814","142272","SARL_v6","SARL_v6v2ans024","62964d27c2b2866faa677493","freq","","","img/blue_2bandit_a2.png","70","","70","test","1","","24","","","","square","circle","24","24","1","0.9166666666666666","","","","","","","",""
"null","142564","SARL_v6","SARL_v6v2ans024","62964d27c2b2866faa677493","freq_resp","","","img/blue_2bandit_a.png","70","img/blue_2bandit_a.png","70","test","","","","","","","","","","","1","","","","","","","","",""
"null","142716","SARL_v6","SARL_v6v2ans024","62964d27c2b2866faa677493","fixation","","","img/fixation.png","null","","","test","","","","","","","","","","","","","","","","","","","",""
"624.5999999642372","143342","SARL_v6","SARL_v6v2ans024","62964d27c2b2866faa677493","freq","","","img/blue_2bandit_a2.png","70","","70","test","1","","25","","","","square","circle","25","25","1","0.92","","","","","","","",""
"null","143520","SARL_v6","SARL_v6v2ans024","62964d27c2b2866faa677493","freq_resp","","","img/blue_2bandit_a.png","70","img/blue_2bandit_a.png","70","test","","","","","","","","","","","1","","","","","","","","",""
"null","143672","SARL_v6","SARL_v6v2ans024","62964d27c2b2866faa677493","fixation","","","img/fixation.png","null","","","test","","","","","","","","","","","","","","","","","","","",""
"326.60000002384186","144000","SARL_v6","SARL_v6v2ans024","62964d27c2b2866faa677493","freq","","","img/blue_2bandit_a2.png","70","","70","test","1","","26","","","","square","circle","26","26","1","0.9230769230769231","","","","","","","",""
"null","144477","SARL_v6","SARL_v6v2ans024","62964d27c2b2866faa677493","freq_resp","","","img/blue_2bandit_a.png","70","img/blue_2bandit_a.png","70","test","","","","","","","","","","","1","","","","","","","","",""
"null","144628","SARL_v6","SARL_v6v2ans024","62964d27c2b2866faa677493","fixation","","","img/fixation.png","null","","","test","","","","","","","","","","","","","","","","","","","",""
"699.0999999642372","145329","SARL_v6","SARL_v6v2ans024","62964d27c2b2866faa677493","rl","","","img/black_2bandit_a2.png","74","","0","test","","","27","","","-3","square","circle","","0","1","","74","-3","-3","-3","-3","square","1","0"
"null","146081","SARL_v6","SARL_v6v2ans024","62964d27c2b2866faa677493","feedback","","","<div class=""verylowPoints_sq""> -3 </div>","null","","na","test","","","NaN","","","","","","","","1","","74","","","","","","1",""
"568.5","146651","SARL_v6","SARL_v6v2ans024","62964d27c2b2866faa677493","freq","","","img/blue_2bandit_a2.png","70","","70","test","1","","28","","","","square","circle","27","1","2","0.9259259259259259","","","","","","","",""
"null","146885","SARL_v6","SARL_v6v2ans024","62964d27c2b2866faa677493","freq_resp","","","img/blue_2bandit_a.png","70","img/blue_2bandit_a.png","70","test","","","","","","","","","","","2","","","","","","","","",""
"null","147040","SARL_v6","SARL_v6v2ans024","62964d27c2b2866faa677493","fixation","","","img/fixation.png","null","","","test","","","","","","","","","","","","","","","","","","","",""
"378.2999999523163","147420","SARL_v6","SARL_v6v2ans024","62964d27c2b2866faa677493","freq","","","img/blue_2bandit_a2.png","70","","70","test","1","","29","","","","square","circle","28","2","2","0.9285714285714286","","","","","","","",""
"null","147844","SARL_v6","SARL_v6v2ans024","62964d27c2b2866faa677493","freq_resp","","","img/blue_2bandit_a.png","70","img/blue_2bandit_a.png","70","test","","","","","","","","","","","2","","","","","","","","",""
"null","147996","SARL_v6","SARL_v6v2ans024","62964d27c2b2866faa677493","fixation","","","img/fixation.png","null","","","test","","","","","","","","","","","","","","","","","","","",""
"222.5","148220","SARL_v6","SARL_v6v2ans024","62964d27c2b2866faa677493","freq","","","img/blue_2bandit_a2.png","70","","70","test","1","","30","","","","square","circle","29","3","2","0.9310344827586207","","","","","","","",""
"null","148800","SARL_v6","SARL_v6v2ans024","62964d27c2b2866faa677493","freq_resp","","","img/blue_2bandit_a.png","70","img/blue_2bandit_a.png","70","test","","","","","","","","","","","2","","","","","","","","",""
"null","148952","SARL_v6","SARL_v6v2ans024","62964d27c2b2866faa677493","fixation","","","img/fixation.png","null","","","test","","","","","","","","","","","","","","","","","","","",""
"216.29999995231628","149170","SARL_v6","SARL_v6v2ans024","62964d27c2b2866faa677493","freq","","","img/blue_2bandit_a2.png","70","","70","test","1","","31","","","","square","circle","30","4","2","0.9333333333333333","","","","","","","",""
"null","149757","SARL_v6","SARL_v6v2ans024","62964d27c2b2866faa677493","freq_resp","","","img/blue_2bandit_a.png","70","img/blue_2bandit_a.png","70","test","","","","","","","","","","","2","","","","","","","","",""
"null","149909","SARL_v6","SARL_v6v2ans024","62964d27c2b2866faa677493","fixation","","","img/fixation.png","null","","","test","","","","","","","","","","","","","","","","","","","",""
"217.0999999642372","150127","SARL_v6","SARL_v6v2ans024","62964d27c2b2866faa677493","freq","","","img/blue_2bandit_a2.png","70","","70","test","1","","32","","","","square","circle","31","5","2","0.9354838709677419","","","","","","","",""
"null","150713","SARL_v6","SARL_v6v2ans024","62964d27c2b2866faa677493","freq_resp","","","img/blue_2bandit_a.png","70","img/blue_2bandit_a.png","70","test","","","","","","","","","","","2","","","","","","","","",""
"null","150865","SARL_v6","SARL_v6v2ans024","62964d27c2b2866faa677493","fixation","","","img/fixation.png","null","","","test","","","","","","","","","","","","","","","","","","","",""
"330.7999999523163","151198","SARL_v6","SARL_v6v2ans024","62964d27c2b2866faa677493","freq","","","img/blue_2bandit_a2.png","70","","70","test","1","","33","","","","square","circle","32","6","2","0.9375","","","","","","","",""
"null","151672","SARL_v6","SARL_v6v2ans024","62964d27c2b2866faa677493","freq_resp","","","img/blue_2bandit_a.png","70","img/blue_2bandit_a.png","70","test","","","","","","","","","","","2","","","","","","","","",""
"null","151824","SARL_v6","SARL_v6v2ans024","62964d27c2b2866faa677493","fixation","","","img/fixation.png","null","","","test","","","","","","","","","","","","","","","","","","","",""
"272.5","152098","SARL_v6","SARL_v6v2ans024","62964d27c2b2866faa677493","freq","","","img/blue_2bandit_a2.png","70","","70","test","1","","34","","","","square","circle","33","7","2","0.9393939393939394","","","","","","","",""
"null","152628","SARL_v6","SARL_v6v2ans024","62964d27c2b2866faa677493","freq_resp","","","img/blue_2bandit_a.png","70","img/blue_2bandit_a.png","70","test","","","","","","","","","","","2","","","","","","","","",""
"null","152780","SARL_v6","SARL_v6v2ans024","62964d27c2b2866faa677493","fixation","","","img/fixation.png","null","","","test","","","","","","","","","","","","","","","","","","","",""
"447.39999997615814","153229","SARL_v6","SARL_v6v2ans024","62964d27c2b2866faa677493","infreq","","","img/orange_2bandit_a2.png","68","","68","test","1","","35","","","","square","circle","34","8","2","0.9411764705882353","","","","","","","",""
"null","153584","SARL_v6","SARL_v6v2ans024","62964d27c2b2866faa677493","infreq_resp","","","img/orange_2bandit_a.png","68","img/orange_2bandit_a.png","68","test","","","","","","","","","","","2","","","","","","","","",""
"null","153736","SARL_v6","SARL_v6v2ans024","62964d27c2b2866faa677493","fixation","","","img/fixation.png","null","","","test","","","","","","","","","","","","","","","","","","","",""
"470.30000001192093","154208","SARL_v6","SARL_v6v2ans024","62964d27c2b2866faa677493","freq","","","img/blue_2bandit_a2.png","70","","70","test","1","","36","","","","square","circle","35","9","2","0.9428571428571428","","","","","","","",""
"null","154541","SARL_v6","SARL_v6v2ans024","62964d27c2b2866faa677493","freq_resp","","","img/blue_2bandit_a.png","70","img/blue_2bandit_a.png","70","test","","","","","","","","","","","2","","","","","","","","",""
"null","154693","SARL_v6","SARL_v6v2ans024","62964d27c2b2866faa677493","fixation","","","img/fixation.png","null","","","test","","","","","","","","","","","","","","","","","","","",""
"297.7999999523163","154992","SARL_v6","SARL_v6v2ans024","62964d27c2b2866faa677493","freq","","","img/blue_2bandit_a2.png","70","","70","test","1","","37","","","","square","circle","36","10","2","0.9444444444444444","","","","","","","",""
"null","155497","SARL_v6","SARL_v6v2ans024","62964d27c2b2866faa677493","freq_resp","","","img/blue_2bandit_a.png","70","img/blue_2bandit_a.png","70","test","","","","","","","","","","","2","","","","","","","","",""
"null","155649","SARL_v6","SARL_v6v2ans024","62964d27c2b2866faa677493","fixation","","","img/fixation.png","null","","","test","","","","","","","","","","","","","","","","","","","",""
"251.79999995231628","155902","SARL_v6","SARL_v6v2ans024","62964d27c2b2866faa677493","freq","","","img/blue_2bandit_a2.png","70","","70","test","1","","38","","","","square","circle","37","11","2","0.9459459459459459","","","","","","","",""
"null","156452","SARL_v6","SARL_v6v2ans024","62964d27c2b2866faa677493","freq_resp","","","img/blue_2bandit_a.png","70","img/blue_2bandit_a.png","70","test","","","","","","","","","","","2","","","","","","","","",""
"null","156604","SARL_v6","SARL_v6v2ans024","62964d27c2b2866faa677493","fixation","","","img/fixation.png","null","","","test","","","","","","","","","","","","","","","","","","","",""
"259.5","156865","SARL_v6","SARL_v6v2ans024","62964d27c2b2866faa677493","freq","","","img/blue_2bandit_a2.png","70","","70","test","1","","39","","","","square","circle","38","12","2","0.9473684210526315","","","","","","","",""
"null","157408","SARL_v6","SARL_v6v2ans024","62964d27c2b2866faa677493","freq_resp","","","img/blue_2bandit_a.png","70","img/blue_2bandit_a.png","70","test","","","","","","","","","","","2","","","","","","","","",""
"null","157560","SARL_v6","SARL_v6v2ans024","62964d27c2b2866faa677493","fixation","","","img/fixation.png","null","","","test","","","","","","","","","","","","","","","","","","","",""
"218.19999998807907","157781","SARL_v6","SARL_v6v2ans024","62964d27c2b2866faa677493","freq","","","img/blue_2bandit_a2.png","70","","70","test","1","","40","","","","square","circle","39","13","2","0.9487179487179487","","","","","","","",""
"null","158365","SARL_v6","SARL_v6v2ans024","62964d27c2b2866faa677493","freq_resp","","","img/blue_2bandit_a.png","70","img/blue_2bandit_a.png","70","test","","","","","","","","","","","2","","","","","","","","",""
"null","158517","SARL_v6","SARL_v6v2ans024","62964d27c2b2866faa677493","fixation","","","img/fixation.png","null","","","test","","","","","","","","","","","","","","","","","","","",""
"229","158747","SARL_v6","SARL_v6v2ans024","62964d27c2b2866faa677493","freq","","","img/blue_2bandit_a2.png","70","","70","test","1","","41","","","","square","circle","40","14","2","0.95","","","","","","","",""
"null","159321","SARL_v6","SARL_v6v2ans024","62964d27c2b2866faa677493","freq_resp","","","img/blue_2bandit_a.png","70","img/blue_2bandit_a.png","70","test","","","","","","","","","","","2","","","","","","","","",""
"null","159473","SARL_v6","SARL_v6v2ans024","62964d27c2b2866faa677493","fixation","","","img/fixation.png","null","","","test","","","","","","","","","","","","","","","","","","","",""
"236.79999995231628","159711","SARL_v6","SARL_v6v2ans024","62964d27c2b2866faa677493","infreq","","","img/orange_2bandit_a2.png","70","","68","test","0","","42","","","","square","circle","41","15","2","0.926829268292683","","","","","","","",""
"null","160277","SARL_v6","SARL_v6v2ans024","62964d27c2b2866faa677493","infreq_resp","","","img/orange_2bandit_a.png","70","img/orange_2bandit_a.png","68","test","","","","","","","","","","","2","","","","","","","","",""
"null","160432","SARL_v6","SARL_v6v2ans024","62964d27c2b2866faa677493","fixation","","","img/fixation.png","null","","","test","","","","","","","","","","","","","","","","","","","",""
"469.39999997615814","160903","SARL_v6","SARL_v6v2ans024","62964d27c2b2866faa677493","freq","","","img/blue_2bandit_a2.png","70","","70","test","1","","43","","","","square","circle","42","16","2","0.9285714285714286","","","","","","","",""
"null","161236","SARL_v6","SARL_v6v2ans024","62964d27c2b2866faa677493","freq_resp","","","img/blue_2bandit_a.png","70","img/blue_2bandit_a.png","70","test","","","","","","","","","","","2","","","","","","","","",""
"null","161388","SARL_v6","SARL_v6v2ans024","62964d27c2b2866faa677493","fixation","","","img/fixation.png","null","","","test","","","","","","","","","","","","","","","","","","","",""
"307.30000001192093","161697","SARL_v6","SARL_v6v2ans024","62964d27c2b2866faa677493","freq","","","img/blue_2bandit_a2.png","70","","70","test","1","","44","","","","square","circle","43","17","2","0.9302325581395349","","","","","","","",""
"null","162193","SARL_v6","SARL_v6v2ans024","62964d27c2b2866faa677493","freq_resp","","","img/blue_2bandit_a.png","70","img/blue_2bandit_a.png","70","test","","","","","","","","","","","2","","","","","","","","",""
"null","162344","SARL_v6","SARL_v6v2ans024","62964d27c2b2866faa677493","fixation","","","img/fixation.png","null","","","test","","","","","","","","","","","","","","","","","","","",""
"229.39999997615814","162575","SARL_v6","SARL_v6v2ans024","62964d27c2b2866faa677493","freq","","","img/blue_2bandit_a2.png","70","","70","test","1","","45","","","","square","circle","44","18","2","0.9318181818181818","","","","","","","",""
"null","163150","SARL_v6","SARL_v6v2ans024","62964d27c2b2866faa677493","freq_resp","","","img/blue_2bandit_a.png","70","img/blue_2bandit_a.png","70","test","","","","","","","","","","","2","","","","","","","","",""
"null","163305","SARL_v6","SARL_v6v2ans024","62964d27c2b2866faa677493","fixation","","","img/fixation.png","null","","","test","","","","","","","","","","","","","","","","","","","",""
"107.19999998807907","163413","SARL_v6","SARL_v6v2ans024","62964d27c2b2866faa677493","freq","","","img/blue_2bandit_a2.png","70","","70","test","1","","46","","","","square","circle","45","19","2","0.9333333333333333","","","","","","","",""
"null","164109","SARL_v6","SARL_v6v2ans024","62964d27c2b2866faa677493","freq_resp","","","img/blue_2bandit_a.png","70","img/blue_2bandit_a.png","70","test","","","","","","","","","","","2","","","","","","","","",""
"null","164261","SARL_v6","SARL_v6v2ans024","62964d27c2b2866faa677493","fixation","","","img/fixation.png","null","","","test","","","","","","","","","","","","","","","","","","","",""
"134.30000001192093","164397","SARL_v6","SARL_v6v2ans024","62964d27c2b2866faa677493","freq","","","img/blue_2bandit_a2.png","70","","70","test","1","","47","","","","square","circle","46","20","2","0.9347826086956522","","","","","","","",""
"null","165064","SARL_v6","SARL_v6v2ans024","62964d27c2b2866faa677493","freq_resp","","","img/blue_2bandit_a.png","70","img/blue_2bandit_a.png","70","test","","","","","","","","","","","2","","","","","","","","",""
"null","165216","SARL_v6","SARL_v6v2ans024","62964d27c2b2866faa677493","fixation","","","img/fixation.png","null","","","test","","","","","","","","","","","","","","","","","","","",""
"86.5","165305","SARL_v6","SARL_v6v2ans024","62964d27c2b2866faa677493","freq","","","img/blue_2bandit_a2.png","70","","70","test","1","","48","","","","square","circle","47","21","2","0.9361702127659575","","","","","","","",""
"null","166020","SARL_v6","SARL_v6v2ans024","62964d27c2b2866faa677493","freq_resp","","","img/blue_2bandit_a.png","70","img/blue_2bandit_a.png","70","test","","","","","","","","","","","2","","","","","","","","",""
"null","166173","SARL_v6","SARL_v6v2ans024","62964d27c2b2866faa677493","fixation","","","img/fixation.png","null","","","test","","","","","","","","","","","","","","","","","","","",""
"219.0999999642372","166393","SARL_v6","SARL_v6v2ans024","62964d27c2b2866faa677493","freq","","","img/blue_2bandit_a2.png","70","","70","test","1","","49","","","","square","circle","48","22","2","0.9375","","","","","","","",""
"null","166976","SARL_v6","SARL_v6v2ans024","62964d27c2b2866faa677493","freq_resp","","","img/blue_2bandit_a.png","70","img/blue_2bandit_a.png","70","test","","","","","","","","","","","2","","","","","","","","",""
"null","167129","SARL_v6","SARL_v6v2ans024","62964d27c2b2866faa677493","fixation","","","img/fixation.png","null","","","test","","","","","","","","","","","","","","","","","","","",""
"307.0999999642372","167437","SARL_v6","SARL_v6v2ans024","62964d27c2b2866faa677493","freq","","","img/blue_2bandit_a2.png","70","","70","test","1","","50","","","","square","circle","49","23","2","0.9387755102040817","","","","","","","",""
"null","167933","SARL_v6","SARL_v6v2ans024","62964d27c2b2866faa677493","freq_resp","","","img/blue_2bandit_a.png","70","img/blue_2bandit_a.png","70","test","","","","","","","","","","","2","","","","","","","","",""
"null","168085","SARL_v6","SARL_v6v2ans024","62964d27c2b2866faa677493","fixation","","","img/fixation.png","null","","","test","","","","","","","","","","","","","","","","","","","",""
"214.80000001192093","168301","SARL_v6","SARL_v6v2ans024","62964d27c2b2866faa677493","freq","","","img/blue_2bandit_a2.png","70","","70","test","1","","51","","","","square","circle","50","24","2","0.94","","","","","","","",""
"null","168889","SARL_v6","SARL_v6v2ans024","62964d27c2b2866faa677493","freq_resp","","","img/blue_2bandit_a.png","70","img/blue_2bandit_a.png","70","test","","","","","","","","","","","2","","","","","","","","",""
"null","169041","SARL_v6","SARL_v6v2ans024","62964d27c2b2866faa677493","fixation","","","img/fixation.png","null","","","test","","","","","","","","","","","","","","","","","","","",""
"605.6000000238419","169648","SARL_v6","SARL_v6v2ans024","62964d27c2b2866faa677493","rl","","","img/black_2bandit_a2.png","74","","0","test","","","52","","","-5","square","circle","","0","2","","74","-8","-5","-5","-8","square","2","0"
"null","170400","SARL_v6","SARL_v6v2ans024","62964d27c2b2866faa677493","feedback","","","<div class=""verylowPoints_sq""> -5 </div>","null","","na","test","","","NaN","","","","","","","","2","","74","","","","","","2",""
"116.19999998807907","170518","SARL_v6","SARL_v6v2ans024","62964d27c2b2866faa677493","freq","","","img/blue_2bandit_a2.png","70","","70","test","1","","53","","","","square","circle","51","1","3","0.9411764705882353","","","","","","","",""
"null","171204","SARL_v6","SARL_v6v2ans024","62964d27c2b2866faa677493","freq_resp","","","img/blue_2bandit_a.png","70","img/blue_2bandit_a.png","70","test","","","","","","","","","","","3","","","","","","","","",""
"null","171356","SARL_v6","SARL_v6v2ans024","62964d27c2b2866faa677493","fixation","","","img/fixation.png","null","","","test","","","","","","","","","","","","","","","","","","","",""
"328.30000001192093","171686","SARL_v6","SARL_v6v2ans024","62964d27c2b2866faa677493","freq","","","img/blue_2bandit_a2.png","70","","70","test","1","","54","","","","square","circle","52","2","3","0.9423076923076923","","","","","","","",""
"null","172161","SARL_v6","SARL_v6v2ans024","62964d27c2b2866faa677493","freq_resp","","","img/blue_2bandit_a.png","70","img/blue_2bandit_a.png","70","test","","","","","","","","","","","3","","","","","","","","",""
"null","172313","SARL_v6","SARL_v6v2ans024","62964d27c2b2866faa677493","fixation","","","img/fixation.png","null","","","test","","","","","","","","","","","","","","","","","","","",""
"250","172564","SARL_v6","SARL_v6v2ans024","62964d27c2b2866faa677493","freq","","","img/blue_2bandit_a2.png","70","","70","test","1","","55","","","","square","circle","53","3","3","0.9433962264150944","","","","","","","",""
"null","173117","SARL_v6","SARL_v6v2ans024","62964d27c2b2866faa677493","freq_resp","","","img/blue_2bandit_a.png","70","img/blue_2bandit_a.png","70","test","","","","","","","","","","","3","","","","","","","","",""
"null","173269","SARL_v6","SARL_v6v2ans024","62964d27c2b2866faa677493","fixation","","","img/fixation.png","null","","","test","","","","","","","","","","","","","","","","","","","",""
"190.5","173461","SARL_v6","SARL_v6v2ans024","62964d27c2b2866faa677493","freq","","","img/blue_2bandit_a2.png","70","","70","test","1","","56","","","","square","circle","54","4","3","0.9444444444444444","","","","","","","",""
"null","174073","SARL_v6","SARL_v6v2ans024","62964d27c2b2866faa677493","freq_resp","","","img/blue_2bandit_a.png","70","img/blue_2bandit_a.png","70","test","","","","","","","","","","","3","","","","","","","","",""
"null","174228","SARL_v6","SARL_v6v2ans024","62964d27c2b2866faa677493","fixation","","","img/fixation.png","null","","","test","","","","","","","","","","","","","","","","","","","",""
"183.69999998807907","174413","SARL_v6","SARL_v6v2ans024","62964d27c2b2866faa677493","freq","","","img/blue_2bandit_a2.png","70","","70","test","1","","57","","","","square","circle","55","5","3","0.9454545454545454","","","","","","","",""
"null","175032","SARL_v6","SARL_v6v2ans024","62964d27c2b2866faa677493","freq_resp","","","img/blue_2bandit_a.png","70","img/blue_2bandit_a.png","70","test","","","","","","","","","","","3","","","","","","","","",""
"null","175184","SARL_v6","SARL_v6v2ans024","62964d27c2b2866faa677493","fixation","","","img/fixation.png","null","","","test","","","","","","","","","","","","","","","","","","","",""
"155.30000001192093","175341","SARL_v6","SARL_v6v2ans024","62964d27c2b2866faa677493","freq","","","img/blue_2bandit_a2.png","70","","70","test","1","","58","","","","square","circle","56","6","3","0.9464285714285714","","","","","","","",""
"null","175988","SARL_v6","SARL_v6v2ans024","62964d27c2b2866faa677493","freq_resp","","","img/blue_2bandit_a.png","70","img/blue_2bandit_a.png","70","test","","","","","","","","","","","3","","","","","","","","",""
"null","176140","SARL_v6","SARL_v6v2ans024","62964d27c2b2866faa677493","fixation","","","img/fixation.png","null","","","test","","","","","","","","","","","","","","","","","","","",""
"175","176317","SARL_v6","SARL_v6v2ans024","62964d27c2b2866faa677493","freq","","","img/blue_2bandit_a2.png","70","","70","test","1","","59","","","","square","circle","57","7","3","0.9473684210526315","","","","","","","",""
"null","176945","SARL_v6","SARL_v6v2ans024","62964d27c2b2866faa677493","freq_resp","","","img/blue_2bandit_a.png","70","img/blue_2bandit_a.png","70","test","","","","","","","","","","","3","","","","","","","","",""
"null","177097","SARL_v6","SARL_v6v2ans024","62964d27c2b2866faa677493","fixation","","","img/fixation.png","null","","","test","","","","","","","","","","","","","","","","","","","",""
"194","177292","SARL_v6","SARL_v6v2ans024","62964d27c2b2866faa677493","infreq","","","img/orange_2bandit_a2.png","70","","68","test","0","","60","","","","square","circle","58","8","3","0.9310344827586207","","","","","","","",""
"null","177901","SARL_v6","SARL_v6v2ans024","62964d27c2b2866faa677493","infreq_resp","","","img/orange_2bandit_a.png","70","img/orange_2bandit_a.png","68","test","","","","","","","","","","","3","","","","","","","","",""
"null","178053","SARL_v6","SARL_v6v2ans024","62964d27c2b2866faa677493","fixation","","","img/fixation.png","null","","","test","","","","","","","","","","","","","","","","","","","",""
"449.60000002384186","178504","SARL_v6","SARL_v6v2ans024","62964d27c2b2866faa677493","infreq","","","img/orange_2bandit_a2.png","68","","68","test","1","","61","","","","square","circle","59","9","3","0.9322033898305084","","","","","","","",""
"null","178856","SARL_v6","SARL_v6v2ans024","62964d27c2b2866faa677493","infreq_resp","","","img/orange_2bandit_a.png","68","img/orange_2bandit_a.png","68","test","","","","","","","","","","","3","","","","","","","","",""
"null","179008","SARL_v6","SARL_v6v2ans024","62964d27c2b2866faa677493","fixation","","","img/fixation.png","null","","","test","","","","","","","","","","","","","","","","","","","",""
"392.5","179402","SARL_v6","SARL_v6v2ans024","62964d27c2b2866faa677493","freq","","","img/blue_2bandit_a2.png","70","","70","test","1","","62","","","","square","circle","60","10","3","0.9333333333333333","","","","","","","",""
"null","179812","SARL_v6","SARL_v6v2ans024","62964d27c2b2866faa677493","freq_resp","","","img/blue_2bandit_a.png","70","img/blue_2bandit_a.png","70","test","","","","","","","","","","","3","","","","","","","","",""
"null","179964","SARL_v6","SARL_v6v2ans024","62964d27c2b2866faa677493","fixation","","","img/fixation.png","null","","","test","","","","","","","","","","","","","","","","","","","",""
"380.60000002384186","180347","SARL_v6","SARL_v6v2ans024","62964d27c2b2866faa677493","freq","","","img/blue_2bandit_a2.png","70","","70","test","1","","63","","","","square","circle","61","11","3","0.9344262295081968","","","","","","","",""
"null","180770","SARL_v6","SARL_v6v2ans024","62964d27c2b2866faa677493","freq_resp","","","img/blue_2bandit_a.png","70","img/blue_2bandit_a.png","70","test","","","","","","","","","","","3","","","","","","","","",""
"null","180921","SARL_v6","SARL_v6v2ans024","62964d27c2b2866faa677493","fixation","","","img/fixation.png","null","","","test","","","","","","","","","","","","","","","","","","","",""
"365","181288","SARL_v6","SARL_v6v2ans024","62964d27c2b2866faa677493","freq","","","img/blue_2bandit_a2.png","70","","70","test","1","","64","","","","square","circle","62","12","3","0.9354838709677419","","","","","","","",""
"null","181726","SARL_v6","SARL_v6v2ans024","62964d27c2b2866faa677493","freq_resp","","","img/blue_2bandit_a.png","70","img/blue_2bandit_a.png","70","test","","","","","","","","","","","3","","","","","","","","",""
"null","181878","SARL_v6","SARL_v6v2ans024","62964d27c2b2866faa677493","fixation","","","img/fixation.png","null","","","test","","","","","","","","","","","","","","","","","","","",""
"282.89999997615814","182162","SARL_v6","SARL_v6v2ans024","62964d27c2b2866faa677493","freq","","","img/blue_2bandit_a2.png","70","","70","test","1","","65","","","","square","circle","63","13","3","0.9365079365079365","","","","","","","",""
"null","182682","SARL_v6","SARL_v6v2ans024","62964d27c2b2866faa677493","freq_resp","","","img/blue_2bandit_a.png","70","img/blue_2bandit_a.png","70","test","","","","","","","","","","","3","","","","","","","","",""
"null","182837","SARL_v6","SARL_v6v2ans024","62964d27c2b2866faa677493","fixation","","","img/fixation.png","null","","","test","","","","","","","","","","","","","","","","","","","",""
"276.69999998807907","183115","SARL_v6","SARL_v6v2ans024","62964d27c2b2866faa677493","freq","","","img/blue_2bandit_a2.png","70","","70","test","1","","66","","","","square","circle","64","14","3","0.9375","","","","","","","",""
"null","183641","SARL_v6","SARL_v6v2ans024","62964d27c2b2866faa677493","freq_resp","","","img/blue_2bandit_a.png","70","img/blue_2bandit_a.png","70","test","","","","","","","","","","","3","","","","","","","","",""
"null","183793","SARL_v6","SARL_v6v2ans024","62964d27c2b2866faa677493","fixation","","","img/fixation.png","null","","","test","","","","","","","","","","","","","","","","","","","",""
"254.60000002384186","184049","SARL_v6","SARL_v6v2ans024","62964d27c2b2866faa677493","freq","","","img/blue_2bandit_a2.png","70","","70","test","1","","67","","","","square","circle","65","15","3","0.9384615384615385","","","","","","","",""
"null","184597","SARL_v6","SARL_v6v2ans024","62964d27c2b2866faa677493","freq_resp","","","img/blue_2bandit_a.png","70","img/blue_2bandit_a.png","70","test","","","","","","","","","","","3","","","","","","","","",""
"null","184749","SARL_v6","SARL_v6v2ans024","62964d27c2b2866faa677493","fixation","","","img/fixation.png","null","","","test","","","","","","","","","","","","","","","","","","","",""
"267.30000001192093","185018","SARL_v6","SARL_v6v2ans024","62964d27c2b2866faa677493","freq","","","img/blue_2bandit_a2.png","70","","70","test","1","","68","","","","square","circle","66","16","3","0.9393939393939394","","","","","","","",""
"null","185553","SARL_v6","SARL_v6v2ans024","62964d27c2b2866faa677493","freq_resp","","","img/blue_2bandit_a.png","70","img/blue_2bandit_a.png","70","test","","","","","","","","","","","3","","","","","","","","",""
"null","185706","SARL_v6","SARL_v6v2ans024","62964d27c2b2866faa677493","fixation","","","img/fixation.png","null","","","test","","","","","","","","","","","","","","","","","","","",""
"238.80000001192093","185946","SARL_v6","SARL_v6v2ans024","62964d27c2b2866faa677493","freq","","","img/blue_2bandit_a2.png","70","","70","test","1","","69","","","","square","circle","67","17","3","0.9402985074626866","","","","","","","",""
"null","186510","SARL_v6","SARL_v6v2ans024","62964d27c2b2866faa677493","freq_resp","","","img/blue_2bandit_a.png","70","img/blue_2bandit_a.png","70","test","","","","","","","","","","","3","","","","","","","","",""
"null","186662","SARL_v6","SARL_v6v2ans024","62964d27c2b2866faa677493","fixation","","","img/fixation.png","null","","","test","","","","","","","","","","","","","","","","","","","",""
"309.89999997615814","186973","SARL_v6","SARL_v6v2ans024","62964d27c2b2866faa677493","freq","","","img/blue_2bandit_a2.png","70","","70","test","1","","70","","","","square","circle","68","18","3","0.9411764705882353","","","","","","","",""
"null","187465","SARL_v6","SARL_v6v2ans024","62964d27c2b2866faa677493","freq_resp","","","img/blue_2bandit_a.png","70","img/blue_2bandit_a.png","70","test","","","","","","","","","","","3","","","","","","","","",""
"null","187617","SARL_v6","SARL_v6v2ans024","62964d27c2b2866faa677493","fixation","","","img/fixation.png","null","","","test","","","","","","","","","","","","","","","","","","","",""
"242.4000000357628","187861","SARL_v6","SARL_v6v2ans024","62964d27c2b2866faa677493","freq","","","img/blue_2bandit_a2.png","70","","70","test","1","","71","","","","square","circle","69","19","3","0.9420289855072463","","","","","","","",""
"null","188421","SARL_v6","SARL_v6v2ans024","62964d27c2b2866faa677493","freq_resp","","","img/blue_2bandit_a.png","70","img/blue_2bandit_a.png","70","test","","","","","","","","","","","3","","","","","","","","",""
"null","188574","SARL_v6","SARL_v6v2ans024","62964d27c2b2866faa677493","fixation","","","img/fixation.png","null","","","test","","","","","","","","","","","","","","","","","","","",""
"264","188840","SARL_v6","SARL_v6v2ans024","62964d27c2b2866faa677493","freq","","","img/blue_2bandit_a2.png","70","","70","test","1","","72","","","","square","circle","70","20","3","0.9428571428571428","","","","","","","",""
"null","189381","SARL_v6","SARL_v6v2ans024","62964d27c2b2866faa677493","freq_resp","","","img/blue_2bandit_a.png","70","img/blue_2bandit_a.png","70","test","","","","","","","","","","","3","","","","","","","","",""
"null","189533","SARL_v6","SARL_v6v2ans024","62964d27c2b2866faa677493","fixation","","","img/fixation.png","null","","","test","","","","","","","","","","","","","","","","","","","",""
"273.89999997615814","189809","SARL_v6","SARL_v6v2ans024","62964d27c2b2866faa677493","freq","","","img/blue_2bandit_a2.png","70","","70","test","1","","73","","","","square","circle","71","21","3","0.9436619718309859","","","","","","","",""
"null","190338","SARL_v6","SARL_v6v2ans024","62964d27c2b2866faa677493","freq_resp","","","img/blue_2bandit_a.png","70","img/blue_2bandit_a.png","70","test","","","","","","","","","","","3","","","","","","","","",""
"null","190490","SARL_v6","SARL_v6v2ans024","62964d27c2b2866faa677493","fixation","","","img/fixation.png","null","","","test","","","","","","","","","","","","","","","","","","","",""
"233.89999997615814","190725","SARL_v6","SARL_v6v2ans024","62964d27c2b2866faa677493","freq","","","img/blue_2bandit_a2.png","70","","70","test","1","","74","","","","square","circle","72","22","3","0.9444444444444444","","","","","","","",""
"null","191294","SARL_v6","SARL_v6v2ans024","62964d27c2b2866faa677493","freq_resp","","","img/blue_2bandit_a.png","70","img/blue_2bandit_a.png","70","test","","","","","","","","","","","3","","","","","","","","",""
"null","191446","SARL_v6","SARL_v6v2ans024","62964d27c2b2866faa677493","fixation","","","img/fixation.png","null","","","test","","","","","","","","","","","","","","","","","","","",""
"509.69999998807907","191957","SARL_v6","SARL_v6v2ans024","62964d27c2b2866faa677493","rl","","","img/black_2bandit_a2.png","75","","0","test","","","75","","","-8","square","circle","","0","3","","75","-8","-4","-4","-8","circle","3","0"
"null","192709","SARL_v6","SARL_v6v2ans024","62964d27c2b2866faa677493","feedback","","","<div class=""verylowPoints""> -8 </div>","null","","na","test","","","NaN","","","","","","","","3","","75","","","","","","3",""
"256.5","192967","SARL_v6","SARL_v6v2ans024","62964d27c2b2866faa677493","freq","","","img/blue_2bandit_a2.png","70","","70","test","1","","76","","","","square","circle","73","1","4","0.9452054794520548","","","","","","","",""
"null","193513","SARL_v6","SARL_v6v2ans024","62964d27c2b2866faa677493","freq_resp","","","img/blue_2bandit_a.png","70","img/blue_2bandit_a.png","70","test","","","","","","","","","","","4","","","","","","","","",""
"null","193665","SARL_v6","SARL_v6v2ans024","62964d27c2b2866faa677493","fixation","","","img/fixation.png","null","","","test","","","","","","","","","","","","","","","","","","","",""
"197.10000002384186","193864","SARL_v6","SARL_v6v2ans024","62964d27c2b2866faa677493","freq","","","img/blue_2bandit_a2.png","70","","70","test","1","","77","","","","square","circle","74","2","4","0.9459459459459459","","","","","","","",""
"null","194470","SARL_v6","SARL_v6v2ans024","62964d27c2b2866faa677493","freq_resp","","","img/blue_2bandit_a.png","70","img/blue_2bandit_a.png","70","test","","","","","","","","","","","4","","","","","","","","",""
"null","194625","SARL_v6","SARL_v6v2ans024","62964d27c2b2866faa677493","fixation","","","img/fixation.png","null","","","test","","","","","","","","","","","","","","","","","","","",""
"148.80000001192093","194776","SARL_v6","SARL_v6v2ans024","62964d27c2b2866faa677493","freq","","","img/blue_2bandit_a2.png","70","","70","test","1","","78","","","","square","circle","75","3","4","0.9466666666666667","","","","","","","",""
"null","195430","SARL_v6","SARL_v6v2ans024","62964d27c2b2866faa677493","freq_resp","","","img/blue_2bandit_a.png","70","img/blue_2bandit_a.png","70","test","","","","","","","","","","","4","","","","","","","","",""
"null","195582","SARL_v6","SARL_v6v2ans024","62964d27c2b2866faa677493","fixation","","","img/fixation.png","null","","","test","","","","","","","","","","","","","","","","","","","",""
"147","195730","SARL_v6","SARL_v6v2ans024","62964d27c2b2866faa677493","freq","","","img/blue_2bandit_a2.png","70","","70","test","1","","79","","","","square","circle","76","4","4","0.9473684210526315","","","","","","","",""
"null","196385","SARL_v6","SARL_v6v2ans024","62964d27c2b2866faa677493","freq_resp","","","img/blue_2bandit_a.png","70","img/blue_2bandit_a.png","70","test","","","","","","","","","","","4","","","","","","","","",""
"null","196537","SARL_v6","SARL_v6v2ans024","62964d27c2b2866faa677493","fixation","","","img/fixation.png","null","","","test","","","","","","","","","","","","","","","","","","","",""
"173.5","196712","SARL_v6","SARL_v6v2ans024","62964d27c2b2866faa677493","freq","","","img/blue_2bandit_a2.png","70","","70","test","1","","80","","","","square","circle","77","5","4","0.948051948051948","","","","","","","",""
"null","197341","SARL_v6","SARL_v6v2ans024","62964d27c2b2866faa677493","freq_resp","","","img/blue_2bandit_a.png","70","img/blue_2bandit_a.png","70","test","","","","","","","","","","","4","","","","","","","","",""
"null","197493","SARL_v6","SARL_v6v2ans024","62964d27c2b2866faa677493","fixation","","","img/fixation.png","null","","","test","","","","","","","","","","","","","","","","","","","",""
"196.19999998807907","197691","SARL_v6","SARL_v6v2ans024","62964d27c2b2866faa677493","infreq","","","img/orange_2bandit_a2.png","70","","68","test","0","","81","","","","square","circle","78","6","4","0.9358974358974359","","","","","","","",""
"null","198297","SARL_v6","SARL_v6v2ans024","62964d27c2b2866faa677493","infreq_resp","","","img/orange_2bandit_a.png","70","img/orange_2bandit_a.png","68","test","","","","","","","","","","","4","","","","","","","","",""
"null","198449","SARL_v6","SARL_v6v2ans024","62964d27c2b2866faa677493","fixation","","","img/fixation.png","null","","","test","","","","","","","","","","","","","","","","","","","",""
"389.10000002384186","198840","SARL_v6","SARL_v6v2ans024","62964d27c2b2866faa677493","freq","","","img/blue_2bandit_a2.png","70","","70","test","1","","82","","","","square","circle","79","7","4","0.9367088607594937","","","","","","","",""
"null","199254","SARL_v6","SARL_v6v2ans024","62964d27c2b2866faa677493","freq_resp","","","img/blue_2bandit_a.png","70","img/blue_2bandit_a.png","70","test","","","","","","","","","","","4","","","","","","","","",""
"null","199406","SARL_v6","SARL_v6v2ans024","62964d27c2b2866faa677493","fixation","","","img/fixation.png","null","","","test","","","","","","","","","","","","","","","","","","","",""
"335.80000001192093","199743","SARL_v6","SARL_v6v2ans024","62964d27c2b2866faa677493","freq","","","img/blue_2bandit_a2.png","70","","70","test","1","","83","","","","square","circle","80","8","4","0.9375","","","","","","","",""
"null","200210","SARL_v6","SARL_v6v2ans024","62964d27c2b2866faa677493","freq_resp","","","img/blue_2bandit_a.png","70","img/blue_2bandit_a.png","70","test","","","","","","","","","","","4","","","","","","","","",""
"null","200362","SARL_v6","SARL_v6v2ans024","62964d27c2b2866faa677493","fixation","","","img/fixation.png","null","","","test","","","","","","","","","","","","","","","","","","","",""
"329.69999998807907","200693","SARL_v6","SARL_v6v2ans024","62964d27c2b2866faa677493","freq","","","img/blue_2bandit_a2.png","70","","70","test","1","","84","","","","square","circle","81","9","4","0.9382716049382716","","","","","","","",""
"null","201165","SARL_v6","SARL_v6v2ans024","62964d27c2b2866faa677493","freq_resp","","","img/blue_2bandit_a.png","70","img/blue_2bandit_a.png","70","test","","","","","","","","","","","4","","","","","","","","",""
"null","201318","SARL_v6","SARL_v6v2ans024","62964d27c2b2866faa677493","fixation","","","img/fixation.png","null","","","test","","","","","","","","","","","","","","","","","","","",""
"380.30000001192093","201700","SARL_v6","SARL_v6v2ans024","62964d27c2b2866faa677493","freq","","","img/blue_2bandit_a2.png","70","","70","test","1","","85","","","","square","circle","82","10","4","0.9390243902439024","","","","","","","",""
"null","202121","SARL_v6","SARL_v6v2ans024","62964d27c2b2866faa677493","freq_resp","","","img/blue_2bandit_a.png","70","img/blue_2bandit_a.png","70","test","","","","","","","","","","","4","","","","","","","","",""
"null","202273","SARL_v6","SARL_v6v2ans024","62964d27c2b2866faa677493","fixation","","","img/fixation.png","null","","","test","","","","","","","","","","","","","","","","","","","",""
"277.19999998807907","202552","SARL_v6","SARL_v6v2ans024","62964d27c2b2866faa677493","freq","","","img/blue_2bandit_a2.png","70","","70","test","1","","86","","","","square","circle","83","11","4","0.9397590361445783","","","","","","","",""
"null","203077","SARL_v6","SARL_v6v2ans024","62964d27c2b2866faa677493","freq_resp","","","img/blue_2bandit_a.png","70","img/blue_2bandit_a.png","70","test","","","","","","","","","","","4","","","","","","","","",""
"null","203229","SARL_v6","SARL_v6v2ans024","62964d27c2b2866faa677493","fixation","","","img/fixation.png","null","","","test","","","","","","","","","","","","","","","","","","","",""
"281","203512","SARL_v6","SARL_v6v2ans024","62964d27c2b2866faa677493","freq","","","img/blue_2bandit_a2.png","70","","70","test","1","","87","","","","square","circle","84","12","4","0.9404761904761905","","","","","","","",""
"null","204034","SARL_v6","SARL_v6v2ans024","62964d27c2b2866faa677493","freq_resp","","","img/blue_2bandit_a.png","70","img/blue_2bandit_a.png","70","test","","","","","","","","","","","4","","","","","","","","",""
"null","204186","SARL_v6","SARL_v6v2ans024","62964d27c2b2866faa677493","fixation","","","img/fixation.png","null","","","test","","","","","","","","","","","","","","","","","","","",""
"569.7999999523163","204757","SARL_v6","SARL_v6v2ans024","62964d27c2b2866faa677493","infreq","","","img/orange_2bandit_a2.png","68","","68","test","1","","88","","","","square","circle","85","13","4","0.9411764705882353","","","","","","","",""
"null","204990","SARL_v6","SARL_v6v2ans024","62964d27c2b2866faa677493","infreq_resp","","","img/orange_2bandit_a.png","68","img/orange_2bandit_a.png","68","test","","","","","","","","","","","4","","","","","","","","",""
"null","205145","SARL_v6","SARL_v6v2ans024","62964d27c2b2866faa677493","fixation","","","img/fixation.png","null","","","test","","","","","","","","","","","","","","","","","","","",""
"509","205656","SARL_v6","SARL_v6v2ans024","62964d27c2b2866faa677493","freq","","","img/blue_2bandit_a2.png","70","","70","test","1","","89","","","","square","circle","86","14","4","0.9418604651162791","","","","","","","",""
"null","205949","SARL_v6","SARL_v6v2ans024","62964d27c2b2866faa677493","freq_resp","","","img/blue_2bandit_a.png","70","img/blue_2bandit_a.png","70","test","","","","","","","","","","","4","","","","","","","","",""
"null","206101","SARL_v6","SARL_v6v2ans024","62964d27c2b2866faa677493","fixation","","","img/fixation.png","null","","","test","","","","","","","","","","","","","","","","","","","",""
"614.6000000238419","206717","SARL_v6","SARL_v6v2ans024","62964d27c2b2866faa677493","freq","","","img/blue_2bandit_a2.png","70","","70","test","1","","90","","","","square","circle","87","15","4","0.9425287356321839","","","","","","","",""
"null","206905","SARL_v6","SARL_v6v2ans024","62964d27c2b2866faa677493","freq_resp","","","img/blue_2bandit_a.png","70","img/blue_2bandit_a.png","70","test","","","","","","","","","","","4","","","","","","","","",""
"null","207057","SARL_v6","SARL_v6v2ans024","62964d27c2b2866faa677493","fixation","","","img/fixation.png","null","","","test","","","","","","","","","","","","","","","","","","","",""
"426.19999998807907","207485","SARL_v6","SARL_v6v2ans024","62964d27c2b2866faa677493","freq","","","img/blue_2bandit_a2.png","70","","70","test","1","","91","","","","square","circle","88","16","4","0.9431818181818182","","","","","","","",""
"null","207861","SARL_v6","SARL_v6v2ans024","62964d27c2b2866faa677493","freq_resp","","","img/blue_2bandit_a.png","70","img/blue_2bandit_a.png","70","test","","","","","","","","","","","4","","","","","","","","",""
"null","208014","SARL_v6","SARL_v6v2ans024","62964d27c2b2866faa677493","fixation","","","img/fixation.png","null","","","test","","","","","","","","","","","","","","","","","","","",""
"254.69999998807907","208270","SARL_v6","SARL_v6v2ans024","62964d27c2b2866faa677493","freq","","","img/blue_2bandit_a2.png","70","","70","test","1","","92","","","","square","circle","89","17","4","0.9438202247191011","","","","","","","",""
"null","208819","SARL_v6","SARL_v6v2ans024","62964d27c2b2866faa677493","freq_resp","","","img/blue_2bandit_a.png","70","img/blue_2bandit_a.png","70","test","","","","","","","","","","","4","","","","","","","","",""
"null","208974","SARL_v6","SARL_v6v2ans024","62964d27c2b2866faa677493","fixation","","","img/fixation.png","null","","","test","","","","","","","","","","","","","","","","","","","",""
"207.69999998807907","209183","SARL_v6","SARL_v6v2ans024","62964d27c2b2866faa677493","freq","","","img/blue_2bandit_a2.png","70","","70","test","1","","93","","","","square","circle","90","18","4","0.9444444444444444","","","","","","","",""
"null","209777","SARL_v6","SARL_v6v2ans024","62964d27c2b2866faa677493","freq_resp","","","img/blue_2bandit_a.png","70","img/blue_2bandit_a.png","70","test","","","","","","","","","","","4","","","","","","","","",""
"null","209929","SARL_v6","SARL_v6v2ans024","62964d27c2b2866faa677493","fixation","","","img/fixation.png","null","","","test","","","","","","","","","","","","","","","","","","","",""
"232.5","210163","SARL_v6","SARL_v6v2ans024","62964d27c2b2866faa677493","freq","","","img/blue_2bandit_a2.png","70","","70","test","1","","94","","","","square","circle","91","19","4","0.945054945054945","","","","","","","",""
"null","210733","SARL_v6","SARL_v6v2ans024","62964d27c2b2866faa677493","freq_resp","","","img/blue_2bandit_a.png","70","img/blue_2bandit_a.png","70","test","","","","","","","","","","","4","","","","","","","","",""
"null","210885","SARL_v6","SARL_v6v2ans024","62964d27c2b2866faa677493","fixation","","","img/fixation.png","null","","","test","","","","","","","","","","","","","","","","","","","",""
"918.1999999880791","211805","SARL_v6","SARL_v6v2ans024","62964d27c2b2866faa677493","rl","","","img/black_2bandit_a2.png","75","","0","test","","","95","","","-12","square","circle","","0","4","","75","-12","0","0","-12","circle","4","0"
"null","212558","SARL_v6","SARL_v6v2ans024","62964d27c2b2866faa677493","feedback","","","<div class=""verylowPoints""> -12 </div>","null","","na","test","","","NaN","","","","","","","","4","","75","","","","","","4",""
"526.9000000357628","213086","SARL_v6","SARL_v6v2ans024","62964d27c2b2866faa677493","freq","","","img/blue_2bandit_a2.png","70","","70","test","1","","96","","","","square","circle","92","1","5","0.9456521739130435","","","","","","","",""
"null","213362","SARL_v6","SARL_v6v2ans024","62964d27c2b2866faa677493","freq_resp","","","img/blue_2bandit_a.png","70","img/blue_2bandit_a.png","70","test","","","","","","","","","","","5","","","","","","","","",""
"null","213514","SARL_v6","SARL_v6v2ans024","62964d27c2b2866faa677493","fixation","","","img/fixation.png","null","","","test","","","","","","","","","","","","","","","","","","","",""
"488.10000002384186","214004","SARL_v6","SARL_v6v2ans024","62964d27c2b2866faa677493","freq","","","img/blue_2bandit_a2.png","70","","70","test","1","","97","","","","square","circle","93","2","5","0.946236559139785","","","","","","","",""
"null","214318","SARL_v6","SARL_v6v2ans024","62964d27c2b2866faa677493","freq_resp","","","img/blue_2bandit_a.png","70","img/blue_2bandit_a.png","70","test","","","","","","","","","","","5","","","","","","","","",""
"null","214473","SARL_v6","SARL_v6v2ans024","62964d27c2b2866faa677493","fixation","","","img/fixation.png","null","","","test","","","","","","","","","","","","","","","","","","","",""
"376.30000001192093","214851","SARL_v6","SARL_v6v2ans024","62964d27c2b2866faa677493","freq","","","img/blue_2bandit_a2.png","70","","70","test","1","","98","","","","square","circle","94","3","5","0.9468085106382979","","","","","","","",""
"null","215277","SARL_v6","SARL_v6v2ans024","62964d27c2b2866faa677493","freq_resp","","","img/blue_2bandit_a.png","70","img/blue_2bandit_a.png","70","test","","","","","","","","","","","5","","","","","","","","",""
"null","215429","SARL_v6","SARL_v6v2ans024","62964d27c2b2866faa677493","fixation","","","img/fixation.png","null","","","test","","","","","","","","","","","","","","","","","","","",""
"251.30000001192093","215682","SARL_v6","SARL_v6v2ans024","62964d27c2b2866faa677493","freq","","","img/blue_2bandit_a2.png","70","","70","test","1","","99","","","","square","circle","95","4","5","0.9473684210526315","","","","","","","",""
"null","216233","SARL_v6","SARL_v6v2ans024","62964d27c2b2866faa677493","freq_resp","","","img/blue_2bandit_a.png","70","img/blue_2bandit_a.png","70","test","","","","","","","","","","","5","","","","","","","","",""
"null","216385","SARL_v6","SARL_v6v2ans024","62964d27c2b2866faa677493","fixation","","","img/fixation.png","null","","","test","","","","","","","","","","","","","","","","","","","",""
"236","216623","SARL_v6","SARL_v6v2ans024","62964d27c2b2866faa677493","freq","","","img/blue_2bandit_a2.png","70","","70","test","1","","100","","","","square","circle","96","5","5","0.9479166666666666","","","","","","","",""
"null","217190","SARL_v6","SARL_v6v2ans024","62964d27c2b2866faa677493","freq_resp","","","img/blue_2bandit_a.png","70","img/blue_2bandit_a.png","70","test","","","","","","","","","","","5","","","","","","","","",""
"null","217342","SARL_v6","SARL_v6v2ans024","62964d27c2b2866faa677493","fixation","","","img/fixation.png","null","","","test","","","","","","","","","","","","","","","","","","","",""
"245","217588","SARL_v6","SARL_v6v2ans024","62964d27c2b2866faa677493","freq","","","img/blue_2bandit_a2.png","70","","70","test","1","","101","","","","square","circle","97","6","5","0.9484536082474226","","","","","","","",""
"null","218146","SARL_v6","SARL_v6v2ans024","62964d27c2b2866faa677493","freq_resp","","","img/blue_2bandit_a.png","70","img/blue_2bandit_a.png","70","test","","","","","","","","","","","5","","","","","","","","",""
"null","218298","SARL_v6","SARL_v6v2ans024","62964d27c2b2866faa677493","fixation","","","img/fixation.png","null","","","test","","","","","","","","","","","","","","","","","","","",""
"258.5","218558","SARL_v6","SARL_v6v2ans024","62964d27c2b2866faa677493","freq","","","img/blue_2bandit_a2.png","70","","70","test","1","","102","","","","square","circle","98","7","5","0.9489795918367347","","","","","","","",""
"null","219101","SARL_v6","SARL_v6v2ans024","62964d27c2b2866faa677493","freq_resp","","","img/blue_2bandit_a.png","70","img/blue_2bandit_a.png","70","test","","","","","","","","","","","5","","","","","","","","",""
"null","219253","SARL_v6","SARL_v6v2ans024","62964d27c2b2866faa677493","fixation","","","img/fixation.png","null","","","test","","","","","","","","","","","","","","","","","","","",""
"266.19999998807907","219521","SARL_v6","SARL_v6v2ans024","62964d27c2b2866faa677493","freq","","","img/blue_2bandit_a2.png","70","","70","test","1","","103","","","","square","circle","99","8","5","0.9494949494949495","","","","","","","",""
"null","220057","SARL_v6","SARL_v6v2ans024","62964d27c2b2866faa677493","freq_resp","","","img/blue_2bandit_a.png","70","img/blue_2bandit_a.png","70","test","","","","","","","","","","","5","","","","","","","","",""
"null","220209","SARL_v6","SARL_v6v2ans024","62964d27c2b2866faa677493","fixation","","","img/fixation.png","null","","","test","","","","","","","","","","","","","","","","","","","",""
"262.39999997615814","220473","SARL_v6","SARL_v6v2ans024","62964d27c2b2866faa677493","freq","","","img/blue_2bandit_a2.png","70","","70","test","1","","104","","","","square","circle","100","9","5","0.95","","","","","","","",""
"null","221014","SARL_v6","SARL_v6v2ans024","62964d27c2b2866faa677493","freq_resp","","","img/blue_2bandit_a.png","70","img/blue_2bandit_a.png","70","test","","","","","","","","","","","5","","","","","","","","",""
"null","221167","SARL_v6","SARL_v6v2ans024","62964d27c2b2866faa677493","fixation","","","img/fixation.png","null","","","test","","","","","","","","","","","","","","","","","","","",""
"215.39999997615814","221384","SARL_v6","SARL_v6v2ans024","62964d27c2b2866faa677493","freq","","","img/blue_2bandit_a2.png","70","","70","test","1","","105","","","","square","circle","101","10","5","0.9504950495049505","","","","","","","",""
"null","221970","SARL_v6","SARL_v6v2ans024","62964d27c2b2866faa677493","freq_resp","","","img/blue_2bandit_a.png","70","img/blue_2bandit_a.png","70","test","","","","","","","","","","","5","","","","","","","","",""
"null","222122","SARL_v6","SARL_v6v2ans024","62964d27c2b2866faa677493","fixation","","","img/fixation.png","null","","","test","","","","","","","","","","","","","","","","","","","",""
"233.69999998807907","222357","SARL_v6","SARL_v6v2ans024","62964d27c2b2866faa677493","infreq","","","img/orange_2bandit_a2.png","70","","68","test","0","","106","","","","square","circle","102","11","5","0.9411764705882353","","","","","","","",""
"null","222926","SARL_v6","SARL_v6v2ans024","62964d27c2b2866faa677493","infreq_resp","","","img/orange_2bandit_a.png","70","img/orange_2bandit_a.png","68","test","","","","","","","","","","","5","","","","","","","","",""
"null","223078","SARL_v6","SARL_v6v2ans024","62964d27c2b2866faa677493","fixation","","","img/fixation.png","null","","","test","","","","","","","","","","","","","","","","","","","",""
"332.39999997615814","223412","SARL_v6","SARL_v6v2ans024","62964d27c2b2866faa677493","freq","","","img/blue_2bandit_a2.png","70","","70","test","1","","107","","","","square","circle","103","12","5","0.941747572815534","","","","","","","",""
"null","223881","SARL_v6","SARL_v6v2ans024","62964d27c2b2866faa677493","freq_resp","","","img/blue_2bandit_a.png","70","img/blue_2bandit_a.png","70","test","","","","","","","","","","","5","","","","","","","","",""
"null","224033","SARL_v6","SARL_v6v2ans024","62964d27c2b2866faa677493","fixation","","","img/fixation.png","null","","","test","","","","","","","","","","","","","","","","","","","",""
"276.4000000357628","224311","SARL_v6","SARL_v6v2ans024","62964d27c2b2866faa677493","freq","","","img/blue_2bandit_a2.png","70","","70","test","1","","108","","","","square","circle","104","13","5","0.9423076923076923","","","","","","","",""
"null","224837","SARL_v6","SARL_v6v2ans024","62964d27c2b2866faa677493","freq_resp","","","img/blue_2bandit_a.png","70","img/blue_2bandit_a.png","70","test","","","","","","","","","","","5","","","","","","","","",""
"null","224989","SARL_v6","SARL_v6v2ans024","62964d27c2b2866faa677493","fixation","","","img/fixation.png","null","","","test","","","","","","","","","","","","","","","","","","","",""
"255","225246","SARL_v6","SARL_v6v2ans024","62964d27c2b2866faa677493","freq","","","img/blue_2bandit_a2.png","70","","70","test","1","","109","","","","square","circle","105","14","5","0.9428571428571428","","","","","","","",""
"null","225794","SARL_v6","SARL_v6v2ans024","62964d27c2b2866faa677493","freq_resp","","","img/blue_2bandit_a.png","70","img/blue_2bandit_a.png","70","test","","","","","","","","","","","5","","","","","","","","",""
"null","225945","SARL_v6","SARL_v6v2ans024","62964d27c2b2866faa677493","fixation","","","img/fixation.png","null","","","test","","","","","","","","","","","","","","","","","","","",""
"248.9000000357628","226196","SARL_v6","SARL_v6v2ans024","62964d27c2b2866faa677493","freq","","","img/blue_2bandit_a2.png","70","","70","test","1","","110","","","","square","circle","106","15","5","0.9433962264150944","","","","","","","",""
"null","226750","SARL_v6","SARL_v6v2ans024","62964d27c2b2866faa677493","freq_resp","","","img/blue_2bandit_a.png","70","img/blue_2bandit_a.png","70","test","","","","","","","","","","","5","","","","","","","","",""
"null","226902","SARL_v6","SARL_v6v2ans024","62964d27c2b2866faa677493","fixation","","","img/fixation.png","null","","","test","","","","","","","","","","","","","","","","","","","",""
"408.5999999642372","227312","SARL_v6","SARL_v6v2ans024","62964d27c2b2866faa677493","infreq","","","img/orange_2bandit_a2.png","68","","68","test","1","","111","","","","square","circle","107","16","5","0.9439252336448598","","","","","","","",""
"null","227705","SARL_v6","SARL_v6v2ans024","62964d27c2b2866faa677493","infreq_resp","","","img/orange_2bandit_a.png","68","img/orange_2bandit_a.png","68","test","","","","","","","","","","","5","","","","","","","","",""
"null","227857","SARL_v6","SARL_v6v2ans024","62964d27c2b2866faa677493","fixation","","","img/fixation.png","null","","","test","","","","","","","","","","","","","","","","","","","",""
"408.69999998807907","228267","SARL_v6","SARL_v6v2ans024","62964d27c2b2866faa677493","freq","","","img/blue_2bandit_a2.png","70","","70","test","1","","112","","","","square","circle","108","17","5","0.9444444444444444","","","","","","","",""
"null","228661","SARL_v6","SARL_v6v2ans024","62964d27c2b2866faa677493","freq_resp","","","img/blue_2bandit_a.png","70","img/blue_2bandit_a.png","70","test","","","","","","","","","","","5","","","","","","","","",""
"null","228813","SARL_v6","SARL_v6v2ans024","62964d27c2b2866faa677493","fixation","","","img/fixation.png","null","","","test","","","","","","","","","","","","","","","","","","","",""
"375.30000001192093","229190","SARL_v6","SARL_v6v2ans024","62964d27c2b2866faa677493","freq","","","img/blue_2bandit_a2.png","70","","70","test","1","","113","","","","square","circle","109","18","5","0.944954128440367","","","","","","","",""
"null","229617","SARL_v6","SARL_v6v2ans024","62964d27c2b2866faa677493","freq_resp","","","img/blue_2bandit_a.png","70","img/blue_2bandit_a.png","70","test","","","","","","","","","","","5","","","","","","","","",""
"null","229769","SARL_v6","SARL_v6v2ans024","62964d27c2b2866faa677493","fixation","","","img/fixation.png","null","","","test","","","","","","","","","","","","","","","","","","","",""
"320.19999998807907","230092","SARL_v6","SARL_v6v2ans024","62964d27c2b2866faa677493","freq","","","img/blue_2bandit_a2.png","70","","70","test","1","","114","","","","square","circle","110","19","5","0.9454545454545454","","","","","","","",""
"null","230573","SARL_v6","SARL_v6v2ans024","62964d27c2b2866faa677493","freq_resp","","","img/blue_2bandit_a.png","70","img/blue_2bandit_a.png","70","test","","","","","","","","","","","5","","","","","","","","",""
"null","230726","SARL_v6","SARL_v6v2ans024","62964d27c2b2866faa677493","fixation","","","img/fixation.png","null","","","test","","","","","","","","","","","","","","","","","","","",""
"404.89999997615814","231132","SARL_v6","SARL_v6v2ans024","62964d27c2b2866faa677493","freq","","","img/blue_2bandit_a2.png","70","","70","test","1","","115","","","","square","circle","111","20","5","0.9459459459459459","","","","","","","",""
"null","231530","SARL_v6","SARL_v6v2ans024","62964d27c2b2866faa677493","freq_resp","","","img/blue_2bandit_a.png","70","img/blue_2bandit_a.png","70","test","","","","","","","","","","","5","","","","","","","","",""
"null","231682","SARL_v6","SARL_v6v2ans024","62964d27c2b2866faa677493","fixation","","","img/fixation.png","null","","","test","","","","","","","","","","","","","","","","","","","",""
"447","232130","SARL_v6","SARL_v6v2ans024","62964d27c2b2866faa677493","freq","","","img/blue_2bandit_a2.png","70","","70","test","1","","116","","","","square","circle","112","21","5","0.9464285714285714","","","","","","","",""
"null","232485","SARL_v6","SARL_v6v2ans024","62964d27c2b2866faa677493","freq_resp","","","img/blue_2bandit_a.png","70","img/blue_2bandit_a.png","70","test","","","","","","","","","","","5","","","","","","","","",""
"null","232637","SARL_v6","SARL_v6v2ans024","62964d27c2b2866faa677493","fixation","","","img/fixation.png","null","","","test","","","","","","","","","","","","","","","","","","","",""
"316.30000001192093","232955","SARL_v6","SARL_v6v2ans024","62964d27c2b2866faa677493","freq","","","img/blue_2bandit_a2.png","70","","70","test","1","","117","","","","square","circle","113","22","5","0.9469026548672567","","","","","","","",""
"null","233441","SARL_v6","SARL_v6v2ans024","62964d27c2b2866faa677493","freq_resp","","","img/blue_2bandit_a.png","70","img/blue_2bandit_a.png","70","test","","","","","","","","","","","5","","","","","","","","",""
"null","233593","SARL_v6","SARL_v6v2ans024","62964d27c2b2866faa677493","fixation","","","img/fixation.png","null","","","test","","","","","","","","","","","","","","","","","","","",""
"303.19999998807907","233898","SARL_v6","SARL_v6v2ans024","62964d27c2b2866faa677493","freq","","","img/blue_2bandit_a2.png","70","","70","test","1","","118","","","","square","circle","114","23","5","0.9473684210526315","","","","","","","",""
"null","234397","SARL_v6","SARL_v6v2ans024","62964d27c2b2866faa677493","freq_resp","","","img/blue_2bandit_a.png","70","img/blue_2bandit_a.png","70","test","","","","","","","","","","","5","","","","","","","","",""
"null","234549","SARL_v6","SARL_v6v2ans024","62964d27c2b2866faa677493","fixation","","","img/fixation.png","null","","","test","","","","","","","","","","","","","","","","","","","",""
"583","235134","SARL_v6","SARL_v6v2ans024","62964d27c2b2866faa677493","rl","","","img/black_2bandit_a2.png","75","","0","test","","","119","","","-7","square","circle","","0","5","","75","-7","4","4","-7","circle","5","0"
"null","235886","SARL_v6","SARL_v6v2ans024","62964d27c2b2866faa677493","feedback","","","<div class=""verylowPoints""> -7 </div>","null","","na","test","","","NaN","","","","","","","","5","","75","","","","","","5",""
"660.5999999642372","236548","SARL_v6","SARL_v6v2ans024","62964d27c2b2866faa677493","freq","","","img/blue_2bandit_a2.png","70","","70","test","1","","120","","","","square","circle","115","1","6","0.9478260869565217","","","","","","","",""
"null","236690","SARL_v6","SARL_v6v2ans024","62964d27c2b2866faa677493","freq_resp","","","img/blue_2bandit_a.png","70","img/blue_2bandit_a.png","70","test","","","","","","","","","","","6","","","","","","","","",""
"null","236846","SARL_v6","SARL_v6v2ans024","62964d27c2b2866faa677493","fixation","","","img/fixation.png","null","","","test","","","","","","","","","","","","","","","","","","","",""
"520.6999999880791","237368","SARL_v6","SARL_v6v2ans024","62964d27c2b2866faa677493","freq","","","img/blue_2bandit_a2.png","70","","70","test","1","","121","","","","square","circle","116","2","6","0.9482758620689655","","","","","","","",""
"null","237649","SARL_v6","SARL_v6v2ans024","62964d27c2b2866faa677493","freq_resp","","","img/blue_2bandit_a.png","70","img/blue_2bandit_a.png","70","test","","","","","","","","","","","6","","","","","","","","",""
"null","237801","SARL_v6","SARL_v6v2ans024","62964d27c2b2866faa677493","fixation","","","img/fixation.png","null","","","test","","","","","","","","","","","","","","","","","","","",""
"497.5999999642372","238300","SARL_v6","SARL_v6v2ans024","62964d27c2b2866faa677493","freq","","","img/blue_2bandit_a2.png","70","","70","test","1","","122","","","","square","circle","117","3","6","0.9487179487179487","","","","","","","",""
"null","238606","SARL_v6","SARL_v6v2ans024","62964d27c2b2866faa677493","freq_resp","","","img/blue_2bandit_a.png","70","img/blue_2bandit_a.png","70","test","","","","","","","","","","","6","","","","","","","","",""
"null","238757","SARL_v6","SARL_v6v2ans024","62964d27c2b2866faa677493","fixation","","","img/fixation.png","null","","","test","","","","","","","","","","","","","","","","","","","",""
"481","239240","SARL_v6","SARL_v6v2ans024","62964d27c2b2866faa677493","freq","","","img/blue_2bandit_a2.png","70","","70","test","1","","123","","","","square","circle","118","4","6","0.9491525423728814","","","","","","","",""
"null","239562","SARL_v6","SARL_v6v2ans024","62964d27c2b2866faa677493","freq_resp","","","img/blue_2bandit_a.png","70","img/blue_2bandit_a.png","70","test","","","","","","","","","","","6","","","","","","","","",""
"null","239714","SARL_v6","SARL_v6v2ans024","62964d27c2b2866faa677493","fixation","","","img/fixation.png","null","","","test","","","","","","","","","","","","","","","","","","","",""
"477.80000001192093","240193","SARL_v6","SARL_v6v2ans024","62964d27c2b2866faa677493","freq","","","img/blue_2bandit_a2.png","70","","70","test","1","","124","","","","square","circle","119","5","6","0.9495798319327731","","","","","","","",""
"null","240518","SARL_v6","SARL_v6v2ans024","62964d27c2b2866faa677493","freq_resp","","","img/blue_2bandit_a.png","70","img/blue_2bandit_a.png","70","test","","","","","","","","","","","6","","","","","","","","",""
"null","240670","SARL_v6","SARL_v6v2ans024","62964d27c2b2866faa677493","fixation","","","img/fixation.png","null","","","test","","","","","","","","","","","","","","","","","","","",""
"463.5999999642372","241134","SARL_v6","SARL_v6v2ans024","62964d27c2b2866faa677493","freq","","","img/blue_2bandit_a2.png","70","","70","test","1","","125","","","","square","circle","120","6","6","0.95","","","","","","","",""
"null","241472","SARL_v6","SARL_v6v2ans024","62964d27c2b2866faa677493","freq_resp","","","img/blue_2bandit_a.png","70","img/blue_2bandit_a.png","70","test","","","","","","","","","","","6","","","","","","","","",""
"null","241625","SARL_v6","SARL_v6v2ans024","62964d27c2b2866faa677493","fixation","","","img/fixation.png","null","","","test","","","","","","","","","","","","","","","","","","","",""
"495.19999998807907","242121","SARL_v6","SARL_v6v2ans024","62964d27c2b2866faa677493","freq","","","img/blue_2bandit_a2.png","70","","70","test","1","","126","","","","square","circle","121","7","6","0.9504132231404959","","","","","","","",""
"null","242429","SARL_v6","SARL_v6v2ans024","62964d27c2b2866faa677493","freq_resp","","","img/blue_2bandit_a.png","70","img/blue_2bandit_a.png","70","test","","","","","","","","","","","6","","","","","","","","",""
"null","242582","SARL_v6","SARL_v6v2ans024","62964d27c2b2866faa677493","fixation","","","img/fixation.png","null","","","test","","","","","","","","","","","","","","","","","","","",""
"348.0999999642372","242931","SARL_v6","SARL_v6v2ans024","62964d27c2b2866faa677493","freq","","","img/blue_2bandit_a2.png","70","","70","test","1","","127","","","","square","circle","122","8","6","0.9508196721311475","","","","","","","",""
"null","243385","SARL_v6","SARL_v6v2ans024","62964d27c2b2866faa677493","freq_resp","","","img/blue_2bandit_a.png","70","img/blue_2bandit_a.png","70","test","","","","","","","","","","","6","","","","","","","","",""
"null","243537","SARL_v6","SARL_v6v2ans024","62964d27c2b2866faa677493","fixation","","","img/fixation.png","null","","","test","","","","","","","","","","","","","","","","","","","",""
"324.89999997615814","243863","SARL_v6","SARL_v6v2ans024","62964d27c2b2866faa677493","freq","","","img/blue_2bandit_a2.png","70","","70","test","1","","128","","","","square","circle","123","9","6","0.9512195121951219","","","","","","","",""
"null","244341","SARL_v6","SARL_v6v2ans024","62964d27c2b2866faa677493","freq_resp","","","img/blue_2bandit_a.png","70","img/blue_2bandit_a.png","70","test","","","","","","","","","","","6","","","","","","","","",""
"null","244493","SARL_v6","SARL_v6v2ans024","62964d27c2b2866faa677493","fixation","","","img/fixation.png","null","","","test","","","","","","","","","","","","","","","","","","","",""
"369.5","244864","SARL_v6","SARL_v6v2ans024","62964d27c2b2866faa677493","infreq","","","img/orange_2bandit_a2.png","68","","68","test","1","","129","","","","square","circle","124","10","6","0.9516129032258065","","","","","","","",""
"null","245297","SARL_v6","SARL_v6v2ans024","62964d27c2b2866faa677493","infreq_resp","","","img/orange_2bandit_a.png","68","img/orange_2bandit_a.png","68","test","","","","","","","","","","","6","","","","","","","","",""
"null","245452","SARL_v6","SARL_v6v2ans024","62964d27c2b2866faa677493","fixation","","","img/fixation.png","null","","","test","","","","","","","","","","","","","","","","","","","",""
"354.5","245808","SARL_v6","SARL_v6v2ans024","62964d27c2b2866faa677493","freq","","","img/blue_2bandit_a2.png","70","","70","test","1","","130","","","","square","circle","125","11","6","0.952","","","","","","","",""
