"rt","time_elapsed","expId","subject","prolificID","trialType","rlType","attType","stimulus","key_press","stim","corrresp","phase","corr","pracCounter","trialNum","rewardOne","rewardTwo","reward","bandOne","bandTwo","attentionNum","attentionRunNum","blockNum","performance","bandChosen","circleVal","squareVal","bandOneVal","bandTwoVal","shapeChosen","rlNum","badFlag"
"154443.60000000056","154449","SARL_v6","SARL_v639gq6yl4","60c93f189082587ea79ce324","","","","","","","","","","","","","","","","","","","","","","","","","","","",""
"","158341","SARL_v6","SARL_v639gq6yl4","60c93f189082587ea79ce324","fullscreen","fullscreen","fullscreen","","","","","","","","","","","","","","","","","","","","","","","","",""
"171556.5","329905","SARL_v6","SARL_v639gq6yl4","60c93f189082587ea79ce324","","","","","","","","","","","","","","","","","","","","","","","","","","","",""
"null","330717","SARL_v6","SARL_v639gq6yl4","60c93f189082587ea79ce324","freqPrac","","","img/orange_2bandit_a2.png","null","img/orange_2bandit_a2.png","70","prac","0","1","","","","","","","","","","","","","","","","","",""
"null","331723","SARL_v6","SARL_v639gq6yl4","60c93f189082587ea79ce324","feedback","","","img/tooSlow.png","null","","na","prac","","","","","","","","","","","","","","","","","","","",""
"null","331883","SARL_v6","SARL_v639gq6yl4","60c93f189082587ea79ce324","fixation","","","img/fixation.png","null","","","prac","","","","","","","","","","","","","","","","","","","",""
"446.59999999962747","332335","SARL_v6","SARL_v639gq6yl4","60c93f189082587ea79ce324","infreqPrac","","","img/blue_2bandit_a2.png","68","img/blue_2bandit_a2.png","68","prac","1","1","","","","","","","","","","","","","","","","","",""
"446.59999999962747","332699","SARL_v6","SARL_v639gq6yl4","60c93f189082587ea79ce324","infreqPrac_resp","","","img/blue_2bandit_a.png","68","img/blue_2bandit_a.png","68","prac","","","","","","","","","","","","","","","","","","","",""
"89.29999999981374","332860","SARL_v6","SARL_v639gq6yl4","60c93f189082587ea79ce324","fixation","","","img/fixation.png","68","","","prac","","","","","","","","","","","","","","","","","","","",""
"467","333333","SARL_v6","SARL_v639gq6yl4","60c93f189082587ea79ce324","freqPrac","","","img/orange_2bandit_a2.png","70","img/orange_2bandit_a2.png","70","prac","1","1","","","","","","","","","","","","","","","","","",""
"467","333675","SARL_v6","SARL_v639gq6yl4","60c93f189082587ea79ce324","freqPrac_resp","","","img/orange_2bandit_a.png","70","img/orange_2bandit_a.png","70","prac","","","","","","","","","","","","","","","","","","","",""
"null","333836","SARL_v6","SARL_v639gq6yl4","60c93f189082587ea79ce324","fixation","","","img/fixation.png","null","","","prac","","","","","","","","","","","","","","","","","","","",""
"439.3999999994412","334281","SARL_v6","SARL_v639gq6yl4","60c93f189082587ea79ce324","infreqPrac","","","img/blue_2bandit_a2.png","68","img/blue_2bandit_a2.png","68","prac","1","1","","","","","","","","","","","","","","","","","",""
"439.3999999994412","334652","SARL_v6","SARL_v639gq6yl4","60c93f189082587ea79ce324","infreqPrac_resp","","","img/blue_2bandit_a.png","68","img/blue_2bandit_a.png","68","prac","","","","","","","","","","","","","","","","","","","",""
"null","334812","SARL_v6","SARL_v639gq6yl4","60c93f189082587ea79ce324","fixation","","","img/fixation.png","null","","","prac","","","","","","","","","","","","","","","","","","","",""
"526.2000000001863","335344","SARL_v6","SARL_v639gq6yl4","60c93f189082587ea79ce324","infreqPrac","","","img/blue_2bandit_a2.png","68","img/blue_2bandit_a2.png","68","prac","1","1","","","","","","","","","","","","","","","","","",""
"526.2000000001863","335627","SARL_v6","SARL_v639gq6yl4","60c93f189082587ea79ce324","infreqPrac_resp","","","img/blue_2bandit_a.png","68","img/blue_2bandit_a.png","68","prac","","","","","","","","","","","","","","","","","","","",""
"null","335787","SARL_v6","SARL_v639gq6yl4","60c93f189082587ea79ce324","fixation","","","img/fixation.png","null","","","prac","","","","","","","","","","","","","","","","","","","",""
"348.29999999981374","336140","SARL_v6","SARL_v639gq6yl4","60c93f189082587ea79ce324","infreqPrac","","","img/blue_2bandit_a2.png","68","img/blue_2bandit_a2.png","68","prac","1","1","","","","","","","","","","","","","","","","","",""
"348.29999999981374","336603","SARL_v6","SARL_v639gq6yl4","60c93f189082587ea79ce324","infreqPrac_resp","","","img/blue_2bandit_a.png","68","img/blue_2bandit_a.png","68","prac","","","","","","","","","","","","","","","","","","","",""
"null","336763","SARL_v6","SARL_v639gq6yl4","60c93f189082587ea79ce324","fixation","","","img/fixation.png","null","","","prac","","","","","","","","","","","","","","","","","","","",""
"373.20000000018626","337141","SARL_v6","SARL_v639gq6yl4","60c93f189082587ea79ce324","freqPrac","","","img/orange_2bandit_a2.png","70","img/orange_2bandit_a2.png","70","prac","1","1","","","","","","","","","","","","","","","","","",""
"373.20000000018626","337579","SARL_v6","SARL_v639gq6yl4","60c93f189082587ea79ce324","freqPrac_resp","","","img/orange_2bandit_a.png","70","img/orange_2bandit_a.png","70","prac","","","","","","","","","","","","","","","","","","","",""
"null","337739","SARL_v6","SARL_v639gq6yl4","60c93f189082587ea79ce324","fixation","","","img/fixation.png","null","","","prac","","","","","","","","","","","","","","","","","","","",""
"451.20000000018626","338195","SARL_v6","SARL_v639gq6yl4","60c93f189082587ea79ce324","infreqPrac","","","img/blue_2bandit_a2.png","68","img/blue_2bandit_a2.png","68","prac","1","1","","","","","","","","","","","","","","","","","",""
"451.20000000018626","338555","SARL_v6","SARL_v639gq6yl4","60c93f189082587ea79ce324","infreqPrac_resp","","","img/blue_2bandit_a.png","68","img/blue_2bandit_a.png","68","prac","","","","","","","","","","","","","","","","","","","",""
"null","338713","SARL_v6","SARL_v639gq6yl4","60c93f189082587ea79ce324","fixation","","","img/fixation.png","null","","","prac","","","","","","","","","","","","","","","","","","","",""
"518.5","339236","SARL_v6","SARL_v639gq6yl4","60c93f189082587ea79ce324","freqPrac","","","img/orange_2bandit_a2.png","70","img/orange_2bandit_a2.png","70","prac","1","1","","","","","","","","","","","","","","","","","",""
"518.5","339523","SARL_v6","SARL_v639gq6yl4","60c93f189082587ea79ce324","freqPrac_resp","","","img/orange_2bandit_a.png","70","img/orange_2bandit_a.png","70","prac","","","","","","","","","","","","","","","","","","","",""
"null","339683","SARL_v6","SARL_v639gq6yl4","60c93f189082587ea79ce324","fixation","","","img/fixation.png","null","","","prac","","","","","","","","","","","","","","","","","","","",""
"499.29999999981374","340188","SARL_v6","SARL_v639gq6yl4","60c93f189082587ea79ce324","freqPrac","","","img/orange_2bandit_a2.png","70","img/orange_2bandit_a2.png","70","prac","1","1","","","","","","","","","","","","","","","","","",""
"499.29999999981374","340499","SARL_v6","SARL_v639gq6yl4","60c93f189082587ea79ce324","freqPrac_resp","","","img/orange_2bandit_a.png","70","img/orange_2bandit_a.png","70","prac","","","","","","","","","","","","","","","","","","","",""
"null","340659","SARL_v6","SARL_v639gq6yl4","60c93f189082587ea79ce324","fixation","","","img/fixation.png","null","","","prac","","","","","","","","","","","","","","","","","","","",""
"28694.5","369357","SARL_v6","SARL_v639gq6yl4","60c93f189082587ea79ce324","","","","","","","","prac","","","","","","","","","","","","","","","","","","","",""
"533.5","369897","SARL_v6","SARL_v639gq6yl4","60c93f189082587ea79ce324","rlPractice","","","img/black_2bandit_a2.png","75","img/black_2bandit_a2.png","","prac","","","0","","","","","","","","","","","","","","","","",""
"null","370659","SARL_v6","SARL_v639gq6yl4","60c93f189082587ea79ce324","feedback","","","<div class=""veryhighPoints""> 10 </div>","null","","na","prac","","","1","10","-14","10","","","","","","","","","","","","","",""
"null","370820","SARL_v6","SARL_v639gq6yl4","60c93f189082587ea79ce324","fixation","","","img/fixation.png","null","","","prac","","","","","","","","","","","","","","","","","","","",""
"418.90000000037253","371243","SARL_v6","SARL_v639gq6yl4","60c93f189082587ea79ce324","rlPractice","","","img/black_2bandit_a2.png","74","img/black_2bandit_a2.png","","prac","","","1","","","","","","","","","","","","","","","","",""
"null","371999","SARL_v6","SARL_v639gq6yl4","60c93f189082587ea79ce324","feedback","","","<div class=""verylowPoints_sq""> -5 </div>","null","","na","prac","","","2","5","-5","5","","","","","","","","","","","","","",""
"null","372156","SARL_v6","SARL_v639gq6yl4","60c93f189082587ea79ce324","fixation","","","img/fixation.png","null","","","prac","","","","","","","","","","","","","","","","","","","",""
"417.09999999962747","372578","SARL_v6","SARL_v639gq6yl4","60c93f189082587ea79ce324","rlPractice","","","img/black_2bandit_a2.png","75","img/black_2bandit_a2.png","","prac","","","2","","","","","","","","","","","","","","","","",""
"null","373339","SARL_v6","SARL_v639gq6yl4","60c93f189082587ea79ce324","feedback","","","<div class=""veryhighPoints""> 30 </div>","null","","na","prac","","","3","30","2","30","","","","","","","","","","","","","",""
"null","373500","SARL_v6","SARL_v639gq6yl4","60c93f189082587ea79ce324","fixation","","","img/fixation.png","null","","","prac","","","","","","","","","","","","","","","","","","","",""
"315","373832","SARL_v6","SARL_v639gq6yl4","60c93f189082587ea79ce324","rlPractice","","","img/black_2bandit_a2.png","75","img/black_2bandit_a2.png","","prac","","","3","","","","","","","","","","","","","","","","",""
"null","374587","SARL_v6","SARL_v639gq6yl4","60c93f189082587ea79ce324","feedback","","","<div class=""verylowPoints""> -2 </div>","null","","na","prac","","","4","-2","20","-2","","","","","","","","","","","","","",""
"null","374747","SARL_v6","SARL_v639gq6yl4","60c93f189082587ea79ce324","fixation","","","img/fixation.png","null","","","prac","","","","","","","","","","","","","","","","","","","",""
"1956.7000000001863","376707","SARL_v6","SARL_v639gq6yl4","60c93f189082587ea79ce324","","","","","","","","prac","","","","","","","","","","","","","","","","","","","",""
"624.5999999996275","377338","SARL_v6","SARL_v639gq6yl4","60c93f189082587ea79ce324","mixAttFreqPrac","","","img/orange_2bandit_a2.png","70","img/orange_2bandit_a2.png","70","prac","","","1","","","","","","","","","","","","","","","","",""
"624.5999999996275","377523","SARL_v6","SARL_v639gq6yl4","60c93f189082587ea79ce324","freqPrac_resp","","","img/orange_2bandit_a.png","70","img/orange_2bandit_a.png","70","prac","","","1","","","","","","","","","","","","","","","","",""
"null","377683","SARL_v6","SARL_v639gq6yl4","60c93f189082587ea79ce324","fixation","","","img/fixation.png","null","","","prac","","","","","","","","","","","","","","","","","","","",""
"400.5","378088","SARL_v6","SARL_v639gq6yl4","60c93f189082587ea79ce324","mixAttInfreqPrac","","","img/blue_2bandit_a2.png","68","img/blue_2bandit_a2.png","68","prac","","","2","","","","","","","","","","","","","","","","",""
"400.5","378499","SARL_v6","SARL_v639gq6yl4","60c93f189082587ea79ce324","infreqPrac_resp","","","img/blue_2bandit_a.png","68","img/orange_2bandit_a.png","68","prac","","","2","","","","","","","","","","","","","","","","",""
"null","378659","SARL_v6","SARL_v639gq6yl4","60c93f189082587ea79ce324","fixation","","","img/fixation.png","null","","","prac","","","","","","","","","","","","","","","","","","","",""
"null","379467","SARL_v6","SARL_v639gq6yl4","60c93f189082587ea79ce324","mixAttInfreqPrac","","","img/blue_2bandit_a2.png","null","img/blue_2bandit_a2.png","68","prac","","","3","","","","","","","","","","","","","","","","",""
"139.40000000037253","379627","SARL_v6","SARL_v639gq6yl4","60c93f189082587ea79ce324","fixation","","","img/fixation.png","70","","","prac","","","","","","","","","","","","","","","","","","","",""
"554.2999999998137","380187","SARL_v6","SARL_v639gq6yl4","60c93f189082587ea79ce324","mixAttInfreqPrac","","","img/blue_2bandit_a2.png","68","img/blue_2bandit_a2.png","68","prac","","","4","","","","","","","","","","","","","","","","",""
"554.2999999998137","380443","SARL_v6","SARL_v639gq6yl4","60c93f189082587ea79ce324","infreqPrac_resp","","","img/blue_2bandit_a.png","68","img/orange_2bandit_a.png","68","prac","","","4","","","","","","","","","","","","","","","","",""
"null","380603","SARL_v6","SARL_v639gq6yl4","60c93f189082587ea79ce324","fixation","","","img/fixation.png","null","","","prac","","","","","","","","","","","","","","","","","","","",""
"null","381409","SARL_v6","SARL_v639gq6yl4","60c93f189082587ea79ce324","mixAttFreqPrac","","","img/orange_2bandit_a2.png","null","img/orange_2bandit_a2.png","70","prac","","","5","","","","","","","","","","","","","","","","",""
"2.099999999627471","381569","SARL_v6","SARL_v639gq6yl4","60c93f189082587ea79ce324","fixation","","","img/fixation.png","70","","","prac","","","","","","","","","","","","","","","","","","","",""
"682.2000000001863","382256","SARL_v6","SARL_v639gq6yl4","60c93f189082587ea79ce324","mixRLPractice","","","img/black_2bandit_a2.png","75","img/black_2bandit_a2.png","","prac","","","5","","","","","","","","","","","","","","","","",""
"null","383019","SARL_v6","SARL_v639gq6yl4","60c93f189082587ea79ce324","feedback","","","<div class=""verylowPoints""> -14 </div>","null","","na","prac","","","6","-14","10","-14","","","","","","","","","","","","","",""
"null","383179","SARL_v6","SARL_v639gq6yl4","60c93f189082587ea79ce324","fixation","","","img/fixation.png","null","","","prac","","","","","","","","","","","","","","","","","","","",""
"529.9000000003725","383715","SARL_v6","SARL_v639gq6yl4","60c93f189082587ea79ce324","mixAttFreqPrac","","","img/orange_2bandit_a2.png","70","img/orange_2bandit_a2.png","70","prac","","","7","","","","","","","","","","","","","","","","",""
"529.9000000003725","383995","SARL_v6","SARL_v639gq6yl4","60c93f189082587ea79ce324","freqPrac_resp","","","img/orange_2bandit_a.png","70","img/orange_2bandit_a.png","70","prac","","","7","","","","","","","","","","","","","","","","",""
"null","384155","SARL_v6","SARL_v639gq6yl4","60c93f189082587ea79ce324","fixation","","","img/fixation.png","null","","","prac","","","","","","","","","","","","","","","","","","","",""
"414","384574","SARL_v6","SARL_v639gq6yl4","60c93f189082587ea79ce324","mixAttInfreqPrac","","","img/blue_2bandit_a2.png","68","img/blue_2bandit_a2.png","68","prac","","","8","","","","","","","","","","","","","","","","",""
"414","384971","SARL_v6","SARL_v639gq6yl4","60c93f189082587ea79ce324","infreqPrac_resp","","","img/blue_2bandit_a.png","68","img/orange_2bandit_a.png","68","prac","","","8","","","","","","","","","","","","","","","","",""
"null","385131","SARL_v6","SARL_v639gq6yl4","60c93f189082587ea79ce324","fixation","","","img/fixation.png","null","","","prac","","","","","","","","","","","","","","","","","","","",""
"413.79999999981374","385550","SARL_v6","SARL_v639gq6yl4","60c93f189082587ea79ce324","mixAttFreqPrac","","","img/orange_2bandit_a2.png","68","img/orange_2bandit_a2.png","70","prac","","","9","","","","","","","","","","","","","","","","",""
"413.79999999981374","385947","SARL_v6","SARL_v639gq6yl4","60c93f189082587ea79ce324","freqPrac_resp","","","img/orange_2bandit_a.png","68","img/orange_2bandit_a.png","70","prac","","","9","","","","","","","","","","","","","","","","",""
"null","386107","SARL_v6","SARL_v639gq6yl4","60c93f189082587ea79ce324","fixation","","","img/fixation.png","null","","","prac","","","","","","","","","","","","","","","","","","","",""
"798.2000000001863","386911","SARL_v6","SARL_v639gq6yl4","60c93f189082587ea79ce324","mixAttFreqPrac","","","img/orange_2bandit_a2.png","70","img/orange_2bandit_a2.png","70","prac","","","10","","","","","","","","","","","","","","","","",""
"798.2000000001863","386920","SARL_v6","SARL_v639gq6yl4","60c93f189082587ea79ce324","freqPrac_resp","","","img/orange_2bandit_a.png","70","img/orange_2bandit_a.png","70","prac","","","10","","","","","","","","","","","","","","","","",""
"null","387083","SARL_v6","SARL_v639gq6yl4","60c93f189082587ea79ce324","fixation","","","img/fixation.png","null","","","prac","","","","","","","","","","","","","","","","","","","",""
"562.2999999998137","387652","SARL_v6","SARL_v639gq6yl4","60c93f189082587ea79ce324","mixAttInfreqPrac","","","img/blue_2bandit_a2.png","68","img/blue_2bandit_a2.png","68","prac","","","11","","","","","","","","","","","","","","","","",""
"562.2999999998137","387899","SARL_v6","SARL_v639gq6yl4","60c93f189082587ea79ce324","infreqPrac_resp","","","img/blue_2bandit_a.png","68","img/orange_2bandit_a.png","68","prac","","","11","","","","","","","","","","","","","","","","",""
"null","388059","SARL_v6","SARL_v639gq6yl4","60c93f189082587ea79ce324","fixation","","","img/fixation.png","null","","","prac","","","","","","","","","","","","","","","","","","","",""
"563.3999999994412","388627","SARL_v6","SARL_v639gq6yl4","60c93f189082587ea79ce324","mixRLPractice","","","img/black_2bandit_a2.png","75","img/black_2bandit_a2.png","","prac","","","11","","","","","","","","","","","","","","","","",""
"null","389387","SARL_v6","SARL_v639gq6yl4","60c93f189082587ea79ce324","feedback","","","<div class=""veryhighPoints""> 5 </div>","null","","na","prac","","","12","5","-5","5","","","","","","","","","","","","","",""
"null","389548","SARL_v6","SARL_v639gq6yl4","60c93f189082587ea79ce324","fixation","","","img/fixation.png","null","","","prac","","","","","","","","","","","","","","","","","","","",""
"18641","408192","SARL_v6","SARL_v639gq6yl4","60c93f189082587ea79ce324","","","","","","","","prac","","","","","","","","","","","","","","","","","","","",""
"717.2000000001863","408914","SARL_v6","SARL_v639gq6yl4","60c93f189082587ea79ce324","freq","","","img/orange_2bandit_a2.png","70","","70","test","1","","1","","","","square","circle","1","1","1","1","","","","","","","",""
"null","409003","SARL_v6","SARL_v639gq6yl4","60c93f189082587ea79ce324","freq_resp","","","img/orange_2bandit_a.png","70","img/orange_2bandit_a.png","70","test","","","","","","","","","","","1","","","","","","","","",""
"null","409164","SARL_v6","SARL_v639gq6yl4","60c93f189082587ea79ce324","fixation","","","img/fixation.png","null","","","test","","","","","","","","","","","","","","","","","","","",""
"null","409971","SARL_v6","SARL_v639gq6yl4","60c93f189082587ea79ce324","freq","","","img/orange_2bandit_a2.png","null","","70","test","0","","2","","","","square","circle","2","2","1","0.5","","","","","","","",""
"null","410131","SARL_v6","SARL_v639gq6yl4","60c93f189082587ea79ce324","fixation","","","img/fixation.png","null","","","test","","","","","","","","","","","","","","","","","","","",""
"468","410605","SARL_v6","SARL_v639gq6yl4","60c93f189082587ea79ce324","infreq","","","img/blue_2bandit_a2.png","68","","68","test","1","","3","","","","square","circle","3","3","1","0.6666666666666666","","","","","","","",""
"null","410947","SARL_v6","SARL_v639gq6yl4","60c93f189082587ea79ce324","infreq_resp","","","img/blue_2bandit_a.png","68","img/blue_2bandit_a.png","68","test","","","","","","","","","","","1","","","","","","","","",""
"null","411107","SARL_v6","SARL_v639gq6yl4","60c93f189082587ea79ce324","fixation","","","img/fixation.png","null","","","test","","","","","","","","","","","","","","","","","","","",""
"524.7999999998137","411637","SARL_v6","SARL_v639gq6yl4","60c93f189082587ea79ce324","freq","","","img/orange_2bandit_a2.png","70","","70","test","1","","4","","","","square","circle","4","4","1","0.75","","","","","","","",""
"null","411923","SARL_v6","SARL_v639gq6yl4","60c93f189082587ea79ce324","freq_resp","","","img/orange_2bandit_a.png","70","img/orange_2bandit_a.png","70","test","","","","","","","","","","","1","","","","","","","","",""
"null","412083","SARL_v6","SARL_v639gq6yl4","60c93f189082587ea79ce324","fixation","","","img/fixation.png","null","","","test","","","","","","","","","","","","","","","","","","","",""
"464.59999999962747","412553","SARL_v6","SARL_v639gq6yl4","60c93f189082587ea79ce324","freq","","","img/orange_2bandit_a2.png","70","","70","test","1","","5","","","","square","circle","5","5","1","0.8","","","","","","","",""
"null","412899","SARL_v6","SARL_v639gq6yl4","60c93f189082587ea79ce324","freq_resp","","","img/orange_2bandit_a.png","70","img/orange_2bandit_a.png","70","test","","","","","","","","","","","1","","","","","","","","",""
"null","413059","SARL_v6","SARL_v639gq6yl4","60c93f189082587ea79ce324","fixation","","","img/fixation.png","null","","","test","","","","","","","","","","","","","","","","","","","",""
"580.1000000005588","413644","SARL_v6","SARL_v639gq6yl4","60c93f189082587ea79ce324","freq","","","img/orange_2bandit_a2.png","70","","70","test","1","","6","","","","square","circle","6","6","1","0.8333333333333334","","","","","","","",""
"null","413875","SARL_v6","SARL_v639gq6yl4","60c93f189082587ea79ce324","freq_resp","","","img/orange_2bandit_a.png","70","img/orange_2bandit_a.png","70","test","","","","","","","","","","","1","","","","","","","","",""
"null","414035","SARL_v6","SARL_v639gq6yl4","60c93f189082587ea79ce324","fixation","","","img/fixation.png","null","","","test","","","","","","","","","","","","","","","","","","","",""
"400.40000000037253","414441","SARL_v6","SARL_v639gq6yl4","60c93f189082587ea79ce324","freq","","","img/orange_2bandit_a2.png","70","","70","test","1","","7","","","","square","circle","7","7","1","0.8571428571428571","","","","","","","",""
"null","414852","SARL_v6","SARL_v639gq6yl4","60c93f189082587ea79ce324","freq_resp","","","img/orange_2bandit_a.png","70","img/orange_2bandit_a.png","70","test","","","","","","","","","","","1","","","","","","","","",""
"null","415012","SARL_v6","SARL_v639gq6yl4","60c93f189082587ea79ce324","fixation","","","img/fixation.png","null","","","test","","","","","","","","","","","","","","","","","","","",""
"284.29999999981374","415302","SARL_v6","SARL_v639gq6yl4","60c93f189082587ea79ce324","freq","","","img/orange_2bandit_a2.png","70","","70","test","1","","8","","","","square","circle","8","8","1","0.875","","","","","","","",""
"null","415827","SARL_v6","SARL_v639gq6yl4","60c93f189082587ea79ce324","freq_resp","","","img/orange_2bandit_a.png","70","img/orange_2bandit_a.png","70","test","","","","","","","","","","","1","","","","","","","","",""
"null","415987","SARL_v6","SARL_v639gq6yl4","60c93f189082587ea79ce324","fixation","","","img/fixation.png","null","","","test","","","","","","","","","","","","","","","","","","","",""
"313.8999999994412","416308","SARL_v6","SARL_v639gq6yl4","60c93f189082587ea79ce324","freq","","","img/orange_2bandit_a2.png","70","","70","test","1","","9","","","","square","circle","9","9","1","0.8888888888888888","","","","","","","",""
"null","416803","SARL_v6","SARL_v639gq6yl4","60c93f189082587ea79ce324","freq_resp","","","img/orange_2bandit_a.png","70","img/orange_2bandit_a.png","70","test","","","","","","","","","","","1","","","","","","","","",""
"null","416964","SARL_v6","SARL_v639gq6yl4","60c93f189082587ea79ce324","fixation","","","img/fixation.png","null","","","test","","","","","","","","","","","","","","","","","","","",""
"456.59999999962747","417426","SARL_v6","SARL_v639gq6yl4","60c93f189082587ea79ce324","infreq","","","img/blue_2bandit_a2.png","68","","68","test","1","","10","","","","square","circle","10","10","1","0.9","","","","","","","",""
"null","417779","SARL_v6","SARL_v639gq6yl4","60c93f189082587ea79ce324","infreq_resp","","","img/blue_2bandit_a.png","68","img/blue_2bandit_a.png","68","test","","","","","","","","","","","1","","","","","","","","",""
"null","417936","SARL_v6","SARL_v639gq6yl4","60c93f189082587ea79ce324","fixation","","","img/fixation.png","null","","","test","","","","","","","","","","","","","","","","","","","",""
"497","418438","SARL_v6","SARL_v639gq6yl4","60c93f189082587ea79ce324","freq","","","img/orange_2bandit_a2.png","70","","70","test","1","","11","","","","square","circle","11","11","1","0.9090909090909091","","","","","","","",""
"null","418747","SARL_v6","SARL_v639gq6yl4","60c93f189082587ea79ce324","freq_resp","","","img/orange_2bandit_a.png","70","img/orange_2bandit_a.png","70","test","","","","","","","","","","","1","","","","","","","","",""
"null","418907","SARL_v6","SARL_v639gq6yl4","60c93f189082587ea79ce324","fixation","","","img/fixation.png","null","","","test","","","","","","","","","","","","","","","","","","","",""
"375.5","419288","SARL_v6","SARL_v639gq6yl4","60c93f189082587ea79ce324","freq","","","img/orange_2bandit_a2.png","70","","70","test","1","","12","","","","square","circle","12","12","1","0.9166666666666666","","","","","","","",""
"null","419723","SARL_v6","SARL_v639gq6yl4","60c93f189082587ea79ce324","freq_resp","","","img/orange_2bandit_a.png","70","img/orange_2bandit_a.png","70","test","","","","","","","","","","","1","","","","","","","","",""
"null","419883","SARL_v6","SARL_v639gq6yl4","60c93f189082587ea79ce324","fixation","","","img/fixation.png","null","","","test","","","","","","","","","","","","","","","","","","","",""
"416.70000000018626","420305","SARL_v6","SARL_v639gq6yl4","60c93f189082587ea79ce324","freq","","","img/orange_2bandit_a2.png","70","","70","test","1","","13","","","","square","circle","13","13","1","0.9230769230769231","","","","","","","",""
"null","420699","SARL_v6","SARL_v639gq6yl4","60c93f189082587ea79ce324","freq_resp","","","img/orange_2bandit_a.png","70","img/orange_2bandit_a.png","70","test","","","","","","","","","","","1","","","","","","","","",""
"null","420859","SARL_v6","SARL_v639gq6yl4","60c93f189082587ea79ce324","fixation","","","img/fixation.png","null","","","test","","","","","","","","","","","","","","","","","","","",""
"519.7000000001863","421382","SARL_v6","SARL_v639gq6yl4","60c93f189082587ea79ce324","infreq","","","img/blue_2bandit_a2.png","68","","68","test","1","","14","","","","square","circle","14","14","1","0.9285714285714286","","","","","","","",""
"null","421667","SARL_v6","SARL_v639gq6yl4","60c93f189082587ea79ce324","infreq_resp","","","img/blue_2bandit_a.png","68","img/blue_2bandit_a.png","68","test","","","","","","","","","","","1","","","","","","","","",""
"null","421827","SARL_v6","SARL_v639gq6yl4","60c93f189082587ea79ce324","fixation","","","img/fixation.png","null","","","test","","","","","","","","","","","","","","","","","","","",""
"548.5999999996275","422380","SARL_v6","SARL_v639gq6yl4","60c93f189082587ea79ce324","freq","","","img/orange_2bandit_a2.png","70","","70","test","1","","15","","","","square","circle","15","15","1","0.9333333333333333","","","","","","","",""
"null","422643","SARL_v6","SARL_v639gq6yl4","60c93f189082587ea79ce324","freq_resp","","","img/orange_2bandit_a.png","70","img/orange_2bandit_a.png","70","test","","","","","","","","","","","1","","","","","","","","",""
"null","422802","SARL_v6","SARL_v639gq6yl4","60c93f189082587ea79ce324","fixation","","","img/fixation.png","null","","","test","","","","","","","","","","","","","","","","","","","",""
"381.79999999981374","423188","SARL_v6","SARL_v639gq6yl4","60c93f189082587ea79ce324","freq","","","img/orange_2bandit_a2.png","70","","70","test","1","","16","","","","square","circle","16","16","1","0.9375","","","","","","","",""
"null","423619","SARL_v6","SARL_v639gq6yl4","60c93f189082587ea79ce324","freq_resp","","","img/orange_2bandit_a.png","70","img/orange_2bandit_a.png","70","test","","","","","","","","","","","1","","","","","","","","",""
"null","423779","SARL_v6","SARL_v639gq6yl4","60c93f189082587ea79ce324","fixation","","","img/fixation.png","null","","","test","","","","","","","","","","","","","","","","","","","",""
"357.70000000018626","424142","SARL_v6","SARL_v639gq6yl4","60c93f189082587ea79ce324","freq","","","img/orange_2bandit_a2.png","70","","70","test","1","","17","","","","square","circle","17","17","1","0.9411764705882353","","","","","","","",""
"null","424596","SARL_v6","SARL_v639gq6yl4","60c93f189082587ea79ce324","freq_resp","","","img/orange_2bandit_a.png","70","img/orange_2bandit_a.png","70","test","","","","","","","","","","","1","","","","","","","","",""
"null","424756","SARL_v6","SARL_v639gq6yl4","60c93f189082587ea79ce324","fixation","","","img/fixation.png","null","","","test","","","","","","","","","","","","","","","","","","","",""
"302.09999999962747","425065","SARL_v6","SARL_v639gq6yl4","60c93f189082587ea79ce324","freq","","","img/orange_2bandit_a2.png","70","","70","test","1","","18","","","","square","circle","18","18","1","0.9444444444444444","","","","","","","",""
"null","425571","SARL_v6","SARL_v639gq6yl4","60c93f189082587ea79ce324","freq_resp","","","img/orange_2bandit_a.png","70","img/orange_2bandit_a.png","70","test","","","","","","","","","","","1","","","","","","","","",""
"null","425731","SARL_v6","SARL_v639gq6yl4","60c93f189082587ea79ce324","fixation","","","img/fixation.png","null","","","test","","","","","","","","","","","","","","","","","","","",""
"275.29999999981374","426012","SARL_v6","SARL_v639gq6yl4","60c93f189082587ea79ce324","freq","","","img/orange_2bandit_a2.png","70","","70","test","1","","19","","","","square","circle","19","19","1","0.9473684210526315","","","","","","","",""
"null","426547","SARL_v6","SARL_v639gq6yl4","60c93f189082587ea79ce324","freq_resp","","","img/orange_2bandit_a.png","70","img/orange_2bandit_a.png","70","test","","","","","","","","","","","1","","","","","","","","",""
"null","426708","SARL_v6","SARL_v639gq6yl4","60c93f189082587ea79ce324","fixation","","","img/fixation.png","null","","","test","","","","","","","","","","","","","","","","","","","",""
"202.20000000018626","426917","SARL_v6","SARL_v639gq6yl4","60c93f189082587ea79ce324","freq","","","img/orange_2bandit_a2.png","70","","70","test","1","","20","","","","square","circle","20","20","1","0.95","","","","","","","",""
"null","427523","SARL_v6","SARL_v639gq6yl4","60c93f189082587ea79ce324","freq_resp","","","img/orange_2bandit_a.png","70","img/orange_2bandit_a.png","70","test","","","","","","","","","","","1","","","","","","","","",""
"null","427683","SARL_v6","SARL_v639gq6yl4","60c93f189082587ea79ce324","fixation","","","img/fixation.png","null","","","test","","","","","","","","","","","","","","","","","","","",""
"302.70000000018626","427991","SARL_v6","SARL_v639gq6yl4","60c93f189082587ea79ce324","freq","","","img/orange_2bandit_a2.png","70","","70","test","1","","21","","","","square","circle","21","21","1","0.9523809523809523","","","","","","","",""
"null","428500","SARL_v6","SARL_v639gq6yl4","60c93f189082587ea79ce324","freq_resp","","","img/orange_2bandit_a.png","70","img/orange_2bandit_a.png","70","test","","","","","","","","","","","1","","","","","","","","",""
"null","428659","SARL_v6","SARL_v639gq6yl4","60c93f189082587ea79ce324","fixation","","","img/fixation.png","null","","","test","","","","","","","","","","","","","","","","","","","",""
"154.09999999962747","428818","SARL_v6","SARL_v639gq6yl4","60c93f189082587ea79ce324","freq","","","img/orange_2bandit_a2.png","70","","70","test","1","","22","","","","square","circle","22","22","1","0.9545454545454546","","","","","","","",""
"null","429475","SARL_v6","SARL_v639gq6yl4","60c93f189082587ea79ce324","freq_resp","","","img/orange_2bandit_a.png","70","img/orange_2bandit_a.png","70","test","","","","","","","","","","","1","","","","","","","","",""
"null","429635","SARL_v6","SARL_v639gq6yl4","60c93f189082587ea79ce324","fixation","","","img/fixation.png","null","","","test","","","","","","","","","","","","","","","","","","","",""
"null","430443","SARL_v6","SARL_v639gq6yl4","60c93f189082587ea79ce324","freq","","","img/orange_2bandit_a2.png","null","","70","test","0","","23","","","","square","circle","23","23","1","0.9130434782608695","","","","","","","",""
"null","430603","SARL_v6","SARL_v639gq6yl4","60c93f189082587ea79ce324","fixation","","","img/fixation.png","null","","","test","","","","","","","","","","","","","","","","","","","",""
"666.9000000003725","431275","SARL_v6","SARL_v639gq6yl4","60c93f189082587ea79ce324","rl","","","img/black_2bandit_a2.png","75","","0","test","","","24","","","-3","square","circle","","0","1","","75","-3","-3","-3","-3","circle","1","0"
"null","432035","SARL_v6","SARL_v639gq6yl4","60c93f189082587ea79ce324","feedback","","","<div class=""verylowPoints""> -3 </div>","null","","na","test","","","NaN","","","","","","","","1","","75","","","","","","1",""
"294.80000000074506","432337","SARL_v6","SARL_v639gq6yl4","60c93f189082587ea79ce324","freq","","","img/orange_2bandit_a2.png","70","","70","test","1","","25","","","","square","circle","24","1","2","0.9166666666666666","","","","","","","",""
"null","432849","SARL_v6","SARL_v639gq6yl4","60c93f189082587ea79ce324","freq_resp","","","img/orange_2bandit_a.png","70","img/orange_2bandit_a.png","70","test","","","","","","","","","","","2","","","","","","","","",""
"null","433012","SARL_v6","SARL_v639gq6yl4","60c93f189082587ea79ce324","fixation","","","img/fixation.png","null","","","test","","","","","","","","","","","","","","","","","","","",""
"236.29999999981374","433254","SARL_v6","SARL_v639gq6yl4","60c93f189082587ea79ce324","freq","","","img/orange_2bandit_a2.png","70","","70","test","1","","26","","","","square","circle","25","2","2","0.92","","","","","","","",""
"null","433827","SARL_v6","SARL_v639gq6yl4","60c93f189082587ea79ce324","freq_resp","","","img/orange_2bandit_a.png","70","img/orange_2bandit_a.png","70","test","","","","","","","","","","","2","","","","","","","","",""
"null","433987","SARL_v6","SARL_v639gq6yl4","60c93f189082587ea79ce324","fixation","","","img/fixation.png","null","","","test","","","","","","","","","","","","","","","","","","","",""
"274.70000000018626","434267","SARL_v6","SARL_v639gq6yl4","60c93f189082587ea79ce324","infreq","","","img/blue_2bandit_a2.png","70","","68","test","0","","27","","","","square","circle","26","3","2","0.8846153846153846","","","","","","","",""
"null","434804","SARL_v6","SARL_v639gq6yl4","60c93f189082587ea79ce324","infreq_resp","","","img/blue_2bandit_a.png","70","img/blue_2bandit_a.png","68","test","","","","","","","","","","","2","","","","","","","","",""
"null","434963","SARL_v6","SARL_v639gq6yl4","60c93f189082587ea79ce324","fixation","","","img/fixation.png","null","","","test","","","","","","","","","","","","","","","","","","","",""
"660","435629","SARL_v6","SARL_v639gq6yl4","60c93f189082587ea79ce324","freq","","","img/orange_2bandit_a2.png","70","","70","test","1","","28","","","","square","circle","27","4","2","0.8888888888888888","","","","","","","",""
"null","435779","SARL_v6","SARL_v639gq6yl4","60c93f189082587ea79ce324","freq_resp","","","img/orange_2bandit_a.png","70","img/orange_2bandit_a.png","70","test","","","","","","","","","","","2","","","","","","","","",""
"null","435939","SARL_v6","SARL_v639gq6yl4","60c93f189082587ea79ce324","fixation","","","img/fixation.png","null","","","test","","","","","","","","","","","","","","","","","","","",""
"609.7999999998137","436552","SARL_v6","SARL_v639gq6yl4","60c93f189082587ea79ce324","freq","","","img/orange_2bandit_a2.png","70","","70","test","1","","29","","","","square","circle","28","5","2","0.8928571428571429","","","","","","","",""
"null","436748","SARL_v6","SARL_v639gq6yl4","60c93f189082587ea79ce324","freq_resp","","","img/orange_2bandit_a.png","70","img/orange_2bandit_a.png","70","test","","","","","","","","","","","2","","","","","","","","",""
"null","436907","SARL_v6","SARL_v639gq6yl4","60c93f189082587ea79ce324","fixation","","","img/fixation.png","null","","","test","","","","","","","","","","","","","","","","","","","",""
"563.3000000007451","437476","SARL_v6","SARL_v639gq6yl4","60c93f189082587ea79ce324","freq","","","img/orange_2bandit_a2.png","70","","70","test","1","","30","","","","square","circle","29","6","2","0.896551724137931","","","","","","","",""
"null","437724","SARL_v6","SARL_v639gq6yl4","60c93f189082587ea79ce324","freq_resp","","","img/orange_2bandit_a.png","70","img/orange_2bandit_a.png","70","test","","","","","","","","","","","2","","","","","","","","",""
"null","437883","SARL_v6","SARL_v639gq6yl4","60c93f189082587ea79ce324","fixation","","","img/fixation.png","null","","","test","","","","","","","","","","","","","","","","","","","",""
"389.79999999981374","438278","SARL_v6","SARL_v639gq6yl4","60c93f189082587ea79ce324","freq","","","img/orange_2bandit_a2.png","70","","70","test","1","","31","","","","square","circle","30","7","2","0.9","","","","","","","",""
"null","438700","SARL_v6","SARL_v639gq6yl4","60c93f189082587ea79ce324","freq_resp","","","img/orange_2bandit_a.png","70","img/orange_2bandit_a.png","70","test","","","","","","","","","","","2","","","","","","","","",""
"null","438860","SARL_v6","SARL_v639gq6yl4","60c93f189082587ea79ce324","fixation","","","img/fixation.png","null","","","test","","","","","","","","","","","","","","","","","","","",""
"354.09999999962747","439220","SARL_v6","SARL_v639gq6yl4","60c93f189082587ea79ce324","freq","","","img/orange_2bandit_a2.png","70","","70","test","1","","32","","","","square","circle","31","8","2","0.9032258064516129","","","","","","","",""
"null","439675","SARL_v6","SARL_v639gq6yl4","60c93f189082587ea79ce324","freq_resp","","","img/orange_2bandit_a.png","70","img/orange_2bandit_a.png","70","test","","","","","","","","","","","2","","","","","","","","",""
"null","439835","SARL_v6","SARL_v639gq6yl4","60c93f189082587ea79ce324","fixation","","","img/fixation.png","null","","","test","","","","","","","","","","","","","","","","","","","",""
"305.40000000037253","440145","SARL_v6","SARL_v639gq6yl4","60c93f189082587ea79ce324","freq","","","img/orange_2bandit_a2.png","70","","70","test","1","","33","","","","square","circle","32","9","2","0.90625","","","","","","","",""
"null","440651","SARL_v6","SARL_v639gq6yl4","60c93f189082587ea79ce324","freq_resp","","","img/orange_2bandit_a.png","70","img/orange_2bandit_a.png","70","test","","","","","","","","","","","2","","","","","","","","",""
"null","440812","SARL_v6","SARL_v639gq6yl4","60c93f189082587ea79ce324","fixation","","","img/fixation.png","null","","","test","","","","","","","","","","","","","","","","","","","",""
"291.20000000018626","441109","SARL_v6","SARL_v639gq6yl4","60c93f189082587ea79ce324","freq","","","img/orange_2bandit_a2.png","70","","70","test","1","","34","","","","square","circle","33","10","2","0.9090909090909091","","","","","","","",""
"null","441627","SARL_v6","SARL_v639gq6yl4","60c93f189082587ea79ce324","freq_resp","","","img/orange_2bandit_a.png","70","img/orange_2bandit_a.png","70","test","","","","","","","","","","","2","","","","","","","","",""
"null","441787","SARL_v6","SARL_v639gq6yl4","60c93f189082587ea79ce324","fixation","","","img/fixation.png","null","","","test","","","","","","","","","","","","","","","","","","","",""
"291.3999999994412","442085","SARL_v6","SARL_v639gq6yl4","60c93f189082587ea79ce324","freq","","","img/orange_2bandit_a2.png","70","","70","test","1","","35","","","","square","circle","34","11","2","0.9117647058823529","","","","","","","",""
"null","442604","SARL_v6","SARL_v639gq6yl4","60c93f189082587ea79ce324","freq_resp","","","img/orange_2bandit_a.png","70","img/orange_2bandit_a.png","70","test","","","","","","","","","","","2","","","","","","","","",""
"null","442764","SARL_v6","SARL_v639gq6yl4","60c93f189082587ea79ce324","fixation","","","img/fixation.png","null","","","test","","","","","","","","","","","","","","","","","","","",""
"279","443049","SARL_v6","SARL_v639gq6yl4","60c93f189082587ea79ce324","freq","","","img/orange_2bandit_a2.png","70","","70","test","1","","36","","","","square","circle","35","12","2","0.9142857142857143","","","","","","","",""
"null","443579","SARL_v6","SARL_v639gq6yl4","60c93f189082587ea79ce324","freq_resp","","","img/orange_2bandit_a.png","70","img/orange_2bandit_a.png","70","test","","","","","","","","","","","2","","","","","","","","",""
"null","443739","SARL_v6","SARL_v639gq6yl4","60c93f189082587ea79ce324","fixation","","","img/fixation.png","null","","","test","","","","","","","","","","","","","","","","","","","",""
"261.8999999994412","444007","SARL_v6","SARL_v639gq6yl4","60c93f189082587ea79ce324","freq","","","img/orange_2bandit_a2.png","70","","70","test","1","","37","","","","square","circle","36","13","2","0.9166666666666666","","","","","","","",""
"null","444556","SARL_v6","SARL_v639gq6yl4","60c93f189082587ea79ce324","freq_resp","","","img/orange_2bandit_a.png","70","img/orange_2bandit_a.png","70","test","","","","","","","","","","","2","","","","","","","","",""
"null","444715","SARL_v6","SARL_v639gq6yl4","60c93f189082587ea79ce324","fixation","","","img/fixation.png","null","","","test","","","","","","","","","","","","","","","","","","","",""
"314.5","445036","SARL_v6","SARL_v639gq6yl4","60c93f189082587ea79ce324","freq","","","img/orange_2bandit_a2.png","70","","70","test","1","","38","","","","square","circle","37","14","2","0.918918918918919","","","","","","","",""
"null","445531","SARL_v6","SARL_v639gq6yl4","60c93f189082587ea79ce324","freq_resp","","","img/orange_2bandit_a.png","70","img/orange_2bandit_a.png","70","test","","","","","","","","","","","2","","","","","","","","",""
"null","445691","SARL_v6","SARL_v639gq6yl4","60c93f189082587ea79ce324","fixation","","","img/fixation.png","null","","","test","","","","","","","","","","","","","","","","","","","",""
"242.79999999981374","445939","SARL_v6","SARL_v639gq6yl4","60c93f189082587ea79ce324","freq","","","img/orange_2bandit_a2.png","70","","70","test","1","","39","","","","square","circle","38","15","2","0.9210526315789473","","","","","","","",""
"null","446507","SARL_v6","SARL_v639gq6yl4","60c93f189082587ea79ce324","freq_resp","","","img/orange_2bandit_a.png","70","img/orange_2bandit_a.png","70","test","","","","","","","","","","","2","","","","","","","","",""
"null","446667","SARL_v6","SARL_v639gq6yl4","60c93f189082587ea79ce324","fixation","","","img/fixation.png","null","","","test","","","","","","","","","","","","","","","","","","","",""
"290.59999999962747","446963","SARL_v6","SARL_v639gq6yl4","60c93f189082587ea79ce324","freq","","","img/orange_2bandit_a2.png","70","","70","test","1","","40","","","","square","circle","39","16","2","0.9230769230769231","","","","","","","",""
"null","447483","SARL_v6","SARL_v639gq6yl4","60c93f189082587ea79ce324","freq_resp","","","img/orange_2bandit_a.png","70","img/orange_2bandit_a.png","70","test","","","","","","","","","","","2","","","","","","","","",""
"null","447644","SARL_v6","SARL_v639gq6yl4","60c93f189082587ea79ce324","fixation","","","img/fixation.png","null","","","test","","","","","","","","","","","","","","","","","","","",""
"289.69999999925494","447939","SARL_v6","SARL_v639gq6yl4","60c93f189082587ea79ce324","freq","","","img/orange_2bandit_a2.png","70","","70","test","1","","41","","","","square","circle","40","17","2","0.925","","","","","","","",""
"null","448460","SARL_v6","SARL_v639gq6yl4","60c93f189082587ea79ce324","freq_resp","","","img/orange_2bandit_a.png","70","img/orange_2bandit_a.png","70","test","","","","","","","","","","","2","","","","","","","","",""
"null","448619","SARL_v6","SARL_v639gq6yl4","60c93f189082587ea79ce324","fixation","","","img/fixation.png","null","","","test","","","","","","","","","","","","","","","","","","","",""
"317.09999999962747","448942","SARL_v6","SARL_v639gq6yl4","60c93f189082587ea79ce324","freq","","","img/orange_2bandit_a2.png","70","","70","test","1","","42","","","","square","circle","41","18","2","0.926829268292683","","","","","","","",""
"null","449435","SARL_v6","SARL_v639gq6yl4","60c93f189082587ea79ce324","freq_resp","","","img/orange_2bandit_a.png","70","img/orange_2bandit_a.png","70","test","","","","","","","","","","","2","","","","","","","","",""
"null","449595","SARL_v6","SARL_v639gq6yl4","60c93f189082587ea79ce324","fixation","","","img/fixation.png","null","","","test","","","","","","","","","","","","","","","","","","","",""
"494.09999999962747","450094","SARL_v6","SARL_v639gq6yl4","60c93f189082587ea79ce324","infreq","","","img/blue_2bandit_a2.png","68","","68","test","1","","43","","","","square","circle","42","19","2","0.9285714285714286","","","","","","","",""
"null","450412","SARL_v6","SARL_v639gq6yl4","60c93f189082587ea79ce324","infreq_resp","","","img/blue_2bandit_a.png","68","img/blue_2bandit_a.png","68","test","","","","","","","","","","","2","","","","","","","","",""
"null","450571","SARL_v6","SARL_v639gq6yl4","60c93f189082587ea79ce324","fixation","","","img/fixation.png","null","","","test","","","","","","","","","","","","","","","","","","","",""
"587.5","451164","SARL_v6","SARL_v639gq6yl4","60c93f189082587ea79ce324","freq","","","img/orange_2bandit_a2.png","70","","70","test","1","","44","","","","square","circle","43","20","2","0.9302325581395349","","","","","","","",""
"null","451387","SARL_v6","SARL_v639gq6yl4","60c93f189082587ea79ce324","freq_resp","","","img/orange_2bandit_a.png","70","img/orange_2bandit_a.png","70","test","","","","","","","","","","","2","","","","","","","","",""
"null","451548","SARL_v6","SARL_v639gq6yl4","60c93f189082587ea79ce324","fixation","","","img/fixation.png","null","","","test","","","","","","","","","","","","","","","","","","","",""
"635.9000000003725","452189","SARL_v6","SARL_v639gq6yl4","60c93f189082587ea79ce324","rl","","","img/black_2bandit_a2.png","75","","0","test","","","45","","","-8","square","circle","","0","2","","75","-8","-5","-5","-8","circle","2","0"
"null","452948","SARL_v6","SARL_v639gq6yl4","60c93f189082587ea79ce324","feedback","","","<div class=""verylowPoints""> -8 </div>","null","","na","test","","","NaN","","","","","","","","2","","75","","","","","","2",""
"364.20000000018626","453319","SARL_v6","SARL_v639gq6yl4","60c93f189082587ea79ce324","freq","","","img/orange_2bandit_a2.png","70","","70","test","1","","46","","","","square","circle","44","1","3","0.9318181818181818","","","","","","","",""
"null","453763","SARL_v6","SARL_v639gq6yl4","60c93f189082587ea79ce324","freq_resp","","","img/orange_2bandit_a.png","70","img/orange_2bandit_a.png","70","test","","","","","","","","","","","3","","","","","","","","",""
"null","453921","SARL_v6","SARL_v639gq6yl4","60c93f189082587ea79ce324","fixation","","","img/fixation.png","null","","","test","","","","","","","","","","","","","","","","","","","",""
"255.3999999994412","454181","SARL_v6","SARL_v639gq6yl4","60c93f189082587ea79ce324","freq","","","img/orange_2bandit_a2.png","70","","70","test","1","","47","","","","square","circle","45","2","3","0.9333333333333333","","","","","","","",""
"null","454731","SARL_v6","SARL_v639gq6yl4","60c93f189082587ea79ce324","freq_resp","","","img/orange_2bandit_a.png","70","img/orange_2bandit_a.png","70","test","","","","","","","","","","","3","","","","","","","","",""
"null","454891","SARL_v6","SARL_v639gq6yl4","60c93f189082587ea79ce324","fixation","","","img/fixation.png","null","","","test","","","","","","","","","","","","","","","","","","","",""
"448.80000000074506","455345","SARL_v6","SARL_v639gq6yl4","60c93f189082587ea79ce324","freq","","","img/orange_2bandit_a2.png","70","","70","test","1","","48","","","","square","circle","46","3","3","0.9347826086956522","","","","","","","",""
"null","455707","SARL_v6","SARL_v639gq6yl4","60c93f189082587ea79ce324","freq_resp","","","img/orange_2bandit_a.png","70","img/orange_2bandit_a.png","70","test","","","","","","","","","","","3","","","","","","","","",""
"null","455867","SARL_v6","SARL_v639gq6yl4","60c93f189082587ea79ce324","fixation","","","img/fixation.png","null","","","test","","","","","","","","","","","","","","","","","","","",""
"786.9000000003725","456662","SARL_v6","SARL_v639gq6yl4","60c93f189082587ea79ce324","infreq","","","img/blue_2bandit_a2.png","68","","68","test","1","","49","","","","square","circle","47","4","3","0.9361702127659575","","","","","","","",""
"null","456684","SARL_v6","SARL_v639gq6yl4","60c93f189082587ea79ce324","infreq_resp","","","img/blue_2bandit_a.png","68","img/blue_2bandit_a.png","68","test","","","","","","","","","","","3","","","","","","","","",""
"null","456843","SARL_v6","SARL_v639gq6yl4","60c93f189082587ea79ce324","fixation","","","img/fixation.png","null","","","test","","","","","","","","","","","","","","","","","","","",""
"596.2000000001863","457444","SARL_v6","SARL_v639gq6yl4","60c93f189082587ea79ce324","freq","","","img/orange_2bandit_a2.png","70","","70","test","1","","50","","","","square","circle","48","5","3","0.9375","","","","","","","",""
"null","457659","SARL_v6","SARL_v639gq6yl4","60c93f189082587ea79ce324","freq_resp","","","img/orange_2bandit_a.png","70","img/orange_2bandit_a.png","70","test","","","","","","","","","","","3","","","","","","","","",""
"null","457819","SARL_v6","SARL_v639gq6yl4","60c93f189082587ea79ce324","fixation","","","img/fixation.png","null","","","test","","","","","","","","","","","","","","","","","","","",""
"333.20000000018626","458158","SARL_v6","SARL_v639gq6yl4","60c93f189082587ea79ce324","freq","","","img/orange_2bandit_a2.png","70","","70","test","1","","51","","","","square","circle","49","6","3","0.9387755102040817","","","","","","","",""
"null","458635","SARL_v6","SARL_v639gq6yl4","60c93f189082587ea79ce324","freq_resp","","","img/orange_2bandit_a.png","70","img/orange_2bandit_a.png","70","test","","","","","","","","","","","3","","","","","","","","",""
"null","458795","SARL_v6","SARL_v639gq6yl4","60c93f189082587ea79ce324","fixation","","","img/fixation.png","null","","","test","","","","","","","","","","","","","","","","","","","",""
"273.09999999962747","459074","SARL_v6","SARL_v639gq6yl4","60c93f189082587ea79ce324","freq","","","img/orange_2bandit_a2.png","70","","70","test","1","","52","","","","square","circle","50","7","3","0.94","","","","","","","",""
"null","459611","SARL_v6","SARL_v639gq6yl4","60c93f189082587ea79ce324","freq_resp","","","img/orange_2bandit_a.png","70","img/orange_2bandit_a.png","70","test","","","","","","","","","","","3","","","","","","","","",""
"null","459771","SARL_v6","SARL_v639gq6yl4","60c93f189082587ea79ce324","fixation","","","img/fixation.png","null","","","test","","","","","","","","","","","","","","","","","","","",""
"141.5","459919","SARL_v6","SARL_v639gq6yl4","60c93f189082587ea79ce324","freq","","","img/orange_2bandit_a2.png","70","","70","test","1","","53","","","","square","circle","51","8","3","0.9411764705882353","","","","","","","",""
"null","460588","SARL_v6","SARL_v639gq6yl4","60c93f189082587ea79ce324","freq_resp","","","img/orange_2bandit_a.png","70","img/orange_2bandit_a.png","70","test","","","","","","","","","","","3","","","","","","","","",""
"null","460749","SARL_v6","SARL_v639gq6yl4","60c93f189082587ea79ce324","fixation","","","img/fixation.png","null","","","test","","","","","","","","","","","","","","","","","","","",""
"115.1000000005588","460869","SARL_v6","SARL_v639gq6yl4","60c93f189082587ea79ce324","freq","","","img/orange_2bandit_a2.png","70","","70","test","1","","54","","","","square","circle","52","9","3","0.9423076923076923","","","","","","","",""
"null","461563","SARL_v6","SARL_v639gq6yl4","60c93f189082587ea79ce324","freq_resp","","","img/orange_2bandit_a.png","70","img/orange_2bandit_a.png","70","test","","","","","","","","","","","3","","","","","","","","",""
"null","461723","SARL_v6","SARL_v639gq6yl4","60c93f189082587ea79ce324","fixation","","","img/fixation.png","null","","","test","","","","","","","","","","","","","","","","","","","",""
"156","461885","SARL_v6","SARL_v639gq6yl4","60c93f189082587ea79ce324","freq","","","img/orange_2bandit_a2.png","70","","70","test","1","","55","","","","square","circle","53","10","3","0.9433962264150944","","","","","","","",""
"null","462540","SARL_v6","SARL_v639gq6yl4","60c93f189082587ea79ce324","freq_resp","","","img/orange_2bandit_a.png","70","img/orange_2bandit_a.png","70","test","","","","","","","","","","","3","","","","","","","","",""
"null","462700","SARL_v6","SARL_v639gq6yl4","60c93f189082587ea79ce324","fixation","","","img/fixation.png","null","","","test","","","","","","","","","","","","","","","","","","","",""
"97.70000000018626","462803","SARL_v6","SARL_v639gq6yl4","60c93f189082587ea79ce324","freq","","","img/orange_2bandit_a2.png","70","","70","test","1","","56","","","","square","circle","54","11","3","0.9444444444444444","","","","","","","",""
"null","463515","SARL_v6","SARL_v639gq6yl4","60c93f189082587ea79ce324","freq_resp","","","img/orange_2bandit_a.png","70","img/orange_2bandit_a.png","70","test","","","","","","","","","","","3","","","","","","","","",""
"null","463675","SARL_v6","SARL_v639gq6yl4","60c93f189082587ea79ce324","fixation","","","img/fixation.png","null","","","test","","","","","","","","","","","","","","","","","","","",""
"187.5","463868","SARL_v6","SARL_v639gq6yl4","60c93f189082587ea79ce324","freq","","","img/orange_2bandit_a2.png","70","","70","test","1","","57","","","","square","circle","55","12","3","0.9454545454545454","","","","","","","",""
"null","464491","SARL_v6","SARL_v639gq6yl4","60c93f189082587ea79ce324","freq_resp","","","img/orange_2bandit_a.png","70","img/orange_2bandit_a.png","70","test","","","","","","","","","","","3","","","","","","","","",""
"null","464653","SARL_v6","SARL_v639gq6yl4","60c93f189082587ea79ce324","fixation","","","img/fixation.png","null","","","test","","","","","","","","","","","","","","","","","","","",""
"186.69999999925494","464844","SARL_v6","SARL_v639gq6yl4","60c93f189082587ea79ce324","freq","","","img/orange_2bandit_a2.png","70","","70","test","1","","58","","","","square","circle","56","13","3","0.9464285714285714","","","","","","","",""
"null","465467","SARL_v6","SARL_v639gq6yl4","60c93f189082587ea79ce324","freq_resp","","","img/orange_2bandit_a.png","70","img/orange_2bandit_a.png","70","test","","","","","","","","","","","3","","","","","","","","",""
"null","465627","SARL_v6","SARL_v639gq6yl4","60c93f189082587ea79ce324","fixation","","","img/fixation.png","null","","","test","","","","","","","","","","","","","","","","","","","",""
"196.3999999994412","465829","SARL_v6","SARL_v639gq6yl4","60c93f189082587ea79ce324","freq","","","img/orange_2bandit_a2.png","70","","70","test","1","","59","","","","square","circle","57","14","3","0.9473684210526315","","","","","","","",""
"null","466444","SARL_v6","SARL_v639gq6yl4","60c93f189082587ea79ce324","freq_resp","","","img/orange_2bandit_a.png","70","img/orange_2bandit_a.png","70","test","","","","","","","","","","","3","","","","","","","","",""
"null","466604","SARL_v6","SARL_v639gq6yl4","60c93f189082587ea79ce324","fixation","","","img/fixation.png","null","","","test","","","","","","","","","","","","","","","","","","","",""
"207.6000000005588","466817","SARL_v6","SARL_v639gq6yl4","60c93f189082587ea79ce324","freq","","","img/orange_2bandit_a2.png","70","","70","test","1","","60","","","","square","circle","58","15","3","0.9482758620689655","","","","","","","",""
"null","467419","SARL_v6","SARL_v639gq6yl4","60c93f189082587ea79ce324","freq_resp","","","img/orange_2bandit_a.png","70","img/orange_2bandit_a.png","70","test","","","","","","","","","","","3","","","","","","","","",""
"null","467579","SARL_v6","SARL_v639gq6yl4","60c93f189082587ea79ce324","fixation","","","img/fixation.png","null","","","test","","","","","","","","","","","","","","","","","","","",""
"204.59999999962747","467789","SARL_v6","SARL_v639gq6yl4","60c93f189082587ea79ce324","freq","","","img/orange_2bandit_a2.png","70","","70","test","1","","61","","","","square","circle","59","16","3","0.9491525423728814","","","","","","","",""
"null","468395","SARL_v6","SARL_v639gq6yl4","60c93f189082587ea79ce324","freq_resp","","","img/orange_2bandit_a.png","70","img/orange_2bandit_a.png","70","test","","","","","","","","","","","3","","","","","","","","",""
"null","468555","SARL_v6","SARL_v639gq6yl4","60c93f189082587ea79ce324","fixation","","","img/fixation.png","null","","","test","","","","","","","","","","","","","","","","","","","",""
"286.20000000018626","468848","SARL_v6","SARL_v639gq6yl4","60c93f189082587ea79ce324","freq","","","img/orange_2bandit_a2.png","70","","70","test","1","","62","","","","square","circle","60","17","3","0.95","","","","","","","",""
"null","469371","SARL_v6","SARL_v639gq6yl4","60c93f189082587ea79ce324","freq_resp","","","img/orange_2bandit_a.png","70","img/orange_2bandit_a.png","70","test","","","","","","","","","","","3","","","","","","","","",""
"null","469532","SARL_v6","SARL_v639gq6yl4","60c93f189082587ea79ce324","fixation","","","img/fixation.png","null","","","test","","","","","","","","","","","","","","","","","","","",""
"221.29999999981374","469759","SARL_v6","SARL_v639gq6yl4","60c93f189082587ea79ce324","freq","","","img/orange_2bandit_a2.png","70","","70","test","1","","63","","","","square","circle","61","18","3","0.9508196721311475","","","","","","","",""
"null","470345","SARL_v6","SARL_v639gq6yl4","60c93f189082587ea79ce324","freq_resp","","","img/orange_2bandit_a.png","70","img/orange_2bandit_a.png","70","test","","","","","","","","","","","3","","","","","","","","",""
"null","470507","SARL_v6","SARL_v639gq6yl4","60c93f189082587ea79ce324","fixation","","","img/fixation.png","null","","","test","","","","","","","","","","","","","","","","","","","",""
"194.79999999981374","470708","SARL_v6","SARL_v639gq6yl4","60c93f189082587ea79ce324","freq","","","img/orange_2bandit_a2.png","70","","70","test","1","","64","","","","square","circle","62","19","3","0.9516129032258065","","","","","","","",""
"null","471323","SARL_v6","SARL_v639gq6yl4","60c93f189082587ea79ce324","freq_resp","","","img/orange_2bandit_a.png","70","img/orange_2bandit_a.png","70","test","","","","","","","","","","","3","","","","","","","","",""
"null","471483","SARL_v6","SARL_v639gq6yl4","60c93f189082587ea79ce324","fixation","","","img/fixation.png","null","","","test","","","","","","","","","","","","","","","","","","","",""
"258.5","471747","SARL_v6","SARL_v639gq6yl4","60c93f189082587ea79ce324","freq","","","img/orange_2bandit_a2.png","70","","70","test","1","","65","","","","square","circle","63","20","3","0.9523809523809523","","","","","","","",""
"null","472300","SARL_v6","SARL_v639gq6yl4","60c93f189082587ea79ce324","freq_resp","","","img/orange_2bandit_a.png","70","img/orange_2bandit_a.png","70","test","","","","","","","","","","","3","","","","","","","","",""
"null","472459","SARL_v6","SARL_v639gq6yl4","60c93f189082587ea79ce324","fixation","","","img/fixation.png","null","","","test","","","","","","","","","","","","","","","","","","","",""
"281.40000000037253","472747","SARL_v6","SARL_v639gq6yl4","60c93f189082587ea79ce324","freq","","","img/orange_2bandit_a2.png","70","","70","test","1","","66","","","","square","circle","64","21","3","0.953125","","","","","","","",""
"null","473276","SARL_v6","SARL_v639gq6yl4","60c93f189082587ea79ce324","freq_resp","","","img/orange_2bandit_a.png","70","img/orange_2bandit_a.png","70","test","","","","","","","","","","","3","","","","","","","","",""
"null","473433","SARL_v6","SARL_v639gq6yl4","60c93f189082587ea79ce324","fixation","","","img/fixation.png","null","","","test","","","","","","","","","","","","","","","","","","","",""
"246.40000000037253","473684","SARL_v6","SARL_v639gq6yl4","60c93f189082587ea79ce324","freq","","","img/orange_2bandit_a2.png","70","","70","test","1","","67","","","","square","circle","65","22","3","0.9538461538461539","","","","","","","",""
"null","474243","SARL_v6","SARL_v639gq6yl4","60c93f189082587ea79ce324","freq_resp","","","img/orange_2bandit_a.png","70","img/orange_2bandit_a.png","70","test","","","","","","","","","","","3","","","","","","","","",""
"null","474404","SARL_v6","SARL_v639gq6yl4","60c93f189082587ea79ce324","fixation","","","img/fixation.png","null","","","test","","","","","","","","","","","","","","","","","","","",""
"314.69999999925494","474723","SARL_v6","SARL_v639gq6yl4","60c93f189082587ea79ce324","freq","","","img/orange_2bandit_a2.png","70","","70","test","1","","68","","","","square","circle","66","23","3","0.9545454545454546","","","","","","","",""
"null","475219","SARL_v6","SARL_v639gq6yl4","60c93f189082587ea79ce324","freq_resp","","","img/orange_2bandit_a.png","70","img/orange_2bandit_a.png","70","test","","","","","","","","","","","3","","","","","","","","",""
"null","475379","SARL_v6","SARL_v639gq6yl4","60c93f189082587ea79ce324","fixation","","","img/fixation.png","null","","","test","","","","","","","","","","","","","","","","","","","",""
"104.70000000018626","475489","SARL_v6","SARL_v639gq6yl4","60c93f189082587ea79ce324","infreq","","","img/blue_2bandit_a2.png","70","","68","test","0","","69","","","","square","circle","67","24","3","0.9402985074626866","","","","","","","",""
"null","476196","SARL_v6","SARL_v639gq6yl4","60c93f189082587ea79ce324","infreq_resp","","","img/blue_2bandit_a.png","70","img/blue_2bandit_a.png","68","test","","","","","","","","","","","3","","","","","","","","",""
"null","476353","SARL_v6","SARL_v639gq6yl4","60c93f189082587ea79ce324","fixation","","","img/fixation.png","null","","","test","","","","","","","","","","","","","","","","","","","",""
"538.0999999996275","476896","SARL_v6","SARL_v639gq6yl4","60c93f189082587ea79ce324","freq","","","img/orange_2bandit_a2.png","70","","70","test","1","","70","","","","square","circle","68","25","3","0.9411764705882353","","","","","","","",""
"null","477163","SARL_v6","SARL_v639gq6yl4","60c93f189082587ea79ce324","freq_resp","","","img/orange_2bandit_a.png","70","img/orange_2bandit_a.png","70","test","","","","","","","","","","","3","","","","","","","","",""
"null","477324","SARL_v6","SARL_v639gq6yl4","60c93f189082587ea79ce324","fixation","","","img/fixation.png","null","","","test","","","","","","","","","","","","","","","","","","","",""
"395.70000000018626","477723","SARL_v6","SARL_v639gq6yl4","60c93f189082587ea79ce324","freq","","","img/orange_2bandit_a2.png","70","","70","test","1","","71","","","","square","circle","69","26","3","0.9420289855072463","","","","","","","",""
"null","478140","SARL_v6","SARL_v639gq6yl4","60c93f189082587ea79ce324","freq_resp","","","img/orange_2bandit_a.png","70","img/orange_2bandit_a.png","70","test","","","","","","","","","","","3","","","","","","","","",""
"null","478300","SARL_v6","SARL_v639gq6yl4","60c93f189082587ea79ce324","fixation","","","img/fixation.png","null","","","test","","","","","","","","","","","","","","","","","","","",""
"603.5999999996275","478909","SARL_v6","SARL_v639gq6yl4","60c93f189082587ea79ce324","rl","","","img/black_2bandit_a2.png","75","","0","test","","","72","","","-8","square","circle","","0","3","","75","-8","-4","-4","-8","circle","3","0"
"null","479667","SARL_v6","SARL_v639gq6yl4","60c93f189082587ea79ce324","feedback","","","<div class=""verylowPoints""> -8 </div>","null","","na","test","","","NaN","","","","","","","","3","","75","","","","","","3",""
"308.3999999994412","479982","SARL_v6","SARL_v639gq6yl4","60c93f189082587ea79ce324","freq","","","img/orange_2bandit_a2.png","70","","70","test","1","","73","","","","square","circle","70","1","4","0.9428571428571428","","","","","","","",""
"null","480484","SARL_v6","SARL_v639gq6yl4","60c93f189082587ea79ce324","freq_resp","","","img/orange_2bandit_a.png","70","img/orange_2bandit_a.png","70","test","","","","","","","","","","","4","","","","","","","","",""
"null","480644","SARL_v6","SARL_v639gq6yl4","60c93f189082587ea79ce324","fixation","","","img/fixation.png","null","","","test","","","","","","","","","","","","","","","","","","","",""
"663.8999999994412","481313","SARL_v6","SARL_v639gq6yl4","60c93f189082587ea79ce324","infreq","","","img/blue_2bandit_a2.png","68","","68","test","1","","74","","","","square","circle","71","2","4","0.9436619718309859","","","","","","","",""
"null","481458","SARL_v6","SARL_v639gq6yl4","60c93f189082587ea79ce324","infreq_resp","","","img/blue_2bandit_a.png","68","img/blue_2bandit_a.png","68","test","","","","","","","","","","","4","","","","","","","","",""
"null","481619","SARL_v6","SARL_v639gq6yl4","60c93f189082587ea79ce324","fixation","","","img/fixation.png","null","","","test","","","","","","","","","","","","","","","","","","","",""
"null","482427","SARL_v6","SARL_v639gq6yl4","60c93f189082587ea79ce324","freq","","","img/orange_2bandit_a2.png","null","","70","test","0","","75","","","","square","circle","72","3","4","0.9305555555555556","","","","","","","",""
"null","482587","SARL_v6","SARL_v639gq6yl4","60c93f189082587ea79ce324","fixation","","","img/fixation.png","null","","","test","","","","","","","","","","","","","","","","","","","",""
"153.70000000018626","482746","SARL_v6","SARL_v639gq6yl4","60c93f189082587ea79ce324","freq","","","img/orange_2bandit_a2.png","70","","70","test","1","","76","","","","square","circle","73","4","4","0.9315068493150684","","","","","","","",""
"null","483403","SARL_v6","SARL_v639gq6yl4","60c93f189082587ea79ce324","freq_resp","","","img/orange_2bandit_a.png","70","img/orange_2bandit_a.png","70","test","","","","","","","","","","","4","","","","","","","","",""
"null","483563","SARL_v6","SARL_v639gq6yl4","60c93f189082587ea79ce324","fixation","","","img/fixation.png","null","","","test","","","","","","","","","","","","","","","","","","","",""
"108.79999999981374","483677","SARL_v6","SARL_v639gq6yl4","60c93f189082587ea79ce324","freq","","","img/orange_2bandit_a2.png","70","","70","test","1","","77","","","","square","circle","74","5","4","0.9324324324324325","","","","","","","",""
"null","484378","SARL_v6","SARL_v639gq6yl4","60c93f189082587ea79ce324","freq_resp","","","img/orange_2bandit_a.png","70","img/orange_2bandit_a.png","70","test","","","","","","","","","","","4","","","","","","","","",""
"null","484540","SARL_v6","SARL_v639gq6yl4","60c93f189082587ea79ce324","fixation","","","img/fixation.png","null","","","test","","","","","","","","","","","","","","","","","","","",""
"95.3999999994412","484641","SARL_v6","SARL_v639gq6yl4","60c93f189082587ea79ce324","freq","","","img/orange_2bandit_a2.png","70","","70","test","1","","78","","","","square","circle","75","6","4","0.9333333333333333","","","","","","","",""
"null","485355","SARL_v6","SARL_v639gq6yl4","60c93f189082587ea79ce324","freq_resp","","","img/orange_2bandit_a.png","70","img/orange_2bandit_a.png","70","test","","","","","","","","","","","4","","","","","","","","",""
"null","485515","SARL_v6","SARL_v639gq6yl4","60c93f189082587ea79ce324","fixation","","","img/fixation.png","null","","","test","","","","","","","","","","","","","","","","","","","",""
"149.29999999981374","485673","SARL_v6","SARL_v639gq6yl4","60c93f189082587ea79ce324","freq","","","img/orange_2bandit_a2.png","70","","70","test","1","","79","","","","square","circle","76","7","4","0.9342105263157895","","","","","","","",""
"null","486332","SARL_v6","SARL_v639gq6yl4","60c93f189082587ea79ce324","freq_resp","","","img/orange_2bandit_a.png","70","img/orange_2bandit_a.png","70","test","","","","","","","","","","","4","","","","","","","","",""
"null","486492","SARL_v6","SARL_v639gq6yl4","60c93f189082587ea79ce324","fixation","","","img/fixation.png","null","","","test","","","","","","","","","","","","","","","","","","","",""
"142.79999999981374","486640","SARL_v6","SARL_v639gq6yl4","60c93f189082587ea79ce324","freq","","","img/orange_2bandit_a2.png","70","","70","test","1","","80","","","","square","circle","77","8","4","0.935064935064935","","","","","","","",""
"null","487307","SARL_v6","SARL_v639gq6yl4","60c93f189082587ea79ce324","freq_resp","","","img/orange_2bandit_a.png","70","img/orange_2bandit_a.png","70","test","","","","","","","","","","","4","","","","","","","","",""
"null","487468","SARL_v6","SARL_v639gq6yl4","60c93f189082587ea79ce324","fixation","","","img/fixation.png","null","","","test","","","","","","","","","","","","","","","","","","","",""
"112.79999999981374","487586","SARL_v6","SARL_v639gq6yl4","60c93f189082587ea79ce324","freq","","","img/orange_2bandit_a2.png","70","","70","test","1","","81","","","","square","circle","78","9","4","0.9358974358974359","","","","","","","",""
"null","488283","SARL_v6","SARL_v639gq6yl4","60c93f189082587ea79ce324","freq_resp","","","img/orange_2bandit_a.png","70","img/orange_2bandit_a.png","70","test","","","","","","","","","","","4","","","","","","","","",""
"null","488443","SARL_v6","SARL_v639gq6yl4","60c93f189082587ea79ce324","fixation","","","img/fixation.png","null","","","test","","","","","","","","","","","","","","","","","","","",""
"238.79999999981374","488687","SARL_v6","SARL_v639gq6yl4","60c93f189082587ea79ce324","freq","","","img/orange_2bandit_a2.png","70","","70","test","1","","82","","","","square","circle","79","10","4","0.9367088607594937","","","","","","","",""
"null","489259","SARL_v6","SARL_v639gq6yl4","60c93f189082587ea79ce324","freq_resp","","","img/orange_2bandit_a.png","70","img/orange_2bandit_a.png","70","test","","","","","","","","","","","4","","","","","","","","",""
"null","489419","SARL_v6","SARL_v639gq6yl4","60c93f189082587ea79ce324","fixation","","","img/fixation.png","null","","","test","","","","","","","","","","","","","","","","","","","",""
"354.5","489779","SARL_v6","SARL_v639gq6yl4","60c93f189082587ea79ce324","freq","","","img/orange_2bandit_a2.png","70","","70","test","1","","83","","","","square","circle","80","11","4","0.9375","","","","","","","",""
"null","490235","SARL_v6","SARL_v639gq6yl4","60c93f189082587ea79ce324","freq_resp","","","img/orange_2bandit_a.png","70","img/orange_2bandit_a.png","70","test","","","","","","","","","","","4","","","","","","","","",""
"null","490394","SARL_v6","SARL_v639gq6yl4","60c93f189082587ea79ce324","fixation","","","img/fixation.png","null","","","test","","","","","","","","","","","","","","","","","","","",""
"398.6000000005588","490798","SARL_v6","SARL_v639gq6yl4","60c93f189082587ea79ce324","freq","","","img/orange_2bandit_a2.png","70","","70","test","1","","84","","","","square","circle","81","12","4","0.9382716049382716","","","","","","","",""
"null","491211","SARL_v6","SARL_v639gq6yl4","60c93f189082587ea79ce324","freq_resp","","","img/orange_2bandit_a.png","70","img/orange_2bandit_a.png","70","test","","","","","","","","","","","4","","","","","","","","",""
"null","491373","SARL_v6","SARL_v639gq6yl4","60c93f189082587ea79ce324","fixation","","","img/fixation.png","null","","","test","","","","","","","","","","","","","","","","","","","",""
"501","491879","SARL_v6","SARL_v639gq6yl4","60c93f189082587ea79ce324","freq","","","img/orange_2bandit_a2.png","70","","70","test","1","","85","","","","square","circle","82","13","4","0.9390243902439024","","","","","","","",""
"null","492187","SARL_v6","SARL_v639gq6yl4","60c93f189082587ea79ce324","freq_resp","","","img/orange_2bandit_a.png","70","img/orange_2bandit_a.png","70","test","","","","","","","","","","","4","","","","","","","","",""
"null","492347","SARL_v6","SARL_v639gq6yl4","60c93f189082587ea79ce324","fixation","","","img/fixation.png","null","","","test","","","","","","","","","","","","","","","","","","","",""
"738.5999999996275","493090","SARL_v6","SARL_v639gq6yl4","60c93f189082587ea79ce324","infreq","","","img/blue_2bandit_a2.png","68","","68","test","1","","86","","","","square","circle","83","14","4","0.9397590361445783","","","","","","","",""
"null","493163","SARL_v6","SARL_v639gq6yl4","60c93f189082587ea79ce324","infreq_resp","","","img/blue_2bandit_a.png","68","img/blue_2bandit_a.png","68","test","","","","","","","","","","","4","","","","","","","","",""
"null","493323","SARL_v6","SARL_v639gq6yl4","60c93f189082587ea79ce324","fixation","","","img/fixation.png","null","","","test","","","","","","","","","","","","","","","","","","","",""
"642.2999999998137","493971","SARL_v6","SARL_v639gq6yl4","60c93f189082587ea79ce324","freq","","","img/orange_2bandit_a2.png","70","","70","test","1","","87","","","","square","circle","84","15","4","0.9404761904761905","","","","","","","",""
"null","494140","SARL_v6","SARL_v639gq6yl4","60c93f189082587ea79ce324","freq_resp","","","img/orange_2bandit_a.png","70","img/orange_2bandit_a.png","70","test","","","","","","","","","","","4","","","","","","","","",""
"null","494300","SARL_v6","SARL_v639gq6yl4","60c93f189082587ea79ce324","fixation","","","img/fixation.png","null","","","test","","","","","","","","","","","","","","","","","","","",""
"466.70000000018626","494771","SARL_v6","SARL_v639gq6yl4","60c93f189082587ea79ce324","freq","","","img/orange_2bandit_a2.png","70","","70","test","1","","88","","","","square","circle","85","16","4","0.9411764705882353","","","","","","","",""
"null","495115","SARL_v6","SARL_v639gq6yl4","60c93f189082587ea79ce324","freq_resp","","","img/orange_2bandit_a.png","70","img/orange_2bandit_a.png","70","test","","","","","","","","","","","4","","","","","","","","",""
"null","495275","SARL_v6","SARL_v639gq6yl4","60c93f189082587ea79ce324","fixation","","","img/fixation.png","null","","","test","","","","","","","","","","","","","","","","","","","",""
"441.09999999962747","495721","SARL_v6","SARL_v639gq6yl4","60c93f189082587ea79ce324","freq","","","img/orange_2bandit_a2.png","70","","70","test","1","","89","","","","square","circle","86","17","4","0.9418604651162791","","","","","","","",""
"null","496092","SARL_v6","SARL_v639gq6yl4","60c93f189082587ea79ce324","freq_resp","","","img/orange_2bandit_a.png","70","img/orange_2bandit_a.png","70","test","","","","","","","","","","","4","","","","","","","","",""
"null","496252","SARL_v6","SARL_v639gq6yl4","60c93f189082587ea79ce324","fixation","","","img/fixation.png","null","","","test","","","","","","","","","","","","","","","","","","","",""
"442.70000000018626","496701","SARL_v6","SARL_v639gq6yl4","60c93f189082587ea79ce324","freq","","","img/orange_2bandit_a2.png","70","","70","test","1","","90","","","","square","circle","87","18","4","0.9425287356321839","","","","","","","",""
"null","497068","SARL_v6","SARL_v639gq6yl4","60c93f189082587ea79ce324","freq_resp","","","img/orange_2bandit_a.png","70","img/orange_2bandit_a.png","70","test","","","","","","","","","","","4","","","","","","","","",""
"null","497227","SARL_v6","SARL_v639gq6yl4","60c93f189082587ea79ce324","fixation","","","img/fixation.png","null","","","test","","","","","","","","","","","","","","","","","","","",""
"387.70000000018626","497620","SARL_v6","SARL_v639gq6yl4","60c93f189082587ea79ce324","freq","","","img/orange_2bandit_a2.png","70","","70","test","1","","91","","","","square","circle","88","19","4","0.9431818181818182","","","","","","","",""
"null","498044","SARL_v6","SARL_v639gq6yl4","60c93f189082587ea79ce324","freq_resp","","","img/orange_2bandit_a.png","70","img/orange_2bandit_a.png","70","test","","","","","","","","","","","4","","","","","","","","",""
"null","498204","SARL_v6","SARL_v639gq6yl4","60c93f189082587ea79ce324","fixation","","","img/fixation.png","null","","","test","","","","","","","","","","","","","","","","","","","",""
"342.5","498553","SARL_v6","SARL_v639gq6yl4","60c93f189082587ea79ce324","freq","","","img/orange_2bandit_a2.png","70","","70","test","1","","92","","","","square","circle","89","20","4","0.9438202247191011","","","","","","","",""
"null","499019","SARL_v6","SARL_v639gq6yl4","60c93f189082587ea79ce324","freq_resp","","","img/orange_2bandit_a.png","70","img/orange_2bandit_a.png","70","test","","","","","","","","","","","4","","","","","","","","",""
"null","499179","SARL_v6","SARL_v639gq6yl4","60c93f189082587ea79ce324","fixation","","","img/fixation.png","null","","","test","","","","","","","","","","","","","","","","","","","",""
"575.9000000003725","499761","SARL_v6","SARL_v639gq6yl4","60c93f189082587ea79ce324","rl","","","img/black_2bandit_a2.png","75","","0","test","","","93","","","-12","square","circle","","0","4","","75","-12","0","0","-12","circle","4","0"
"null","500524","SARL_v6","SARL_v639gq6yl4","60c93f189082587ea79ce324","feedback","","","<div class=""verylowPoints""> -12 </div>","null","","na","test","","","NaN","","","","","","","","4","","75","","","","","","4",""
"439.5","500968","SARL_v6","SARL_v639gq6yl4","60c93f189082587ea79ce324","freq","","","img/orange_2bandit_a2.png","70","","70","test","1","","94","","","","square","circle","90","1","5","0.9444444444444444","","","","","","","",""
"null","501339","SARL_v6","SARL_v639gq6yl4","60c93f189082587ea79ce324","freq_resp","","","img/orange_2bandit_a.png","70","img/orange_2bandit_a.png","70","test","","","","","","","","","","","5","","","","","","","","",""
"null","501500","SARL_v6","SARL_v639gq6yl4","60c93f189082587ea79ce324","fixation","","","img/fixation.png","null","","","test","","","","","","","","","","","","","","","","","","","",""
"291.3999999994412","501797","SARL_v6","SARL_v639gq6yl4","60c93f189082587ea79ce324","freq","","","img/orange_2bandit_a2.png","70","","70","test","1","","95","","","","square","circle","91","2","5","0.945054945054945","","","","","","","",""
"null","502315","SARL_v6","SARL_v639gq6yl4","60c93f189082587ea79ce324","freq_resp","","","img/orange_2bandit_a.png","70","img/orange_2bandit_a.png","70","test","","","","","","","","","","","5","","","","","","","","",""
"null","502475","SARL_v6","SARL_v639gq6yl4","60c93f189082587ea79ce324","fixation","","","img/fixation.png","null","","","test","","","","","","","","","","","","","","","","","","","",""
"369.79999999981374","502851","SARL_v6","SARL_v639gq6yl4","60c93f189082587ea79ce324","freq","","","img/orange_2bandit_a2.png","70","","70","test","1","","96","","","","square","circle","92","3","5","0.9456521739130435","","","","","","","",""
"null","503292","SARL_v6","SARL_v639gq6yl4","60c93f189082587ea79ce324","freq_resp","","","img/orange_2bandit_a.png","70","img/orange_2bandit_a.png","70","test","","","","","","","","","","","5","","","","","","","","",""
"null","503450","SARL_v6","SARL_v639gq6yl4","60c93f189082587ea79ce324","fixation","","","img/fixation.png","null","","","test","","","","","","","","","","","","","","","","","","","",""
"289.59999999962747","503745","SARL_v6","SARL_v639gq6yl4","60c93f189082587ea79ce324","freq","","","img/orange_2bandit_a2.png","70","","70","test","1","","97","","","","square","circle","93","4","5","0.946236559139785","","","","","","","",""
"null","504267","SARL_v6","SARL_v639gq6yl4","60c93f189082587ea79ce324","freq_resp","","","img/orange_2bandit_a.png","70","img/orange_2bandit_a.png","70","test","","","","","","","","","","","5","","","","","","","","",""
"null","504427","SARL_v6","SARL_v639gq6yl4","60c93f189082587ea79ce324","fixation","","","img/fixation.png","null","","","test","","","","","","","","","","","","","","","","","","","",""
"193.90000000037253","504627","SARL_v6","SARL_v639gq6yl4","60c93f189082587ea79ce324","freq","","","img/orange_2bandit_a2.png","70","","70","test","1","","98","","","","square","circle","94","5","5","0.9468085106382979","","","","","","","",""
"null","505244","SARL_v6","SARL_v639gq6yl4","60c93f189082587ea79ce324","freq_resp","","","img/orange_2bandit_a.png","70","img/orange_2bandit_a.png","70","test","","","","","","","","","","","5","","","","","","","","",""
"null","505404","SARL_v6","SARL_v639gq6yl4","60c93f189082587ea79ce324","fixation","","","img/fixation.png","null","","","test","","","","","","","","","","","","","","","","","","","",""
"187.90000000037253","505598","SARL_v6","SARL_v639gq6yl4","60c93f189082587ea79ce324","infreq","","","img/blue_2bandit_a2.png","70","","68","test","0","","99","","","","square","circle","95","6","5","0.9368421052631579","","","","","","","",""
"null","506219","SARL_v6","SARL_v639gq6yl4","60c93f189082587ea79ce324","infreq_resp","","","img/blue_2bandit_a.png","70","img/blue_2bandit_a.png","68","test","","","","","","","","","","","5","","","","","","","","",""
"null","506379","SARL_v6","SARL_v639gq6yl4","60c93f189082587ea79ce324","fixation","","","img/fixation.png","null","","","test","","","","","","","","","","","","","","","","","","","",""
"null","507187","SARL_v6","SARL_v639gq6yl4","60c93f189082587ea79ce324","freq","","","img/orange_2bandit_a2.png","null","","70","test","0","","100","","","","square","circle","96","7","5","0.9270833333333334","","","","","","","",""
"null","507349","SARL_v6","SARL_v639gq6yl4","60c93f189082587ea79ce324","fixation","","","img/fixation.png","null","","","test","","","","","","","","","","","","","","","","","","","",""
"607.4000000003725","507961","SARL_v6","SARL_v639gq6yl4","60c93f189082587ea79ce324","freq","","","img/orange_2bandit_a2.png","70","","70","test","1","","101","","","","square","circle","97","8","5","0.9278350515463918","","","","","","","",""
"null","508163","SARL_v6","SARL_v639gq6yl4","60c93f189082587ea79ce324","freq_resp","","","img/orange_2bandit_a.png","70","img/orange_2bandit_a.png","70","test","","","","","","","","","","","5","","","","","","","","",""
"null","508323","SARL_v6","SARL_v639gq6yl4","60c93f189082587ea79ce324","fixation","","","img/fixation.png","null","","","test","","","","","","","","","","","","","","","","","","","",""
"451.80000000074506","508780","SARL_v6","SARL_v639gq6yl4","60c93f189082587ea79ce324","freq","","","img/orange_2bandit_a2.png","70","","70","test","1","","102","","","","square","circle","98","9","5","0.9285714285714286","","","","","","","",""
"null","509140","SARL_v6","SARL_v639gq6yl4","60c93f189082587ea79ce324","freq_resp","","","img/orange_2bandit_a.png","70","img/orange_2bandit_a.png","70","test","","","","","","","","","","","5","","","","","","","","",""
"null","509300","SARL_v6","SARL_v639gq6yl4","60c93f189082587ea79ce324","fixation","","","img/fixation.png","null","","","test","","","","","","","","","","","","","","","","","","","",""
"551.7000000001863","509856","SARL_v6","SARL_v639gq6yl4","60c93f189082587ea79ce324","infreq","","","img/blue_2bandit_a2.png","68","","68","test","1","","103","","","","square","circle","99","10","5","0.9292929292929293","","","","","","","",""
"null","510113","SARL_v6","SARL_v639gq6yl4","60c93f189082587ea79ce324","infreq_resp","","","img/blue_2bandit_a.png","68","img/blue_2bandit_a.png","68","test","","","","","","","","","","","5","","","","","","","","",""
"null","510275","SARL_v6","SARL_v639gq6yl4","60c93f189082587ea79ce324","fixation","","","img/fixation.png","null","","","test","","","","","","","","","","","","","","","","","","","",""
"772.1999999992549","511053","SARL_v6","SARL_v639gq6yl4","60c93f189082587ea79ce324","freq","","","img/orange_2bandit_a2.png","70","","70","test","1","","104","","","","square","circle","100","11","5","0.93","","","","","","","",""
"null","511092","SARL_v6","SARL_v639gq6yl4","60c93f189082587ea79ce324","freq_resp","","","img/orange_2bandit_a.png","70","img/orange_2bandit_a.png","70","test","","","","","","","","","","","5","","","","","","","","",""
"null","511252","SARL_v6","SARL_v639gq6yl4","60c93f189082587ea79ce324","fixation","","","img/fixation.png","null","","","test","","","","","","","","","","","","","","","","","","","",""
"507.5","511764","SARL_v6","SARL_v639gq6yl4","60c93f189082587ea79ce324","freq","","","img/orange_2bandit_a2.png","70","","70","test","1","","105","","","","square","circle","101","12","5","0.9306930693069307","","","","","","","",""
"null","512067","SARL_v6","SARL_v639gq6yl4","60c93f189082587ea79ce324","freq_resp","","","img/orange_2bandit_a.png","70","img/orange_2bandit_a.png","70","test","","","","","","","","","","","5","","","","","","","","",""
"null","512227","SARL_v6","SARL_v639gq6yl4","60c93f189082587ea79ce324","fixation","","","img/fixation.png","null","","","test","","","","","","","","","","","","","","","","","","","",""
"420.1000000005588","512655","SARL_v6","SARL_v639gq6yl4","60c93f189082587ea79ce324","freq","","","img/orange_2bandit_a2.png","70","","70","test","1","","106","","","","square","circle","102","13","5","0.9313725490196079","","","","","","","",""
"null","513043","SARL_v6","SARL_v639gq6yl4","60c93f189082587ea79ce324","freq_resp","","","img/orange_2bandit_a.png","70","img/orange_2bandit_a.png","70","test","","","","","","","","","","","5","","","","","","","","",""
"null","513203","SARL_v6","SARL_v639gq6yl4","60c93f189082587ea79ce324","fixation","","","img/fixation.png","null","","","test","","","","","","","","","","","","","","","","","","","",""
"355.90000000037253","513565","SARL_v6","SARL_v639gq6yl4","60c93f189082587ea79ce324","freq","","","img/orange_2bandit_a2.png","70","","70","test","1","","107","","","","square","circle","103","14","5","0.9320388349514563","","","","","","","",""
"null","514019","SARL_v6","SARL_v639gq6yl4","60c93f189082587ea79ce324","freq_resp","","","img/orange_2bandit_a.png","70","img/orange_2bandit_a.png","70","test","","","","","","","","","","","5","","","","","","","","",""
"null","514179","SARL_v6","SARL_v639gq6yl4","60c93f189082587ea79ce324","fixation","","","img/fixation.png","null","","","test","","","","","","","","","","","","","","","","","","","",""
"314.09999999962747","514499","SARL_v6","SARL_v639gq6yl4","60c93f189082587ea79ce324","freq","","","img/orange_2bandit_a2.png","70","","70","test","1","","108","","","","square","circle","104","15","5","0.9326923076923077","","","","","","","",""
"null","514995","SARL_v6","SARL_v639gq6yl4","60c93f189082587ea79ce324","freq_resp","","","img/orange_2bandit_a.png","70","img/orange_2bandit_a.png","70","test","","","","","","","","","","","5","","","","","","","","",""
"null","515155","SARL_v6","SARL_v639gq6yl4","60c93f189082587ea79ce324","fixation","","","img/fixation.png","null","","","test","","","","","","","","","","","","","","","","","","","",""
"311.09999999962747","515472","SARL_v6","SARL_v639gq6yl4","60c93f189082587ea79ce324","freq","","","img/orange_2bandit_a2.png","70","","70","test","1","","109","","","","square","circle","105","16","5","0.9333333333333333","","","","","","","",""
"null","515971","SARL_v6","SARL_v639gq6yl4","60c93f189082587ea79ce324","freq_resp","","","img/orange_2bandit_a.png","70","img/orange_2bandit_a.png","70","test","","","","","","","","","","","5","","","","","","","","",""
"null","516132","SARL_v6","SARL_v639gq6yl4","60c93f189082587ea79ce324","fixation","","","img/fixation.png","null","","","test","","","","","","","","","","","","","","","","","","","",""
"225.29999999981374","516362","SARL_v6","SARL_v639gq6yl4","60c93f189082587ea79ce324","freq","","","img/orange_2bandit_a2.png","70","","70","test","1","","110","","","","square","circle","106","17","5","0.9339622641509434","","","","","","","",""
"null","516947","SARL_v6","SARL_v639gq6yl4","60c93f189082587ea79ce324","freq_resp","","","img/orange_2bandit_a.png","70","img/orange_2bandit_a.png","70","test","","","","","","","","","","","5","","","","","","","","",""
"null","517107","SARL_v6","SARL_v639gq6yl4","60c93f189082587ea79ce324","fixation","","","img/fixation.png","null","","","test","","","","","","","","","","","","","","","","","","","",""
"469.90000000037253","517583","SARL_v6","SARL_v639gq6yl4","60c93f189082587ea79ce324","infreq","","","img/blue_2bandit_a2.png","68","","68","test","1","","111","","","","square","circle","107","18","5","0.9345794392523364","","","","","","","",""
"null","517923","SARL_v6","SARL_v639gq6yl4","60c93f189082587ea79ce324","infreq_resp","","","img/blue_2bandit_a.png","68","img/blue_2bandit_a.png","68","test","","","","","","","","","","","5","","","","","","","","",""
"null","518084","SARL_v6","SARL_v639gq6yl4","60c93f189082587ea79ce324","fixation","","","img/fixation.png","null","","","test","","","","","","","","","","","","","","","","","","","",""
"457.90000000037253","518547","SARL_v6","SARL_v639gq6yl4","60c93f189082587ea79ce324","freq","","","img/orange_2bandit_a2.png","70","","70","test","1","","112","","","","square","circle","108","19","5","0.9351851851851852","","","","","","","",""
"null","518898","SARL_v6","SARL_v639gq6yl4","60c93f189082587ea79ce324","freq_resp","","","img/orange_2bandit_a.png","70","img/orange_2bandit_a.png","70","test","","","","","","","","","","","5","","","","","","","","",""
"null","519059","SARL_v6","SARL_v639gq6yl4","60c93f189082587ea79ce324","fixation","","","img/fixation.png","null","","","test","","","","","","","","","","","","","","","","","","","",""
"516.0999999996275","519580","SARL_v6","SARL_v639gq6yl4","60c93f189082587ea79ce324","freq","","","img/orange_2bandit_a2.png","70","","70","test","1","","113","","","","square","circle","109","20","5","0.9357798165137615","","","","","","","",""
"null","519875","SARL_v6","SARL_v639gq6yl4","60c93f189082587ea79ce324","freq_resp","","","img/orange_2bandit_a.png","70","img/orange_2bandit_a.png","70","test","","","","","","","","","","","5","","","","","","","","",""
"null","520036","SARL_v6","SARL_v639gq6yl4","60c93f189082587ea79ce324","fixation","","","img/fixation.png","null","","","test","","","","","","","","","","","","","","","","","","","",""
"387.29999999981374","520428","SARL_v6","SARL_v639gq6yl4","60c93f189082587ea79ce324","freq","","","img/orange_2bandit_a2.png","70","","70","test","1","","114","","","","square","circle","110","21","5","0.9363636363636364","","","","","","","",""
"null","520851","SARL_v6","SARL_v639gq6yl4","60c93f189082587ea79ce324","freq_resp","","","img/orange_2bandit_a.png","70","img/orange_2bandit_a.png","70","test","","","","","","","","","","","5","","","","","","","","",""
"null","521011","SARL_v6","SARL_v639gq6yl4","60c93f189082587ea79ce324","fixation","","","img/fixation.png","null","","","test","","","","","","","","","","","","","","","","","","","",""
"329.30000000074506","521347","SARL_v6","SARL_v639gq6yl4","60c93f189082587ea79ce324","freq","","","img/orange_2bandit_a2.png","70","","70","test","1","","115","","","","square","circle","111","22","5","0.9369369369369369","","","","","","","",""
"null","521829","SARL_v6","SARL_v639gq6yl4","60c93f189082587ea79ce324","freq_resp","","","img/orange_2bandit_a.png","70","img/orange_2bandit_a.png","70","test","","","","","","","","","","","5","","","","","","","","",""
"null","521990","SARL_v6","SARL_v639gq6yl4","60c93f189082587ea79ce324","fixation","","","img/fixation.png","null","","","test","","","","","","","","","","","","","","","","","","","",""
"140.70000000018626","522139","SARL_v6","SARL_v639gq6yl4","60c93f189082587ea79ce324","freq","","","img/orange_2bandit_a2.png","70","","70","test","1","","116","","","","square","circle","112","23","5","0.9375","","","","","","","",""
"null","522811","SARL_v6","SARL_v639gq6yl4","60c93f189082587ea79ce324","freq_resp","","","img/orange_2bandit_a.png","70","img/orange_2bandit_a.png","70","test","","","","","","","","","","","5","","","","","","","","",""
"null","522971","SARL_v6","SARL_v639gq6yl4","60c93f189082587ea79ce324","fixation","","","img/fixation.png","null","","","test","","","","","","","","","","","","","","","","","","","",""
"588.0999999996275","523565","SARL_v6","SARL_v639gq6yl4","60c93f189082587ea79ce324","rl","","","img/black_2bandit_a2.png","75","","0","test","","","117","","","-7","square","circle","","0","5","","75","-7","4","4","-7","circle","5","0"
"null","524323","SARL_v6","SARL_v639gq6yl4","60c93f189082587ea79ce324","feedback","","","<div class=""verylowPoints""> -7 </div>","null","","na","test","","","NaN","","","","","","","","5","","75","","","","","","5",""
"404.79999999981374","524734","SARL_v6","SARL_v639gq6yl4","60c93f189082587ea79ce324","freq","","","img/orange_2bandit_a2.png","70","","70","test","1","","118","","","","square","circle","113","1","6","0.9380530973451328","","","","","","","",""
"null","525139","SARL_v6","SARL_v639gq6yl4","60c93f189082587ea79ce324","freq_resp","","","img/orange_2bandit_a.png","70","img/orange_2bandit_a.png","70","test","","","","","","","","","","","6","","","","","","","","",""
"null","525300","SARL_v6","SARL_v639gq6yl4","60c93f189082587ea79ce324","fixation","","","img/fixation.png","null","","","test","","","","","","","","","","","","","","","","","","","",""
"321.5","525628","SARL_v6","SARL_v639gq6yl4","60c93f189082587ea79ce324","freq","","","img/orange_2bandit_a2.png","70","","70","test","1","","119","","","","square","circle","114","2","6","0.9385964912280702","","","","","","","",""
"null","526116","SARL_v6","SARL_v639gq6yl4","60c93f189082587ea79ce324","freq_resp","","","img/orange_2bandit_a.png","70","img/orange_2bandit_a.png","70","test","","","","","","","","","","","6","","","","","","","","",""
"null","526275","SARL_v6","SARL_v639gq6yl4","60c93f189082587ea79ce324","fixation","","","img/fixation.png","null","","","test","","","","","","","","","","","","","","","","","","","",""
"322","526602","SARL_v6","SARL_v639gq6yl4","60c93f189082587ea79ce324","freq","","","img/orange_2bandit_a2.png","70","","70","test","1","","120","","","","square","circle","115","3","6","0.9391304347826087","","","","","","","",""
"null","527091","SARL_v6","SARL_v639gq6yl4","60c93f189082587ea79ce324","freq_resp","","","img/orange_2bandit_a.png","70","img/orange_2bandit_a.png","70","test","","","","","","","","","","","6","","","","","","","","",""
"null","527251","SARL_v6","SARL_v639gq6yl4","60c93f189082587ea79ce324","fixation","","","img/fixation.png","null","","","test","","","","","","","","","","","","","","","","","","","",""
"315.20000000018626","527571","SARL_v6","SARL_v639gq6yl4","60c93f189082587ea79ce324","freq","","","img/orange_2bandit_a2.png","70","","70","test","1","","121","","","","square","circle","116","4","6","0.9396551724137931","","","","","","","",""
"null","528067","SARL_v6","SARL_v639gq6yl4","60c93f189082587ea79ce324","freq_resp","","","img/orange_2bandit_a.png","70","img/orange_2bandit_a.png","70","test","","","","","","","","","","","6","","","","","","","","",""
"null","528227","SARL_v6","SARL_v639gq6yl4","60c93f189082587ea79ce324","fixation","","","img/fixation.png","null","","","test","","","","","","","","","","","","","","","","","","","",""
"500.90000000037253","528733","SARL_v6","SARL_v639gq6yl4","60c93f189082587ea79ce324","infreq","","","img/blue_2bandit_a2.png","68","","68","test","1","","122","","","","square","circle","117","5","6","0.9401709401709402","","","","","","","",""
"null","529043","SARL_v6","SARL_v639gq6yl4","60c93f189082587ea79ce324","infreq_resp","","","img/blue_2bandit_a.png","68","img/blue_2bandit_a.png","68","test","","","","","","","","","","","6","","","","","","","","",""
"null","529203","SARL_v6","SARL_v639gq6yl4","60c93f189082587ea79ce324","fixation","","","img/fixation.png","null","","","test","","","","","","","","","","","","","","","","","","","",""
"597.8999999994412","529807","SARL_v6","SARL_v639gq6yl4","60c93f189082587ea79ce324","infreq","","","img/blue_2bandit_a2.png","68","","68","test","1","","123","","","","square","circle","118","6","6","0.940677966101695","","","","","","","",""
"null","530020","SARL_v6","SARL_v639gq6yl4","60c93f189082587ea79ce324","infreq_resp","","","img/blue_2bandit_a.png","68","img/blue_2bandit_a.png","68","test","","","","","","","","","","","6","","","","","","","","",""
"null","530180","SARL_v6","SARL_v639gq6yl4","60c93f189082587ea79ce324","fixation","","","img/fixation.png","null","","","test","","","","","","","","","","","","","","","","","","","",""
"561.8000000007451","530747","SARL_v6","SARL_v639gq6yl4","60c93f189082587ea79ce324","freq","","","img/orange_2bandit_a2.png","70","","70","test","1","","124","","","","square","circle","119","7","6","0.9411764705882353","","","","","","","",""
"null","530996","SARL_v6","SARL_v639gq6yl4","60c93f189082587ea79ce324","freq_resp","","","img/orange_2bandit_a.png","70","img/orange_2bandit_a.png","70","test","","","","","","","","","","","6","","","","","","","","",""
"null","531155","SARL_v6","SARL_v639gq6yl4","60c93f189082587ea79ce324","fixation","","","img/fixation.png","null","","","test","","","","","","","","","","","","","","","","","","","",""
"525.7999999998137","531686","SARL_v6","SARL_v639gq6yl4","60c93f189082587ea79ce324","freq","","","img/orange_2bandit_a2.png","70","","70","test","1","","125","","","","square","circle","120","8","6","0.9416666666666667","","","","","","","",""
"null","531972","SARL_v6","SARL_v639gq6yl4","60c93f189082587ea79ce324","freq_resp","","","img/orange_2bandit_a.png","70","img/orange_2bandit_a.png","70","test","","","","","","","","","","","6","","","","","","","","",""
"null","532132","SARL_v6","SARL_v639gq6yl4","60c93f189082587ea79ce324","fixation","","","img/fixation.png","null","","","test","","","","","","","","","","","","","","","","","","","",""
"754.8999999994412","532892","SARL_v6","SARL_v639gq6yl4","60c93f189082587ea79ce324","freq","","","img/orange_2bandit_a2.png","70","","70","test","1","","126","","","","square","circle","121","9","6","0.9421487603305785","","","","","","","",""
"null","532947","SARL_v6","SARL_v639gq6yl4","60c93f189082587ea79ce324","freq_resp","","","img/orange_2bandit_a.png","70","img/orange_2bandit_a.png","70","test","","","","","","","","","","","6","","","","","","","","",""
"null","533107","SARL_v6","SARL_v639gq6yl4","60c93f189082587ea79ce324","fixation","","","img/fixation.png","null","","","test","","","","","","","","","","","","","","","","","","","",""
"null","533916","SARL_v6","SARL_v639gq6yl4","60c93f189082587ea79ce324","freq","","","img/orange_2bandit_a2.png","null","","70","test","0","","127","","","","square","circle","122","10","6","0.9344262295081968","","","","","","","",""
"null","534075","SARL_v6","SARL_v639gq6yl4","60c93f189082587ea79ce324","fixation","","","img/fixation.png","null","","","test","","","","","","","","","","","","","","","","","","","",""
"null","534883","SARL_v6","SARL_v639gq6yl4","60c93f189082587ea79ce324","freq","","","img/orange_2bandit_a2.png","null","","70","test","0","","128","","","","square","circle","123","11","6","0.926829268292683","","","","","","","",""
"null","535043","SARL_v6","SARL_v639gq6yl4","60c93f189082587ea79ce324","fixation","","","img/fixation.png","null","","","test","","","","","","","","","","","","","","","","","","","",""
"488.79999999981374","535537","SARL_v6","SARL_v639gq6yl4","60c93f189082587ea79ce324","freq","","","img/orange_2bandit_a2.png","70","","70","test","1","","129","","","","square","circle","124","12","6","0.9274193548387096","","","","","","","",""
"null","535859","SARL_v6","SARL_v639gq6yl4","60c93f189082587ea79ce324","freq_resp","","","img/orange_2bandit_a.png","70","img/orange_2bandit_a.png","70","test","","","","","","","","","","","6","","","","","","","","",""
"null","536019","SARL_v6","SARL_v639gq6yl4","60c93f189082587ea79ce324","fixation","","","img/fixation.png","null","","","test","","","","","","","","","","","","","","","","","","","",""
"503.3999999994412","536528","SARL_v6","SARL_v639gq6yl4","60c93f189082587ea79ce324","freq","","","img/orange_2bandit_a2.png","70","","70","test","1","","130","","","","square","circle","125","13","6","0.928","","","","","","","",""
"null","536836","SARL_v6","SARL_v639gq6yl4","60c93f189082587ea79ce324","freq_resp","","","img/orange_2bandit_a.png","70","img/orange_2bandit_a.png","70","test","","","","","","","","","","","6","","","","","","","","",""
"null","536995","SARL_v6","SARL_v639gq6yl4","60c93f189082587ea79ce324","fixation","","","img/fixation.png","null","","","test","","","","","","","","","","","","","","","","","","","",""
"735.1000000005588","537736","SARL_v6","SARL_v639gq6yl4","60c93f189082587ea79ce324","freq","","","img/orange_2bandit_a2.png","70","","70","test","1","","131","","","","square","circle","126","14","6","0.9285714285714286","","","","","","","",""
