"rt","time_elapsed","expId","subject","prolificID","trialType","rlType","attType","stimulus","key_press","stim","corrresp","phase","corr","pracCounter","trialNum","rewardOne","rewardTwo","reward","bandOne","bandTwo","attentionNum","attentionRunNum","blockNum","performance","bandChosen","circleVal","squareVal","bandOneVal","bandTwoVal","shapeChosen","rlNum","badFlag"
"1971.7000000029802","1978","SARL_v6","SARL_v6yqxw3w0o","63d13cb81a0a88a3ce29e33f","","","","","","","","","","","","","","","","","","","","","","","","","","","",""
"","4131","SARL_v6","SARL_v6yqxw3w0o","63d13cb81a0a88a3ce29e33f","fullscreen","fullscreen","fullscreen","","","","","","","","","","","","","","","","","","","","","","","","",""
"30044.5","34179","SARL_v6","SARL_v6yqxw3w0o","63d13cb81a0a88a3ce29e33f","","","","","","","","","","","","","","","","","","","","","","","","","","","",""
"null","34992","SARL_v6","SARL_v6yqxw3w0o","63d13cb81a0a88a3ce29e33f","freqPrac","","","img/orange_2bandit_a2.png","null","img/orange_2bandit_a2.png","70","prac","0","1","","","","","","","","","","","","","","","","","",""
"null","35998","SARL_v6","SARL_v6yqxw3w0o","63d13cb81a0a88a3ce29e33f","feedback","","","img/tooSlow.png","null","","na","prac","","","","","","","","","","","","","","","","","","","",""
"null","36154","SARL_v6","SARL_v6yqxw3w0o","63d13cb81a0a88a3ce29e33f","fixation","","","img/fixation.png","null","","","prac","","","","","","","","","","","","","","","","","","","",""
"480.30000000447035","36638","SARL_v6","SARL_v6yqxw3w0o","63d13cb81a0a88a3ce29e33f","infreqPrac","","","img/blue_2bandit_a2.png","70","img/blue_2bandit_a2.png","68","prac","0","2","","","","","","","","","","","","","","","","","",""
"480.30000000447035","36967","SARL_v6","SARL_v6yqxw3w0o","63d13cb81a0a88a3ce29e33f","infreqPrac_resp","","","img/blue_2bandit_a.png","70","img/blue_2bandit_a.png","68","prac","","","","","","","","","","","","","","","","","","","",""
"null","37971","SARL_v6","SARL_v6yqxw3w0o","63d13cb81a0a88a3ce29e33f","feedback","","","img/wrongKey.png","null","","na","prac","","","","","","","","","","","","","","","","","","","",""
"null","38128","SARL_v6","SARL_v6yqxw3w0o","63d13cb81a0a88a3ce29e33f","fixation","","","img/fixation.png","null","","","prac","","","","","","","","","","","","","","","","","","","",""
"621","38752","SARL_v6","SARL_v6yqxw3w0o","63d13cb81a0a88a3ce29e33f","freqPrac","","","img/orange_2bandit_a2.png","68","img/orange_2bandit_a2.png","70","prac","0","3","","","","","","","","","","","","","","","","","",""
"621","38947","SARL_v6","SARL_v6yqxw3w0o","63d13cb81a0a88a3ce29e33f","freqPrac_resp","","","img/orange_2bandit_a.png","68","img/orange_2bandit_a.png","70","prac","","","","","","","","","","","","","","","","","","","",""
"null","39965","SARL_v6","SARL_v6yqxw3w0o","63d13cb81a0a88a3ce29e33f","feedback","","","img/wrongKey.png","null","","na","prac","","","","","","","","","","","","","","","","","","","",""
"null","40119","SARL_v6","SARL_v6yqxw3w0o","63d13cb81a0a88a3ce29e33f","fixation","","","img/fixation.png","null","","","prac","","","","","","","","","","","","","","","","","","","",""
"631.3999999985099","40753","SARL_v6","SARL_v6yqxw3w0o","63d13cb81a0a88a3ce29e33f","infreqPrac","","","img/blue_2bandit_a2.png","68","img/blue_2bandit_a2.png","68","prac","1","3","","","","","","","","","","","","","","","","","",""
"631.3999999985099","40938","SARL_v6","SARL_v6yqxw3w0o","63d13cb81a0a88a3ce29e33f","infreqPrac_resp","","","img/blue_2bandit_a.png","68","img/blue_2bandit_a.png","68","prac","","","","","","","","","","","","","","","","","","","",""
"null","41094","SARL_v6","SARL_v6yqxw3w0o","63d13cb81a0a88a3ce29e33f","fixation","","","img/fixation.png","null","","","prac","","","","","","","","","","","","","","","","","","","",""
"577.7000000029802","41675","SARL_v6","SARL_v6yqxw3w0o","63d13cb81a0a88a3ce29e33f","infreqPrac","","","img/blue_2bandit_a2.png","68","img/blue_2bandit_a2.png","68","prac","1","3","","","","","","","","","","","","","","","","","",""
"577.7000000029802","41911","SARL_v6","SARL_v6yqxw3w0o","63d13cb81a0a88a3ce29e33f","infreqPrac_resp","","","img/blue_2bandit_a.png","68","img/blue_2bandit_a.png","68","prac","","","","","","","","","","","","","","","","","","","",""
"null","42072","SARL_v6","SARL_v6yqxw3w0o","63d13cb81a0a88a3ce29e33f","fixation","","","img/fixation.png","null","","","prac","","","","","","","","","","","","","","","","","","","",""
"482.79999999701977","42558","SARL_v6","SARL_v6yqxw3w0o","63d13cb81a0a88a3ce29e33f","infreqPrac","","","img/blue_2bandit_a2.png","68","img/blue_2bandit_a2.png","68","prac","1","3","","","","","","","","","","","","","","","","","",""
"482.79999999701977","42889","SARL_v6","SARL_v6yqxw3w0o","63d13cb81a0a88a3ce29e33f","infreqPrac_resp","","","img/blue_2bandit_a.png","68","img/blue_2bandit_a.png","68","prac","","","","","","","","","","","","","","","","","","","",""
"null","43045","SARL_v6","SARL_v6yqxw3w0o","63d13cb81a0a88a3ce29e33f","fixation","","","img/fixation.png","null","","","prac","","","","","","","","","","","","","","","","","","","",""
"641.6000000014901","43690","SARL_v6","SARL_v6yqxw3w0o","63d13cb81a0a88a3ce29e33f","freqPrac","","","img/orange_2bandit_a2.png","70","img/orange_2bandit_a2.png","70","prac","1","3","","","","","","","","","","","","","","","","","",""
"641.6000000014901","43858","SARL_v6","SARL_v6yqxw3w0o","63d13cb81a0a88a3ce29e33f","freqPrac_resp","","","img/orange_2bandit_a.png","70","img/orange_2bandit_a.png","70","prac","","","","","","","","","","","","","","","","","","","",""
"null","44019","SARL_v6","SARL_v6yqxw3w0o","63d13cb81a0a88a3ce29e33f","fixation","","","img/fixation.png","null","","","prac","","","","","","","","","","","","","","","","","","","",""
"563","44585","SARL_v6","SARL_v6yqxw3w0o","63d13cb81a0a88a3ce29e33f","infreqPrac","","","img/blue_2bandit_a2.png","68","img/blue_2bandit_a2.png","68","prac","1","3","","","","","","","","","","","","","","","","","",""
"563","44834","SARL_v6","SARL_v6yqxw3w0o","63d13cb81a0a88a3ce29e33f","infreqPrac_resp","","","img/blue_2bandit_a.png","68","img/blue_2bandit_a.png","68","prac","","","","","","","","","","","","","","","","","","","",""
"null","44988","SARL_v6","SARL_v6yqxw3w0o","63d13cb81a0a88a3ce29e33f","fixation","","","img/fixation.png","null","","","prac","","","","","","","","","","","","","","","","","","","",""
"478.79999999701977","45470","SARL_v6","SARL_v6yqxw3w0o","63d13cb81a0a88a3ce29e33f","freqPrac","","","img/orange_2bandit_a2.png","70","img/orange_2bandit_a2.png","70","prac","1","3","","","","","","","","","","","","","","","","","",""
"478.79999999701977","45799","SARL_v6","SARL_v6yqxw3w0o","63d13cb81a0a88a3ce29e33f","freqPrac_resp","","","img/orange_2bandit_a.png","70","img/orange_2bandit_a.png","70","prac","","","","","","","","","","","","","","","","","","","",""
"null","45955","SARL_v6","SARL_v6yqxw3w0o","63d13cb81a0a88a3ce29e33f","fixation","","","img/fixation.png","null","","","prac","","","","","","","","","","","","","","","","","","","",""
"406.29999999701977","46364","SARL_v6","SARL_v6yqxw3w0o","63d13cb81a0a88a3ce29e33f","freqPrac","","","img/orange_2bandit_a2.png","70","img/orange_2bandit_a2.png","70","prac","1","3","","","","","","","","","","","","","","","","","",""
"406.29999999701977","46768","SARL_v6","SARL_v6yqxw3w0o","63d13cb81a0a88a3ce29e33f","freqPrac_resp","","","img/orange_2bandit_a.png","70","img/orange_2bandit_a.png","70","prac","","","","","","","","","","","","","","","","","","","",""
"null","46925","SARL_v6","SARL_v6yqxw3w0o","63d13cb81a0a88a3ce29e33f","fixation","","","img/fixation.png","null","","","prac","","","","","","","","","","","","","","","","","","","",""
"15670.39999999851","62598","SARL_v6","SARL_v6yqxw3w0o","63d13cb81a0a88a3ce29e33f","","","","","","","","prac","","","","","","","","","","","","","","","","","","","",""
"562.1000000014901","63164","SARL_v6","SARL_v6yqxw3w0o","63d13cb81a0a88a3ce29e33f","rlPractice","","","img/black_2bandit_a2.png","75","img/black_2bandit_a2.png","","prac","","","0","","","","","","","","","","","","","","","","",""
"null","63920","SARL_v6","SARL_v6yqxw3w0o","63d13cb81a0a88a3ce29e33f","feedback","","","<div class=""veryhighPoints""> 10 </div>","null","","na","prac","","","1","10","-14","10","","","","","","","","","","","","","",""
"null","64078","SARL_v6","SARL_v6yqxw3w0o","63d13cb81a0a88a3ce29e33f","fixation","","","img/fixation.png","null","","","prac","","","","","","","","","","","","","","","","","","","",""
"310","64391","SARL_v6","SARL_v6yqxw3w0o","63d13cb81a0a88a3ce29e33f","rlPractice","","","img/black_2bandit_a2.png","74","img/black_2bandit_a2.png","","prac","","","1","","","","","","","","","","","","","","","","",""
"null","65150","SARL_v6","SARL_v6yqxw3w0o","63d13cb81a0a88a3ce29e33f","feedback","","","<div class=""verylowPoints_sq""> -5 </div>","null","","na","prac","","","2","5","-5","5","","","","","","","","","","","","","",""
"null","65306","SARL_v6","SARL_v6yqxw3w0o","63d13cb81a0a88a3ce29e33f","fixation","","","img/fixation.png","null","","","prac","","","","","","","","","","","","","","","","","","","",""
"208.89999999850988","65518","SARL_v6","SARL_v6yqxw3w0o","63d13cb81a0a88a3ce29e33f","rlPractice","","","img/black_2bandit_a2.png","75","img/black_2bandit_a2.png","","prac","","","2","","","","","","","","","","","","","","","","",""
"null","66285","SARL_v6","SARL_v6yqxw3w0o","63d13cb81a0a88a3ce29e33f","feedback","","","<div class=""veryhighPoints""> 30 </div>","null","","na","prac","","","3","30","2","30","","","","","","","","","","","","","",""
"null","66440","SARL_v6","SARL_v6yqxw3w0o","63d13cb81a0a88a3ce29e33f","fixation","","","img/fixation.png","null","","","prac","","","","","","","","","","","","","","","","","","","",""
"283.8999999985099","66727","SARL_v6","SARL_v6yqxw3w0o","63d13cb81a0a88a3ce29e33f","rlPractice","","","img/black_2bandit_a2.png","75","img/black_2bandit_a2.png","","prac","","","3","","","","","","","","","","","","","","","","",""
"null","67494","SARL_v6","SARL_v6yqxw3w0o","63d13cb81a0a88a3ce29e33f","feedback","","","<div class=""verylowPoints""> -2 </div>","null","","na","prac","","","4","-2","20","-2","","","","","","","","","","","","","",""
"null","67648","SARL_v6","SARL_v6yqxw3w0o","63d13cb81a0a88a3ce29e33f","fixation","","","img/fixation.png","null","","","prac","","","","","","","","","","","","","","","","","","","",""
"28935.80000000447","96586","SARL_v6","SARL_v6yqxw3w0o","63d13cb81a0a88a3ce29e33f","","","","","","","","prac","","","","","","","","","","","","","","","","","","","",""
"null","97403","SARL_v6","SARL_v6yqxw3w0o","63d13cb81a0a88a3ce29e33f","mixAttFreqPrac","","","img/orange_2bandit_a2.png","null","img/orange_2bandit_a2.png","70","prac","","","1","","","","","","","","","","","","","","","","",""
"null","97559","SARL_v6","SARL_v6yqxw3w0o","63d13cb81a0a88a3ce29e33f","fixation","","","img/fixation.png","null","","","prac","","","","","","","","","","","","","","","","","","","",""
"null","98366","SARL_v6","SARL_v6yqxw3w0o","63d13cb81a0a88a3ce29e33f","mixAttInfreqPrac","","","img/blue_2bandit_a2.png","null","img/blue_2bandit_a2.png","68","prac","","","2","","","","","","","","","","","","","","","","",""
"null","98521","SARL_v6","SARL_v6yqxw3w0o","63d13cb81a0a88a3ce29e33f","fixation","","","img/fixation.png","null","","","prac","","","","","","","","","","","","","","","","","","","",""
"null","99326","SARL_v6","SARL_v6yqxw3w0o","63d13cb81a0a88a3ce29e33f","mixAttInfreqPrac","","","img/blue_2bandit_a2.png","null","img/blue_2bandit_a2.png","68","prac","","","3","","","","","","","","","","","","","","","","",""
"null","99482","SARL_v6","SARL_v6yqxw3w0o","63d13cb81a0a88a3ce29e33f","fixation","","","img/fixation.png","null","","","prac","","","","","","","","","","","","","","","","","","","",""
"null","100294","SARL_v6","SARL_v6yqxw3w0o","63d13cb81a0a88a3ce29e33f","mixAttInfreqPrac","","","img/blue_2bandit_a2.png","null","img/blue_2bandit_a2.png","68","prac","","","4","","","","","","","","","","","","","","","","",""
"null","100450","SARL_v6","SARL_v6yqxw3w0o","63d13cb81a0a88a3ce29e33f","fixation","","","img/fixation.png","null","","","prac","","","","","","","","","","","","","","","","","","","",""
"null","101265","SARL_v6","SARL_v6yqxw3w0o","63d13cb81a0a88a3ce29e33f","mixAttFreqPrac","","","img/orange_2bandit_a2.png","null","img/orange_2bandit_a2.png","70","prac","","","5","","","","","","","","","","","","","","","","",""
"null","101426","SARL_v6","SARL_v6yqxw3w0o","63d13cb81a0a88a3ce29e33f","fixation","","","img/fixation.png","null","","","prac","","","","","","","","","","","","","","","","","","","",""
"null","102940","SARL_v6","SARL_v6yqxw3w0o","63d13cb81a0a88a3ce29e33f","mixRLPractice","","","img/black_2bandit_a2.png","null","img/black_2bandit_a2.png","","prac","","","5","","","","","","","","","","","","","","","","",""
"null","103695","SARL_v6","SARL_v6yqxw3w0o","63d13cb81a0a88a3ce29e33f","feedback","","","<div font size = 80> TOO SLOW  </div>","null","","na","prac","","","6","-14","10","-14","","","","","","","","","","","","","",""
"null","103853","SARL_v6","SARL_v6yqxw3w0o","63d13cb81a0a88a3ce29e33f","fixation","","","img/fixation.png","null","","","prac","","","","","","","","","","","","","","","","","","","",""
"null","104664","SARL_v6","SARL_v6yqxw3w0o","63d13cb81a0a88a3ce29e33f","mixAttFreqPrac","","","img/orange_2bandit_a2.png","null","img/orange_2bandit_a2.png","70","prac","","","7","","","","","","","","","","","","","","","","",""
"null","104817","SARL_v6","SARL_v6yqxw3w0o","63d13cb81a0a88a3ce29e33f","fixation","","","img/fixation.png","null","","","prac","","","","","","","","","","","","","","","","","","","",""
"null","105621","SARL_v6","SARL_v6yqxw3w0o","63d13cb81a0a88a3ce29e33f","mixAttInfreqPrac","","","img/blue_2bandit_a2.png","null","img/blue_2bandit_a2.png","68","prac","","","8","","","","","","","","","","","","","","","","",""
"null","105775","SARL_v6","SARL_v6yqxw3w0o","63d13cb81a0a88a3ce29e33f","fixation","","","img/fixation.png","null","","","prac","","","","","","","","","","","","","","","","","","","",""
"null","106592","SARL_v6","SARL_v6yqxw3w0o","63d13cb81a0a88a3ce29e33f","mixAttFreqPrac","","","img/orange_2bandit_a2.png","null","img/orange_2bandit_a2.png","70","prac","","","9","","","","","","","","","","","","","","","","",""
"null","106751","SARL_v6","SARL_v6yqxw3w0o","63d13cb81a0a88a3ce29e33f","fixation","","","img/fixation.png","null","","","prac","","","","","","","","","","","","","","","","","","","",""
"null","107569","SARL_v6","SARL_v6yqxw3w0o","63d13cb81a0a88a3ce29e33f","mixAttFreqPrac","","","img/orange_2bandit_a2.png","null","img/orange_2bandit_a2.png","70","prac","","","10","","","","","","","","","","","","","","","","",""
"null","107722","SARL_v6","SARL_v6yqxw3w0o","63d13cb81a0a88a3ce29e33f","fixation","","","img/fixation.png","null","","","prac","","","","","","","","","","","","","","","","","","","",""
"null","108538","SARL_v6","SARL_v6yqxw3w0o","63d13cb81a0a88a3ce29e33f","mixAttInfreqPrac","","","img/blue_2bandit_a2.png","null","img/blue_2bandit_a2.png","68","prac","","","11","","","","","","","","","","","","","","","","",""
"null","108692","SARL_v6","SARL_v6yqxw3w0o","63d13cb81a0a88a3ce29e33f","fixation","","","img/fixation.png","null","","","prac","","","","","","","","","","","","","","","","","","","",""
"null","110202","SARL_v6","SARL_v6yqxw3w0o","63d13cb81a0a88a3ce29e33f","mixRLPractice","","","img/black_2bandit_a2.png","null","img/black_2bandit_a2.png","","prac","","","11","","","","","","","","","","","","","","","","",""
"null","110965","SARL_v6","SARL_v6yqxw3w0o","63d13cb81a0a88a3ce29e33f","feedback","","","<div font size = 80> TOO SLOW  </div>","null","","na","prac","","","12","5","-5","5","","","","","","","","","","","","","",""
"null","111123","SARL_v6","SARL_v6yqxw3w0o","63d13cb81a0a88a3ce29e33f","fixation","","","img/fixation.png","null","","","prac","","","","","","","","","","","","","","","","","","","",""
"16889.89999999851","128015","SARL_v6","SARL_v6yqxw3w0o","63d13cb81a0a88a3ce29e33f","","","","","","","","prac","","","","","","","","","","","","","","","","","","","",""
"null","128820","SARL_v6","SARL_v6yqxw3w0o","63d13cb81a0a88a3ce29e33f","freq","","","img/orange_2bandit_a2.png","null","","70","test","0","","1","","","","square","circle","1","1","1","0","","","","","","","",""
"null","128977","SARL_v6","SARL_v6yqxw3w0o","63d13cb81a0a88a3ce29e33f","fixation","","","img/fixation.png","null","","","test","","","","","","","","","","","","","","","","","","","",""
"564.5","129545","SARL_v6","SARL_v6yqxw3w0o","63d13cb81a0a88a3ce29e33f","freq","","","img/orange_2bandit_a2.png","70","","70","test","1","","2","","","","square","circle","2","2","1","0.5","","","","","","","",""
"null","129793","SARL_v6","SARL_v6yqxw3w0o","63d13cb81a0a88a3ce29e33f","freq_resp","","","img/orange_2bandit_a.png","70","img/orange_2bandit_a.png","70","test","","","","","","","","","","","1","","","","","","","","",""
"null","129946","SARL_v6","SARL_v6yqxw3w0o","63d13cb81a0a88a3ce29e33f","fixation","","","img/fixation.png","null","","","test","","","","","","","","","","","","","","","","","","","",""
"420.09999999403954","130370","SARL_v6","SARL_v6yqxw3w0o","63d13cb81a0a88a3ce29e33f","freq","","","img/orange_2bandit_a2.png","70","","70","test","1","","3","","","","square","circle","3","3","1","0.6666666666666666","","","","","","","",""
"null","130752","SARL_v6","SARL_v6yqxw3w0o","63d13cb81a0a88a3ce29e33f","freq_resp","","","img/orange_2bandit_a.png","70","img/orange_2bandit_a.png","70","test","","","","","","","","","","","1","","","","","","","","",""
"null","130909","SARL_v6","SARL_v6yqxw3w0o","63d13cb81a0a88a3ce29e33f","fixation","","","img/fixation.png","null","","","test","","","","","","","","","","","","","","","","","","","",""
"360.40000000596046","131272","SARL_v6","SARL_v6yqxw3w0o","63d13cb81a0a88a3ce29e33f","freq","","","img/orange_2bandit_a2.png","70","","70","test","1","","4","","","","square","circle","4","4","1","0.75","","","","","","","",""
"null","131726","SARL_v6","SARL_v6yqxw3w0o","63d13cb81a0a88a3ce29e33f","freq_resp","","","img/orange_2bandit_a.png","70","img/orange_2bandit_a.png","70","test","","","","","","","","","","","1","","","","","","","","",""
"null","131882","SARL_v6","SARL_v6yqxw3w0o","63d13cb81a0a88a3ce29e33f","fixation","","","img/fixation.png","null","","","test","","","","","","","","","","","","","","","","","","","",""
"381","132266","SARL_v6","SARL_v6yqxw3w0o","63d13cb81a0a88a3ce29e33f","freq","","","img/orange_2bandit_a2.png","70","","70","test","1","","5","","","","square","circle","5","5","1","0.8","","","","","","","",""
"null","132689","SARL_v6","SARL_v6yqxw3w0o","63d13cb81a0a88a3ce29e33f","freq_resp","","","img/orange_2bandit_a.png","70","img/orange_2bandit_a.png","70","test","","","","","","","","","","","1","","","","","","","","",""
"null","132858","SARL_v6","SARL_v6yqxw3w0o","63d13cb81a0a88a3ce29e33f","fixation","","","img/fixation.png","null","","","test","","","","","","","","","","","","","","","","","","","",""
"458","133319","SARL_v6","SARL_v6yqxw3w0o","63d13cb81a0a88a3ce29e33f","freq","","","img/orange_2bandit_a2.png","70","","70","test","1","","6","","","","square","circle","6","6","1","0.8333333333333334","","","","","","","",""
"null","133673","SARL_v6","SARL_v6yqxw3w0o","63d13cb81a0a88a3ce29e33f","freq_resp","","","img/orange_2bandit_a.png","70","img/orange_2bandit_a.png","70","test","","","","","","","","","","","1","","","","","","","","",""
"null","133829","SARL_v6","SARL_v6yqxw3w0o","63d13cb81a0a88a3ce29e33f","fixation","","","img/fixation.png","null","","","test","","","","","","","","","","","","","","","","","","","",""
"476.19999999552965","134308","SARL_v6","SARL_v6yqxw3w0o","63d13cb81a0a88a3ce29e33f","freq","","","img/orange_2bandit_a2.png","70","","70","test","1","","7","","","","square","circle","7","7","1","0.8571428571428571","","","","","","","",""
"null","134644","SARL_v6","SARL_v6yqxw3w0o","63d13cb81a0a88a3ce29e33f","freq_resp","","","img/orange_2bandit_a.png","70","img/orange_2bandit_a.png","70","test","","","","","","","","","","","1","","","","","","","","",""
"null","134797","SARL_v6","SARL_v6yqxw3w0o","63d13cb81a0a88a3ce29e33f","fixation","","","img/fixation.png","null","","","test","","","","","","","","","","","","","","","","","","","",""
"407.6000000014901","135207","SARL_v6","SARL_v6yqxw3w0o","63d13cb81a0a88a3ce29e33f","freq","","","img/orange_2bandit_a2.png","70","","70","test","1","","8","","","","square","circle","8","8","1","0.875","","","","","","","",""
"null","135607","SARL_v6","SARL_v6yqxw3w0o","63d13cb81a0a88a3ce29e33f","freq_resp","","","img/orange_2bandit_a.png","70","img/orange_2bandit_a.png","70","test","","","","","","","","","","","1","","","","","","","","",""
"null","135763","SARL_v6","SARL_v6yqxw3w0o","63d13cb81a0a88a3ce29e33f","fixation","","","img/fixation.png","null","","","test","","","","","","","","","","","","","","","","","","","",""
"326.40000000596046","136092","SARL_v6","SARL_v6yqxw3w0o","63d13cb81a0a88a3ce29e33f","freq","","","img/orange_2bandit_a2.png","70","","70","test","1","","9","","","","square","circle","9","9","1","0.8888888888888888","","","","","","","",""
"null","136580","SARL_v6","SARL_v6yqxw3w0o","63d13cb81a0a88a3ce29e33f","freq_resp","","","img/orange_2bandit_a.png","70","img/orange_2bandit_a.png","70","test","","","","","","","","","","","1","","","","","","","","",""
"null","136741","SARL_v6","SARL_v6yqxw3w0o","63d13cb81a0a88a3ce29e33f","fixation","","","img/fixation.png","null","","","test","","","","","","","","","","","","","","","","","","","",""
"456.59999999403954","137201","SARL_v6","SARL_v6yqxw3w0o","63d13cb81a0a88a3ce29e33f","freq","","","img/orange_2bandit_a2.png","70","","70","test","1","","10","","","","square","circle","10","10","1","0.9","","","","","","","",""
"null","137553","SARL_v6","SARL_v6yqxw3w0o","63d13cb81a0a88a3ce29e33f","freq_resp","","","img/orange_2bandit_a.png","70","img/orange_2bandit_a.png","70","test","","","","","","","","","","","1","","","","","","","","",""
"null","137710","SARL_v6","SARL_v6yqxw3w0o","63d13cb81a0a88a3ce29e33f","fixation","","","img/fixation.png","null","","","test","","","","","","","","","","","","","","","","","","","",""
"351.5","138065","SARL_v6","SARL_v6yqxw3w0o","63d13cb81a0a88a3ce29e33f","freq","","","img/orange_2bandit_a2.png","70","","70","test","1","","11","","","","square","circle","11","11","1","0.9090909090909091","","","","","","","",""
"null","138525","SARL_v6","SARL_v6yqxw3w0o","63d13cb81a0a88a3ce29e33f","freq_resp","","","img/orange_2bandit_a.png","70","img/orange_2bandit_a.png","70","test","","","","","","","","","","","1","","","","","","","","",""
"null","138684","SARL_v6","SARL_v6yqxw3w0o","63d13cb81a0a88a3ce29e33f","fixation","","","img/fixation.png","null","","","test","","","","","","","","","","","","","","","","","","","",""
"781.3999999985099","139469","SARL_v6","SARL_v6yqxw3w0o","63d13cb81a0a88a3ce29e33f","infreq","","","img/blue_2bandit_a2.png","68","","68","test","1","","12","","","","square","circle","12","12","1","0.9166666666666666","","","","","","","",""
"null","139491","SARL_v6","SARL_v6yqxw3w0o","63d13cb81a0a88a3ce29e33f","infreq_resp","","","img/blue_2bandit_a.png","68","img/blue_2bandit_a.png","68","test","","","","","","","","","","","1","","","","","","","","",""
"null","139652","SARL_v6","SARL_v6yqxw3w0o","63d13cb81a0a88a3ce29e33f","fixation","","","img/fixation.png","null","","","test","","","","","","","","","","","","","","","","","","","",""
"559.2999999970198","140214","SARL_v6","SARL_v6yqxw3w0o","63d13cb81a0a88a3ce29e33f","freq","","","img/orange_2bandit_a2.png","70","","70","test","1","","13","","","","square","circle","13","13","1","0.9230769230769231","","","","","","","",""
"null","140470","SARL_v6","SARL_v6yqxw3w0o","63d13cb81a0a88a3ce29e33f","freq_resp","","","img/orange_2bandit_a.png","70","img/orange_2bandit_a.png","70","test","","","","","","","","","","","1","","","","","","","","",""
"null","140624","SARL_v6","SARL_v6yqxw3w0o","63d13cb81a0a88a3ce29e33f","fixation","","","img/fixation.png","null","","","test","","","","","","","","","","","","","","","","","","","",""
"482.19999999552965","141110","SARL_v6","SARL_v6yqxw3w0o","63d13cb81a0a88a3ce29e33f","freq","","","img/orange_2bandit_a2.png","70","","70","test","1","","14","","","","square","circle","14","14","1","0.9285714285714286","","","","","","","",""
"null","141441","SARL_v6","SARL_v6yqxw3w0o","63d13cb81a0a88a3ce29e33f","freq_resp","","","img/orange_2bandit_a.png","70","img/orange_2bandit_a.png","70","test","","","","","","","","","","","1","","","","","","","","",""
"null","141595","SARL_v6","SARL_v6yqxw3w0o","63d13cb81a0a88a3ce29e33f","fixation","","","img/fixation.png","null","","","test","","","","","","","","","","","","","","","","","","","",""
"390.29999999701977","141988","SARL_v6","SARL_v6yqxw3w0o","63d13cb81a0a88a3ce29e33f","freq","","","img/orange_2bandit_a2.png","70","","70","test","1","","15","","","","square","circle","15","15","1","0.9333333333333333","","","","","","","",""
"null","142404","SARL_v6","SARL_v6yqxw3w0o","63d13cb81a0a88a3ce29e33f","freq_resp","","","img/orange_2bandit_a.png","70","img/orange_2bandit_a.png","70","test","","","","","","","","","","","1","","","","","","","","",""
"null","142560","SARL_v6","SARL_v6yqxw3w0o","63d13cb81a0a88a3ce29e33f","fixation","","","img/fixation.png","null","","","test","","","","","","","","","","","","","","","","","","","",""
"320","142883","SARL_v6","SARL_v6yqxw3w0o","63d13cb81a0a88a3ce29e33f","freq","","","img/orange_2bandit_a2.png","70","","70","test","1","","16","","","","square","circle","16","16","1","0.9375","","","","","","","",""
"null","143376","SARL_v6","SARL_v6yqxw3w0o","63d13cb81a0a88a3ce29e33f","freq_resp","","","img/orange_2bandit_a.png","70","img/orange_2bandit_a.png","70","test","","","","","","","","","","","1","","","","","","","","",""
"null","143533","SARL_v6","SARL_v6yqxw3w0o","63d13cb81a0a88a3ce29e33f","fixation","","","img/fixation.png","null","","","test","","","","","","","","","","","","","","","","","","","",""
"328.1000000014901","143864","SARL_v6","SARL_v6yqxw3w0o","63d13cb81a0a88a3ce29e33f","freq","","","img/orange_2bandit_a2.png","70","","70","test","1","","17","","","","square","circle","17","17","1","0.9411764705882353","","","","","","","",""
"null","144348","SARL_v6","SARL_v6yqxw3w0o","63d13cb81a0a88a3ce29e33f","freq_resp","","","img/orange_2bandit_a.png","70","img/orange_2bandit_a.png","70","test","","","","","","","","","","","1","","","","","","","","",""
"null","144502","SARL_v6","SARL_v6yqxw3w0o","63d13cb81a0a88a3ce29e33f","fixation","","","img/fixation.png","null","","","test","","","","","","","","","","","","","","","","","","","",""
"323.1000000014901","144828","SARL_v6","SARL_v6yqxw3w0o","63d13cb81a0a88a3ce29e33f","freq","","","img/orange_2bandit_a2.png","70","","70","test","1","","18","","","","square","circle","18","18","1","0.9444444444444444","","","","","","","",""
"null","145312","SARL_v6","SARL_v6yqxw3w0o","63d13cb81a0a88a3ce29e33f","freq_resp","","","img/orange_2bandit_a.png","70","img/orange_2bandit_a.png","70","test","","","","","","","","","","","1","","","","","","","","",""
"null","145470","SARL_v6","SARL_v6yqxw3w0o","63d13cb81a0a88a3ce29e33f","fixation","","","img/fixation.png","null","","","test","","","","","","","","","","","","","","","","","","","",""
"292.20000000298023","145765","SARL_v6","SARL_v6yqxw3w0o","63d13cb81a0a88a3ce29e33f","freq","","","img/orange_2bandit_a2.png","70","","70","test","1","","19","","","","square","circle","19","19","1","0.9473684210526315","","","","","","","",""
"null","146282","SARL_v6","SARL_v6yqxw3w0o","63d13cb81a0a88a3ce29e33f","freq_resp","","","img/orange_2bandit_a.png","70","img/orange_2bandit_a.png","70","test","","","","","","","","","","","1","","","","","","","","",""
"null","146441","SARL_v6","SARL_v6yqxw3w0o","63d13cb81a0a88a3ce29e33f","fixation","","","img/fixation.png","null","","","test","","","","","","","","","","","","","","","","","","","",""
"368.20000000298023","146812","SARL_v6","SARL_v6yqxw3w0o","63d13cb81a0a88a3ce29e33f","freq","","","img/orange_2bandit_a2.png","70","","70","test","1","","20","","","","square","circle","20","20","1","0.95","","","","","","","",""
"null","147257","SARL_v6","SARL_v6yqxw3w0o","63d13cb81a0a88a3ce29e33f","freq_resp","","","img/orange_2bandit_a.png","70","img/orange_2bandit_a.png","70","test","","","","","","","","","","","1","","","","","","","","",""
"null","147417","SARL_v6","SARL_v6yqxw3w0o","63d13cb81a0a88a3ce29e33f","fixation","","","img/fixation.png","null","","","test","","","","","","","","","","","","","","","","","","","",""
"315.79999999701977","147736","SARL_v6","SARL_v6yqxw3w0o","63d13cb81a0a88a3ce29e33f","freq","","","img/orange_2bandit_a2.png","70","","70","test","1","","21","","","","square","circle","21","21","1","0.9523809523809523","","","","","","","",""
"null","148236","SARL_v6","SARL_v6yqxw3w0o","63d13cb81a0a88a3ce29e33f","freq_resp","","","img/orange_2bandit_a.png","70","img/orange_2bandit_a.png","70","test","","","","","","","","","","","1","","","","","","","","",""
"null","148389","SARL_v6","SARL_v6yqxw3w0o","63d13cb81a0a88a3ce29e33f","fixation","","","img/fixation.png","null","","","test","","","","","","","","","","","","","","","","","","","",""
"370.5","148763","SARL_v6","SARL_v6yqxw3w0o","63d13cb81a0a88a3ce29e33f","infreq","","","img/blue_2bandit_a2.png","68","","68","test","1","","22","","","","square","circle","22","22","1","0.9545454545454546","","","","","","","",""
"null","149196","SARL_v6","SARL_v6yqxw3w0o","63d13cb81a0a88a3ce29e33f","infreq_resp","","","img/blue_2bandit_a.png","68","img/blue_2bandit_a.png","68","test","","","","","","","","","","","1","","","","","","","","",""
"null","149354","SARL_v6","SARL_v6yqxw3w0o","63d13cb81a0a88a3ce29e33f","fixation","","","img/fixation.png","null","","","test","","","","","","","","","","","","","","","","","","","",""
"290.30000000447035","149647","SARL_v6","SARL_v6yqxw3w0o","63d13cb81a0a88a3ce29e33f","freq","","","img/orange_2bandit_a2.png","68","","70","test","0","","23","","","","square","circle","23","23","1","0.9130434782608695","","","","","","","",""
"null","150173","SARL_v6","SARL_v6yqxw3w0o","63d13cb81a0a88a3ce29e33f","freq_resp","","","img/orange_2bandit_a.png","68","img/orange_2bandit_a.png","70","test","","","","","","","","","","","1","","","","","","","","",""
"null","150331","SARL_v6","SARL_v6yqxw3w0o","63d13cb81a0a88a3ce29e33f","fixation","","","img/fixation.png","null","","","test","","","","","","","","","","","","","","","","","","","",""
"405.5","150740","SARL_v6","SARL_v6yqxw3w0o","63d13cb81a0a88a3ce29e33f","freq","","","img/orange_2bandit_a2.png","70","","70","test","1","","24","","","","square","circle","24","24","1","0.9166666666666666","","","","","","","",""
"null","151144","SARL_v6","SARL_v6yqxw3w0o","63d13cb81a0a88a3ce29e33f","freq_resp","","","img/orange_2bandit_a.png","70","img/orange_2bandit_a.png","70","test","","","","","","","","","","","1","","","","","","","","",""
"null","151299","SARL_v6","SARL_v6yqxw3w0o","63d13cb81a0a88a3ce29e33f","fixation","","","img/fixation.png","null","","","test","","","","","","","","","","","","","","","","","","","",""
"352.59999999403954","151654","SARL_v6","SARL_v6yqxw3w0o","63d13cb81a0a88a3ce29e33f","freq","","","img/orange_2bandit_a2.png","70","","70","test","1","","25","","","","square","circle","25","25","1","0.92","","","","","","","",""
"null","152110","SARL_v6","SARL_v6yqxw3w0o","63d13cb81a0a88a3ce29e33f","freq_resp","","","img/orange_2bandit_a.png","70","img/orange_2bandit_a.png","70","test","","","","","","","","","","","1","","","","","","","","",""
"null","152263","SARL_v6","SARL_v6yqxw3w0o","63d13cb81a0a88a3ce29e33f","fixation","","","img/fixation.png","null","","","test","","","","","","","","","","","","","","","","","","","",""
"568","152835","SARL_v6","SARL_v6yqxw3w0o","63d13cb81a0a88a3ce29e33f","freq","","","img/orange_2bandit_a2.png","70","","70","test","1","","26","","","","square","circle","26","26","1","0.9230769230769231","","","","","","","",""
"null","153084","SARL_v6","SARL_v6yqxw3w0o","63d13cb81a0a88a3ce29e33f","freq_resp","","","img/orange_2bandit_a.png","70","img/orange_2bandit_a.png","70","test","","","","","","","","","","","1","","","","","","","","",""
"null","153239","SARL_v6","SARL_v6yqxw3w0o","63d13cb81a0a88a3ce29e33f","fixation","","","img/fixation.png","null","","","test","","","","","","","","","","","","","","","","","","","",""
"673.6000000014901","153916","SARL_v6","SARL_v6yqxw3w0o","63d13cb81a0a88a3ce29e33f","rl","","","img/black_2bandit_a2.png","74","","0","test","","","27","","","-3","square","circle","","0","1","","74","-3","-3","-3","-3","square","1","0"
"null","154674","SARL_v6","SARL_v6yqxw3w0o","63d13cb81a0a88a3ce29e33f","feedback","","","<div class=""verylowPoints_sq""> -3 </div>","null","","na","test","","","NaN","","","","","","","","1","","74","","","","","","1",""
"804","155481","SARL_v6","SARL_v6yqxw3w0o","63d13cb81a0a88a3ce29e33f","freq","","","img/orange_2bandit_a2.png","68","","70","test","0","","28","","","","square","circle","27","1","2","0.8888888888888888","","","","","","","",""
"null","155647","SARL_v6","SARL_v6yqxw3w0o","63d13cb81a0a88a3ce29e33f","fixation","","","img/fixation.png","null","","","test","","","","","","","","","","","","","","","","","","","",""
"null","156458","SARL_v6","SARL_v6yqxw3w0o","63d13cb81a0a88a3ce29e33f","freq","","","img/orange_2bandit_a2.png","null","","70","test","0","","29","","","","square","circle","28","2","2","0.8571428571428571","","","","","","","",""
"null","156614","SARL_v6","SARL_v6yqxw3w0o","63d13cb81a0a88a3ce29e33f","fixation","","","img/fixation.png","null","","","test","","","","","","","","","","","","","","","","","","","",""
"603.5999999940395","157221","SARL_v6","SARL_v6yqxw3w0o","63d13cb81a0a88a3ce29e33f","freq","","","img/orange_2bandit_a2.png","70","","70","test","1","","30","","","","square","circle","29","3","2","0.8620689655172413","","","","","","","",""
"null","157428","SARL_v6","SARL_v6yqxw3w0o","63d13cb81a0a88a3ce29e33f","freq_resp","","","img/orange_2bandit_a.png","70","img/orange_2bandit_a.png","70","test","","","","","","","","","","","2","","","","","","","","",""
"null","157584","SARL_v6","SARL_v6yqxw3w0o","63d13cb81a0a88a3ce29e33f","fixation","","","img/fixation.png","null","","","test","","","","","","","","","","","","","","","","","","","",""
"330.90000000596046","157918","SARL_v6","SARL_v6yqxw3w0o","63d13cb81a0a88a3ce29e33f","freq","","","img/orange_2bandit_a2.png","70","","70","test","1","","31","","","","square","circle","30","4","2","0.8666666666666667","","","","","","","",""
"null","158390","SARL_v6","SARL_v6yqxw3w0o","63d13cb81a0a88a3ce29e33f","freq_resp","","","img/orange_2bandit_a.png","70","img/orange_2bandit_a.png","70","test","","","","","","","","","","","2","","","","","","","","",""
"null","158548","SARL_v6","SARL_v6yqxw3w0o","63d13cb81a0a88a3ce29e33f","fixation","","","img/fixation.png","null","","","test","","","","","","","","","","","","","","","","","","","",""
"345.1000000014901","158897","SARL_v6","SARL_v6yqxw3w0o","63d13cb81a0a88a3ce29e33f","freq","","","img/orange_2bandit_a2.png","70","","70","test","1","","32","","","","square","circle","31","5","2","0.8709677419354839","","","","","","","",""
"null","159356","SARL_v6","SARL_v6yqxw3w0o","63d13cb81a0a88a3ce29e33f","freq_resp","","","img/orange_2bandit_a.png","70","img/orange_2bandit_a.png","70","test","","","","","","","","","","","2","","","","","","","","",""
"null","159511","SARL_v6","SARL_v6yqxw3w0o","63d13cb81a0a88a3ce29e33f","fixation","","","img/fixation.png","null","","","test","","","","","","","","","","","","","","","","","","","",""
"422","159935","SARL_v6","SARL_v6yqxw3w0o","63d13cb81a0a88a3ce29e33f","freq","","","img/orange_2bandit_a2.png","70","","70","test","1","","33","","","","square","circle","32","6","2","0.875","","","","","","","",""
"null","160327","SARL_v6","SARL_v6yqxw3w0o","63d13cb81a0a88a3ce29e33f","freq_resp","","","img/orange_2bandit_a.png","70","img/orange_2bandit_a.png","70","test","","","","","","","","","","","2","","","","","","","","",""
"null","160482","SARL_v6","SARL_v6yqxw3w0o","63d13cb81a0a88a3ce29e33f","fixation","","","img/fixation.png","null","","","test","","","","","","","","","","","","","","","","","","","",""
"354.1000000014901","160839","SARL_v6","SARL_v6yqxw3w0o","63d13cb81a0a88a3ce29e33f","freq","","","img/orange_2bandit_a2.png","70","","70","test","1","","34","","","","square","circle","33","7","2","0.8787878787878788","","","","","","","",""
"null","161290","SARL_v6","SARL_v6yqxw3w0o","63d13cb81a0a88a3ce29e33f","freq_resp","","","img/orange_2bandit_a.png","70","img/orange_2bandit_a.png","70","test","","","","","","","","","","","2","","","","","","","","",""
"null","161449","SARL_v6","SARL_v6yqxw3w0o","63d13cb81a0a88a3ce29e33f","fixation","","","img/fixation.png","null","","","test","","","","","","","","","","","","","","","","","","","",""
"582.3999999985099","162034","SARL_v6","SARL_v6yqxw3w0o","63d13cb81a0a88a3ce29e33f","infreq","","","img/blue_2bandit_a2.png","68","","68","test","1","","35","","","","square","circle","34","8","2","0.8823529411764706","","","","","","","",""
"null","162259","SARL_v6","SARL_v6yqxw3w0o","63d13cb81a0a88a3ce29e33f","infreq_resp","","","img/blue_2bandit_a.png","68","img/blue_2bandit_a.png","68","test","","","","","","","","","","","2","","","","","","","","",""
"null","162412","SARL_v6","SARL_v6yqxw3w0o","63d13cb81a0a88a3ce29e33f","fixation","","","img/fixation.png","null","","","test","","","","","","","","","","","","","","","","","","","",""
"388.3999999985099","162803","SARL_v6","SARL_v6yqxw3w0o","63d13cb81a0a88a3ce29e33f","freq","","","img/orange_2bandit_a2.png","70","","70","test","1","","36","","","","square","circle","35","9","2","0.8857142857142857","","","","","","","",""
"null","163225","SARL_v6","SARL_v6yqxw3w0o","63d13cb81a0a88a3ce29e33f","freq_resp","","","img/orange_2bandit_a.png","70","img/orange_2bandit_a.png","70","test","","","","","","","","","","","2","","","","","","","","",""
"null","163381","SARL_v6","SARL_v6yqxw3w0o","63d13cb81a0a88a3ce29e33f","fixation","","","img/fixation.png","null","","","test","","","","","","","","","","","","","","","","","","","",""
"357.40000000596046","163740","SARL_v6","SARL_v6yqxw3w0o","63d13cb81a0a88a3ce29e33f","freq","","","img/orange_2bandit_a2.png","70","","70","test","1","","37","","","","square","circle","36","10","2","0.8888888888888888","","","","","","","",""
"null","164192","SARL_v6","SARL_v6yqxw3w0o","63d13cb81a0a88a3ce29e33f","freq_resp","","","img/orange_2bandit_a.png","70","img/orange_2bandit_a.png","70","test","","","","","","","","","","","2","","","","","","","","",""
"null","164347","SARL_v6","SARL_v6yqxw3w0o","63d13cb81a0a88a3ce29e33f","fixation","","","img/fixation.png","null","","","test","","","","","","","","","","","","","","","","","","","",""
"368.5","164718","SARL_v6","SARL_v6yqxw3w0o","63d13cb81a0a88a3ce29e33f","freq","","","img/orange_2bandit_a2.png","70","","70","test","1","","38","","","","square","circle","37","11","2","0.8918918918918919","","","","","","","",""
"null","165164","SARL_v6","SARL_v6yqxw3w0o","63d13cb81a0a88a3ce29e33f","freq_resp","","","img/orange_2bandit_a.png","70","img/orange_2bandit_a.png","70","test","","","","","","","","","","","2","","","","","","","","",""
"null","165320","SARL_v6","SARL_v6yqxw3w0o","63d13cb81a0a88a3ce29e33f","fixation","","","img/fixation.png","null","","","test","","","","","","","","","","","","","","","","","","","",""
"467.70000000298023","165791","SARL_v6","SARL_v6yqxw3w0o","63d13cb81a0a88a3ce29e33f","freq","","","img/orange_2bandit_a2.png","70","","70","test","1","","39","","","","square","circle","38","12","2","0.8947368421052632","","","","","","","",""
"null","166127","SARL_v6","SARL_v6yqxw3w0o","63d13cb81a0a88a3ce29e33f","freq_resp","","","img/orange_2bandit_a.png","70","img/orange_2bandit_a.png","70","test","","","","","","","","","","","2","","","","","","","","",""
"null","166282","SARL_v6","SARL_v6yqxw3w0o","63d13cb81a0a88a3ce29e33f","fixation","","","img/fixation.png","null","","","test","","","","","","","","","","","","","","","","","","","",""
"522.6000000014901","166807","SARL_v6","SARL_v6yqxw3w0o","63d13cb81a0a88a3ce29e33f","freq","","","img/orange_2bandit_a2.png","70","","70","test","1","","40","","","","square","circle","39","13","2","0.8974358974358975","","","","","","","",""
"null","167093","SARL_v6","SARL_v6yqxw3w0o","63d13cb81a0a88a3ce29e33f","freq_resp","","","img/orange_2bandit_a.png","70","img/orange_2bandit_a.png","70","test","","","","","","","","","","","2","","","","","","","","",""
"null","167246","SARL_v6","SARL_v6yqxw3w0o","63d13cb81a0a88a3ce29e33f","fixation","","","img/fixation.png","null","","","test","","","","","","","","","","","","","","","","","","","",""
"327.20000000298023","167577","SARL_v6","SARL_v6yqxw3w0o","63d13cb81a0a88a3ce29e33f","freq","","","img/orange_2bandit_a2.png","70","","70","test","1","","41","","","","square","circle","40","14","2","0.9","","","","","","","",""
"null","168061","SARL_v6","SARL_v6yqxw3w0o","63d13cb81a0a88a3ce29e33f","freq_resp","","","img/orange_2bandit_a.png","70","img/orange_2bandit_a.png","70","test","","","","","","","","","","","2","","","","","","","","",""
"null","168218","SARL_v6","SARL_v6yqxw3w0o","63d13cb81a0a88a3ce29e33f","fixation","","","img/fixation.png","null","","","test","","","","","","","","","","","","","","","","","","","",""
"426.20000000298023","168647","SARL_v6","SARL_v6yqxw3w0o","63d13cb81a0a88a3ce29e33f","infreq","","","img/blue_2bandit_a2.png","68","","68","test","1","","42","","","","square","circle","41","15","2","0.9024390243902439","","","","","","","",""
"null","169039","SARL_v6","SARL_v6yqxw3w0o","63d13cb81a0a88a3ce29e33f","infreq_resp","","","img/blue_2bandit_a.png","68","img/blue_2bandit_a.png","68","test","","","","","","","","","","","2","","","","","","","","",""
"null","169194","SARL_v6","SARL_v6yqxw3w0o","63d13cb81a0a88a3ce29e33f","fixation","","","img/fixation.png","null","","","test","","","","","","","","","","","","","","","","","","","",""
"465.1000000014901","169662","SARL_v6","SARL_v6yqxw3w0o","63d13cb81a0a88a3ce29e33f","freq","","","img/orange_2bandit_a2.png","70","","70","test","1","","43","","","","square","circle","42","16","2","0.9047619047619048","","","","","","","",""
"null","170010","SARL_v6","SARL_v6yqxw3w0o","63d13cb81a0a88a3ce29e33f","freq_resp","","","img/orange_2bandit_a.png","70","img/orange_2bandit_a.png","70","test","","","","","","","","","","","2","","","","","","","","",""
"null","170164","SARL_v6","SARL_v6yqxw3w0o","63d13cb81a0a88a3ce29e33f","fixation","","","img/fixation.png","null","","","test","","","","","","","","","","","","","","","","","","","",""
"342","170509","SARL_v6","SARL_v6yqxw3w0o","63d13cb81a0a88a3ce29e33f","freq","","","img/orange_2bandit_a2.png","70","","70","test","1","","44","","","","square","circle","43","17","2","0.9069767441860465","","","","","","","",""
"null","170976","SARL_v6","SARL_v6yqxw3w0o","63d13cb81a0a88a3ce29e33f","freq_resp","","","img/orange_2bandit_a.png","70","img/orange_2bandit_a.png","70","test","","","","","","","","","","","2","","","","","","","","",""
"null","171130","SARL_v6","SARL_v6yqxw3w0o","63d13cb81a0a88a3ce29e33f","fixation","","","img/fixation.png","null","","","test","","","","","","","","","","","","","","","","","","","",""
"364.20000000298023","171497","SARL_v6","SARL_v6yqxw3w0o","63d13cb81a0a88a3ce29e33f","freq","","","img/orange_2bandit_a2.png","70","","70","test","1","","45","","","","square","circle","44","18","2","0.9090909090909091","","","","","","","",""
"null","171942","SARL_v6","SARL_v6yqxw3w0o","63d13cb81a0a88a3ce29e33f","freq_resp","","","img/orange_2bandit_a.png","70","img/orange_2bandit_a.png","70","test","","","","","","","","","","","2","","","","","","","","",""
"null","172097","SARL_v6","SARL_v6yqxw3w0o","63d13cb81a0a88a3ce29e33f","fixation","","","img/fixation.png","null","","","test","","","","","","","","","","","","","","","","","","","",""
"336.70000000298023","172436","SARL_v6","SARL_v6yqxw3w0o","63d13cb81a0a88a3ce29e33f","freq","","","img/orange_2bandit_a2.png","70","","70","test","1","","46","","","","square","circle","45","19","2","0.9111111111111111","","","","","","","",""
"null","172913","SARL_v6","SARL_v6yqxw3w0o","63d13cb81a0a88a3ce29e33f","freq_resp","","","img/orange_2bandit_a.png","70","img/orange_2bandit_a.png","70","test","","","","","","","","","","","2","","","","","","","","",""
"null","173066","SARL_v6","SARL_v6yqxw3w0o","63d13cb81a0a88a3ce29e33f","fixation","","","img/fixation.png","null","","","test","","","","","","","","","","","","","","","","","","","",""
"292.69999999552965","173361","SARL_v6","SARL_v6yqxw3w0o","63d13cb81a0a88a3ce29e33f","freq","","","img/orange_2bandit_a2.png","70","","70","test","1","","47","","","","square","circle","46","20","2","0.9130434782608695","","","","","","","",""
"null","173878","SARL_v6","SARL_v6yqxw3w0o","63d13cb81a0a88a3ce29e33f","freq_resp","","","img/orange_2bandit_a.png","70","img/orange_2bandit_a.png","70","test","","","","","","","","","","","2","","","","","","","","",""
"null","174031","SARL_v6","SARL_v6yqxw3w0o","63d13cb81a0a88a3ce29e33f","fixation","","","img/fixation.png","null","","","test","","","","","","","","","","","","","","","","","","","",""
"293.6000000014901","174327","SARL_v6","SARL_v6yqxw3w0o","63d13cb81a0a88a3ce29e33f","freq","","","img/orange_2bandit_a2.png","70","","70","test","1","","48","","","","square","circle","47","21","2","0.9148936170212766","","","","","","","",""
"null","174848","SARL_v6","SARL_v6yqxw3w0o","63d13cb81a0a88a3ce29e33f","freq_resp","","","img/orange_2bandit_a.png","70","img/orange_2bandit_a.png","70","test","","","","","","","","","","","2","","","","","","","","",""
"null","175001","SARL_v6","SARL_v6yqxw3w0o","63d13cb81a0a88a3ce29e33f","fixation","","","img/fixation.png","null","","","test","","","","","","","","","","","","","","","","","","","",""
"287.19999999552965","175291","SARL_v6","SARL_v6yqxw3w0o","63d13cb81a0a88a3ce29e33f","freq","","","img/orange_2bandit_a2.png","70","","70","test","1","","49","","","","square","circle","48","22","2","0.9166666666666666","","","","","","","",""
"null","175814","SARL_v6","SARL_v6yqxw3w0o","63d13cb81a0a88a3ce29e33f","freq_resp","","","img/orange_2bandit_a.png","70","img/orange_2bandit_a.png","70","test","","","","","","","","","","","2","","","","","","","","",""
"null","175971","SARL_v6","SARL_v6yqxw3w0o","63d13cb81a0a88a3ce29e33f","fixation","","","img/fixation.png","null","","","test","","","","","","","","","","","","","","","","","","","",""
"303.70000000298023","176277","SARL_v6","SARL_v6yqxw3w0o","63d13cb81a0a88a3ce29e33f","freq","","","img/orange_2bandit_a2.png","70","","70","test","1","","50","","","","square","circle","49","23","2","0.9183673469387755","","","","","","","",""
"null","176788","SARL_v6","SARL_v6yqxw3w0o","63d13cb81a0a88a3ce29e33f","freq_resp","","","img/orange_2bandit_a.png","70","img/orange_2bandit_a.png","70","test","","","","","","","","","","","2","","","","","","","","",""
"null","176944","SARL_v6","SARL_v6yqxw3w0o","63d13cb81a0a88a3ce29e33f","fixation","","","img/fixation.png","null","","","test","","","","","","","","","","","","","","","","","","","",""
"285.19999999552965","177232","SARL_v6","SARL_v6yqxw3w0o","63d13cb81a0a88a3ce29e33f","freq","","","img/orange_2bandit_a2.png","70","","70","test","1","","51","","","","square","circle","50","24","2","0.92","","","","","","","",""
"null","177757","SARL_v6","SARL_v6yqxw3w0o","63d13cb81a0a88a3ce29e33f","freq_resp","","","img/orange_2bandit_a.png","70","img/orange_2bandit_a.png","70","test","","","","","","","","","","","2","","","","","","","","",""
"null","177910","SARL_v6","SARL_v6yqxw3w0o","63d13cb81a0a88a3ce29e33f","fixation","","","img/fixation.png","null","","","test","","","","","","","","","","","","","","","","","","","",""
"594.1999999955297","178507","SARL_v6","SARL_v6yqxw3w0o","63d13cb81a0a88a3ce29e33f","rl","","","img/black_2bandit_a2.png","75","","0","test","","","52","","","-8","square","circle","","0","2","","75","-8","-5","-5","-8","circle","2","0"
"null","179262","SARL_v6","SARL_v6yqxw3w0o","63d13cb81a0a88a3ce29e33f","feedback","","","<div class=""verylowPoints""> -8 </div>","null","","na","test","","","NaN","","","","","","","","2","","75","","","","","","2",""
"null","180075","SARL_v6","SARL_v6yqxw3w0o","63d13cb81a0a88a3ce29e33f","freq","","","img/orange_2bandit_a2.png","null","","70","test","0","","53","","","","square","circle","51","1","3","0.9019607843137255","","","","","","","",""
"null","180231","SARL_v6","SARL_v6yqxw3w0o","63d13cb81a0a88a3ce29e33f","fixation","","","img/fixation.png","null","","","test","","","","","","","","","","","","","","","","","","","",""
"143","180377","SARL_v6","SARL_v6yqxw3w0o","63d13cb81a0a88a3ce29e33f","freq","","","img/orange_2bandit_a2.png","70","","70","test","1","","54","","","","square","circle","52","2","3","0.9038461538461539","","","","","","","",""
"null","181042","SARL_v6","SARL_v6yqxw3w0o","63d13cb81a0a88a3ce29e33f","freq_resp","","","img/orange_2bandit_a.png","70","img/orange_2bandit_a.png","70","test","","","","","","","","","","","3","","","","","","","","",""
"null","181195","SARL_v6","SARL_v6yqxw3w0o","63d13cb81a0a88a3ce29e33f","fixation","","","img/fixation.png","null","","","test","","","","","","","","","","","","","","","","","","","",""
"291.80000000447035","181490","SARL_v6","SARL_v6yqxw3w0o","63d13cb81a0a88a3ce29e33f","freq","","","img/orange_2bandit_a2.png","70","","70","test","1","","55","","","","square","circle","53","3","3","0.9056603773584906","","","","","","","",""
"null","182010","SARL_v6","SARL_v6yqxw3w0o","63d13cb81a0a88a3ce29e33f","freq_resp","","","img/orange_2bandit_a.png","70","img/orange_2bandit_a.png","70","test","","","","","","","","","","","3","","","","","","","","",""
"null","182167","SARL_v6","SARL_v6yqxw3w0o","63d13cb81a0a88a3ce29e33f","fixation","","","img/fixation.png","null","","","test","","","","","","","","","","","","","","","","","","","",""
"352.30000000447035","182522","SARL_v6","SARL_v6yqxw3w0o","63d13cb81a0a88a3ce29e33f","freq","","","img/orange_2bandit_a2.png","70","","70","test","1","","56","","","","square","circle","54","4","3","0.9074074074074074","","","","","","","",""
"null","182981","SARL_v6","SARL_v6yqxw3w0o","63d13cb81a0a88a3ce29e33f","freq_resp","","","img/orange_2bandit_a.png","70","img/orange_2bandit_a.png","70","test","","","","","","","","","","","3","","","","","","","","",""
"null","183137","SARL_v6","SARL_v6yqxw3w0o","63d13cb81a0a88a3ce29e33f","fixation","","","img/fixation.png","null","","","test","","","","","","","","","","","","","","","","","","","",""
"383.5","183523","SARL_v6","SARL_v6yqxw3w0o","63d13cb81a0a88a3ce29e33f","freq","","","img/orange_2bandit_a2.png","70","","70","test","1","","57","","","","square","circle","55","5","3","0.9090909090909091","","","","","","","",""
"null","183953","SARL_v6","SARL_v6yqxw3w0o","63d13cb81a0a88a3ce29e33f","freq_resp","","","img/orange_2bandit_a.png","70","img/orange_2bandit_a.png","70","test","","","","","","","","","","","3","","","","","","","","",""
"null","184111","SARL_v6","SARL_v6yqxw3w0o","63d13cb81a0a88a3ce29e33f","fixation","","","img/fixation.png","null","","","test","","","","","","","","","","","","","","","","","","","",""
"575.4000000059605","184689","SARL_v6","SARL_v6yqxw3w0o","63d13cb81a0a88a3ce29e33f","freq","","","img/orange_2bandit_a2.png","70","","70","test","1","","58","","","","square","circle","56","6","3","0.9107142857142857","","","","","","","",""
"null","184923","SARL_v6","SARL_v6yqxw3w0o","63d13cb81a0a88a3ce29e33f","freq_resp","","","img/orange_2bandit_a.png","70","img/orange_2bandit_a.png","70","test","","","","","","","","","","","3","","","","","","","","",""
"null","185076","SARL_v6","SARL_v6yqxw3w0o","63d13cb81a0a88a3ce29e33f","fixation","","","img/fixation.png","null","","","test","","","","","","","","","","","","","","","","","","","",""
"604","185683","SARL_v6","SARL_v6yqxw3w0o","63d13cb81a0a88a3ce29e33f","freq","","","img/orange_2bandit_a2.png","70","","70","test","1","","59","","","","square","circle","57","7","3","0.9122807017543859","","","","","","","",""
"null","185887","SARL_v6","SARL_v6yqxw3w0o","63d13cb81a0a88a3ce29e33f","freq_resp","","","img/orange_2bandit_a.png","70","img/orange_2bandit_a.png","70","test","","","","","","","","","","","3","","","","","","","","",""
"null","186043","SARL_v6","SARL_v6yqxw3w0o","63d13cb81a0a88a3ce29e33f","fixation","","","img/fixation.png","null","","","test","","","","","","","","","","","","","","","","","","","",""
"null","186858","SARL_v6","SARL_v6yqxw3w0o","63d13cb81a0a88a3ce29e33f","infreq","","","img/blue_2bandit_a2.png","null","","68","test","0","","60","","","","square","circle","58","8","3","0.896551724137931","","","","","","","",""
"null","187011","SARL_v6","SARL_v6yqxw3w0o","63d13cb81a0a88a3ce29e33f","fixation","","","img/fixation.png","null","","","test","","","","","","","","","","","","","","","","","","","",""
"25.900000005960464","187039","SARL_v6","SARL_v6yqxw3w0o","63d13cb81a0a88a3ce29e33f","infreq","","","img/blue_2bandit_a2.png","68","","68","test","1","","61","","","","square","circle","59","9","3","0.8983050847457628","","","","","","","",""
"null","187830","SARL_v6","SARL_v6yqxw3w0o","63d13cb81a0a88a3ce29e33f","infreq_resp","","","img/blue_2bandit_a.png","68","img/blue_2bandit_a.png","68","test","","","","","","","","","","","3","","","","","","","","",""
"null","187984","SARL_v6","SARL_v6yqxw3w0o","63d13cb81a0a88a3ce29e33f","fixation","","","img/fixation.png","null","","","test","","","","","","","","","","","","","","","","","","","",""
"53.29999999701977","188041","SARL_v6","SARL_v6yqxw3w0o","63d13cb81a0a88a3ce29e33f","freq","","","img/orange_2bandit_a2.png","68","","70","test","0","","62","","","","square","circle","60","10","3","0.8833333333333333","","","","","","","",""
"null","188805","SARL_v6","SARL_v6yqxw3w0o","63d13cb81a0a88a3ce29e33f","freq_resp","","","img/orange_2bandit_a.png","68","img/orange_2bandit_a.png","70","test","","","","","","","","","","","3","","","","","","","","",""
"null","188959","SARL_v6","SARL_v6yqxw3w0o","63d13cb81a0a88a3ce29e33f","fixation","","","img/fixation.png","null","","","test","","","","","","","","","","","","","","","","","","","",""
"352.20000000298023","189314","SARL_v6","SARL_v6yqxw3w0o","63d13cb81a0a88a3ce29e33f","freq","","","img/orange_2bandit_a2.png","70","","70","test","1","","63","","","","square","circle","61","11","3","0.8852459016393442","","","","","","","",""
"null","189776","SARL_v6","SARL_v6yqxw3w0o","63d13cb81a0a88a3ce29e33f","freq_resp","","","img/orange_2bandit_a.png","70","img/orange_2bandit_a.png","70","test","","","","","","","","","","","3","","","","","","","","",""
"null","189932","SARL_v6","SARL_v6yqxw3w0o","63d13cb81a0a88a3ce29e33f","fixation","","","img/fixation.png","null","","","test","","","","","","","","","","","","","","","","","","","",""
"340.09999999403954","190274","SARL_v6","SARL_v6yqxw3w0o","63d13cb81a0a88a3ce29e33f","freq","","","img/orange_2bandit_a2.png","70","","70","test","1","","64","","","","square","circle","62","12","3","0.8870967741935484","","","","","","","",""
"null","190749","SARL_v6","SARL_v6yqxw3w0o","63d13cb81a0a88a3ce29e33f","freq_resp","","","img/orange_2bandit_a.png","70","img/orange_2bandit_a.png","70","test","","","","","","","","","","","3","","","","","","","","",""
"null","190903","SARL_v6","SARL_v6yqxw3w0o","63d13cb81a0a88a3ce29e33f","fixation","","","img/fixation.png","null","","","test","","","","","","","","","","","","","","","","","","","",""
"422.1000000014901","191328","SARL_v6","SARL_v6yqxw3w0o","63d13cb81a0a88a3ce29e33f","freq","","","img/orange_2bandit_a2.png","70","","70","test","1","","65","","","","square","circle","63","13","3","0.8888888888888888","","","","","","","",""
"null","191711","SARL_v6","SARL_v6yqxw3w0o","63d13cb81a0a88a3ce29e33f","freq_resp","","","img/orange_2bandit_a.png","70","img/orange_2bandit_a.png","70","test","","","","","","","","","","","3","","","","","","","","",""
"null","191867","SARL_v6","SARL_v6yqxw3w0o","63d13cb81a0a88a3ce29e33f","fixation","","","img/fixation.png","null","","","test","","","","","","","","","","","","","","","","","","","",""
"719.3999999985099","192589","SARL_v6","SARL_v6yqxw3w0o","63d13cb81a0a88a3ce29e33f","freq","","","img/orange_2bandit_a2.png","70","","70","test","1","","66","","","","square","circle","64","14","3","0.890625","","","","","","","",""
"null","192673","SARL_v6","SARL_v6yqxw3w0o","63d13cb81a0a88a3ce29e33f","freq_resp","","","img/orange_2bandit_a.png","70","img/orange_2bandit_a.png","70","test","","","","","","","","","","","3","","","","","","","","",""
"null","192831","SARL_v6","SARL_v6yqxw3w0o","63d13cb81a0a88a3ce29e33f","fixation","","","img/fixation.png","null","","","test","","","","","","","","","","","","","","","","","","","",""
"537","193371","SARL_v6","SARL_v6yqxw3w0o","63d13cb81a0a88a3ce29e33f","freq","","","img/orange_2bandit_a2.png","70","","70","test","1","","67","","","","square","circle","65","15","3","0.8923076923076924","","","","","","","",""
"null","193640","SARL_v6","SARL_v6yqxw3w0o","63d13cb81a0a88a3ce29e33f","freq_resp","","","img/orange_2bandit_a.png","70","img/orange_2bandit_a.png","70","test","","","","","","","","","","","3","","","","","","","","",""
"null","193793","SARL_v6","SARL_v6yqxw3w0o","63d13cb81a0a88a3ce29e33f","fixation","","","img/fixation.png","null","","","test","","","","","","","","","","","","","","","","","","","",""
"464.6000000014901","194261","SARL_v6","SARL_v6yqxw3w0o","63d13cb81a0a88a3ce29e33f","freq","","","img/orange_2bandit_a2.png","70","","70","test","1","","68","","","","square","circle","66","16","3","0.8939393939393939","","","","","","","",""
"null","194603","SARL_v6","SARL_v6yqxw3w0o","63d13cb81a0a88a3ce29e33f","freq_resp","","","img/orange_2bandit_a.png","70","img/orange_2bandit_a.png","70","test","","","","","","","","","","","3","","","","","","","","",""
"null","194759","SARL_v6","SARL_v6yqxw3w0o","63d13cb81a0a88a3ce29e33f","fixation","","","img/fixation.png","null","","","test","","","","","","","","","","","","","","","","","","","",""
"474.6000000014901","195236","SARL_v6","SARL_v6yqxw3w0o","63d13cb81a0a88a3ce29e33f","freq","","","img/orange_2bandit_a2.png","70","","70","test","1","","69","","","","square","circle","67","17","3","0.8955223880597015","","","","","","","",""
"null","195569","SARL_v6","SARL_v6yqxw3w0o","63d13cb81a0a88a3ce29e33f","freq_resp","","","img/orange_2bandit_a.png","70","img/orange_2bandit_a.png","70","test","","","","","","","","","","","3","","","","","","","","",""
"null","195724","SARL_v6","SARL_v6yqxw3w0o","63d13cb81a0a88a3ce29e33f","fixation","","","img/fixation.png","null","","","test","","","","","","","","","","","","","","","","","","","",""
"488.5","196215","SARL_v6","SARL_v6yqxw3w0o","63d13cb81a0a88a3ce29e33f","freq","","","img/orange_2bandit_a2.png","70","","70","test","1","","70","","","","square","circle","68","18","3","0.8970588235294118","","","","","","","",""
"null","196533","SARL_v6","SARL_v6yqxw3w0o","63d13cb81a0a88a3ce29e33f","freq_resp","","","img/orange_2bandit_a.png","70","img/orange_2bandit_a.png","70","test","","","","","","","","","","","3","","","","","","","","",""
"null","196686","SARL_v6","SARL_v6yqxw3w0o","63d13cb81a0a88a3ce29e33f","fixation","","","img/fixation.png","null","","","test","","","","","","","","","","","","","","","","","","","",""
"null","197500","SARL_v6","SARL_v6yqxw3w0o","63d13cb81a0a88a3ce29e33f","freq","","","img/orange_2bandit_a2.png","null","","70","test","0","","71","","","","square","circle","69","19","3","0.8840579710144928","","","","","","","",""
"null","197657","SARL_v6","SARL_v6yqxw3w0o","63d13cb81a0a88a3ce29e33f","fixation","","","img/fixation.png","null","","","test","","","","","","","","","","","","","","","","","","","",""
"null","198468","SARL_v6","SARL_v6yqxw3w0o","63d13cb81a0a88a3ce29e33f","freq","","","img/orange_2bandit_a2.png","null","","70","test","0","","72","","","","square","circle","70","20","3","0.8714285714285714","","","","","","","",""
"null","198625","SARL_v6","SARL_v6yqxw3w0o","63d13cb81a0a88a3ce29e33f","fixation","","","img/fixation.png","null","","","test","","","","","","","","","","","","","","","","","","","",""
"15.100000001490116","198643","SARL_v6","SARL_v6yqxw3w0o","63d13cb81a0a88a3ce29e33f","freq","","","img/orange_2bandit_a2.png","70","","70","test","1","","73","","","","square","circle","71","21","3","0.8732394366197183","","","","","","","",""
"null","199432","SARL_v6","SARL_v6yqxw3w0o","63d13cb81a0a88a3ce29e33f","freq_resp","","","img/orange_2bandit_a.png","70","img/orange_2bandit_a.png","70","test","","","","","","","","","","","3","","","","","","","","",""
"null","199586","SARL_v6","SARL_v6yqxw3w0o","63d13cb81a0a88a3ce29e33f","fixation","","","img/fixation.png","null","","","test","","","","","","","","","","","","","","","","","","","",""
"42.5","199631","SARL_v6","SARL_v6yqxw3w0o","63d13cb81a0a88a3ce29e33f","freq","","","img/orange_2bandit_a2.png","70","","70","test","1","","74","","","","square","circle","72","22","3","0.875","","","","","","","",""
"null","200393","SARL_v6","SARL_v6yqxw3w0o","63d13cb81a0a88a3ce29e33f","freq_resp","","","img/orange_2bandit_a.png","70","img/orange_2bandit_a.png","70","test","","","","","","","","","","","3","","","","","","","","",""
"null","200550","SARL_v6","SARL_v6yqxw3w0o","63d13cb81a0a88a3ce29e33f","fixation","","","img/fixation.png","null","","","test","","","","","","","","","","","","","","","","","","","",""
"625.2000000029802","201179","SARL_v6","SARL_v6yqxw3w0o","63d13cb81a0a88a3ce29e33f","rl","","","img/black_2bandit_a2.png","74","","0","test","","","75","","","-4","square","circle","","0","3","","74","-8","-4","-4","-8","square","3","0"
"null","201937","SARL_v6","SARL_v6yqxw3w0o","63d13cb81a0a88a3ce29e33f","feedback","","","<div class=""verylowPoints_sq""> -4 </div>","null","","na","test","","","NaN","","","","","","","","3","","74","","","","","","3",""
"759.8999999985099","202700","SARL_v6","SARL_v6yqxw3w0o","63d13cb81a0a88a3ce29e33f","freq","","","img/orange_2bandit_a2.png","70","","70","test","1","","76","","","","square","circle","73","1","4","0.8767123287671232","","","","","","","",""
"null","202747","SARL_v6","SARL_v6yqxw3w0o","63d13cb81a0a88a3ce29e33f","freq_resp","","","img/orange_2bandit_a.png","70","img/orange_2bandit_a.png","70","test","","","","","","","","","","","4","","","","","","","","",""
"null","202906","SARL_v6","SARL_v6yqxw3w0o","63d13cb81a0a88a3ce29e33f","fixation","","","img/fixation.png","null","","","test","","","","","","","","","","","","","","","","","","","",""
"696.6000000014901","203605","SARL_v6","SARL_v6yqxw3w0o","63d13cb81a0a88a3ce29e33f","freq","","","img/orange_2bandit_a2.png","70","","70","test","1","","77","","","","square","circle","74","2","4","0.8783783783783784","","","","","","","",""
"null","203714","SARL_v6","SARL_v6yqxw3w0o","63d13cb81a0a88a3ce29e33f","freq_resp","","","img/orange_2bandit_a.png","70","img/orange_2bandit_a.png","70","test","","","","","","","","","","","4","","","","","","","","",""
"null","203871","SARL_v6","SARL_v6yqxw3w0o","63d13cb81a0a88a3ce29e33f","fixation","","","img/fixation.png","null","","","test","","","","","","","","","","","","","","","","","","","",""
"null","204681","SARL_v6","SARL_v6yqxw3w0o","63d13cb81a0a88a3ce29e33f","freq","","","img/orange_2bandit_a2.png","null","","70","test","0","","78","","","","square","circle","75","3","4","0.8666666666666667","","","","","","","",""
"null","204835","SARL_v6","SARL_v6yqxw3w0o","63d13cb81a0a88a3ce29e33f","fixation","","","img/fixation.png","null","","","test","","","","","","","","","","","","","","","","","","","",""
"7.9000000059604645","204845","SARL_v6","SARL_v6yqxw3w0o","63d13cb81a0a88a3ce29e33f","freq","","","img/orange_2bandit_a2.png","70","","70","test","1","","79","","","","square","circle","76","4","4","0.868421052631579","","","","","","","",""
"null","205643","SARL_v6","SARL_v6yqxw3w0o","63d13cb81a0a88a3ce29e33f","freq_resp","","","img/orange_2bandit_a.png","70","img/orange_2bandit_a.png","70","test","","","","","","","","","","","4","","","","","","","","",""
"null","205796","SARL_v6","SARL_v6yqxw3w0o","63d13cb81a0a88a3ce29e33f","fixation","","","img/fixation.png","null","","","test","","","","","","","","","","","","","","","","","","","",""
"482.30000000447035","206281","SARL_v6","SARL_v6yqxw3w0o","63d13cb81a0a88a3ce29e33f","freq","","","img/orange_2bandit_a2.png","70","","70","test","1","","80","","","","square","circle","77","5","4","0.8701298701298701","","","","","","","",""
"null","206608","SARL_v6","SARL_v6yqxw3w0o","63d13cb81a0a88a3ce29e33f","freq_resp","","","img/orange_2bandit_a.png","70","img/orange_2bandit_a.png","70","test","","","","","","","","","","","4","","","","","","","","",""
"null","206761","SARL_v6","SARL_v6yqxw3w0o","63d13cb81a0a88a3ce29e33f","fixation","","","img/fixation.png","null","","","test","","","","","","","","","","","","","","","","","","","",""
"539.5","207303","SARL_v6","SARL_v6yqxw3w0o","63d13cb81a0a88a3ce29e33f","infreq","","","img/blue_2bandit_a2.png","68","","68","test","1","","81","","","","square","circle","78","6","4","0.8717948717948718","","","","","","","",""
"null","207570","SARL_v6","SARL_v6yqxw3w0o","63d13cb81a0a88a3ce29e33f","infreq_resp","","","img/blue_2bandit_a.png","68","img/blue_2bandit_a.png","68","test","","","","","","","","","","","4","","","","","","","","",""
"null","207724","SARL_v6","SARL_v6yqxw3w0o","63d13cb81a0a88a3ce29e33f","fixation","","","img/fixation.png","null","","","test","","","","","","","","","","","","","","","","","","","",""
"null","208535","SARL_v6","SARL_v6yqxw3w0o","63d13cb81a0a88a3ce29e33f","freq","","","img/orange_2bandit_a2.png","null","","70","test","0","","82","","","","square","circle","79","7","4","0.8607594936708861","","","","","","","",""
"null","208691","SARL_v6","SARL_v6yqxw3w0o","63d13cb81a0a88a3ce29e33f","fixation","","","img/fixation.png","null","","","test","","","","","","","","","","","","","","","","","","","",""
"225.5","208919","SARL_v6","SARL_v6yqxw3w0o","63d13cb81a0a88a3ce29e33f","freq","","","img/orange_2bandit_a2.png","70","","70","test","1","","83","","","","square","circle","80","8","4","0.8625","","","","","","","",""
"null","209500","SARL_v6","SARL_v6yqxw3w0o","63d13cb81a0a88a3ce29e33f","freq_resp","","","img/orange_2bandit_a.png","70","img/orange_2bandit_a.png","70","test","","","","","","","","","","","4","","","","","","","","",""
"null","209656","SARL_v6","SARL_v6yqxw3w0o","63d13cb81a0a88a3ce29e33f","fixation","","","img/fixation.png","null","","","test","","","","","","","","","","","","","","","","","","","",""
"323.70000000298023","209983","SARL_v6","SARL_v6yqxw3w0o","63d13cb81a0a88a3ce29e33f","freq","","","img/orange_2bandit_a2.png","70","","70","test","1","","84","","","","square","circle","81","9","4","0.8641975308641975","","","","","","","",""
"null","210468","SARL_v6","SARL_v6yqxw3w0o","63d13cb81a0a88a3ce29e33f","freq_resp","","","img/orange_2bandit_a.png","70","img/orange_2bandit_a.png","70","test","","","","","","","","","","","4","","","","","","","","",""
"null","210623","SARL_v6","SARL_v6yqxw3w0o","63d13cb81a0a88a3ce29e33f","fixation","","","img/fixation.png","null","","","test","","","","","","","","","","","","","","","","","","","",""
"299.1000000014901","210924","SARL_v6","SARL_v6yqxw3w0o","63d13cb81a0a88a3ce29e33f","freq","","","img/orange_2bandit_a2.png","70","","70","test","1","","85","","","","square","circle","82","10","4","0.8658536585365854","","","","","","","",""
"null","211432","SARL_v6","SARL_v6yqxw3w0o","63d13cb81a0a88a3ce29e33f","freq_resp","","","img/orange_2bandit_a.png","70","img/orange_2bandit_a.png","70","test","","","","","","","","","","","4","","","","","","","","",""
"null","211588","SARL_v6","SARL_v6yqxw3w0o","63d13cb81a0a88a3ce29e33f","fixation","","","img/fixation.png","null","","","test","","","","","","","","","","","","","","","","","","","",""
"266.30000000447035","211858","SARL_v6","SARL_v6yqxw3w0o","63d13cb81a0a88a3ce29e33f","freq","","","img/orange_2bandit_a2.png","70","","70","test","1","","86","","","","square","circle","83","11","4","0.8674698795180723","","","","","","","",""
"null","212398","SARL_v6","SARL_v6yqxw3w0o","63d13cb81a0a88a3ce29e33f","freq_resp","","","img/orange_2bandit_a.png","70","img/orange_2bandit_a.png","70","test","","","","","","","","","","","4","","","","","","","","",""
"null","212551","SARL_v6","SARL_v6yqxw3w0o","63d13cb81a0a88a3ce29e33f","fixation","","","img/fixation.png","null","","","test","","","","","","","","","","","","","","","","","","","",""
"266.5","212819","SARL_v6","SARL_v6yqxw3w0o","63d13cb81a0a88a3ce29e33f","freq","","","img/orange_2bandit_a2.png","70","","70","test","1","","87","","","","square","circle","84","12","4","0.8690476190476191","","","","","","","",""
"null","213360","SARL_v6","SARL_v6yqxw3w0o","63d13cb81a0a88a3ce29e33f","freq_resp","","","img/orange_2bandit_a.png","70","img/orange_2bandit_a.png","70","test","","","","","","","","","","","4","","","","","","","","",""
"null","213516","SARL_v6","SARL_v6yqxw3w0o","63d13cb81a0a88a3ce29e33f","fixation","","","img/fixation.png","null","","","test","","","","","","","","","","","","","","","","","","","",""
"614.2999999970198","214133","SARL_v6","SARL_v6yqxw3w0o","63d13cb81a0a88a3ce29e33f","infreq","","","img/blue_2bandit_a2.png","68","","68","test","1","","88","","","","square","circle","85","13","4","0.8705882352941177","","","","","","","",""
"null","214329","SARL_v6","SARL_v6yqxw3w0o","63d13cb81a0a88a3ce29e33f","infreq_resp","","","img/blue_2bandit_a.png","68","img/blue_2bandit_a.png","68","test","","","","","","","","","","","4","","","","","","","","",""
"null","214484","SARL_v6","SARL_v6yqxw3w0o","63d13cb81a0a88a3ce29e33f","fixation","","","img/fixation.png","null","","","test","","","","","","","","","","","","","","","","","","","",""
"401.3999999985099","214888","SARL_v6","SARL_v6yqxw3w0o","63d13cb81a0a88a3ce29e33f","freq","","","img/orange_2bandit_a2.png","70","","70","test","1","","89","","","","square","circle","86","14","4","0.872093023255814","","","","","","","",""
"null","215296","SARL_v6","SARL_v6yqxw3w0o","63d13cb81a0a88a3ce29e33f","freq_resp","","","img/orange_2bandit_a.png","70","img/orange_2bandit_a.png","70","test","","","","","","","","","","","4","","","","","","","","",""
"null","215452","SARL_v6","SARL_v6yqxw3w0o","63d13cb81a0a88a3ce29e33f","fixation","","","img/fixation.png","null","","","test","","","","","","","","","","","","","","","","","","","",""
"368.90000000596046","215823","SARL_v6","SARL_v6yqxw3w0o","63d13cb81a0a88a3ce29e33f","freq","","","img/orange_2bandit_a2.png","70","","70","test","1","","90","","","","square","circle","87","15","4","0.8735632183908046","","","","","","","",""
"null","216262","SARL_v6","SARL_v6yqxw3w0o","63d13cb81a0a88a3ce29e33f","freq_resp","","","img/orange_2bandit_a.png","70","img/orange_2bandit_a.png","70","test","","","","","","","","","","","4","","","","","","","","",""
"null","216419","SARL_v6","SARL_v6yqxw3w0o","63d13cb81a0a88a3ce29e33f","fixation","","","img/fixation.png","null","","","test","","","","","","","","","","","","","","","","","","","",""
"302.59999999403954","216723","SARL_v6","SARL_v6yqxw3w0o","63d13cb81a0a88a3ce29e33f","freq","","","img/orange_2bandit_a2.png","70","","70","test","1","","91","","","","square","circle","88","16","4","0.875","","","","","","","",""
"null","217229","SARL_v6","SARL_v6yqxw3w0o","63d13cb81a0a88a3ce29e33f","freq_resp","","","img/orange_2bandit_a.png","70","img/orange_2bandit_a.png","70","test","","","","","","","","","","","4","","","","","","","","",""
"null","217382","SARL_v6","SARL_v6yqxw3w0o","63d13cb81a0a88a3ce29e33f","fixation","","","img/fixation.png","null","","","test","","","","","","","","","","","","","","","","","","","",""
"385.80000000447035","217770","SARL_v6","SARL_v6yqxw3w0o","63d13cb81a0a88a3ce29e33f","freq","","","img/orange_2bandit_a2.png","70","","70","test","1","","92","","","","square","circle","89","17","4","0.8764044943820225","","","","","","","",""
"null","218190","SARL_v6","SARL_v6yqxw3w0o","63d13cb81a0a88a3ce29e33f","freq_resp","","","img/orange_2bandit_a.png","70","img/orange_2bandit_a.png","70","test","","","","","","","","","","","4","","","","","","","","",""
"null","218347","SARL_v6","SARL_v6yqxw3w0o","63d13cb81a0a88a3ce29e33f","fixation","","","img/fixation.png","null","","","test","","","","","","","","","","","","","","","","","","","",""
"365.09999999403954","218714","SARL_v6","SARL_v6yqxw3w0o","63d13cb81a0a88a3ce29e33f","freq","","","img/orange_2bandit_a2.png","70","","70","test","1","","93","","","","square","circle","90","18","4","0.8777777777777778","","","","","","","",""
"null","219160","SARL_v6","SARL_v6yqxw3w0o","63d13cb81a0a88a3ce29e33f","freq_resp","","","img/orange_2bandit_a.png","70","img/orange_2bandit_a.png","70","test","","","","","","","","","","","4","","","","","","","","",""
"null","219316","SARL_v6","SARL_v6yqxw3w0o","63d13cb81a0a88a3ce29e33f","fixation","","","img/fixation.png","null","","","test","","","","","","","","","","","","","","","","","","","",""
"254.70000000298023","219573","SARL_v6","SARL_v6yqxw3w0o","63d13cb81a0a88a3ce29e33f","freq","","","img/orange_2bandit_a2.png","70","","70","test","1","","94","","","","square","circle","91","19","4","0.8791208791208791","","","","","","","",""
"null","220124","SARL_v6","SARL_v6yqxw3w0o","63d13cb81a0a88a3ce29e33f","freq_resp","","","img/orange_2bandit_a.png","70","img/orange_2bandit_a.png","70","test","","","","","","","","","","","4","","","","","","","","",""
"null","220280","SARL_v6","SARL_v6yqxw3w0o","63d13cb81a0a88a3ce29e33f","fixation","","","img/fixation.png","null","","","test","","","","","","","","","","","","","","","","","","","",""
"441.1000000014901","220724","SARL_v6","SARL_v6yqxw3w0o","63d13cb81a0a88a3ce29e33f","rl","","","img/black_2bandit_a2.png","74","","0","test","","","95","","","0","square","circle","","0","4","","74","-12","0","0","-12","square","4","0"
"null","221485","SARL_v6","SARL_v6yqxw3w0o","63d13cb81a0a88a3ce29e33f","feedback","","","<div class=""verylowPoints_sq""> 0 </div>","null","","na","test","","","NaN","","","","","","","","4","","74","","","","","","4",""
"675.8999999985099","222164","SARL_v6","SARL_v6yqxw3w0o","63d13cb81a0a88a3ce29e33f","freq","","","img/orange_2bandit_a2.png","70","","70","test","1","","96","","","","square","circle","92","1","5","0.8804347826086957","","","","","","","",""
"null","222296","SARL_v6","SARL_v6yqxw3w0o","63d13cb81a0a88a3ce29e33f","freq_resp","","","img/orange_2bandit_a.png","70","img/orange_2bandit_a.png","70","test","","","","","","","","","","","5","","","","","","","","",""
"null","222451","SARL_v6","SARL_v6yqxw3w0o","63d13cb81a0a88a3ce29e33f","fixation","","","img/fixation.png","null","","","test","","","","","","","","","","","","","","","","","","","",""
"461.80000000447035","222915","SARL_v6","SARL_v6yqxw3w0o","63d13cb81a0a88a3ce29e33f","freq","","","img/orange_2bandit_a2.png","70","","70","test","1","","97","","","","square","circle","93","2","5","0.8817204301075269","","","","","","","",""
"null","223264","SARL_v6","SARL_v6yqxw3w0o","63d13cb81a0a88a3ce29e33f","freq_resp","","","img/orange_2bandit_a.png","70","img/orange_2bandit_a.png","70","test","","","","","","","","","","","5","","","","","","","","",""
"null","223420","SARL_v6","SARL_v6yqxw3w0o","63d13cb81a0a88a3ce29e33f","fixation","","","img/fixation.png","null","","","test","","","","","","","","","","","","","","","","","","","",""
"452.1000000014901","223875","SARL_v6","SARL_v6yqxw3w0o","63d13cb81a0a88a3ce29e33f","freq","","","img/orange_2bandit_a2.png","70","","70","test","1","","98","","","","square","circle","94","3","5","0.8829787234042553","","","","","","","",""
"null","224225","SARL_v6","SARL_v6yqxw3w0o","63d13cb81a0a88a3ce29e33f","freq_resp","","","img/orange_2bandit_a.png","70","img/orange_2bandit_a.png","70","test","","","","","","","","","","","5","","","","","","","","",""
"null","224382","SARL_v6","SARL_v6yqxw3w0o","63d13cb81a0a88a3ce29e33f","fixation","","","img/fixation.png","null","","","test","","","","","","","","","","","","","","","","","","","",""
"293.5","224678","SARL_v6","SARL_v6yqxw3w0o","63d13cb81a0a88a3ce29e33f","freq","","","img/orange_2bandit_a2.png","70","","70","test","1","","99","","","","square","circle","95","4","5","0.8842105263157894","","","","","","","",""
"null","225193","SARL_v6","SARL_v6yqxw3w0o","63d13cb81a0a88a3ce29e33f","freq_resp","","","img/orange_2bandit_a.png","70","img/orange_2bandit_a.png","70","test","","","","","","","","","","","5","","","","","","","","",""
"null","225346","SARL_v6","SARL_v6yqxw3w0o","63d13cb81a0a88a3ce29e33f","fixation","","","img/fixation.png","null","","","test","","","","","","","","","","","","","","","","","","","",""
"316.19999999552965","225664","SARL_v6","SARL_v6yqxw3w0o","63d13cb81a0a88a3ce29e33f","freq","","","img/orange_2bandit_a2.png","70","","70","test","1","","100","","","","square","circle","96","5","5","0.8854166666666666","","","","","","","",""
"null","226165","SARL_v6","SARL_v6yqxw3w0o","63d13cb81a0a88a3ce29e33f","freq_resp","","","img/orange_2bandit_a.png","70","img/orange_2bandit_a.png","70","test","","","","","","","","","","","5","","","","","","","","",""
"null","226319","SARL_v6","SARL_v6yqxw3w0o","63d13cb81a0a88a3ce29e33f","fixation","","","img/fixation.png","null","","","test","","","","","","","","","","","","","","","","","","","",""
"233.60000000149012","226556","SARL_v6","SARL_v6yqxw3w0o","63d13cb81a0a88a3ce29e33f","freq","","","img/orange_2bandit_a2.png","70","","70","test","1","","101","","","","square","circle","97","6","5","0.8865979381443299","","","","","","","",""
"null","227131","SARL_v6","SARL_v6yqxw3w0o","63d13cb81a0a88a3ce29e33f","freq_resp","","","img/orange_2bandit_a.png","70","img/orange_2bandit_a.png","70","test","","","","","","","","","","","5","","","","","","","","",""
"null","227288","SARL_v6","SARL_v6yqxw3w0o","63d13cb81a0a88a3ce29e33f","fixation","","","img/fixation.png","null","","","test","","","","","","","","","","","","","","","","","","","",""
"275.8999999985099","227566","SARL_v6","SARL_v6yqxw3w0o","63d13cb81a0a88a3ce29e33f","freq","","","img/orange_2bandit_a2.png","70","","70","test","1","","102","","","","square","circle","98","7","5","0.8877551020408163","","","","","","","",""
"null","228105","SARL_v6","SARL_v6yqxw3w0o","63d13cb81a0a88a3ce29e33f","freq_resp","","","img/orange_2bandit_a.png","70","img/orange_2bandit_a.png","70","test","","","","","","","","","","","5","","","","","","","","",""
"null","228260","SARL_v6","SARL_v6yqxw3w0o","63d13cb81a0a88a3ce29e33f","fixation","","","img/fixation.png","null","","","test","","","","","","","","","","","","","","","","","","","",""
"330","228592","SARL_v6","SARL_v6yqxw3w0o","63d13cb81a0a88a3ce29e33f","freq","","","img/orange_2bandit_a2.png","70","","70","test","1","","103","","","","square","circle","99","8","5","0.8888888888888888","","","","","","","",""
"null","229070","SARL_v6","SARL_v6yqxw3w0o","63d13cb81a0a88a3ce29e33f","freq_resp","","","img/orange_2bandit_a.png","70","img/orange_2bandit_a.png","70","test","","","","","","","","","","","5","","","","","","","","",""
"null","229231","SARL_v6","SARL_v6yqxw3w0o","63d13cb81a0a88a3ce29e33f","fixation","","","img/fixation.png","null","","","test","","","","","","","","","","","","","","","","","","","",""
"314.19999999552965","229547","SARL_v6","SARL_v6yqxw3w0o","63d13cb81a0a88a3ce29e33f","freq","","","img/orange_2bandit_a2.png","70","","70","test","1","","104","","","","square","circle","100","9","5","0.89","","","","","","","",""
"null","230040","SARL_v6","SARL_v6yqxw3w0o","63d13cb81a0a88a3ce29e33f","freq_resp","","","img/orange_2bandit_a.png","70","img/orange_2bandit_a.png","70","test","","","","","","","","","","","5","","","","","","","","",""
"null","230194","SARL_v6","SARL_v6yqxw3w0o","63d13cb81a0a88a3ce29e33f","fixation","","","img/fixation.png","null","","","test","","","","","","","","","","","","","","","","","","","",""
"353.3999999985099","230550","SARL_v6","SARL_v6yqxw3w0o","63d13cb81a0a88a3ce29e33f","freq","","","img/orange_2bandit_a2.png","70","","70","test","1","","105","","","","square","circle","101","10","5","0.8910891089108911","","","","","","","",""
"null","231009","SARL_v6","SARL_v6yqxw3w0o","63d13cb81a0a88a3ce29e33f","freq_resp","","","img/orange_2bandit_a.png","70","img/orange_2bandit_a.png","70","test","","","","","","","","","","","5","","","","","","","","",""
"null","231163","SARL_v6","SARL_v6yqxw3w0o","63d13cb81a0a88a3ce29e33f","fixation","","","img/fixation.png","null","","","test","","","","","","","","","","","","","","","","","","","",""
"448.70000000298023","231614","SARL_v6","SARL_v6yqxw3w0o","63d13cb81a0a88a3ce29e33f","infreq","","","img/blue_2bandit_a2.png","68","","68","test","1","","106","","","","square","circle","102","11","5","0.8921568627450981","","","","","","","",""
"null","231977","SARL_v6","SARL_v6yqxw3w0o","63d13cb81a0a88a3ce29e33f","infreq_resp","","","img/blue_2bandit_a.png","68","img/blue_2bandit_a.png","68","test","","","","","","","","","","","5","","","","","","","","",""
"null","232134","SARL_v6","SARL_v6yqxw3w0o","63d13cb81a0a88a3ce29e33f","fixation","","","img/fixation.png","null","","","test","","","","","","","","","","","","","","","","","","","",""
"408.3999999985099","232546","SARL_v6","SARL_v6yqxw3w0o","63d13cb81a0a88a3ce29e33f","freq","","","img/orange_2bandit_a2.png","70","","70","test","1","","107","","","","square","circle","103","12","5","0.8932038834951457","","","","","","","",""
"null","232953","SARL_v6","SARL_v6yqxw3w0o","63d13cb81a0a88a3ce29e33f","freq_resp","","","img/orange_2bandit_a.png","70","img/orange_2bandit_a.png","70","test","","","","","","","","","","","5","","","","","","","","",""
"null","233112","SARL_v6","SARL_v6yqxw3w0o","63d13cb81a0a88a3ce29e33f","fixation","","","img/fixation.png","null","","","test","","","","","","","","","","","","","","","","","","","",""
"386.5","233502","SARL_v6","SARL_v6yqxw3w0o","63d13cb81a0a88a3ce29e33f","freq","","","img/orange_2bandit_a2.png","70","","70","test","1","","108","","","","square","circle","104","13","5","0.8942307692307693","","","","","","","",""
"null","233927","SARL_v6","SARL_v6yqxw3w0o","63d13cb81a0a88a3ce29e33f","freq_resp","","","img/orange_2bandit_a.png","70","img/orange_2bandit_a.png","70","test","","","","","","","","","","","5","","","","","","","","",""
"null","234085","SARL_v6","SARL_v6yqxw3w0o","63d13cb81a0a88a3ce29e33f","fixation","","","img/fixation.png","null","","","test","","","","","","","","","","","","","","","","","","","",""
"476.79999999701977","234565","SARL_v6","SARL_v6yqxw3w0o","63d13cb81a0a88a3ce29e33f","freq","","","img/orange_2bandit_a2.png","70","","70","test","1","","109","","","","square","circle","105","14","5","0.8952380952380953","","","","","","","",""
"null","234900","SARL_v6","SARL_v6yqxw3w0o","63d13cb81a0a88a3ce29e33f","freq_resp","","","img/orange_2bandit_a.png","70","img/orange_2bandit_a.png","70","test","","","","","","","","","","","5","","","","","","","","",""
"null","235058","SARL_v6","SARL_v6yqxw3w0o","63d13cb81a0a88a3ce29e33f","fixation","","","img/fixation.png","null","","","test","","","","","","","","","","","","","","","","","","","",""
"327.09999999403954","235388","SARL_v6","SARL_v6yqxw3w0o","63d13cb81a0a88a3ce29e33f","freq","","","img/orange_2bandit_a2.png","70","","70","test","1","","110","","","","square","circle","106","15","5","0.8962264150943396","","","","","","","",""
"null","235871","SARL_v6","SARL_v6yqxw3w0o","63d13cb81a0a88a3ce29e33f","freq_resp","","","img/orange_2bandit_a.png","70","img/orange_2bandit_a.png","70","test","","","","","","","","","","","5","","","","","","","","",""
"null","236027","SARL_v6","SARL_v6yqxw3w0o","63d13cb81a0a88a3ce29e33f","fixation","","","img/fixation.png","null","","","test","","","","","","","","","","","","","","","","","","","",""
"461.3999999985099","236492","SARL_v6","SARL_v6yqxw3w0o","63d13cb81a0a88a3ce29e33f","infreq","","","img/blue_2bandit_a2.png","68","","68","test","1","","111","","","","square","circle","107","16","5","0.897196261682243","","","","","","","",""
"null","236839","SARL_v6","SARL_v6yqxw3w0o","63d13cb81a0a88a3ce29e33f","infreq_resp","","","img/blue_2bandit_a.png","68","img/blue_2bandit_a.png","68","test","","","","","","","","","","","5","","","","","","","","",""
"null","236992","SARL_v6","SARL_v6yqxw3w0o","63d13cb81a0a88a3ce29e33f","fixation","","","img/fixation.png","null","","","test","","","","","","","","","","","","","","","","","","","",""
"552.8999999985099","237548","SARL_v6","SARL_v6yqxw3w0o","63d13cb81a0a88a3ce29e33f","freq","","","img/orange_2bandit_a2.png","70","","70","test","1","","112","","","","square","circle","108","17","5","0.8981481481481481","","","","","","","",""
"null","237805","SARL_v6","SARL_v6yqxw3w0o","63d13cb81a0a88a3ce29e33f","freq_resp","","","img/orange_2bandit_a.png","70","img/orange_2bandit_a.png","70","test","","","","","","","","","","","5","","","","","","","","",""
"null","237958","SARL_v6","SARL_v6yqxw3w0o","63d13cb81a0a88a3ce29e33f","fixation","","","img/fixation.png","null","","","test","","","","","","","","","","","","","","","","","","","",""
"442.3999999985099","238403","SARL_v6","SARL_v6yqxw3w0o","63d13cb81a0a88a3ce29e33f","freq","","","img/orange_2bandit_a2.png","70","","70","test","1","","113","","","","square","circle","109","18","5","0.8990825688073395","","","","","","","",""
"null","238775","SARL_v6","SARL_v6yqxw3w0o","63d13cb81a0a88a3ce29e33f","freq_resp","","","img/orange_2bandit_a.png","70","img/orange_2bandit_a.png","70","test","","","","","","","","","","","5","","","","","","","","",""
"null","238932","SARL_v6","SARL_v6yqxw3w0o","63d13cb81a0a88a3ce29e33f","fixation","","","img/fixation.png","null","","","test","","","","","","","","","","","","","","","","","","","",""
"381.69999999552965","239318","SARL_v6","SARL_v6yqxw3w0o","63d13cb81a0a88a3ce29e33f","freq","","","img/orange_2bandit_a2.png","70","","70","test","1","","114","","","","square","circle","110","19","5","0.9","","","","","","","",""
"null","239745","SARL_v6","SARL_v6yqxw3w0o","63d13cb81a0a88a3ce29e33f","freq_resp","","","img/orange_2bandit_a.png","70","img/orange_2bandit_a.png","70","test","","","","","","","","","","","5","","","","","","","","",""
"null","239902","SARL_v6","SARL_v6yqxw3w0o","63d13cb81a0a88a3ce29e33f","fixation","","","img/fixation.png","null","","","test","","","","","","","","","","","","","","","","","","","",""
"371.70000000298023","240276","SARL_v6","SARL_v6yqxw3w0o","63d13cb81a0a88a3ce29e33f","freq","","","img/orange_2bandit_a2.png","70","","70","test","1","","115","","","","square","circle","111","20","5","0.9009009009009009","","","","","","","",""
"null","240714","SARL_v6","SARL_v6yqxw3w0o","63d13cb81a0a88a3ce29e33f","freq_resp","","","img/orange_2bandit_a.png","70","img/orange_2bandit_a.png","70","test","","","","","","","","","","","5","","","","","","","","",""
"null","240871","SARL_v6","SARL_v6yqxw3w0o","63d13cb81a0a88a3ce29e33f","fixation","","","img/fixation.png","null","","","test","","","","","","","","","","","","","","","","","","","",""
"340.1000000014901","241214","SARL_v6","SARL_v6yqxw3w0o","63d13cb81a0a88a3ce29e33f","freq","","","img/orange_2bandit_a2.png","70","","70","test","1","","116","","","","square","circle","112","21","5","0.9017857142857143","","","","","","","",""
"null","241681","SARL_v6","SARL_v6yqxw3w0o","63d13cb81a0a88a3ce29e33f","freq_resp","","","img/orange_2bandit_a.png","70","img/orange_2bandit_a.png","70","test","","","","","","","","","","","5","","","","","","","","",""
"null","241837","SARL_v6","SARL_v6yqxw3w0o","63d13cb81a0a88a3ce29e33f","fixation","","","img/fixation.png","null","","","test","","","","","","","","","","","","","","","","","","","",""
"348.5","242188","SARL_v6","SARL_v6yqxw3w0o","63d13cb81a0a88a3ce29e33f","freq","","","img/orange_2bandit_a2.png","70","","70","test","1","","117","","","","square","circle","113","22","5","0.9026548672566371","","","","","","","",""
"null","242651","SARL_v6","SARL_v6yqxw3w0o","63d13cb81a0a88a3ce29e33f","freq_resp","","","img/orange_2bandit_a.png","70","img/orange_2bandit_a.png","70","test","","","","","","","","","","","5","","","","","","","","",""
"null","242809","SARL_v6","SARL_v6yqxw3w0o","63d13cb81a0a88a3ce29e33f","fixation","","","img/fixation.png","null","","","test","","","","","","","","","","","","","","","","","","","",""
"491.90000000596046","243304","SARL_v6","SARL_v6yqxw3w0o","63d13cb81a0a88a3ce29e33f","freq","","","img/orange_2bandit_a2.png","70","","70","test","1","","118","","","","square","circle","114","23","5","0.9035087719298246","","","","","","","",""
"null","243624","SARL_v6","SARL_v6yqxw3w0o","63d13cb81a0a88a3ce29e33f","freq_resp","","","img/orange_2bandit_a.png","70","img/orange_2bandit_a.png","70","test","","","","","","","","","","","5","","","","","","","","",""
"null","243779","SARL_v6","SARL_v6yqxw3w0o","63d13cb81a0a88a3ce29e33f","fixation","","","img/fixation.png","null","","","test","","","","","","","","","","","","","","","","","","","",""
"499.79999999701977","244282","SARL_v6","SARL_v6yqxw3w0o","63d13cb81a0a88a3ce29e33f","rl","","","img/black_2bandit_a2.png","75","","0","test","","","119","","","-7","square","circle","","0","5","","75","-7","4","4","-7","circle","5","0"
"null","245046","SARL_v6","SARL_v6yqxw3w0o","63d13cb81a0a88a3ce29e33f","feedback","","","<div class=""verylowPoints""> -7 </div>","null","","na","test","","","NaN","","","","","","","","5","","75","","","","","","5",""
"588.3000000044703","245638","SARL_v6","SARL_v6yqxw3w0o","63d13cb81a0a88a3ce29e33f","freq","","","img/orange_2bandit_a2.png","70","","70","test","1","","120","","","","square","circle","115","1","6","0.9043478260869565","","","","","","","",""
"null","245854","SARL_v6","SARL_v6yqxw3w0o","63d13cb81a0a88a3ce29e33f","freq_resp","","","img/orange_2bandit_a.png","70","img/orange_2bandit_a.png","70","test","","","","","","","","","","","6","","","","","","","","",""
"null","246009","SARL_v6","SARL_v6yqxw3w0o","63d13cb81a0a88a3ce29e33f","fixation","","","img/fixation.png","null","","","test","","","","","","","","","","","","","","","","","","","",""
"579.5","246592","SARL_v6","SARL_v6yqxw3w0o","63d13cb81a0a88a3ce29e33f","freq","","","img/orange_2bandit_a2.png","70","","70","test","1","","121","","","","square","circle","116","2","6","0.9051724137931034","","","","","","","",""
"null","246822","SARL_v6","SARL_v6yqxw3w0o","63d13cb81a0a88a3ce29e33f","freq_resp","","","img/orange_2bandit_a.png","70","img/orange_2bandit_a.png","70","test","","","","","","","","","","","6","","","","","","","","",""
"null","246975","SARL_v6","SARL_v6yqxw3w0o","63d13cb81a0a88a3ce29e33f","fixation","","","img/fixation.png","null","","","test","","","","","","","","","","","","","","","","","","","",""
"538.6000000014901","247516","SARL_v6","SARL_v6yqxw3w0o","63d13cb81a0a88a3ce29e33f","freq","","","img/orange_2bandit_a2.png","70","","70","test","1","","122","","","","square","circle","117","3","6","0.905982905982906","","","","","","","",""
"null","247795","SARL_v6","SARL_v6yqxw3w0o","63d13cb81a0a88a3ce29e33f","freq_resp","","","img/orange_2bandit_a.png","70","img/orange_2bandit_a.png","70","test","","","","","","","","","","","6","","","","","","","","",""
"null","247948","SARL_v6","SARL_v6yqxw3w0o","63d13cb81a0a88a3ce29e33f","fixation","","","img/fixation.png","null","","","test","","","","","","","","","","","","","","","","","","","",""
"463.3999999985099","248414","SARL_v6","SARL_v6yqxw3w0o","63d13cb81a0a88a3ce29e33f","freq","","","img/orange_2bandit_a2.png","70","","70","test","1","","123","","","","square","circle","118","4","6","0.9067796610169492","","","","","","","",""
"null","248763","SARL_v6","SARL_v6yqxw3w0o","63d13cb81a0a88a3ce29e33f","freq_resp","","","img/orange_2bandit_a.png","70","img/orange_2bandit_a.png","70","test","","","","","","","","","","","6","","","","","","","","",""
"null","248922","SARL_v6","SARL_v6yqxw3w0o","63d13cb81a0a88a3ce29e33f","fixation","","","img/fixation.png","null","","","test","","","","","","","","","","","","","","","","","","","",""
"333.6000000014901","249258","SARL_v6","SARL_v6yqxw3w0o","63d13cb81a0a88a3ce29e33f","freq","","","img/orange_2bandit_a2.png","70","","70","test","1","","124","","","","square","circle","119","5","6","0.907563025210084","","","","","","","",""
"null","249737","SARL_v6","SARL_v6yqxw3w0o","63d13cb81a0a88a3ce29e33f","freq_resp","","","img/orange_2bandit_a.png","70","img/orange_2bandit_a.png","70","test","","","","","","","","","","","6","","","","","","","","",""
"null","249892","SARL_v6","SARL_v6yqxw3w0o","63d13cb81a0a88a3ce29e33f","fixation","","","img/fixation.png","null","","","test","","","","","","","","","","","","","","","","","","","",""
"326.5","250222","SARL_v6","SARL_v6yqxw3w0o","63d13cb81a0a88a3ce29e33f","freq","","","img/orange_2bandit_a2.png","70","","70","test","1","","125","","","","square","circle","120","6","6","0.9083333333333333","","","","","","","",""
"null","250703","SARL_v6","SARL_v6yqxw3w0o","63d13cb81a0a88a3ce29e33f","freq_resp","","","img/orange_2bandit_a.png","70","img/orange_2bandit_a.png","70","test","","","","","","","","","","","6","","","","","","","","",""
"null","250858","SARL_v6","SARL_v6yqxw3w0o","63d13cb81a0a88a3ce29e33f","fixation","","","img/fixation.png","null","","","test","","","","","","","","","","","","","","","","","","","",""
"300.1000000014901","251162","SARL_v6","SARL_v6yqxw3w0o","63d13cb81a0a88a3ce29e33f","freq","","","img/orange_2bandit_a2.png","70","","70","test","1","","126","","","","square","circle","121","7","6","0.9090909090909091","","","","","","","",""
"null","251673","SARL_v6","SARL_v6yqxw3w0o","63d13cb81a0a88a3ce29e33f","freq_resp","","","img/orange_2bandit_a.png","70","img/orange_2bandit_a.png","70","test","","","","","","","","","","","6","","","","","","","","",""
"null","251830","SARL_v6","SARL_v6yqxw3w0o","63d13cb81a0a88a3ce29e33f","fixation","","","img/fixation.png","null","","","test","","","","","","","","","","","","","","","","","","","",""
"240.60000000149012","252073","SARL_v6","SARL_v6yqxw3w0o","63d13cb81a0a88a3ce29e33f","freq","","","img/orange_2bandit_a2.png","70","","70","test","1","","127","","","","square","circle","122","8","6","0.9098360655737705","","","","","","","",""
"null","252639","SARL_v6","SARL_v6yqxw3w0o","63d13cb81a0a88a3ce29e33f","freq_resp","","","img/orange_2bandit_a.png","70","img/orange_2bandit_a.png","70","test","","","","","","","","","","","6","","","","","","","","",""
"null","252793","SARL_v6","SARL_v6yqxw3w0o","63d13cb81a0a88a3ce29e33f","fixation","","","img/fixation.png","null","","","test","","","","","","","","","","","","","","","","","","","",""
"315.79999999701977","253112","SARL_v6","SARL_v6yqxw3w0o","63d13cb81a0a88a3ce29e33f","freq","","","img/orange_2bandit_a2.png","70","","70","test","1","","128","","","","square","circle","123","9","6","0.9105691056910569","","","","","","","",""
"null","253604","SARL_v6","SARL_v6yqxw3w0o","63d13cb81a0a88a3ce29e33f","freq_resp","","","img/orange_2bandit_a.png","70","img/orange_2bandit_a.png","70","test","","","","","","","","","","","6","","","","","","","","",""
"null","253757","SARL_v6","SARL_v6yqxw3w0o","63d13cb81a0a88a3ce29e33f","fixation","","","img/fixation.png","null","","","test","","","","","","","","","","","","","","","","","","","",""
"483.09999999403954","254243","SARL_v6","SARL_v6yqxw3w0o","63d13cb81a0a88a3ce29e33f","infreq","","","img/blue_2bandit_a2.png","68","","68","test","1","","129","","","","square","circle","124","10","6","0.9112903225806451","","","","","","","",""
"null","254566","SARL_v6","SARL_v6yqxw3w0o","63d13cb81a0a88a3ce29e33f","infreq_resp","","","img/blue_2bandit_a.png","68","img/blue_2bandit_a.png","68","test","","","","","","","","","","","6","","","","","","","","",""
"null","254722","SARL_v6","SARL_v6yqxw3w0o","63d13cb81a0a88a3ce29e33f","fixation","","","img/fixation.png","null","","","test","","","","","","","","","","","","","","","","","","","",""
"376.1000000014901","255102","SARL_v6","SARL_v6yqxw3w0o","63d13cb81a0a88a3ce29e33f","freq","","","img/orange_2bandit_a2.png","70","","70","test","1","","130","","","","square","circle","125","11","6","0.912","","","","","","","",""
"null","255538","SARL_v6","SARL_v6yqxw3w0o","63d13cb81a0a88a3ce29e33f","freq_resp","","","img/orange_2bandit_a.png","70","img/orange_2bandit_a.png","70","test","","","","","","","","","","","6","","","","","","","","",""
"null","255693","SARL_v6","SARL_v6yqxw3w0o","63d13cb81a0a88a3ce29e33f","fixation","","","img/fixation.png","null","","","test","","","","","","","","","","","","","","","","","","","",""
"443.20000000298023","256139","SARL_v6","SARL_v6yqxw3w0o","63d13cb81a0a88a3ce29e33f","freq","","","img/orange_2bandit_a2.png","70","","70","test","1","","131","","","","square","circle","126","12","6","0.9126984126984127","","","","","","","",""
"null","256511","SARL_v6","SARL_v6yqxw3w0o","63d13cb81a0a88a3ce29e33f","freq_resp","","","img/orange_2bandit_a.png","70","img/orange_2bandit_a.png","70","test","","","","","","","","","","","6","","","","","","","","",""
"null","256666","SARL_v6","SARL_v6yqxw3w0o","63d13cb81a0a88a3ce29e33f","fixation","","","img/fixation.png","null","","","test","","","","","","","","","","","","","","","","","","","",""
"334.5","257003","SARL_v6","SARL_v6yqxw3w0o","63d13cb81a0a88a3ce29e33f","freq","","","img/orange_2bandit_a2.png","70","","70","test","1","","132","","","","square","circle","127","13","6","0.9133858267716536","","","","","","","",""
"null","257478","SARL_v6","SARL_v6yqxw3w0o","63d13cb81a0a88a3ce29e33f","freq_resp","","","img/orange_2bandit_a.png","70","img/orange_2bandit_a.png","70","test","","","","","","","","","","","6","","","","","","","","",""
"null","257632","SARL_v6","SARL_v6yqxw3w0o","63d13cb81a0a88a3ce29e33f","fixation","","","img/fixation.png","null","","","test","","","","","","","","","","","","","","","","","","","",""
"373.6000000014901","258009","SARL_v6","SARL_v6yqxw3w0o","63d13cb81a0a88a3ce29e33f","freq","","","img/orange_2bandit_a2.png","70","","70","test","1","","133","","","","square","circle","128","14","6","0.9140625","","","","","","","",""
"null","258447","SARL_v6","SARL_v6yqxw3w0o","63d13cb81a0a88a3ce29e33f","freq_resp","","","img/orange_2bandit_a.png","70","img/orange_2bandit_a.png","70","test","","","","","","","","","","","6","","","","","","","","",""
"null","258603","SARL_v6","SARL_v6yqxw3w0o","63d13cb81a0a88a3ce29e33f","fixation","","","img/fixation.png","null","","","test","","","","","","","","","","","","","","","","","","","",""
"280.30000000447035","258886","SARL_v6","SARL_v6yqxw3w0o","63d13cb81a0a88a3ce29e33f","freq","","","img/orange_2bandit_a2.png","70","","70","test","1","","134","","","","square","circle","129","15","6","0.9147286821705426","","","","","","","",""
"null","259418","SARL_v6","SARL_v6yqxw3w0o","63d13cb81a0a88a3ce29e33f","freq_resp","","","img/orange_2bandit_a.png","70","img/orange_2bandit_a.png","70","test","","","","","","","","","","","6","","","","","","","","",""
"null","259572","SARL_v6","SARL_v6yqxw3w0o","63d13cb81a0a88a3ce29e33f","fixation","","","img/fixation.png","null","","","test","","","","","","","","","","","","","","","","","","","",""
"224.60000000149012","259799","SARL_v6","SARL_v6yqxw3w0o","63d13cb81a0a88a3ce29e33f","freq","","","img/orange_2bandit_a2.png","70","","70","test","1","","135","","","","square","circle","130","16","6","0.9153846153846154","","","","","","","",""
