"rt","time_elapsed","expId","subject","prolificID","trialType","rlType","attType","stimulus","key_press","stim","corrresp","phase","corr","pracCounter","trialNum","rewardOne","rewardTwo","reward","bandOne","bandTwo","attentionNum","attentionRunNum","blockNum","performance","bandChosen","circleVal","squareVal","bandOneVal","bandTwoVal","shapeChosen","rlNum","badFlag"
"4303","4309","SARL_v6","SARL_v6j3ml2rdt","5f16f559325a640008bb9a07","","","","","","","","","","","","","","","","","","","","","","","","","","","",""
"","6514","SARL_v6","SARL_v6j3ml2rdt","5f16f559325a640008bb9a07","fullscreen","fullscreen","fullscreen","","","","","","","","","","","","","","","","","","","","","","","","",""
"620334.4000000358","626853","SARL_v6","SARL_v6j3ml2rdt","5f16f559325a640008bb9a07","","","","","","","","","","","","","","","","","","","","","","","","","","","",""
"null","627673","SARL_v6","SARL_v6j3ml2rdt","5f16f559325a640008bb9a07","freqPrac","","","img/blue_2bandit_b2.png","null","img/blue_2bandit_b2.png","70","prac","0","1","","","","","","","","","","","","","","","","","",""
"null","628692","SARL_v6","SARL_v6j3ml2rdt","5f16f559325a640008bb9a07","feedback","","","img/tooSlow.png","null","","na","prac","","","","","","","","","","","","","","","","","","","",""
"null","628848","SARL_v6","SARL_v6j3ml2rdt","5f16f559325a640008bb9a07","fixation","","","img/fixation.png","null","","","prac","","","","","","","","","","","","","","","","","","","",""
"347.2999999523163","629199","SARL_v6","SARL_v6j3ml2rdt","5f16f559325a640008bb9a07","infreqPrac","","","img/orange_2bandit_b2.png","68","img/orange_2bandit_b2.png","68","prac","1","1","","","","","","","","","","","","","","","","","",""
"347.2999999523163","629656","SARL_v6","SARL_v6j3ml2rdt","5f16f559325a640008bb9a07","infreqPrac_resp","","","img/orange_2bandit_b.png","68","img/orange_2bandit_b.png","68","prac","","","","","","","","","","","","","","","","","","","",""
"null","629824","SARL_v6","SARL_v6j3ml2rdt","5f16f559325a640008bb9a07","fixation","","","img/fixation.png","null","","","prac","","","","","","","","","","","","","","","","","","","",""
"422.60000002384186","630250","SARL_v6","SARL_v6j3ml2rdt","5f16f559325a640008bb9a07","freqPrac","","","img/blue_2bandit_b2.png","70","img/blue_2bandit_b2.png","70","prac","1","1","","","","","","","","","","","","","","","","","",""
"422.60000002384186","630634","SARL_v6","SARL_v6j3ml2rdt","5f16f559325a640008bb9a07","freqPrac_resp","","","img/blue_2bandit_b.png","70","img/blue_2bandit_b.png","70","prac","","","","","","","","","","","","","","","","","","","",""
"null","630796","SARL_v6","SARL_v6j3ml2rdt","5f16f559325a640008bb9a07","fixation","","","img/fixation.png","null","","","prac","","","","","","","","","","","","","","","","","","","",""
"413.80000001192093","631214","SARL_v6","SARL_v6j3ml2rdt","5f16f559325a640008bb9a07","infreqPrac","","","img/orange_2bandit_b2.png","68","img/orange_2bandit_b2.png","68","prac","1","1","","","","","","","","","","","","","","","","","",""
"413.80000001192093","631617","SARL_v6","SARL_v6j3ml2rdt","5f16f559325a640008bb9a07","infreqPrac_resp","","","img/orange_2bandit_b.png","68","img/orange_2bandit_b.png","68","prac","","","","","","","","","","","","","","","","","","","",""
"null","631779","SARL_v6","SARL_v6j3ml2rdt","5f16f559325a640008bb9a07","fixation","","","img/fixation.png","null","","","prac","","","","","","","","","","","","","","","","","","","",""
"301.4000000357628","632084","SARL_v6","SARL_v6j3ml2rdt","5f16f559325a640008bb9a07","infreqPrac","","","img/orange_2bandit_b2.png","68","img/orange_2bandit_b2.png","68","prac","1","1","","","","","","","","","","","","","","","","","",""
"301.4000000357628","632590","SARL_v6","SARL_v6j3ml2rdt","5f16f559325a640008bb9a07","infreqPrac_resp","","","img/orange_2bandit_b.png","68","img/orange_2bandit_b.png","68","prac","","","","","","","","","","","","","","","","","","","",""
"null","632757","SARL_v6","SARL_v6j3ml2rdt","5f16f559325a640008bb9a07","fixation","","","img/fixation.png","null","","","prac","","","","","","","","","","","","","","","","","","","",""
"339.10000002384186","633099","SARL_v6","SARL_v6j3ml2rdt","5f16f559325a640008bb9a07","infreqPrac","","","img/orange_2bandit_b2.png","68","img/orange_2bandit_b2.png","68","prac","1","1","","","","","","","","","","","","","","","","","",""
"339.10000002384186","633575","SARL_v6","SARL_v6j3ml2rdt","5f16f559325a640008bb9a07","infreqPrac_resp","","","img/orange_2bandit_b.png","68","img/orange_2bandit_b.png","68","prac","","","","","","","","","","","","","","","","","","","",""
"null","633744","SARL_v6","SARL_v6j3ml2rdt","5f16f559325a640008bb9a07","fixation","","","img/fixation.png","null","","","prac","","","","","","","","","","","","","","","","","","","",""
"313.30000001192093","634061","SARL_v6","SARL_v6j3ml2rdt","5f16f559325a640008bb9a07","freqPrac","","","img/blue_2bandit_b2.png","70","img/blue_2bandit_b2.png","70","prac","1","1","","","","","","","","","","","","","","","","","",""
"313.30000001192093","634563","SARL_v6","SARL_v6j3ml2rdt","5f16f559325a640008bb9a07","freqPrac_resp","","","img/blue_2bandit_b.png","70","img/blue_2bandit_b.png","70","prac","","","","","","","","","","","","","","","","","","","",""
"null","634727","SARL_v6","SARL_v6j3ml2rdt","5f16f559325a640008bb9a07","fixation","","","img/fixation.png","null","","","prac","","","","","","","","","","","","","","","","","","","",""
"320.60000002384186","635051","SARL_v6","SARL_v6j3ml2rdt","5f16f559325a640008bb9a07","infreqPrac","","","img/orange_2bandit_b2.png","68","img/orange_2bandit_b2.png","68","prac","1","1","","","","","","","","","","","","","","","","","",""
"320.60000002384186","635548","SARL_v6","SARL_v6j3ml2rdt","5f16f559325a640008bb9a07","infreqPrac_resp","","","img/orange_2bandit_b.png","68","img/orange_2bandit_b.png","68","prac","","","","","","","","","","","","","","","","","","","",""
"null","635715","SARL_v6","SARL_v6j3ml2rdt","5f16f559325a640008bb9a07","fixation","","","img/fixation.png","null","","","prac","","","","","","","","","","","","","","","","","","","",""
"335.69999998807907","636054","SARL_v6","SARL_v6j3ml2rdt","5f16f559325a640008bb9a07","freqPrac","","","img/blue_2bandit_b2.png","70","img/blue_2bandit_b2.png","70","prac","1","1","","","","","","","","","","","","","","","","","",""
"335.69999998807907","636530","SARL_v6","SARL_v6j3ml2rdt","5f16f559325a640008bb9a07","freqPrac_resp","","","img/blue_2bandit_b.png","70","img/blue_2bandit_b.png","70","prac","","","","","","","","","","","","","","","","","","","",""
"null","636687","SARL_v6","SARL_v6j3ml2rdt","5f16f559325a640008bb9a07","fixation","","","img/fixation.png","null","","","prac","","","","","","","","","","","","","","","","","","","",""
"314.60000002384186","637005","SARL_v6","SARL_v6j3ml2rdt","5f16f559325a640008bb9a07","freqPrac","","","img/blue_2bandit_b2.png","70","img/blue_2bandit_b2.png","70","prac","1","1","","","","","","","","","","","","","","","","","",""
"314.60000002384186","637510","SARL_v6","SARL_v6j3ml2rdt","5f16f559325a640008bb9a07","freqPrac_resp","","","img/blue_2bandit_b.png","70","img/blue_2bandit_b.png","70","prac","","","","","","","","","","","","","","","","","","","",""
"null","637674","SARL_v6","SARL_v6j3ml2rdt","5f16f559325a640008bb9a07","fixation","","","img/fixation.png","null","","","prac","","","","","","","","","","","","","","","","","","","",""
"16875.400000035763","654553","SARL_v6","SARL_v6j3ml2rdt","5f16f559325a640008bb9a07","","","","","","","","prac","","","","","","","","","","","","","","","","","","","",""
"699.1999999880791","655256","SARL_v6","SARL_v6j3ml2rdt","5f16f559325a640008bb9a07","rlPractice","","","img/black_2bandit_b2.png","75","img/black_2bandit_b2.png","","prac","","","0","","","","","","","","","","","","","","","","",""
"null","656026","SARL_v6","SARL_v6j3ml2rdt","5f16f559325a640008bb9a07","feedback","","","<div class=""verylowPoints_sq""> -14 </div>","null","","na","prac","","","1","10","-14","10","","","","","","","","","","","","","",""
"null","656184","SARL_v6","SARL_v6j3ml2rdt","5f16f559325a640008bb9a07","fixation","","","img/fixation.png","null","","","prac","","","","","","","","","","","","","","","","","","","",""
"424.5","656611","SARL_v6","SARL_v6j3ml2rdt","5f16f559325a640008bb9a07","rlPractice","","","img/black_2bandit_b2.png","74","img/black_2bandit_b2.png","","prac","","","1","","","","","","","","","","","","","","","","",""
"null","657366","SARL_v6","SARL_v6j3ml2rdt","5f16f559325a640008bb9a07","feedback","","","<div class=""veryhighPoints""> 5 </div>","null","","na","prac","","","2","5","-5","5","","","","","","","","","","","","","",""
"null","657532","SARL_v6","SARL_v6j3ml2rdt","5f16f559325a640008bb9a07","fixation","","","img/fixation.png","null","","","prac","","","","","","","","","","","","","","","","","","","",""
"309.80000001192093","657845","SARL_v6","SARL_v6j3ml2rdt","5f16f559325a640008bb9a07","rlPractice","","","img/black_2bandit_b2.png","74","img/black_2bandit_b2.png","","prac","","","2","","","","","","","","","","","","","","","","",""
"null","658618","SARL_v6","SARL_v6j3ml2rdt","5f16f559325a640008bb9a07","feedback","","","<div class=""veryhighPoints""> 30 </div>","null","","na","prac","","","3","30","2","30","","","","","","","","","","","","","",""
"null","658776","SARL_v6","SARL_v6j3ml2rdt","5f16f559325a640008bb9a07","fixation","","","img/fixation.png","null","","","prac","","","","","","","","","","","","","","","","","","","",""
"315.7999999523163","659097","SARL_v6","SARL_v6j3ml2rdt","5f16f559325a640008bb9a07","rlPractice","","","img/black_2bandit_b2.png","74","img/black_2bandit_b2.png","","prac","","","3","","","","","","","","","","","","","","","","",""
"null","659857","SARL_v6","SARL_v6j3ml2rdt","5f16f559325a640008bb9a07","feedback","","","<div class=""verylowPoints""> -2 </div>","null","","na","prac","","","4","-2","20","-2","","","","","","","","","","","","","",""
"null","660014","SARL_v6","SARL_v6j3ml2rdt","5f16f559325a640008bb9a07","fixation","","","img/fixation.png","null","","","prac","","","","","","","","","","","","","","","","","","","",""
"6670.600000023842","666687","SARL_v6","SARL_v6j3ml2rdt","5f16f559325a640008bb9a07","","","","","","","","prac","","","","","","","","","","","","","","","","","","","",""
"639.5","667330","SARL_v6","SARL_v6j3ml2rdt","5f16f559325a640008bb9a07","mixAttFreqPrac","","","img/blue_2bandit_b2.png","70","img/blue_2bandit_b2.png","70","prac","","","1","","","","","","","","","","","","","","","","",""
"639.5","667505","SARL_v6","SARL_v6j3ml2rdt","5f16f559325a640008bb9a07","freqPrac_resp","","","img/blue_2bandit_b.png","70","img/blue_2bandit_b.png","70","prac","","","1","","","","","","","","","","","","","","","","",""
"null","667659","SARL_v6","SARL_v6j3ml2rdt","5f16f559325a640008bb9a07","fixation","","","img/fixation.png","null","","","prac","","","","","","","","","","","","","","","","","","","",""
"512.6000000238419","668175","SARL_v6","SARL_v6j3ml2rdt","5f16f559325a640008bb9a07","mixAttInfreqPrac","","","img/orange_2bandit_b2.png","68","img/orange_2bandit_b2.png","68","prac","","","2","","","","","","","","","","","","","","","","",""
"512.6000000238419","668467","SARL_v6","SARL_v6j3ml2rdt","5f16f559325a640008bb9a07","infreqPrac_resp","","","img/orange_2bandit_b.png","68","img/blue_2bandit_b.png","68","prac","","","2","","","","","","","","","","","","","","","","",""
"null","668624","SARL_v6","SARL_v6j3ml2rdt","5f16f559325a640008bb9a07","fixation","","","img/fixation.png","null","","","prac","","","","","","","","","","","","","","","","","","","",""
"337.4000000357628","668964","SARL_v6","SARL_v6j3ml2rdt","5f16f559325a640008bb9a07","mixAttInfreqPrac","","","img/orange_2bandit_b2.png","68","img/orange_2bandit_b2.png","68","prac","","","3","","","","","","","","","","","","","","","","",""
"337.4000000357628","669438","SARL_v6","SARL_v6j3ml2rdt","5f16f559325a640008bb9a07","infreqPrac_resp","","","img/orange_2bandit_b.png","68","img/blue_2bandit_b.png","68","prac","","","3","","","","","","","","","","","","","","","","",""
"null","669607","SARL_v6","SARL_v6j3ml2rdt","5f16f559325a640008bb9a07","fixation","","","img/fixation.png","null","","","prac","","","","","","","","","","","","","","","","","","","",""
"407.89999997615814","670018","SARL_v6","SARL_v6j3ml2rdt","5f16f559325a640008bb9a07","mixAttInfreqPrac","","","img/orange_2bandit_b2.png","68","img/orange_2bandit_b2.png","68","prac","","","4","","","","","","","","","","","","","","","","",""
"407.89999997615814","670428","SARL_v6","SARL_v6j3ml2rdt","5f16f559325a640008bb9a07","infreqPrac_resp","","","img/orange_2bandit_b.png","68","img/blue_2bandit_b.png","68","prac","","","4","","","","","","","","","","","","","","","","",""
"null","670583","SARL_v6","SARL_v6j3ml2rdt","5f16f559325a640008bb9a07","fixation","","","img/fixation.png","null","","","prac","","","","","","","","","","","","","","","","","","","",""
"525.0999999642372","671112","SARL_v6","SARL_v6j3ml2rdt","5f16f559325a640008bb9a07","mixAttFreqPrac","","","img/blue_2bandit_b2.png","70","img/blue_2bandit_b2.png","70","prac","","","5","","","","","","","","","","","","","","","","",""
"525.0999999642372","671403","SARL_v6","SARL_v6j3ml2rdt","5f16f559325a640008bb9a07","freqPrac_resp","","","img/blue_2bandit_b.png","70","img/blue_2bandit_b.png","70","prac","","","5","","","","","","","","","","","","","","","","",""
"null","671566","SARL_v6","SARL_v6j3ml2rdt","5f16f559325a640008bb9a07","fixation","","","img/fixation.png","null","","","prac","","","","","","","","","","","","","","","","","","","",""
"438.5","672008","SARL_v6","SARL_v6j3ml2rdt","5f16f559325a640008bb9a07","mixRLPractice","","","img/black_2bandit_b2.png","74","img/black_2bandit_b2.png","","prac","","","5","","","","","","","","","","","","","","","","",""
"null","672766","SARL_v6","SARL_v6j3ml2rdt","5f16f559325a640008bb9a07","feedback","","","<div class=""verylowPoints""> -14 </div>","null","","na","prac","","","6","-14","10","-14","","","","","","","","","","","","","",""
"null","672925","SARL_v6","SARL_v6j3ml2rdt","5f16f559325a640008bb9a07","fixation","","","img/fixation.png","null","","","prac","","","","","","","","","","","","","","","","","","","",""
"637.3999999761581","673565","SARL_v6","SARL_v6j3ml2rdt","5f16f559325a640008bb9a07","mixAttFreqPrac","","","img/blue_2bandit_b2.png","70","img/blue_2bandit_b2.png","70","prac","","","7","","","","","","","","","","","","","","","","",""
"637.3999999761581","673741","SARL_v6","SARL_v6j3ml2rdt","5f16f559325a640008bb9a07","freqPrac_resp","","","img/blue_2bandit_b.png","70","img/blue_2bandit_b.png","70","prac","","","7","","","","","","","","","","","","","","","","",""
"null","673907","SARL_v6","SARL_v6j3ml2rdt","5f16f559325a640008bb9a07","fixation","","","img/fixation.png","null","","","prac","","","","","","","","","","","","","","","","","","","",""
"412.4000000357628","674323","SARL_v6","SARL_v6j3ml2rdt","5f16f559325a640008bb9a07","mixAttInfreqPrac","","","img/orange_2bandit_b2.png","68","img/orange_2bandit_b2.png","68","prac","","","8","","","","","","","","","","","","","","","","",""
"412.4000000357628","674716","SARL_v6","SARL_v6j3ml2rdt","5f16f559325a640008bb9a07","infreqPrac_resp","","","img/orange_2bandit_b.png","68","img/blue_2bandit_b.png","68","prac","","","8","","","","","","","","","","","","","","","","",""
"null","674881","SARL_v6","SARL_v6j3ml2rdt","5f16f559325a640008bb9a07","fixation","","","img/fixation.png","null","","","prac","","","","","","","","","","","","","","","","","","","",""
"325.80000001192093","675210","SARL_v6","SARL_v6j3ml2rdt","5f16f559325a640008bb9a07","mixAttFreqPrac","","","img/blue_2bandit_b2.png","68","img/blue_2bandit_b2.png","70","prac","","","9","","","","","","","","","","","","","","","","",""
"325.80000001192093","675702","SARL_v6","SARL_v6j3ml2rdt","5f16f559325a640008bb9a07","freqPrac_resp","","","img/blue_2bandit_b.png","68","img/blue_2bandit_b.png","70","prac","","","9","","","","","","","","","","","","","","","","",""
"null","675871","SARL_v6","SARL_v6j3ml2rdt","5f16f559325a640008bb9a07","fixation","","","img/fixation.png","null","","","prac","","","","","","","","","","","","","","","","","","","",""
"669.3000000119209","676544","SARL_v6","SARL_v6j3ml2rdt","5f16f559325a640008bb9a07","mixAttFreqPrac","","","img/blue_2bandit_b2.png","68","img/blue_2bandit_b2.png","70","prac","","","10","","","","","","","","","","","","","","","","",""
"669.3000000119209","676680","SARL_v6","SARL_v6j3ml2rdt","5f16f559325a640008bb9a07","freqPrac_resp","","","img/blue_2bandit_b.png","68","img/blue_2bandit_b.png","70","prac","","","10","","","","","","","","","","","","","","","","",""
"null","676848","SARL_v6","SARL_v6j3ml2rdt","5f16f559325a640008bb9a07","fixation","","","img/fixation.png","null","","","prac","","","","","","","","","","","","","","","","","","","",""
"710.1000000238419","677561","SARL_v6","SARL_v6j3ml2rdt","5f16f559325a640008bb9a07","mixAttInfreqPrac","","","img/orange_2bandit_b2.png","68","img/orange_2bandit_b2.png","68","prac","","","11","","","","","","","","","","","","","","","","",""
"710.1000000238419","677662","SARL_v6","SARL_v6j3ml2rdt","5f16f559325a640008bb9a07","infreqPrac_resp","","","img/orange_2bandit_b.png","68","img/blue_2bandit_b.png","68","prac","","","11","","","","","","","","","","","","","","","","",""
"null","677833","SARL_v6","SARL_v6j3ml2rdt","5f16f559325a640008bb9a07","fixation","","","img/fixation.png","null","","","prac","","","","","","","","","","","","","","","","","","","",""
"668.5","678506","SARL_v6","SARL_v6j3ml2rdt","5f16f559325a640008bb9a07","mixRLPractice","","","img/black_2bandit_b2.png","75","img/black_2bandit_b2.png","","prac","","","11","","","","","","","","","","","","","","","","",""
"null","679266","SARL_v6","SARL_v6j3ml2rdt","5f16f559325a640008bb9a07","feedback","","","<div class=""verylowPoints_sq""> -5 </div>","null","","na","prac","","","12","5","-5","5","","","","","","","","","","","","","",""
"null","679430","SARL_v6","SARL_v6j3ml2rdt","5f16f559325a640008bb9a07","fixation","","","img/fixation.png","null","","","prac","","","","","","","","","","","","","","","","","","","",""
"18488.100000023842","697920","SARL_v6","SARL_v6j3ml2rdt","5f16f559325a640008bb9a07","","","","","","","","prac","","","","","","","","","","","","","","","","","","","",""
"426.9000000357628","698351","SARL_v6","SARL_v6j3ml2rdt","5f16f559325a640008bb9a07","freq","","","img/blue_2bandit_b2.png","70","","70","test","1","","1","","","","circle","square","1","1","1","1","","","","","","","",""
"null","698758","SARL_v6","SARL_v6j3ml2rdt","5f16f559325a640008bb9a07","freq_resp","","","img/blue_2bandit_b.png","70","img/blue_2bandit_b.png","70","test","","","","","","","","","","","1","","","","","","","","",""
"null","698922","SARL_v6","SARL_v6j3ml2rdt","5f16f559325a640008bb9a07","fixation","","","img/fixation.png","null","","","test","","","","","","","","","","","","","","","","","","","",""
"327.80000001192093","699253","SARL_v6","SARL_v6j3ml2rdt","5f16f559325a640008bb9a07","freq","","","img/blue_2bandit_b2.png","70","","70","test","1","","2","","","","circle","square","2","2","1","1","","","","","","","",""
"null","699733","SARL_v6","SARL_v6j3ml2rdt","5f16f559325a640008bb9a07","freq_resp","","","img/blue_2bandit_b.png","70","img/blue_2bandit_b.png","70","test","","","","","","","","","","","1","","","","","","","","",""
"null","699895","SARL_v6","SARL_v6j3ml2rdt","5f16f559325a640008bb9a07","fixation","","","img/fixation.png","null","","","test","","","","","","","","","","","","","","","","","","","",""
"301.5","700201","SARL_v6","SARL_v6j3ml2rdt","5f16f559325a640008bb9a07","freq","","","img/blue_2bandit_b2.png","70","","70","test","1","","3","","","","circle","square","3","3","1","1","","","","","","","",""
"null","700706","SARL_v6","SARL_v6j3ml2rdt","5f16f559325a640008bb9a07","freq_resp","","","img/blue_2bandit_b.png","70","img/blue_2bandit_b.png","70","test","","","","","","","","","","","1","","","","","","","","",""
"null","700875","SARL_v6","SARL_v6j3ml2rdt","5f16f559325a640008bb9a07","fixation","","","img/fixation.png","null","","","test","","","","","","","","","","","","","","","","","","","",""
"299.39999997615814","701177","SARL_v6","SARL_v6j3ml2rdt","5f16f559325a640008bb9a07","freq","","","img/blue_2bandit_b2.png","70","","70","test","1","","4","","","","circle","square","4","4","1","1","","","","","","","",""
"null","701688","SARL_v6","SARL_v6j3ml2rdt","5f16f559325a640008bb9a07","freq_resp","","","img/blue_2bandit_b.png","70","img/blue_2bandit_b.png","70","test","","","","","","","","","","","1","","","","","","","","",""
"null","701843","SARL_v6","SARL_v6j3ml2rdt","5f16f559325a640008bb9a07","fixation","","","img/fixation.png","null","","","test","","","","","","","","","","","","","","","","","","","",""
"323.19999998807907","702169","SARL_v6","SARL_v6j3ml2rdt","5f16f559325a640008bb9a07","freq","","","img/blue_2bandit_b2.png","70","","70","test","1","","5","","","","circle","square","5","5","1","1","","","","","","","",""
"null","702655","SARL_v6","SARL_v6j3ml2rdt","5f16f559325a640008bb9a07","freq_resp","","","img/blue_2bandit_b.png","70","img/blue_2bandit_b.png","70","test","","","","","","","","","","","1","","","","","","","","",""
"null","702822","SARL_v6","SARL_v6j3ml2rdt","5f16f559325a640008bb9a07","fixation","","","img/fixation.png","null","","","test","","","","","","","","","","","","","","","","","","","",""
"420.5","703247","SARL_v6","SARL_v6j3ml2rdt","5f16f559325a640008bb9a07","freq","","","img/blue_2bandit_b2.png","70","","70","test","1","","6","","","","circle","square","6","6","1","1","","","","","","","",""
"null","703645","SARL_v6","SARL_v6j3ml2rdt","5f16f559325a640008bb9a07","freq_resp","","","img/blue_2bandit_b.png","70","img/blue_2bandit_b.png","70","test","","","","","","","","","","","1","","","","","","","","",""
"null","703799","SARL_v6","SARL_v6j3ml2rdt","5f16f559325a640008bb9a07","fixation","","","img/fixation.png","null","","","test","","","","","","","","","","","","","","","","","","","",""
"303.80000001192093","704107","SARL_v6","SARL_v6j3ml2rdt","5f16f559325a640008bb9a07","freq","","","img/blue_2bandit_b2.png","70","","70","test","1","","7","","","","circle","square","7","7","1","1","","","","","","","",""
"null","704611","SARL_v6","SARL_v6j3ml2rdt","5f16f559325a640008bb9a07","freq_resp","","","img/blue_2bandit_b.png","70","img/blue_2bandit_b.png","70","test","","","","","","","","","","","1","","","","","","","","",""
"null","704779","SARL_v6","SARL_v6j3ml2rdt","5f16f559325a640008bb9a07","fixation","","","img/fixation.png","null","","","test","","","","","","","","","","","","","","","","","","","",""
"335.30000001192093","705117","SARL_v6","SARL_v6j3ml2rdt","5f16f559325a640008bb9a07","freq","","","img/blue_2bandit_b2.png","70","","70","test","1","","8","","","","circle","square","8","8","1","1","","","","","","","",""
"null","705598","SARL_v6","SARL_v6j3ml2rdt","5f16f559325a640008bb9a07","freq_resp","","","img/blue_2bandit_b.png","70","img/blue_2bandit_b.png","70","test","","","","","","","","","","","1","","","","","","","","",""
"null","705761","SARL_v6","SARL_v6j3ml2rdt","5f16f559325a640008bb9a07","fixation","","","img/fixation.png","null","","","test","","","","","","","","","","","","","","","","","","","",""
"297.7999999523163","706063","SARL_v6","SARL_v6j3ml2rdt","5f16f559325a640008bb9a07","freq","","","img/blue_2bandit_b2.png","70","","70","test","1","","9","","","","circle","square","9","9","1","1","","","","","","","",""
"null","706570","SARL_v6","SARL_v6j3ml2rdt","5f16f559325a640008bb9a07","freq_resp","","","img/blue_2bandit_b.png","70","img/blue_2bandit_b.png","70","test","","","","","","","","","","","1","","","","","","","","",""
"null","706737","SARL_v6","SARL_v6j3ml2rdt","5f16f559325a640008bb9a07","fixation","","","img/fixation.png","null","","","test","","","","","","","","","","","","","","","","","","","",""
"368.2000000476837","707109","SARL_v6","SARL_v6j3ml2rdt","5f16f559325a640008bb9a07","infreq","","","img/orange_2bandit_b2.png","68","","68","test","1","","10","","","","circle","square","10","10","1","1","","","","","","","",""
"null","707547","SARL_v6","SARL_v6j3ml2rdt","5f16f559325a640008bb9a07","infreq_resp","","","img/orange_2bandit_b.png","68","img/orange_2bandit_b.png","68","test","","","","","","","","","","","1","","","","","","","","",""
"null","707704","SARL_v6","SARL_v6j3ml2rdt","5f16f559325a640008bb9a07","fixation","","","img/fixation.png","null","","","test","","","","","","","","","","","","","","","","","","","",""
"345.89999997615814","708054","SARL_v6","SARL_v6j3ml2rdt","5f16f559325a640008bb9a07","freq","","","img/blue_2bandit_b2.png","70","","70","test","1","","11","","","","circle","square","11","11","1","1","","","","","","","",""
"null","708525","SARL_v6","SARL_v6j3ml2rdt","5f16f559325a640008bb9a07","freq_resp","","","img/blue_2bandit_b.png","70","img/blue_2bandit_b.png","70","test","","","","","","","","","","","1","","","","","","","","",""
"null","708682","SARL_v6","SARL_v6j3ml2rdt","5f16f559325a640008bb9a07","fixation","","","img/fixation.png","null","","","test","","","","","","","","","","","","","","","","","","","",""
"342.30000001192093","709027","SARL_v6","SARL_v6j3ml2rdt","5f16f559325a640008bb9a07","freq","","","img/blue_2bandit_b2.png","70","","70","test","1","","12","","","","circle","square","12","12","1","1","","","","","","","",""
"null","709499","SARL_v6","SARL_v6j3ml2rdt","5f16f559325a640008bb9a07","freq_resp","","","img/blue_2bandit_b.png","70","img/blue_2bandit_b.png","70","test","","","","","","","","","","","1","","","","","","","","",""
"null","709657","SARL_v6","SARL_v6j3ml2rdt","5f16f559325a640008bb9a07","fixation","","","img/fixation.png","null","","","test","","","","","","","","","","","","","","","","","","","",""
"292.39999997615814","709953","SARL_v6","SARL_v6j3ml2rdt","5f16f559325a640008bb9a07","freq","","","img/blue_2bandit_b2.png","70","","70","test","1","","13","","","","circle","square","13","13","1","1","","","","","","","",""
"null","710473","SARL_v6","SARL_v6j3ml2rdt","5f16f559325a640008bb9a07","freq_resp","","","img/blue_2bandit_b.png","70","img/blue_2bandit_b.png","70","test","","","","","","","","","","","1","","","","","","","","",""
"null","710631","SARL_v6","SARL_v6j3ml2rdt","5f16f559325a640008bb9a07","fixation","","","img/fixation.png","null","","","test","","","","","","","","","","","","","","","","","","","",""
"351.80000001192093","710986","SARL_v6","SARL_v6j3ml2rdt","5f16f559325a640008bb9a07","infreq","","","img/orange_2bandit_b2.png","68","","68","test","1","","14","","","","circle","square","14","14","1","1","","","","","","","",""
"null","711440","SARL_v6","SARL_v6j3ml2rdt","5f16f559325a640008bb9a07","infreq_resp","","","img/orange_2bandit_b.png","68","img/orange_2bandit_b.png","68","test","","","","","","","","","","","1","","","","","","","","",""
"null","711597","SARL_v6","SARL_v6j3ml2rdt","5f16f559325a640008bb9a07","fixation","","","img/fixation.png","null","","","test","","","","","","","","","","","","","","","","","","","",""
"362.89999997615814","711963","SARL_v6","SARL_v6j3ml2rdt","5f16f559325a640008bb9a07","freq","","","img/blue_2bandit_b2.png","70","","70","test","1","","15","","","","circle","square","15","15","1","1","","","","","","","",""
"null","712405","SARL_v6","SARL_v6j3ml2rdt","5f16f559325a640008bb9a07","freq_resp","","","img/blue_2bandit_b.png","70","img/blue_2bandit_b.png","70","test","","","","","","","","","","","1","","","","","","","","",""
"null","712561","SARL_v6","SARL_v6j3ml2rdt","5f16f559325a640008bb9a07","fixation","","","img/fixation.png","null","","","test","","","","","","","","","","","","","","","","","","","",""
"367","712932","SARL_v6","SARL_v6j3ml2rdt","5f16f559325a640008bb9a07","freq","","","img/blue_2bandit_b2.png","70","","70","test","1","","16","","","","circle","square","16","16","1","1","","","","","","","",""
"null","713377","SARL_v6","SARL_v6j3ml2rdt","5f16f559325a640008bb9a07","freq_resp","","","img/blue_2bandit_b.png","70","img/blue_2bandit_b.png","70","test","","","","","","","","","","","1","","","","","","","","",""
"null","713545","SARL_v6","SARL_v6j3ml2rdt","5f16f559325a640008bb9a07","fixation","","","img/fixation.png","null","","","test","","","","","","","","","","","","","","","","","","","",""
"286.2000000476837","713835","SARL_v6","SARL_v6j3ml2rdt","5f16f559325a640008bb9a07","freq","","","img/blue_2bandit_b2.png","70","","70","test","1","","17","","","","circle","square","17","17","1","1","","","","","","","",""
"null","714357","SARL_v6","SARL_v6j3ml2rdt","5f16f559325a640008bb9a07","freq_resp","","","img/blue_2bandit_b.png","70","img/blue_2bandit_b.png","70","test","","","","","","","","","","","1","","","","","","","","",""
"null","714513","SARL_v6","SARL_v6j3ml2rdt","5f16f559325a640008bb9a07","fixation","","","img/fixation.png","null","","","test","","","","","","","","","","","","","","","","","","","",""
"246.80000001192093","714765","SARL_v6","SARL_v6j3ml2rdt","5f16f559325a640008bb9a07","freq","","","img/blue_2bandit_b2.png","70","","70","test","1","","18","","","","circle","square","18","18","1","1","","","","","","","",""
"null","715331","SARL_v6","SARL_v6j3ml2rdt","5f16f559325a640008bb9a07","freq_resp","","","img/blue_2bandit_b.png","70","img/blue_2bandit_b.png","70","test","","","","","","","","","","","1","","","","","","","","",""
"null","715496","SARL_v6","SARL_v6j3ml2rdt","5f16f559325a640008bb9a07","fixation","","","img/fixation.png","null","","","test","","","","","","","","","","","","","","","","","","","",""
"278.2999999523163","715777","SARL_v6","SARL_v6j3ml2rdt","5f16f559325a640008bb9a07","freq","","","img/blue_2bandit_b2.png","70","","70","test","1","","19","","","","circle","square","19","19","1","1","","","","","","","",""
"null","716309","SARL_v6","SARL_v6j3ml2rdt","5f16f559325a640008bb9a07","freq_resp","","","img/blue_2bandit_b.png","70","img/blue_2bandit_b.png","70","test","","","","","","","","","","","1","","","","","","","","",""
"null","716463","SARL_v6","SARL_v6j3ml2rdt","5f16f559325a640008bb9a07","fixation","","","img/fixation.png","null","","","test","","","","","","","","","","","","","","","","","","","",""
"273.19999998807907","716740","SARL_v6","SARL_v6j3ml2rdt","5f16f559325a640008bb9a07","freq","","","img/blue_2bandit_b2.png","70","","70","test","1","","20","","","","circle","square","20","20","1","1","","","","","","","",""
"null","717284","SARL_v6","SARL_v6j3ml2rdt","5f16f559325a640008bb9a07","freq_resp","","","img/blue_2bandit_b.png","70","img/blue_2bandit_b.png","70","test","","","","","","","","","","","1","","","","","","","","",""
"null","717443","SARL_v6","SARL_v6j3ml2rdt","5f16f559325a640008bb9a07","fixation","","","img/fixation.png","null","","","test","","","","","","","","","","","","","","","","","","","",""
"258","717704","SARL_v6","SARL_v6j3ml2rdt","5f16f559325a640008bb9a07","freq","","","img/blue_2bandit_b2.png","70","","70","test","1","","21","","","","circle","square","21","21","1","1","","","","","","","",""
"null","718270","SARL_v6","SARL_v6j3ml2rdt","5f16f559325a640008bb9a07","freq_resp","","","img/blue_2bandit_b.png","70","img/blue_2bandit_b.png","70","test","","","","","","","","","","","1","","","","","","","","",""
"null","718426","SARL_v6","SARL_v6j3ml2rdt","5f16f559325a640008bb9a07","fixation","","","img/fixation.png","null","","","test","","","","","","","","","","","","","","","","","","","",""
"310.69999998807907","718739","SARL_v6","SARL_v6j3ml2rdt","5f16f559325a640008bb9a07","freq","","","img/blue_2bandit_b2.png","68","","70","test","0","","22","","","","circle","square","22","22","1","0.9545454545454546","","","","","","","",""
"null","719241","SARL_v6","SARL_v6j3ml2rdt","5f16f559325a640008bb9a07","freq_resp","","","img/blue_2bandit_b.png","68","img/blue_2bandit_b.png","70","test","","","","","","","","","","","1","","","","","","","","",""
"null","719405","SARL_v6","SARL_v6j3ml2rdt","5f16f559325a640008bb9a07","fixation","","","img/fixation.png","null","","","test","","","","","","","","","","","","","","","","","","","",""
"602.9000000357628","720011","SARL_v6","SARL_v6j3ml2rdt","5f16f559325a640008bb9a07","rl","","","img/black_2bandit_b2.png","74","","0","test","","","23","","","-3","circle","square","","0","1","","74","-3","-3","-3","-3","circle","1","0"
"null","720766","SARL_v6","SARL_v6j3ml2rdt","5f16f559325a640008bb9a07","feedback","","","<div class=""verylowPoints""> -3 </div>","null","","na","test","","","NaN","","","","","","","","1","","74","","","","","","1",""
"580.8000000119209","721350","SARL_v6","SARL_v6j3ml2rdt","5f16f559325a640008bb9a07","freq","","","img/blue_2bandit_b2.png","70","","70","test","1","","24","","","","circle","square","23","1","2","0.9565217391304348","","","","","","","",""
"null","721576","SARL_v6","SARL_v6j3ml2rdt","5f16f559325a640008bb9a07","freq_resp","","","img/blue_2bandit_b.png","70","img/blue_2bandit_b.png","70","test","","","","","","","","","","","2","","","","","","","","",""
"null","721731","SARL_v6","SARL_v6j3ml2rdt","5f16f559325a640008bb9a07","fixation","","","img/fixation.png","null","","","test","","","","","","","","","","","","","","","","","","","",""
"350.89999997615814","722085","SARL_v6","SARL_v6j3ml2rdt","5f16f559325a640008bb9a07","freq","","","img/blue_2bandit_b2.png","70","","70","test","1","","25","","","","circle","square","24","2","2","0.9583333333333334","","","","","","","",""
"null","722562","SARL_v6","SARL_v6j3ml2rdt","5f16f559325a640008bb9a07","freq_resp","","","img/blue_2bandit_b.png","70","img/blue_2bandit_b.png","70","test","","","","","","","","","","","2","","","","","","","","",""
"null","722730","SARL_v6","SARL_v6j3ml2rdt","5f16f559325a640008bb9a07","fixation","","","img/fixation.png","null","","","test","","","","","","","","","","","","","","","","","","","",""
"331.30000001192093","723066","SARL_v6","SARL_v6j3ml2rdt","5f16f559325a640008bb9a07","infreq","","","img/orange_2bandit_b2.png","68","","68","test","1","","26","","","","circle","square","25","3","2","0.96","","","","","","","",""
"null","723548","SARL_v6","SARL_v6j3ml2rdt","5f16f559325a640008bb9a07","infreq_resp","","","img/orange_2bandit_b.png","68","img/orange_2bandit_b.png","68","test","","","","","","","","","","","2","","","","","","","","",""
"null","723712","SARL_v6","SARL_v6j3ml2rdt","5f16f559325a640008bb9a07","fixation","","","img/fixation.png","null","","","test","","","","","","","","","","","","","","","","","","","",""
"358.4000000357628","724073","SARL_v6","SARL_v6j3ml2rdt","5f16f559325a640008bb9a07","freq","","","img/blue_2bandit_b2.png","70","","70","test","1","","27","","","","circle","square","26","4","2","0.9615384615384616","","","","","","","",""
"null","724529","SARL_v6","SARL_v6j3ml2rdt","5f16f559325a640008bb9a07","freq_resp","","","img/blue_2bandit_b.png","70","img/blue_2bandit_b.png","70","test","","","","","","","","","","","2","","","","","","","","",""
"null","724691","SARL_v6","SARL_v6j3ml2rdt","5f16f559325a640008bb9a07","fixation","","","img/fixation.png","null","","","test","","","","","","","","","","","","","","","","","","","",""
"222.80000001192093","724918","SARL_v6","SARL_v6j3ml2rdt","5f16f559325a640008bb9a07","freq","","","img/blue_2bandit_b2.png","70","","70","test","1","","28","","","","circle","square","27","5","2","0.9629629629629629","","","","","","","",""
"null","725503","SARL_v6","SARL_v6j3ml2rdt","5f16f559325a640008bb9a07","freq_resp","","","img/blue_2bandit_b.png","70","img/blue_2bandit_b.png","70","test","","","","","","","","","","","2","","","","","","","","",""
"null","725670","SARL_v6","SARL_v6j3ml2rdt","5f16f559325a640008bb9a07","fixation","","","img/fixation.png","null","","","test","","","","","","","","","","","","","","","","","","","",""
"273.39999997615814","725947","SARL_v6","SARL_v6j3ml2rdt","5f16f559325a640008bb9a07","freq","","","img/blue_2bandit_b2.png","70","","70","test","1","","29","","","","circle","square","28","6","2","0.9642857142857143","","","","","","","",""
"null","726482","SARL_v6","SARL_v6j3ml2rdt","5f16f559325a640008bb9a07","freq_resp","","","img/blue_2bandit_b.png","70","img/blue_2bandit_b.png","70","test","","","","","","","","","","","2","","","","","","","","",""
"null","726642","SARL_v6","SARL_v6j3ml2rdt","5f16f559325a640008bb9a07","fixation","","","img/fixation.png","null","","","test","","","","","","","","","","","","","","","","","","","",""
"265.30000001192093","726910","SARL_v6","SARL_v6j3ml2rdt","5f16f559325a640008bb9a07","freq","","","img/blue_2bandit_b2.png","70","","70","test","1","","30","","","","circle","square","29","7","2","0.9655172413793104","","","","","","","",""
"null","727450","SARL_v6","SARL_v6j3ml2rdt","5f16f559325a640008bb9a07","freq_resp","","","img/blue_2bandit_b.png","70","img/blue_2bandit_b.png","70","test","","","","","","","","","","","2","","","","","","","","",""
"null","727605","SARL_v6","SARL_v6j3ml2rdt","5f16f559325a640008bb9a07","fixation","","","img/fixation.png","null","","","test","","","","","","","","","","","","","","","","","","","",""
"334.80000001192093","727943","SARL_v6","SARL_v6j3ml2rdt","5f16f559325a640008bb9a07","infreq","","","img/orange_2bandit_b2.png","68","","68","test","1","","31","","","","circle","square","30","8","2","0.9666666666666667","","","","","","","",""
"null","728428","SARL_v6","SARL_v6j3ml2rdt","5f16f559325a640008bb9a07","infreq_resp","","","img/orange_2bandit_b.png","68","img/orange_2bandit_b.png","68","test","","","","","","","","","","","2","","","","","","","","",""
"null","728592","SARL_v6","SARL_v6j3ml2rdt","5f16f559325a640008bb9a07","fixation","","","img/fixation.png","null","","","test","","","","","","","","","","","","","","","","","","","",""
"303.5","728899","SARL_v6","SARL_v6j3ml2rdt","5f16f559325a640008bb9a07","freq","","","img/blue_2bandit_b2.png","70","","70","test","1","","32","","","","circle","square","31","9","2","0.967741935483871","","","","","","","",""
"null","729412","SARL_v6","SARL_v6j3ml2rdt","5f16f559325a640008bb9a07","freq_resp","","","img/blue_2bandit_b.png","70","img/blue_2bandit_b.png","70","test","","","","","","","","","","","2","","","","","","","","",""
"null","729573","SARL_v6","SARL_v6j3ml2rdt","5f16f559325a640008bb9a07","fixation","","","img/fixation.png","null","","","test","","","","","","","","","","","","","","","","","","","",""
"358","729935","SARL_v6","SARL_v6j3ml2rdt","5f16f559325a640008bb9a07","freq","","","img/blue_2bandit_b2.png","70","","70","test","1","","33","","","","circle","square","32","10","2","0.96875","","","","","","","",""
"null","730389","SARL_v6","SARL_v6j3ml2rdt","5f16f559325a640008bb9a07","freq_resp","","","img/blue_2bandit_b.png","70","img/blue_2bandit_b.png","70","test","","","","","","","","","","","2","","","","","","","","",""
"null","730545","SARL_v6","SARL_v6j3ml2rdt","5f16f559325a640008bb9a07","fixation","","","img/fixation.png","null","","","test","","","","","","","","","","","","","","","","","","","",""
"243.79999995231628","730792","SARL_v6","SARL_v6j3ml2rdt","5f16f559325a640008bb9a07","freq","","","img/blue_2bandit_b2.png","70","","70","test","1","","34","","","","circle","square","33","11","2","0.9696969696969697","","","","","","","",""
"null","731357","SARL_v6","SARL_v6j3ml2rdt","5f16f559325a640008bb9a07","freq_resp","","","img/blue_2bandit_b.png","70","img/blue_2bandit_b.png","70","test","","","","","","","","","","","2","","","","","","","","",""
"null","731513","SARL_v6","SARL_v6j3ml2rdt","5f16f559325a640008bb9a07","fixation","","","img/fixation.png","null","","","test","","","","","","","","","","","","","","","","","","","",""
"306.7000000476837","731822","SARL_v6","SARL_v6j3ml2rdt","5f16f559325a640008bb9a07","freq","","","img/blue_2bandit_b2.png","70","","70","test","1","","35","","","","circle","square","34","12","2","0.9705882352941176","","","","","","","",""
"null","732324","SARL_v6","SARL_v6j3ml2rdt","5f16f559325a640008bb9a07","freq_resp","","","img/blue_2bandit_b.png","70","img/blue_2bandit_b.png","70","test","","","","","","","","","","","2","","","","","","","","",""
"null","732479","SARL_v6","SARL_v6j3ml2rdt","5f16f559325a640008bb9a07","fixation","","","img/fixation.png","null","","","test","","","","","","","","","","","","","","","","","","","",""
"275.30000001192093","732758","SARL_v6","SARL_v6j3ml2rdt","5f16f559325a640008bb9a07","freq","","","img/blue_2bandit_b2.png","70","","70","test","1","","36","","","","circle","square","35","13","2","0.9714285714285714","","","","","","","",""
"null","733298","SARL_v6","SARL_v6j3ml2rdt","5f16f559325a640008bb9a07","freq_resp","","","img/blue_2bandit_b.png","70","img/blue_2bandit_b.png","70","test","","","","","","","","","","","2","","","","","","","","",""
"null","733463","SARL_v6","SARL_v6j3ml2rdt","5f16f559325a640008bb9a07","fixation","","","img/fixation.png","null","","","test","","","","","","","","","","","","","","","","","","","",""
"271.69999998807907","733738","SARL_v6","SARL_v6j3ml2rdt","5f16f559325a640008bb9a07","freq","","","img/blue_2bandit_b2.png","70","","70","test","1","","37","","","","circle","square","36","14","2","0.9722222222222222","","","","","","","",""
"null","734277","SARL_v6","SARL_v6j3ml2rdt","5f16f559325a640008bb9a07","freq_resp","","","img/blue_2bandit_b.png","70","img/blue_2bandit_b.png","70","test","","","","","","","","","","","2","","","","","","","","",""
"null","734441","SARL_v6","SARL_v6j3ml2rdt","5f16f559325a640008bb9a07","fixation","","","img/fixation.png","null","","","test","","","","","","","","","","","","","","","","","","","",""
"271","734715","SARL_v6","SARL_v6j3ml2rdt","5f16f559325a640008bb9a07","freq","","","img/blue_2bandit_b2.png","70","","70","test","1","","38","","","","circle","square","37","15","2","0.972972972972973","","","","","","","",""
"null","735266","SARL_v6","SARL_v6j3ml2rdt","5f16f559325a640008bb9a07","freq_resp","","","img/blue_2bandit_b.png","70","img/blue_2bandit_b.png","70","test","","","","","","","","","","","2","","","","","","","","",""
"null","735420","SARL_v6","SARL_v6j3ml2rdt","5f16f559325a640008bb9a07","fixation","","","img/fixation.png","null","","","test","","","","","","","","","","","","","","","","","","","",""
"279.5","735703","SARL_v6","SARL_v6j3ml2rdt","5f16f559325a640008bb9a07","freq","","","img/blue_2bandit_b2.png","70","","70","test","1","","39","","","","circle","square","38","16","2","0.9736842105263158","","","","","","","",""
"null","736245","SARL_v6","SARL_v6j3ml2rdt","5f16f559325a640008bb9a07","freq_resp","","","img/blue_2bandit_b.png","70","img/blue_2bandit_b.png","70","test","","","","","","","","","","","2","","","","","","","","",""
"null","736413","SARL_v6","SARL_v6j3ml2rdt","5f16f559325a640008bb9a07","fixation","","","img/fixation.png","null","","","test","","","","","","","","","","","","","","","","","","","",""
"347.19999998807907","736764","SARL_v6","SARL_v6j3ml2rdt","5f16f559325a640008bb9a07","freq","","","img/blue_2bandit_b2.png","70","","70","test","1","","40","","","","circle","square","39","17","2","0.9743589743589743","","","","","","","",""
"null","737227","SARL_v6","SARL_v6j3ml2rdt","5f16f559325a640008bb9a07","freq_resp","","","img/blue_2bandit_b.png","70","img/blue_2bandit_b.png","70","test","","","","","","","","","","","2","","","","","","","","",""
"null","737390","SARL_v6","SARL_v6j3ml2rdt","5f16f559325a640008bb9a07","fixation","","","img/fixation.png","null","","","test","","","","","","","","","","","","","","","","","","","",""
"318.60000002384186","737712","SARL_v6","SARL_v6j3ml2rdt","5f16f559325a640008bb9a07","freq","","","img/blue_2bandit_b2.png","70","","70","test","1","","41","","","","circle","square","40","18","2","0.975","","","","","","","",""
"null","738198","SARL_v6","SARL_v6j3ml2rdt","5f16f559325a640008bb9a07","freq_resp","","","img/blue_2bandit_b.png","70","img/blue_2bandit_b.png","70","test","","","","","","","","","","","2","","","","","","","","",""
"null","738357","SARL_v6","SARL_v6j3ml2rdt","5f16f559325a640008bb9a07","fixation","","","img/fixation.png","null","","","test","","","","","","","","","","","","","","","","","","","",""
"290.69999998807907","738652","SARL_v6","SARL_v6j3ml2rdt","5f16f559325a640008bb9a07","freq","","","img/blue_2bandit_b2.png","70","","70","test","1","","42","","","","circle","square","41","19","2","0.975609756097561","","","","","","","",""
"null","739166","SARL_v6","SARL_v6j3ml2rdt","5f16f559325a640008bb9a07","freq_resp","","","img/blue_2bandit_b.png","70","img/blue_2bandit_b.png","70","test","","","","","","","","","","","2","","","","","","","","",""
"null","739328","SARL_v6","SARL_v6j3ml2rdt","5f16f559325a640008bb9a07","fixation","","","img/fixation.png","null","","","test","","","","","","","","","","","","","","","","","","","",""
"282.60000002384186","739614","SARL_v6","SARL_v6j3ml2rdt","5f16f559325a640008bb9a07","freq","","","img/blue_2bandit_b2.png","70","","70","test","1","","43","","","","circle","square","42","20","2","0.9761904761904762","","","","","","","",""
"null","740138","SARL_v6","SARL_v6j3ml2rdt","5f16f559325a640008bb9a07","freq_resp","","","img/blue_2bandit_b.png","70","img/blue_2bandit_b.png","70","test","","","","","","","","","","","2","","","","","","","","",""
"null","740297","SARL_v6","SARL_v6j3ml2rdt","5f16f559325a640008bb9a07","fixation","","","img/fixation.png","null","","","test","","","","","","","","","","","","","","","","","","","",""
"284","740585","SARL_v6","SARL_v6j3ml2rdt","5f16f559325a640008bb9a07","freq","","","img/blue_2bandit_b2.png","70","","70","test","1","","44","","","","circle","square","43","21","2","0.9767441860465116","","","","","","","",""
"null","741110","SARL_v6","SARL_v6j3ml2rdt","5f16f559325a640008bb9a07","freq_resp","","","img/blue_2bandit_b.png","70","img/blue_2bandit_b.png","70","test","","","","","","","","","","","2","","","","","","","","",""
"null","741279","SARL_v6","SARL_v6j3ml2rdt","5f16f559325a640008bb9a07","fixation","","","img/fixation.png","null","","","test","","","","","","","","","","","","","","","","","","","",""
"502.39999997615814","741785","SARL_v6","SARL_v6j3ml2rdt","5f16f559325a640008bb9a07","rl","","","img/black_2bandit_b2.png","75","","0","test","","","45","","","-5","circle","square","","0","2","","75","-8","-5","-8","-5","square","2","0"
"null","742551","SARL_v6","SARL_v6j3ml2rdt","5f16f559325a640008bb9a07","feedback","","","<div class=""verylowPoints_sq""> -5 </div>","null","","na","test","","","NaN","","","","","","","","2","","75","","","","","","2",""
"462.5","743018","SARL_v6","SARL_v6j3ml2rdt","5f16f559325a640008bb9a07","freq","","","img/blue_2bandit_b2.png","70","","70","test","1","","46","","","","circle","square","44","1","3","0.9772727272727273","","","","","","","",""
"null","743360","SARL_v6","SARL_v6j3ml2rdt","5f16f559325a640008bb9a07","freq_resp","","","img/blue_2bandit_b.png","70","img/blue_2bandit_b.png","70","test","","","","","","","","","","","3","","","","","","","","",""
"null","743523","SARL_v6","SARL_v6j3ml2rdt","5f16f559325a640008bb9a07","fixation","","","img/fixation.png","null","","","test","","","","","","","","","","","","","","","","","","","",""
"298.60000002384186","743826","SARL_v6","SARL_v6j3ml2rdt","5f16f559325a640008bb9a07","freq","","","img/blue_2bandit_b2.png","70","","70","test","1","","47","","","","circle","square","45","2","3","0.9777777777777777","","","","","","","",""
"null","744342","SARL_v6","SARL_v6j3ml2rdt","5f16f559325a640008bb9a07","freq_resp","","","img/blue_2bandit_b.png","70","img/blue_2bandit_b.png","70","test","","","","","","","","","","","3","","","","","","","","",""
"null","744498","SARL_v6","SARL_v6j3ml2rdt","5f16f559325a640008bb9a07","fixation","","","img/fixation.png","null","","","test","","","","","","","","","","","","","","","","","","","",""
"246.69999998807907","744749","SARL_v6","SARL_v6j3ml2rdt","5f16f559325a640008bb9a07","freq","","","img/blue_2bandit_b2.png","70","","70","test","1","","48","","","","circle","square","46","3","3","0.9782608695652174","","","","","","","",""
"null","745311","SARL_v6","SARL_v6j3ml2rdt","5f16f559325a640008bb9a07","freq_resp","","","img/blue_2bandit_b.png","70","img/blue_2bandit_b.png","70","test","","","","","","","","","","","3","","","","","","","","",""
"null","745479","SARL_v6","SARL_v6j3ml2rdt","5f16f559325a640008bb9a07","fixation","","","img/fixation.png","null","","","test","","","","","","","","","","","","","","","","","","","",""
"260.30000001192093","745744","SARL_v6","SARL_v6j3ml2rdt","5f16f559325a640008bb9a07","freq","","","img/blue_2bandit_b2.png","70","","70","test","1","","49","","","","circle","square","47","4","3","0.9787234042553191","","","","","","","",""
"null","746303","SARL_v6","SARL_v6j3ml2rdt","5f16f559325a640008bb9a07","freq_resp","","","img/blue_2bandit_b.png","70","img/blue_2bandit_b.png","70","test","","","","","","","","","","","3","","","","","","","","",""
"null","746463","SARL_v6","SARL_v6j3ml2rdt","5f16f559325a640008bb9a07","fixation","","","img/fixation.png","null","","","test","","","","","","","","","","","","","","","","","","","",""
"257.5","746725","SARL_v6","SARL_v6j3ml2rdt","5f16f559325a640008bb9a07","freq","","","img/blue_2bandit_b2.png","70","","70","test","1","","50","","","","circle","square","48","5","3","0.9791666666666666","","","","","","","",""
"null","747275","SARL_v6","SARL_v6j3ml2rdt","5f16f559325a640008bb9a07","freq_resp","","","img/blue_2bandit_b.png","70","img/blue_2bandit_b.png","70","test","","","","","","","","","","","3","","","","","","","","",""
"null","747439","SARL_v6","SARL_v6j3ml2rdt","5f16f559325a640008bb9a07","fixation","","","img/fixation.png","null","","","test","","","","","","","","","","","","","","","","","","","",""
"246.69999998807907","747689","SARL_v6","SARL_v6j3ml2rdt","5f16f559325a640008bb9a07","freq","","","img/blue_2bandit_b2.png","70","","70","test","1","","51","","","","circle","square","49","6","3","0.9795918367346939","","","","","","","",""
"null","748257","SARL_v6","SARL_v6j3ml2rdt","5f16f559325a640008bb9a07","freq_resp","","","img/blue_2bandit_b.png","70","img/blue_2bandit_b.png","70","test","","","","","","","","","","","3","","","","","","","","",""
"null","748422","SARL_v6","SARL_v6j3ml2rdt","5f16f559325a640008bb9a07","fixation","","","img/fixation.png","null","","","test","","","","","","","","","","","","","","","","","","","",""
"238.89999997615814","748664","SARL_v6","SARL_v6j3ml2rdt","5f16f559325a640008bb9a07","freq","","","img/blue_2bandit_b2.png","70","","70","test","1","","52","","","","circle","square","50","7","3","0.98","","","","","","","",""
"null","749241","SARL_v6","SARL_v6j3ml2rdt","5f16f559325a640008bb9a07","freq_resp","","","img/blue_2bandit_b.png","70","img/blue_2bandit_b.png","70","test","","","","","","","","","","","3","","","","","","","","",""
"null","749404","SARL_v6","SARL_v6j3ml2rdt","5f16f559325a640008bb9a07","fixation","","","img/fixation.png","null","","","test","","","","","","","","","","","","","","","","","","","",""
"251.20000004768372","749658","SARL_v6","SARL_v6j3ml2rdt","5f16f559325a640008bb9a07","freq","","","img/blue_2bandit_b2.png","70","","70","test","1","","53","","","","circle","square","51","8","3","0.9803921568627451","","","","","","","",""
"null","750223","SARL_v6","SARL_v6j3ml2rdt","5f16f559325a640008bb9a07","freq_resp","","","img/blue_2bandit_b.png","70","img/blue_2bandit_b.png","70","test","","","","","","","","","","","3","","","","","","","","",""
"null","750389","SARL_v6","SARL_v6j3ml2rdt","5f16f559325a640008bb9a07","fixation","","","img/fixation.png","null","","","test","","","","","","","","","","","","","","","","","","","",""
"230.89999997615814","750623","SARL_v6","SARL_v6j3ml2rdt","5f16f559325a640008bb9a07","freq","","","img/blue_2bandit_b2.png","70","","70","test","1","","54","","","","circle","square","52","9","3","0.9807692307692307","","","","","","","",""
"null","751210","SARL_v6","SARL_v6j3ml2rdt","5f16f559325a640008bb9a07","freq_resp","","","img/blue_2bandit_b.png","70","img/blue_2bandit_b.png","70","test","","","","","","","","","","","3","","","","","","","","",""
"null","751377","SARL_v6","SARL_v6j3ml2rdt","5f16f559325a640008bb9a07","fixation","","","img/fixation.png","null","","","test","","","","","","","","","","","","","","","","","","","",""
"210.5","751591","SARL_v6","SARL_v6j3ml2rdt","5f16f559325a640008bb9a07","freq","","","img/blue_2bandit_b2.png","70","","70","test","1","","55","","","","circle","square","53","10","3","0.9811320754716981","","","","","","","",""
"null","752187","SARL_v6","SARL_v6j3ml2rdt","5f16f559325a640008bb9a07","freq_resp","","","img/blue_2bandit_b.png","70","img/blue_2bandit_b.png","70","test","","","","","","","","","","","3","","","","","","","","",""
"null","752344","SARL_v6","SARL_v6j3ml2rdt","5f16f559325a640008bb9a07","fixation","","","img/fixation.png","null","","","test","","","","","","","","","","","","","","","","","","","",""
"246.0999999642372","752594","SARL_v6","SARL_v6j3ml2rdt","5f16f559325a640008bb9a07","freq","","","img/blue_2bandit_b2.png","70","","70","test","1","","56","","","","circle","square","54","11","3","0.9814814814814815","","","","","","","",""
"null","753160","SARL_v6","SARL_v6j3ml2rdt","5f16f559325a640008bb9a07","freq_resp","","","img/blue_2bandit_b.png","70","img/blue_2bandit_b.png","70","test","","","","","","","","","","","3","","","","","","","","",""
"null","753323","SARL_v6","SARL_v6j3ml2rdt","5f16f559325a640008bb9a07","fixation","","","img/fixation.png","null","","","test","","","","","","","","","","","","","","","","","","","",""
"267.89999997615814","753594","SARL_v6","SARL_v6j3ml2rdt","5f16f559325a640008bb9a07","freq","","","img/blue_2bandit_b2.png","70","","70","test","1","","57","","","","circle","square","55","12","3","0.9818181818181818","","","","","","","",""
"null","754135","SARL_v6","SARL_v6j3ml2rdt","5f16f559325a640008bb9a07","freq_resp","","","img/blue_2bandit_b.png","70","img/blue_2bandit_b.png","70","test","","","","","","","","","","","3","","","","","","","","",""
"null","754295","SARL_v6","SARL_v6j3ml2rdt","5f16f559325a640008bb9a07","fixation","","","img/fixation.png","null","","","test","","","","","","","","","","","","","","","","","","","",""
"294","754593","SARL_v6","SARL_v6j3ml2rdt","5f16f559325a640008bb9a07","freq","","","img/blue_2bandit_b2.png","70","","70","test","1","","58","","","","circle","square","56","13","3","0.9821428571428571","","","","","","","",""
"null","755113","SARL_v6","SARL_v6j3ml2rdt","5f16f559325a640008bb9a07","freq_resp","","","img/blue_2bandit_b.png","70","img/blue_2bandit_b.png","70","test","","","","","","","","","","","3","","","","","","","","",""
"null","755280","SARL_v6","SARL_v6j3ml2rdt","5f16f559325a640008bb9a07","fixation","","","img/fixation.png","null","","","test","","","","","","","","","","","","","","","","","","","",""
"418.5999999642372","755702","SARL_v6","SARL_v6j3ml2rdt","5f16f559325a640008bb9a07","infreq","","","img/orange_2bandit_b2.png","68","","68","test","1","","59","","","","circle","square","57","14","3","0.9824561403508771","","","","","","","",""
"null","756095","SARL_v6","SARL_v6j3ml2rdt","5f16f559325a640008bb9a07","infreq_resp","","","img/orange_2bandit_b.png","68","img/orange_2bandit_b.png","68","test","","","","","","","","","","","3","","","","","","","","",""
"null","756255","SARL_v6","SARL_v6j3ml2rdt","5f16f559325a640008bb9a07","fixation","","","img/fixation.png","null","","","test","","","","","","","","","","","","","","","","","","","",""
"349","756608","SARL_v6","SARL_v6j3ml2rdt","5f16f559325a640008bb9a07","freq","","","img/blue_2bandit_b2.png","70","","70","test","1","","60","","","","circle","square","58","15","3","0.9827586206896551","","","","","","","",""
"null","757077","SARL_v6","SARL_v6j3ml2rdt","5f16f559325a640008bb9a07","freq_resp","","","img/blue_2bandit_b.png","70","img/blue_2bandit_b.png","70","test","","","","","","","","","","","3","","","","","","","","",""
"null","757246","SARL_v6","SARL_v6j3ml2rdt","5f16f559325a640008bb9a07","fixation","","","img/fixation.png","null","","","test","","","","","","","","","","","","","","","","","","","",""
"248.80000001192093","757497","SARL_v6","SARL_v6j3ml2rdt","5f16f559325a640008bb9a07","freq","","","img/blue_2bandit_b2.png","70","","70","test","1","","61","","","","circle","square","59","16","3","0.9830508474576272","","","","","","","",""
"null","758060","SARL_v6","SARL_v6j3ml2rdt","5f16f559325a640008bb9a07","freq_resp","","","img/blue_2bandit_b.png","70","img/blue_2bandit_b.png","70","test","","","","","","","","","","","3","","","","","","","","",""
"null","758228","SARL_v6","SARL_v6j3ml2rdt","5f16f559325a640008bb9a07","fixation","","","img/fixation.png","null","","","test","","","","","","","","","","","","","","","","","","","",""
"338.60000002384186","758569","SARL_v6","SARL_v6j3ml2rdt","5f16f559325a640008bb9a07","freq","","","img/blue_2bandit_b2.png","70","","70","test","1","","62","","","","circle","square","60","17","3","0.9833333333333333","","","","","","","",""
"null","759042","SARL_v6","SARL_v6j3ml2rdt","5f16f559325a640008bb9a07","freq_resp","","","img/blue_2bandit_b.png","70","img/blue_2bandit_b.png","70","test","","","","","","","","","","","3","","","","","","","","",""
"null","759212","SARL_v6","SARL_v6j3ml2rdt","5f16f559325a640008bb9a07","fixation","","","img/fixation.png","null","","","test","","","","","","","","","","","","","","","","","","","",""
"268.4000000357628","759484","SARL_v6","SARL_v6j3ml2rdt","5f16f559325a640008bb9a07","freq","","","img/blue_2bandit_b2.png","70","","70","test","1","","63","","","","circle","square","61","18","3","0.9836065573770492","","","","","","","",""
"null","760029","SARL_v6","SARL_v6j3ml2rdt","5f16f559325a640008bb9a07","freq_resp","","","img/blue_2bandit_b.png","70","img/blue_2bandit_b.png","70","test","","","","","","","","","","","3","","","","","","","","",""
"null","760197","SARL_v6","SARL_v6j3ml2rdt","5f16f559325a640008bb9a07","fixation","","","img/fixation.png","null","","","test","","","","","","","","","","","","","","","","","","","",""
"250.70000004768372","760451","SARL_v6","SARL_v6j3ml2rdt","5f16f559325a640008bb9a07","freq","","","img/blue_2bandit_b2.png","70","","70","test","1","","64","","","","circle","square","62","19","3","0.9838709677419355","","","","","","","",""
"null","761014","SARL_v6","SARL_v6j3ml2rdt","5f16f559325a640008bb9a07","freq_resp","","","img/blue_2bandit_b.png","70","img/blue_2bandit_b.png","70","test","","","","","","","","","","","3","","","","","","","","",""
"null","761179","SARL_v6","SARL_v6j3ml2rdt","5f16f559325a640008bb9a07","fixation","","","img/fixation.png","null","","","test","","","","","","","","","","","","","","","","","","","",""
"266.2999999523163","761448","SARL_v6","SARL_v6j3ml2rdt","5f16f559325a640008bb9a07","freq","","","img/blue_2bandit_b2.png","70","","70","test","1","","65","","","","circle","square","63","20","3","0.9841269841269841","","","","","","","",""
"null","761997","SARL_v6","SARL_v6j3ml2rdt","5f16f559325a640008bb9a07","freq_resp","","","img/blue_2bandit_b.png","70","img/blue_2bandit_b.png","70","test","","","","","","","","","","","3","","","","","","","","",""
"null","762162","SARL_v6","SARL_v6j3ml2rdt","5f16f559325a640008bb9a07","fixation","","","img/fixation.png","null","","","test","","","","","","","","","","","","","","","","","","","",""
"385","762551","SARL_v6","SARL_v6j3ml2rdt","5f16f559325a640008bb9a07","infreq","","","img/orange_2bandit_b2.png","68","","68","test","1","","66","","","","circle","square","64","21","3","0.984375","","","","","","","",""
"null","762972","SARL_v6","SARL_v6j3ml2rdt","5f16f559325a640008bb9a07","infreq_resp","","","img/orange_2bandit_b.png","68","img/orange_2bandit_b.png","68","test","","","","","","","","","","","3","","","","","","","","",""
"null","763130","SARL_v6","SARL_v6j3ml2rdt","5f16f559325a640008bb9a07","fixation","","","img/fixation.png","null","","","test","","","","","","","","","","","","","","","","","","","",""
"296.5","763431","SARL_v6","SARL_v6j3ml2rdt","5f16f559325a640008bb9a07","freq","","","img/blue_2bandit_b2.png","70","","70","test","1","","67","","","","circle","square","65","22","3","0.9846153846153847","","","","","","","",""
"null","763947","SARL_v6","SARL_v6j3ml2rdt","5f16f559325a640008bb9a07","freq_resp","","","img/blue_2bandit_b.png","70","img/blue_2bandit_b.png","70","test","","","","","","","","","","","3","","","","","","","","",""
"null","764104","SARL_v6","SARL_v6j3ml2rdt","5f16f559325a640008bb9a07","fixation","","","img/fixation.png","null","","","test","","","","","","","","","","","","","","","","","","","",""
"745.4000000357628","764853","SARL_v6","SARL_v6j3ml2rdt","5f16f559325a640008bb9a07","rl","","","img/black_2bandit_b2.png","75","","0","test","","","68","","","-4","circle","square","","0","3","","75","-8","-4","-8","-4","square","3","0"
"null","765611","SARL_v6","SARL_v6j3ml2rdt","5f16f559325a640008bb9a07","feedback","","","<div class=""verylowPoints_sq""> -4 </div>","null","","na","test","","","NaN","","","","","","","","3","","75","","","","","","3",""
"555.7000000476837","766170","SARL_v6","SARL_v6j3ml2rdt","5f16f559325a640008bb9a07","freq","","","img/blue_2bandit_b2.png","70","","70","test","1","","69","","","","circle","square","66","1","4","0.9848484848484849","","","","","","","",""
"null","766418","SARL_v6","SARL_v6j3ml2rdt","5f16f559325a640008bb9a07","freq_resp","","","img/blue_2bandit_b.png","70","img/blue_2bandit_b.png","70","test","","","","","","","","","","","4","","","","","","","","",""
"null","766587","SARL_v6","SARL_v6j3ml2rdt","5f16f559325a640008bb9a07","fixation","","","img/fixation.png","null","","","test","","","","","","","","","","","","","","","","","","","",""
"327.5999999642372","766918","SARL_v6","SARL_v6j3ml2rdt","5f16f559325a640008bb9a07","freq","","","img/blue_2bandit_b2.png","70","","70","test","1","","70","","","","circle","square","67","2","4","0.9850746268656716","","","","","","","",""
"null","767405","SARL_v6","SARL_v6j3ml2rdt","5f16f559325a640008bb9a07","freq_resp","","","img/blue_2bandit_b.png","70","img/blue_2bandit_b.png","70","test","","","","","","","","","","","4","","","","","","","","",""
"null","767566","SARL_v6","SARL_v6j3ml2rdt","5f16f559325a640008bb9a07","fixation","","","img/fixation.png","null","","","test","","","","","","","","","","","","","","","","","","","",""
"304","767874","SARL_v6","SARL_v6j3ml2rdt","5f16f559325a640008bb9a07","freq","","","img/blue_2bandit_b2.png","70","","70","test","1","","71","","","","circle","square","68","3","4","0.9852941176470589","","","","","","","",""
"null","768377","SARL_v6","SARL_v6j3ml2rdt","5f16f559325a640008bb9a07","freq_resp","","","img/blue_2bandit_b.png","70","img/blue_2bandit_b.png","70","test","","","","","","","","","","","4","","","","","","","","",""
"null","768545","SARL_v6","SARL_v6j3ml2rdt","5f16f559325a640008bb9a07","fixation","","","img/fixation.png","null","","","test","","","","","","","","","","","","","","","","","","","",""
"272.30000001192093","768821","SARL_v6","SARL_v6j3ml2rdt","5f16f559325a640008bb9a07","freq","","","img/blue_2bandit_b2.png","70","","70","test","1","","72","","","","circle","square","69","4","4","0.9855072463768116","","","","","","","",""
"null","769356","SARL_v6","SARL_v6j3ml2rdt","5f16f559325a640008bb9a07","freq_resp","","","img/blue_2bandit_b.png","70","img/blue_2bandit_b.png","70","test","","","","","","","","","","","4","","","","","","","","",""
"null","769520","SARL_v6","SARL_v6j3ml2rdt","5f16f559325a640008bb9a07","fixation","","","img/fixation.png","null","","","test","","","","","","","","","","","","","","","","","","","",""
"308.5","769832","SARL_v6","SARL_v6j3ml2rdt","5f16f559325a640008bb9a07","freq","","","img/blue_2bandit_b2.png","70","","70","test","1","","73","","","","circle","square","70","5","4","0.9857142857142858","","","","","","","",""
"null","770338","SARL_v6","SARL_v6j3ml2rdt","5f16f559325a640008bb9a07","freq_resp","","","img/blue_2bandit_b.png","70","img/blue_2bandit_b.png","70","test","","","","","","","","","","","4","","","","","","","","",""
"null","770508","SARL_v6","SARL_v6j3ml2rdt","5f16f559325a640008bb9a07","fixation","","","img/fixation.png","null","","","test","","","","","","","","","","","","","","","","","","","",""
"311.89999997615814","770823","SARL_v6","SARL_v6j3ml2rdt","5f16f559325a640008bb9a07","freq","","","img/blue_2bandit_b2.png","70","","70","test","1","","74","","","","circle","square","71","6","4","0.9859154929577465","","","","","","","",""
"null","771324","SARL_v6","SARL_v6j3ml2rdt","5f16f559325a640008bb9a07","freq_resp","","","img/blue_2bandit_b.png","70","img/blue_2bandit_b.png","70","test","","","","","","","","","","","4","","","","","","","","",""
"null","771487","SARL_v6","SARL_v6j3ml2rdt","5f16f559325a640008bb9a07","fixation","","","img/fixation.png","null","","","test","","","","","","","","","","","","","","","","","","","",""
"289.30000001192093","771784","SARL_v6","SARL_v6j3ml2rdt","5f16f559325a640008bb9a07","freq","","","img/blue_2bandit_b2.png","70","","70","test","1","","75","","","","circle","square","72","7","4","0.9861111111111112","","","","","","","",""
"null","772304","SARL_v6","SARL_v6j3ml2rdt","5f16f559325a640008bb9a07","freq_resp","","","img/blue_2bandit_b.png","70","img/blue_2bandit_b.png","70","test","","","","","","","","","","","4","","","","","","","","",""
"null","772459","SARL_v6","SARL_v6j3ml2rdt","5f16f559325a640008bb9a07","fixation","","","img/fixation.png","null","","","test","","","","","","","","","","","","","","","","","","","",""
"307.69999998807907","772771","SARL_v6","SARL_v6j3ml2rdt","5f16f559325a640008bb9a07","freq","","","img/blue_2bandit_b2.png","70","","70","test","1","","76","","","","circle","square","73","8","4","0.9863013698630136","","","","","","","",""
"null","773273","SARL_v6","SARL_v6j3ml2rdt","5f16f559325a640008bb9a07","freq_resp","","","img/blue_2bandit_b.png","70","img/blue_2bandit_b.png","70","test","","","","","","","","","","","4","","","","","","","","",""
"null","773439","SARL_v6","SARL_v6j3ml2rdt","5f16f559325a640008bb9a07","fixation","","","img/fixation.png","null","","","test","","","","","","","","","","","","","","","","","","","",""
"263.89999997615814","773707","SARL_v6","SARL_v6j3ml2rdt","5f16f559325a640008bb9a07","freq","","","img/blue_2bandit_b2.png","70","","70","test","1","","77","","","","circle","square","74","9","4","0.9864864864864865","","","","","","","",""
"null","774254","SARL_v6","SARL_v6j3ml2rdt","5f16f559325a640008bb9a07","freq_resp","","","img/blue_2bandit_b.png","70","img/blue_2bandit_b.png","70","test","","","","","","","","","","","4","","","","","","","","",""
"null","774416","SARL_v6","SARL_v6j3ml2rdt","5f16f559325a640008bb9a07","fixation","","","img/fixation.png","null","","","test","","","","","","","","","","","","","","","","","","","",""
"255.39999997615814","774675","SARL_v6","SARL_v6j3ml2rdt","5f16f559325a640008bb9a07","freq","","","img/blue_2bandit_b2.png","70","","70","test","1","","78","","","","circle","square","75","10","4","0.9866666666666667","","","","","","","",""
"null","775233","SARL_v6","SARL_v6j3ml2rdt","5f16f559325a640008bb9a07","freq_resp","","","img/blue_2bandit_b.png","70","img/blue_2bandit_b.png","70","test","","","","","","","","","","","4","","","","","","","","",""
"null","775402","SARL_v6","SARL_v6j3ml2rdt","5f16f559325a640008bb9a07","fixation","","","img/fixation.png","null","","","test","","","","","","","","","","","","","","","","","","","",""
"267.69999998807907","775674","SARL_v6","SARL_v6j3ml2rdt","5f16f559325a640008bb9a07","freq","","","img/blue_2bandit_b2.png","70","","70","test","1","","79","","","","circle","square","76","11","4","0.9868421052631579","","","","","","","",""
"null","776227","SARL_v6","SARL_v6j3ml2rdt","5f16f559325a640008bb9a07","freq_resp","","","img/blue_2bandit_b.png","70","img/blue_2bandit_b.png","70","test","","","","","","","","","","","4","","","","","","","","",""
"null","776380","SARL_v6","SARL_v6j3ml2rdt","5f16f559325a640008bb9a07","fixation","","","img/fixation.png","null","","","test","","","","","","","","","","","","","","","","","","","",""
"245.79999995231628","776630","SARL_v6","SARL_v6j3ml2rdt","5f16f559325a640008bb9a07","freq","","","img/blue_2bandit_b2.png","70","","70","test","1","","80","","","","circle","square","77","12","4","0.987012987012987","","","","","","","",""
"null","777195","SARL_v6","SARL_v6j3ml2rdt","5f16f559325a640008bb9a07","freq_resp","","","img/blue_2bandit_b.png","70","img/blue_2bandit_b.png","70","test","","","","","","","","","","","4","","","","","","","","",""
"null","777363","SARL_v6","SARL_v6j3ml2rdt","5f16f559325a640008bb9a07","fixation","","","img/fixation.png","null","","","test","","","","","","","","","","","","","","","","","","","",""
"192.69999998807907","777560","SARL_v6","SARL_v6j3ml2rdt","5f16f559325a640008bb9a07","freq","","","img/blue_2bandit_b2.png","70","","70","test","1","","81","","","","circle","square","78","13","4","0.9871794871794872","","","","","","","",""
"null","778185","SARL_v6","SARL_v6j3ml2rdt","5f16f559325a640008bb9a07","freq_resp","","","img/blue_2bandit_b.png","70","img/blue_2bandit_b.png","70","test","","","","","","","","","","","4","","","","","","","","",""
"null","778341","SARL_v6","SARL_v6j3ml2rdt","5f16f559325a640008bb9a07","fixation","","","img/fixation.png","null","","","test","","","","","","","","","","","","","","","","","","","",""
"110.80000001192093","778456","SARL_v6","SARL_v6j3ml2rdt","5f16f559325a640008bb9a07","freq","","","img/blue_2bandit_b2.png","70","","70","test","1","","82","","","","circle","square","79","14","4","0.9873417721518988","","","","","","","",""
"null","779152","SARL_v6","SARL_v6j3ml2rdt","5f16f559325a640008bb9a07","freq_resp","","","img/blue_2bandit_b.png","70","img/blue_2bandit_b.png","70","test","","","","","","","","","","","4","","","","","","","","",""
"null","779320","SARL_v6","SARL_v6j3ml2rdt","5f16f559325a640008bb9a07","fixation","","","img/fixation.png","null","","","test","","","","","","","","","","","","","","","","","","","",""
"164.80000001192093","779488","SARL_v6","SARL_v6j3ml2rdt","5f16f559325a640008bb9a07","freq","","","img/blue_2bandit_b2.png","70","","70","test","1","","83","","","","circle","square","80","15","4","0.9875","","","","","","","",""
"null","780135","SARL_v6","SARL_v6j3ml2rdt","5f16f559325a640008bb9a07","freq_resp","","","img/blue_2bandit_b.png","70","img/blue_2bandit_b.png","70","test","","","","","","","","","","","4","","","","","","","","",""
"null","780302","SARL_v6","SARL_v6j3ml2rdt","5f16f559325a640008bb9a07","fixation","","","img/fixation.png","null","","","test","","","","","","","","","","","","","","","","","","","",""
"184.19999998807907","780489","SARL_v6","SARL_v6j3ml2rdt","5f16f559325a640008bb9a07","freq","","","img/blue_2bandit_b2.png","70","","70","test","1","","84","","","","circle","square","81","16","4","0.9876543209876543","","","","","","","",""
"null","781110","SARL_v6","SARL_v6j3ml2rdt","5f16f559325a640008bb9a07","freq_resp","","","img/blue_2bandit_b.png","70","img/blue_2bandit_b.png","70","test","","","","","","","","","","","4","","","","","","","","",""
"null","781271","SARL_v6","SARL_v6j3ml2rdt","5f16f559325a640008bb9a07","fixation","","","img/fixation.png","null","","","test","","","","","","","","","","","","","","","","","","","",""
"284.0999999642372","781558","SARL_v6","SARL_v6j3ml2rdt","5f16f559325a640008bb9a07","freq","","","img/blue_2bandit_b2.png","70","","70","test","1","","85","","","","circle","square","82","17","4","0.9878048780487805","","","","","","","",""
"null","782088","SARL_v6","SARL_v6j3ml2rdt","5f16f559325a640008bb9a07","freq_resp","","","img/blue_2bandit_b.png","70","img/blue_2bandit_b.png","70","test","","","","","","","","","","","4","","","","","","","","",""
"null","782246","SARL_v6","SARL_v6j3ml2rdt","5f16f559325a640008bb9a07","fixation","","","img/fixation.png","null","","","test","","","","","","","","","","","","","","","","","","","",""
"259.2999999523163","782509","SARL_v6","SARL_v6j3ml2rdt","5f16f559325a640008bb9a07","freq","","","img/blue_2bandit_b2.png","70","","70","test","1","","86","","","","circle","square","83","18","4","0.9879518072289156","","","","","","","",""
"null","783060","SARL_v6","SARL_v6j3ml2rdt","5f16f559325a640008bb9a07","freq_resp","","","img/blue_2bandit_b.png","70","img/blue_2bandit_b.png","70","test","","","","","","","","","","","4","","","","","","","","",""
"null","783221","SARL_v6","SARL_v6j3ml2rdt","5f16f559325a640008bb9a07","fixation","","","img/fixation.png","null","","","test","","","","","","","","","","","","","","","","","","","",""
"277.89999997615814","783502","SARL_v6","SARL_v6j3ml2rdt","5f16f559325a640008bb9a07","freq","","","img/blue_2bandit_b2.png","70","","70","test","1","","87","","","","circle","square","84","19","4","0.9880952380952381","","","","","","","",""
"null","784035","SARL_v6","SARL_v6j3ml2rdt","5f16f559325a640008bb9a07","freq_resp","","","img/blue_2bandit_b.png","70","img/blue_2bandit_b.png","70","test","","","","","","","","","","","4","","","","","","","","",""
"null","784195","SARL_v6","SARL_v6j3ml2rdt","5f16f559325a640008bb9a07","fixation","","","img/fixation.png","null","","","test","","","","","","","","","","","","","","","","","","","",""
"260.80000001192093","784459","SARL_v6","SARL_v6j3ml2rdt","5f16f559325a640008bb9a07","freq","","","img/blue_2bandit_b2.png","70","","70","test","1","","88","","","","circle","square","85","20","4","0.9882352941176471","","","","","","","",""
"null","785002","SARL_v6","SARL_v6j3ml2rdt","5f16f559325a640008bb9a07","freq_resp","","","img/blue_2bandit_b.png","70","img/blue_2bandit_b.png","70","test","","","","","","","","","","","4","","","","","","","","",""
"null","785162","SARL_v6","SARL_v6j3ml2rdt","5f16f559325a640008bb9a07","fixation","","","img/fixation.png","null","","","test","","","","","","","","","","","","","","","","","","","",""
"744","785909","SARL_v6","SARL_v6j3ml2rdt","5f16f559325a640008bb9a07","infreq","","","img/orange_2bandit_b2.png","68","","68","test","1","","89","","","","circle","square","86","21","4","0.9883720930232558","","","","","","","",""
"null","785985","SARL_v6","SARL_v6j3ml2rdt","5f16f559325a640008bb9a07","infreq_resp","","","img/orange_2bandit_b.png","68","img/orange_2bandit_b.png","68","test","","","","","","","","","","","4","","","","","","","","",""
"null","786146","SARL_v6","SARL_v6j3ml2rdt","5f16f559325a640008bb9a07","fixation","","","img/fixation.png","null","","","test","","","","","","","","","","","","","","","","","","","",""
"482.39999997615814","786632","SARL_v6","SARL_v6j3ml2rdt","5f16f559325a640008bb9a07","freq","","","img/blue_2bandit_b2.png","70","","70","test","1","","90","","","","circle","square","87","22","4","0.9885057471264368","","","","","","","",""
"null","786959","SARL_v6","SARL_v6j3ml2rdt","5f16f559325a640008bb9a07","freq_resp","","","img/blue_2bandit_b.png","70","img/blue_2bandit_b.png","70","test","","","","","","","","","","","4","","","","","","","","",""
"null","787115","SARL_v6","SARL_v6j3ml2rdt","5f16f559325a640008bb9a07","fixation","","","img/fixation.png","null","","","test","","","","","","","","","","","","","","","","","","","",""
"396.30000001192093","787515","SARL_v6","SARL_v6j3ml2rdt","5f16f559325a640008bb9a07","infreq","","","img/orange_2bandit_b2.png","68","","68","test","1","","91","","","","circle","square","88","23","4","0.9886363636363636","","","","","","","",""
"null","787930","SARL_v6","SARL_v6j3ml2rdt","5f16f559325a640008bb9a07","infreq_resp","","","img/orange_2bandit_b.png","68","img/orange_2bandit_b.png","68","test","","","","","","","","","","","4","","","","","","","","",""
"null","788089","SARL_v6","SARL_v6j3ml2rdt","5f16f559325a640008bb9a07","fixation","","","img/fixation.png","null","","","test","","","","","","","","","","","","","","","","","","","",""
"498.19999998807907","788592","SARL_v6","SARL_v6j3ml2rdt","5f16f559325a640008bb9a07","freq","","","img/blue_2bandit_b2.png","70","","70","test","1","","92","","","","circle","square","89","24","4","0.9887640449438202","","","","","","","",""
"null","788905","SARL_v6","SARL_v6j3ml2rdt","5f16f559325a640008bb9a07","freq_resp","","","img/blue_2bandit_b.png","70","img/blue_2bandit_b.png","70","test","","","","","","","","","","","4","","","","","","","","",""
"null","789061","SARL_v6","SARL_v6j3ml2rdt","5f16f559325a640008bb9a07","fixation","","","img/fixation.png","null","","","test","","","","","","","","","","","","","","","","","","","",""
"287.60000002384186","789351","SARL_v6","SARL_v6j3ml2rdt","5f16f559325a640008bb9a07","freq","","","img/blue_2bandit_b2.png","70","","70","test","1","","93","","","","circle","square","90","25","4","0.9888888888888889","","","","","","","",""
"null","789881","SARL_v6","SARL_v6j3ml2rdt","5f16f559325a640008bb9a07","freq_resp","","","img/blue_2bandit_b.png","70","img/blue_2bandit_b.png","70","test","","","","","","","","","","","4","","","","","","","","",""
"null","790048","SARL_v6","SARL_v6j3ml2rdt","5f16f559325a640008bb9a07","fixation","","","img/fixation.png","null","","","test","","","","","","","","","","","","","","","","","","","",""
"576.8000000119209","790628","SARL_v6","SARL_v6j3ml2rdt","5f16f559325a640008bb9a07","rl","","","img/black_2bandit_b2.png","74","","0","test","","","94","","","-12","circle","square","","0","4","","74","-12","0","-12","0","circle","4","0"
"null","791386","SARL_v6","SARL_v6j3ml2rdt","5f16f559325a640008bb9a07","feedback","","","<div class=""verylowPoints""> -12 </div>","null","","na","test","","","NaN","","","","","","","","4","","74","","","","","","4",""
"688.8000000119209","792078","SARL_v6","SARL_v6j3ml2rdt","5f16f559325a640008bb9a07","freq","","","img/blue_2bandit_b2.png","70","","70","test","1","","95","","","","circle","square","91","1","5","0.989010989010989","","","","","","","",""
"null","792199","SARL_v6","SARL_v6j3ml2rdt","5f16f559325a640008bb9a07","freq_resp","","","img/blue_2bandit_b.png","70","img/blue_2bandit_b.png","70","test","","","","","","","","","","","5","","","","","","","","",""
"null","792362","SARL_v6","SARL_v6j3ml2rdt","5f16f559325a640008bb9a07","fixation","","","img/fixation.png","null","","","test","","","","","","","","","","","","","","","","","","","",""
"354.69999998807907","792720","SARL_v6","SARL_v6j3ml2rdt","5f16f559325a640008bb9a07","freq","","","img/blue_2bandit_b2.png","70","","70","test","1","","96","","","","circle","square","92","2","5","0.9891304347826086","","","","","","","",""
"null","793181","SARL_v6","SARL_v6j3ml2rdt","5f16f559325a640008bb9a07","freq_resp","","","img/blue_2bandit_b.png","70","img/blue_2bandit_b.png","70","test","","","","","","","","","","","5","","","","","","","","",""
"null","793339","SARL_v6","SARL_v6j3ml2rdt","5f16f559325a640008bb9a07","fixation","","","img/fixation.png","null","","","test","","","","","","","","","","","","","","","","","","","",""
"307.69999998807907","793650","SARL_v6","SARL_v6j3ml2rdt","5f16f559325a640008bb9a07","freq","","","img/blue_2bandit_b2.png","70","","70","test","1","","97","","","","circle","square","93","3","5","0.989247311827957","","","","","","","",""
"null","794160","SARL_v6","SARL_v6j3ml2rdt","5f16f559325a640008bb9a07","freq_resp","","","img/blue_2bandit_b.png","70","img/blue_2bandit_b.png","70","test","","","","","","","","","","","5","","","","","","","","",""
"null","794316","SARL_v6","SARL_v6j3ml2rdt","5f16f559325a640008bb9a07","fixation","","","img/fixation.png","null","","","test","","","","","","","","","","","","","","","","","","","",""
"247.0999999642372","794566","SARL_v6","SARL_v6j3ml2rdt","5f16f559325a640008bb9a07","freq","","","img/blue_2bandit_b2.png","70","","70","test","1","","98","","","","circle","square","94","4","5","0.9893617021276596","","","","","","","",""
"null","795127","SARL_v6","SARL_v6j3ml2rdt","5f16f559325a640008bb9a07","freq_resp","","","img/blue_2bandit_b.png","70","img/blue_2bandit_b.png","70","test","","","","","","","","","","","5","","","","","","","","",""
"null","795290","SARL_v6","SARL_v6j3ml2rdt","5f16f559325a640008bb9a07","fixation","","","img/fixation.png","null","","","test","","","","","","","","","","","","","","","","","","","",""
"305.80000001192093","795598","SARL_v6","SARL_v6j3ml2rdt","5f16f559325a640008bb9a07","freq","","","img/blue_2bandit_b2.png","70","","70","test","1","","99","","","","circle","square","95","5","5","0.9894736842105263","","","","","","","",""
"null","796103","SARL_v6","SARL_v6j3ml2rdt","5f16f559325a640008bb9a07","freq_resp","","","img/blue_2bandit_b.png","70","img/blue_2bandit_b.png","70","test","","","","","","","","","","","5","","","","","","","","",""
"null","796273","SARL_v6","SARL_v6j3ml2rdt","5f16f559325a640008bb9a07","fixation","","","img/fixation.png","null","","","test","","","","","","","","","","","","","","","","","","","",""
"296","796572","SARL_v6","SARL_v6j3ml2rdt","5f16f559325a640008bb9a07","freq","","","img/blue_2bandit_b2.png","70","","70","test","1","","100","","","","circle","square","96","6","5","0.9895833333333334","","","","","","","",""
"null","797095","SARL_v6","SARL_v6j3ml2rdt","5f16f559325a640008bb9a07","freq_resp","","","img/blue_2bandit_b.png","70","img/blue_2bandit_b.png","70","test","","","","","","","","","","","5","","","","","","","","",""
"null","797262","SARL_v6","SARL_v6j3ml2rdt","5f16f559325a640008bb9a07","fixation","","","img/fixation.png","null","","","test","","","","","","","","","","","","","","","","","","","",""
"256","797521","SARL_v6","SARL_v6j3ml2rdt","5f16f559325a640008bb9a07","freq","","","img/blue_2bandit_b2.png","70","","70","test","1","","101","","","","circle","square","97","7","5","0.9896907216494846","","","","","","","",""
"null","798076","SARL_v6","SARL_v6j3ml2rdt","5f16f559325a640008bb9a07","freq_resp","","","img/blue_2bandit_b.png","70","img/blue_2bandit_b.png","70","test","","","","","","","","","","","5","","","","","","","","",""
"null","798232","SARL_v6","SARL_v6j3ml2rdt","5f16f559325a640008bb9a07","fixation","","","img/fixation.png","null","","","test","","","","","","","","","","","","","","","","","","","",""
"296.30000001192093","798532","SARL_v6","SARL_v6j3ml2rdt","5f16f559325a640008bb9a07","freq","","","img/blue_2bandit_b2.png","70","","70","test","1","","102","","","","circle","square","98","8","5","0.9897959183673469","","","","","","","",""
"null","799051","SARL_v6","SARL_v6j3ml2rdt","5f16f559325a640008bb9a07","freq_resp","","","img/blue_2bandit_b.png","70","img/blue_2bandit_b.png","70","test","","","","","","","","","","","5","","","","","","","","",""
"null","799220","SARL_v6","SARL_v6j3ml2rdt","5f16f559325a640008bb9a07","fixation","","","img/fixation.png","null","","","test","","","","","","","","","","","","","","","","","","","",""
"270.9000000357628","799496","SARL_v6","SARL_v6j3ml2rdt","5f16f559325a640008bb9a07","freq","","","img/blue_2bandit_b2.png","70","","70","test","1","","103","","","","circle","square","99","9","5","0.98989898989899","","","","","","","",""
"null","800036","SARL_v6","SARL_v6j3ml2rdt","5f16f559325a640008bb9a07","freq_resp","","","img/blue_2bandit_b.png","70","img/blue_2bandit_b.png","70","test","","","","","","","","","","","5","","","","","","","","",""
"null","800192","SARL_v6","SARL_v6j3ml2rdt","5f16f559325a640008bb9a07","fixation","","","img/fixation.png","null","","","test","","","","","","","","","","","","","","","","","","","",""
"303.30000001192093","800499","SARL_v6","SARL_v6j3ml2rdt","5f16f559325a640008bb9a07","freq","","","img/blue_2bandit_b2.png","70","","70","test","1","","104","","","","circle","square","100","10","5","0.99","","","","","","","",""
"null","801007","SARL_v6","SARL_v6j3ml2rdt","5f16f559325a640008bb9a07","freq_resp","","","img/blue_2bandit_b.png","70","img/blue_2bandit_b.png","70","test","","","","","","","","","","","5","","","","","","","","",""
"null","801163","SARL_v6","SARL_v6j3ml2rdt","5f16f559325a640008bb9a07","fixation","","","img/fixation.png","null","","","test","","","","","","","","","","","","","","","","","","","",""
"292.0999999642372","801458","SARL_v6","SARL_v6j3ml2rdt","5f16f559325a640008bb9a07","freq","","","img/blue_2bandit_b2.png","70","","70","test","1","","105","","","","circle","square","101","11","5","0.9900990099009901","","","","","","","",""
"null","801975","SARL_v6","SARL_v6j3ml2rdt","5f16f559325a640008bb9a07","freq_resp","","","img/blue_2bandit_b.png","70","img/blue_2bandit_b.png","70","test","","","","","","","","","","","5","","","","","","","","",""
"null","802144","SARL_v6","SARL_v6j3ml2rdt","5f16f559325a640008bb9a07","fixation","","","img/fixation.png","null","","","test","","","","","","","","","","","","","","","","","","","",""
"270.60000002384186","802418","SARL_v6","SARL_v6j3ml2rdt","5f16f559325a640008bb9a07","freq","","","img/blue_2bandit_b2.png","70","","70","test","1","","106","","","","circle","square","102","12","5","0.9901960784313726","","","","","","","",""
"null","802951","SARL_v6","SARL_v6j3ml2rdt","5f16f559325a640008bb9a07","freq_resp","","","img/blue_2bandit_b.png","70","img/blue_2bandit_b.png","70","test","","","","","","","","","","","5","","","","","","","","",""
"null","803114","SARL_v6","SARL_v6j3ml2rdt","5f16f559325a640008bb9a07","fixation","","","img/fixation.png","null","","","test","","","","","","","","","","","","","","","","","","","",""
"310.89999997615814","803428","SARL_v6","SARL_v6j3ml2rdt","5f16f559325a640008bb9a07","freq","","","img/blue_2bandit_b2.png","70","","70","test","1","","107","","","","circle","square","103","13","5","0.9902912621359223","","","","","","","",""
"null","803939","SARL_v6","SARL_v6j3ml2rdt","5f16f559325a640008bb9a07","freq_resp","","","img/blue_2bandit_b.png","70","img/blue_2bandit_b.png","70","test","","","","","","","","","","","5","","","","","","","","",""
"null","804104","SARL_v6","SARL_v6j3ml2rdt","5f16f559325a640008bb9a07","fixation","","","img/fixation.png","null","","","test","","","","","","","","","","","","","","","","","","","",""
"266","804374","SARL_v6","SARL_v6j3ml2rdt","5f16f559325a640008bb9a07","freq","","","img/blue_2bandit_b2.png","70","","70","test","1","","108","","","","circle","square","104","14","5","0.9903846153846154","","","","","","","",""
"null","804921","SARL_v6","SARL_v6j3ml2rdt","5f16f559325a640008bb9a07","freq_resp","","","img/blue_2bandit_b.png","70","img/blue_2bandit_b.png","70","test","","","","","","","","","","","5","","","","","","","","",""
"null","805092","SARL_v6","SARL_v6j3ml2rdt","5f16f559325a640008bb9a07","fixation","","","img/fixation.png","null","","","test","","","","","","","","","","","","","","","","","","","",""
"254.30000001192093","805350","SARL_v6","SARL_v6j3ml2rdt","5f16f559325a640008bb9a07","freq","","","img/blue_2bandit_b2.png","70","","70","test","1","","109","","","","circle","square","105","15","5","0.9904761904761905","","","","","","","",""
"null","805909","SARL_v6","SARL_v6j3ml2rdt","5f16f559325a640008bb9a07","freq_resp","","","img/blue_2bandit_b.png","70","img/blue_2bandit_b.png","70","test","","","","","","","","","","","5","","","","","","","","",""
"null","806070","SARL_v6","SARL_v6j3ml2rdt","5f16f559325a640008bb9a07","fixation","","","img/fixation.png","null","","","test","","","","","","","","","","","","","","","","","","","",""
"248.10000002384186","806322","SARL_v6","SARL_v6j3ml2rdt","5f16f559325a640008bb9a07","freq","","","img/blue_2bandit_b2.png","70","","70","test","1","","110","","","","circle","square","106","16","5","0.9905660377358491","","","","","","","",""
"null","806885","SARL_v6","SARL_v6j3ml2rdt","5f16f559325a640008bb9a07","freq_resp","","","img/blue_2bandit_b.png","70","img/blue_2bandit_b.png","70","test","","","","","","","","","","","5","","","","","","","","",""
"null","807048","SARL_v6","SARL_v6j3ml2rdt","5f16f559325a640008bb9a07","fixation","","","img/fixation.png","null","","","test","","","","","","","","","","","","","","","","","","","",""
"221.39999997615814","807274","SARL_v6","SARL_v6j3ml2rdt","5f16f559325a640008bb9a07","freq","","","img/blue_2bandit_b2.png","70","","70","test","1","","111","","","","circle","square","107","17","5","0.9906542056074766","","","","","","","",""
"null","807869","SARL_v6","SARL_v6j3ml2rdt","5f16f559325a640008bb9a07","freq_resp","","","img/blue_2bandit_b.png","70","img/blue_2bandit_b.png","70","test","","","","","","","","","","","5","","","","","","","","",""
"null","808038","SARL_v6","SARL_v6j3ml2rdt","5f16f559325a640008bb9a07","fixation","","","img/fixation.png","null","","","test","","","","","","","","","","","","","","","","","","","",""
"216.5","808257","SARL_v6","SARL_v6j3ml2rdt","5f16f559325a640008bb9a07","freq","","","img/blue_2bandit_b2.png","70","","70","test","1","","112","","","","circle","square","108","18","5","0.9907407407407407","","","","","","","",""
"null","808846","SARL_v6","SARL_v6j3ml2rdt","5f16f559325a640008bb9a07","freq_resp","","","img/blue_2bandit_b.png","70","img/blue_2bandit_b.png","70","test","","","","","","","","","","","5","","","","","","","","",""
"null","809013","SARL_v6","SARL_v6j3ml2rdt","5f16f559325a640008bb9a07","fixation","","","img/fixation.png","null","","","test","","","","","","","","","","","","","","","","","","","",""
"254.30000001192093","809271","SARL_v6","SARL_v6j3ml2rdt","5f16f559325a640008bb9a07","freq","","","img/blue_2bandit_b2.png","70","","70","test","1","","113","","","","circle","square","109","19","5","0.9908256880733946","","","","","","","",""
"null","809822","SARL_v6","SARL_v6j3ml2rdt","5f16f559325a640008bb9a07","freq_resp","","","img/blue_2bandit_b.png","70","img/blue_2bandit_b.png","70","test","","","","","","","","","","","5","","","","","","","","",""
"null","809979","SARL_v6","SARL_v6j3ml2rdt","5f16f559325a640008bb9a07","fixation","","","img/fixation.png","null","","","test","","","","","","","","","","","","","","","","","","","",""
"246.5","810229","SARL_v6","SARL_v6j3ml2rdt","5f16f559325a640008bb9a07","freq","","","img/blue_2bandit_b2.png","70","","70","test","1","","114","","","","circle","square","110","20","5","0.990909090909091","","","","","","","",""
"null","810798","SARL_v6","SARL_v6j3ml2rdt","5f16f559325a640008bb9a07","freq_resp","","","img/blue_2bandit_b.png","70","img/blue_2bandit_b.png","70","test","","","","","","","","","","","5","","","","","","","","",""
"null","810961","SARL_v6","SARL_v6j3ml2rdt","5f16f559325a640008bb9a07","fixation","","","img/fixation.png","null","","","test","","","","","","","","","","","","","","","","","","","",""
"249.10000002384186","811214","SARL_v6","SARL_v6j3ml2rdt","5f16f559325a640008bb9a07","infreq","","","img/orange_2bandit_b2.png","70","","68","test","0","","115","","","","circle","square","111","21","5","0.9819819819819819","","","","","","","",""
"null","811774","SARL_v6","SARL_v6j3ml2rdt","5f16f559325a640008bb9a07","infreq_resp","","","img/orange_2bandit_b.png","70","img/orange_2bandit_b.png","68","test","","","","","","","","","","","5","","","","","","","","",""
"null","811943","SARL_v6","SARL_v6j3ml2rdt","5f16f559325a640008bb9a07","fixation","","","img/fixation.png","null","","","test","","","","","","","","","","","","","","","","","","","",""
"644.6000000238419","812591","SARL_v6","SARL_v6j3ml2rdt","5f16f559325a640008bb9a07","infreq","","","img/orange_2bandit_b2.png","68","","68","test","1","","116","","","","circle","square","112","22","5","0.9821428571428571","","","","","","","",""
"null","812763","SARL_v6","SARL_v6j3ml2rdt","5f16f559325a640008bb9a07","infreq_resp","","","img/orange_2bandit_b.png","68","img/orange_2bandit_b.png","68","test","","","","","","","","","","","5","","","","","","","","",""
"null","812918","SARL_v6","SARL_v6j3ml2rdt","5f16f559325a640008bb9a07","fixation","","","img/fixation.png","null","","","test","","","","","","","","","","","","","","","","","","","",""
"411.7000000476837","813333","SARL_v6","SARL_v6j3ml2rdt","5f16f559325a640008bb9a07","freq","","","img/blue_2bandit_b2.png","70","","70","test","1","","117","","","","circle","square","113","23","5","0.9823008849557522","","","","","","","",""
"null","813745","SARL_v6","SARL_v6j3ml2rdt","5f16f559325a640008bb9a07","freq_resp","","","img/blue_2bandit_b.png","70","img/blue_2bandit_b.png","70","test","","","","","","","","","","","5","","","","","","","","",""
"null","813913","SARL_v6","SARL_v6j3ml2rdt","5f16f559325a640008bb9a07","fixation","","","img/fixation.png","null","","","test","","","","","","","","","","","","","","","","","","","",""
"252.5999999642372","814169","SARL_v6","SARL_v6j3ml2rdt","5f16f559325a640008bb9a07","freq","","","img/blue_2bandit_b2.png","70","","70","test","1","","118","","","","circle","square","114","24","5","0.9824561403508771","","","","","","","",""
"null","814722","SARL_v6","SARL_v6j3ml2rdt","5f16f559325a640008bb9a07","freq_resp","","","img/blue_2bandit_b.png","70","img/blue_2bandit_b.png","70","test","","","","","","","","","","","5","","","","","","","","",""
"null","814890","SARL_v6","SARL_v6j3ml2rdt","5f16f559325a640008bb9a07","fixation","","","img/fixation.png","null","","","test","","","","","","","","","","","","","","","","","","","",""
"583.6000000238419","815477","SARL_v6","SARL_v6j3ml2rdt","5f16f559325a640008bb9a07","rl","","","img/black_2bandit_b2.png","74","","0","test","","","119","","","-7","circle","square","","0","5","","74","-7","4","-7","4","circle","5","0"
"null","816245","SARL_v6","SARL_v6j3ml2rdt","5f16f559325a640008bb9a07","feedback","","","<div class=""verylowPoints""> -7 </div>","null","","na","test","","","NaN","","","","","","","","5","","74","","","","","","5",""
"463.5","816712","SARL_v6","SARL_v6j3ml2rdt","5f16f559325a640008bb9a07","freq","","","img/blue_2bandit_b2.png","70","","70","test","1","","120","","","","circle","square","115","1","6","0.9826086956521739","","","","","","","",""
"null","817067","SARL_v6","SARL_v6j3ml2rdt","5f16f559325a640008bb9a07","freq_resp","","","img/blue_2bandit_b.png","70","img/blue_2bandit_b.png","70","test","","","","","","","","","","","6","","","","","","","","",""
"null","817227","SARL_v6","SARL_v6j3ml2rdt","5f16f559325a640008bb9a07","fixation","","","img/fixation.png","null","","","test","","","","","","","","","","","","","","","","","","","",""
"300.9000000357628","817532","SARL_v6","SARL_v6j3ml2rdt","5f16f559325a640008bb9a07","freq","","","img/blue_2bandit_b2.png","70","","70","test","1","","121","","","","circle","square","116","2","6","0.9827586206896551","","","","","","","",""
"null","818047","SARL_v6","SARL_v6j3ml2rdt","5f16f559325a640008bb9a07","freq_resp","","","img/blue_2bandit_b.png","70","img/blue_2bandit_b.png","70","test","","","","","","","","","","","6","","","","","","","","",""
"null","818212","SARL_v6","SARL_v6j3ml2rdt","5f16f559325a640008bb9a07","fixation","","","img/fixation.png","null","","","test","","","","","","","","","","","","","","","","","","","",""
"270.7999999523163","818492","SARL_v6","SARL_v6j3ml2rdt","5f16f559325a640008bb9a07","freq","","","img/blue_2bandit_b2.png","70","","70","test","1","","122","","","","circle","square","117","3","6","0.9829059829059829","","","","","","","",""
"null","819028","SARL_v6","SARL_v6j3ml2rdt","5f16f559325a640008bb9a07","freq_resp","","","img/blue_2bandit_b.png","70","img/blue_2bandit_b.png","70","test","","","","","","","","","","","6","","","","","","","","",""
"null","819190","SARL_v6","SARL_v6j3ml2rdt","5f16f559325a640008bb9a07","fixation","","","img/fixation.png","null","","","test","","","","","","","","","","","","","","","","","","","",""
"256.89999997615814","819451","SARL_v6","SARL_v6j3ml2rdt","5f16f559325a640008bb9a07","infreq","","","img/orange_2bandit_b2.png","70","","68","test","0","","123","","","","circle","square","118","4","6","0.9745762711864406","","","","","","","",""
"null","820009","SARL_v6","SARL_v6j3ml2rdt","5f16f559325a640008bb9a07","infreq_resp","","","img/orange_2bandit_b.png","70","img/orange_2bandit_b.png","68","test","","","","","","","","","","","6","","","","","","","","",""
"null","820163","SARL_v6","SARL_v6j3ml2rdt","5f16f559325a640008bb9a07","fixation","","","img/fixation.png","null","","","test","","","","","","","","","","","","","","","","","","","",""
"389.4000000357628","820556","SARL_v6","SARL_v6j3ml2rdt","5f16f559325a640008bb9a07","freq","","","img/blue_2bandit_b2.png","70","","70","test","1","","124","","","","circle","square","119","5","6","0.9747899159663865","","","","","","","",""
"null","820984","SARL_v6","SARL_v6j3ml2rdt","5f16f559325a640008bb9a07","freq_resp","","","img/blue_2bandit_b.png","70","img/blue_2bandit_b.png","70","test","","","","","","","","","","","6","","","","","","","","",""
"null","821152","SARL_v6","SARL_v6j3ml2rdt","5f16f559325a640008bb9a07","fixation","","","img/fixation.png","null","","","test","","","","","","","","","","","","","","","","","","","",""
"279.7999999523163","821435","SARL_v6","SARL_v6j3ml2rdt","5f16f559325a640008bb9a07","freq","","","img/blue_2bandit_b2.png","70","","70","test","1","","125","","","","circle","square","120","6","6","0.975","","","","","","","",""
"null","821963","SARL_v6","SARL_v6j3ml2rdt","5f16f559325a640008bb9a07","freq_resp","","","img/blue_2bandit_b.png","70","img/blue_2bandit_b.png","70","test","","","","","","","","","","","6","","","","","","","","",""
"null","822128","SARL_v6","SARL_v6j3ml2rdt","5f16f559325a640008bb9a07","fixation","","","img/fixation.png","null","","","test","","","","","","","","","","","","","","","","","","","",""
"242.9000000357628","822374","SARL_v6","SARL_v6j3ml2rdt","5f16f559325a640008bb9a07","freq","","","img/blue_2bandit_b2.png","70","","70","test","1","","126","","","","circle","square","121","7","6","0.9752066115702479","","","","","","","",""
"null","822950","SARL_v6","SARL_v6j3ml2rdt","5f16f559325a640008bb9a07","freq_resp","","","img/blue_2bandit_b.png","70","img/blue_2bandit_b.png","70","test","","","","","","","","","","","6","","","","","","","","",""
"null","823119","SARL_v6","SARL_v6j3ml2rdt","5f16f559325a640008bb9a07","fixation","","","img/fixation.png","null","","","test","","","","","","","","","","","","","","","","","","","",""
"267","823389","SARL_v6","SARL_v6j3ml2rdt","5f16f559325a640008bb9a07","freq","","","img/blue_2bandit_b2.png","70","","70","test","1","","127","","","","circle","square","122","8","6","0.9754098360655737","","","","","","","",""
"null","823929","SARL_v6","SARL_v6j3ml2rdt","5f16f559325a640008bb9a07","freq_resp","","","img/blue_2bandit_b.png","70","img/blue_2bandit_b.png","70","test","","","","","","","","","","","6","","","","","","","","",""
"null","824090","SARL_v6","SARL_v6j3ml2rdt","5f16f559325a640008bb9a07","fixation","","","img/fixation.png","null","","","test","","","","","","","","","","","","","","","","","","","",""
"451.5","824546","SARL_v6","SARL_v6j3ml2rdt","5f16f559325a640008bb9a07","infreq","","","img/orange_2bandit_b2.png","68","","68","test","1","","128","","","","circle","square","123","9","6","0.975609756097561","","","","","","","",""
"null","824912","SARL_v6","SARL_v6j3ml2rdt","5f16f559325a640008bb9a07","infreq_resp","","","img/orange_2bandit_b.png","68","img/orange_2bandit_b.png","68","test","","","","","","","","","","","6","","","","","","","","",""
"null","825079","SARL_v6","SARL_v6j3ml2rdt","5f16f559325a640008bb9a07","fixation","","","img/fixation.png","null","","","test","","","","","","","","","","","","","","","","","","","",""
"313.80000001192093","825396","SARL_v6","SARL_v6j3ml2rdt","5f16f559325a640008bb9a07","freq","","","img/blue_2bandit_b2.png","70","","70","test","1","","129","","","","circle","square","124","10","6","0.9758064516129032","","","","","","","",""
"null","825898","SARL_v6","SARL_v6j3ml2rdt","5f16f559325a640008bb9a07","freq_resp","","","img/blue_2bandit_b.png","70","img/blue_2bandit_b.png","70","test","","","","","","","","","","","6","","","","","","","","",""
"null","826059","SARL_v6","SARL_v6j3ml2rdt","5f16f559325a640008bb9a07","fixation","","","img/fixation.png","null","","","test","","","","","","","","","","","","","","","","","","","",""
