"rt","time_elapsed","expId","subject","prolificID","trialType","rlType","attType","stimulus","key_press","stim","corrresp","phase","corr","pracCounter","trialNum","rewardOne","rewardTwo","reward","bandOne","bandTwo","attentionNum","attentionRunNum","blockNum","performance","bandChosen","circleVal","squareVal","bandOneVal","bandTwoVal","shapeChosen","rlNum","badFlag"
"11180.89999999851","11190","SARL_v6","SARL_v6j8y9h1ud","5fbc1367373b9307763985c0","","","","","","","","","","","","","","","","","","","","","","","","","","","",""
"","14159","SARL_v6","SARL_v6j8y9h1ud","5fbc1367373b9307763985c0","fullscreen","fullscreen","fullscreen","","","","","","","","","","","","","","","","","","","","","","","","",""
"169779.90000000224","183949","SARL_v6","SARL_v6j8y9h1ud","5fbc1367373b9307763985c0","","","","","","","","","","","","","","","","","","","","","","","","","","","",""
"null","184762","SARL_v6","SARL_v6j8y9h1ud","5fbc1367373b9307763985c0","freqPrac","","","img/blue_2bandit_b2.png","null","img/blue_2bandit_b2.png","70","prac","0","1","","","","","","","","","","","","","","","","","",""
"null","185770","SARL_v6","SARL_v6j8y9h1ud","5fbc1367373b9307763985c0","feedback","","","img/tooSlow.png","null","","na","prac","","","","","","","","","","","","","","","","","","","",""
"null","185928","SARL_v6","SARL_v6j8y9h1ud","5fbc1367373b9307763985c0","fixation","","","img/fixation.png","null","","","prac","","","","","","","","","","","","","","","","","","","",""
"489.80000000074506","186421","SARL_v6","SARL_v6j8y9h1ud","5fbc1367373b9307763985c0","infreqPrac","","","img/orange_2bandit_b2.png","68","img/orange_2bandit_b2.png","68","prac","1","1","","","","","","","","","","","","","","","","","",""
"489.80000000074506","186749","SARL_v6","SARL_v6j8y9h1ud","5fbc1367373b9307763985c0","infreqPrac_resp","","","img/orange_2bandit_b.png","68","img/orange_2bandit_b.png","68","prac","","","","","","","","","","","","","","","","","","","",""
"null","186916","SARL_v6","SARL_v6j8y9h1ud","5fbc1367373b9307763985c0","fixation","","","img/fixation.png","null","","","prac","","","","","","","","","","","","","","","","","","","",""
"321.80000000074506","187241","SARL_v6","SARL_v6j8y9h1ud","5fbc1367373b9307763985c0","freqPrac","","","img/blue_2bandit_b2.png","70","img/blue_2bandit_b2.png","70","prac","1","1","","","","","","","","","","","","","","","","","",""
"321.80000000074506","187727","SARL_v6","SARL_v6j8y9h1ud","5fbc1367373b9307763985c0","freqPrac_resp","","","img/blue_2bandit_b.png","70","img/blue_2bandit_b.png","70","prac","","","","","","","","","","","","","","","","","","","",""
"null","187887","SARL_v6","SARL_v6j8y9h1ud","5fbc1367373b9307763985c0","fixation","","","img/fixation.png","null","","","prac","","","","","","","","","","","","","","","","","","","",""
"304.5999999977648","188195","SARL_v6","SARL_v6j8y9h1ud","5fbc1367373b9307763985c0","infreqPrac","","","img/orange_2bandit_b2.png","68","img/orange_2bandit_b2.png","68","prac","1","1","","","","","","","","","","","","","","","","","",""
"304.5999999977648","188698","SARL_v6","SARL_v6j8y9h1ud","5fbc1367373b9307763985c0","infreqPrac_resp","","","img/orange_2bandit_b.png","68","img/orange_2bandit_b.png","68","prac","","","","","","","","","","","","","","","","","","","",""
"null","188859","SARL_v6","SARL_v6j8y9h1ud","5fbc1367373b9307763985c0","fixation","","","img/fixation.png","null","","","prac","","","","","","","","","","","","","","","","","","","",""
"349","189211","SARL_v6","SARL_v6j8y9h1ud","5fbc1367373b9307763985c0","infreqPrac","","","img/orange_2bandit_b2.png","68","img/orange_2bandit_b2.png","68","prac","1","1","","","","","","","","","","","","","","","","","",""
"349","189672","SARL_v6","SARL_v6j8y9h1ud","5fbc1367373b9307763985c0","infreqPrac_resp","","","img/orange_2bandit_b.png","68","img/orange_2bandit_b.png","68","prac","","","","","","","","","","","","","","","","","","","",""
"null","189832","SARL_v6","SARL_v6j8y9h1ud","5fbc1367373b9307763985c0","fixation","","","img/fixation.png","null","","","prac","","","","","","","","","","","","","","","","","","","",""
"348.9000000022352","190184","SARL_v6","SARL_v6j8y9h1ud","5fbc1367373b9307763985c0","infreqPrac","","","img/orange_2bandit_b2.png","68","img/orange_2bandit_b2.png","68","prac","1","1","","","","","","","","","","","","","","","","","",""
"348.9000000022352","190648","SARL_v6","SARL_v6j8y9h1ud","5fbc1367373b9307763985c0","infreqPrac_resp","","","img/orange_2bandit_b.png","68","img/orange_2bandit_b.png","68","prac","","","","","","","","","","","","","","","","","","","",""
"null","190809","SARL_v6","SARL_v6j8y9h1ud","5fbc1367373b9307763985c0","fixation","","","img/fixation.png","null","","","prac","","","","","","","","","","","","","","","","","","","",""
"324.19999999925494","191137","SARL_v6","SARL_v6j8y9h1ud","5fbc1367373b9307763985c0","freqPrac","","","img/blue_2bandit_b2.png","70","img/blue_2bandit_b2.png","70","prac","1","1","","","","","","","","","","","","","","","","","",""
"324.19999999925494","191624","SARL_v6","SARL_v6j8y9h1ud","5fbc1367373b9307763985c0","freqPrac_resp","","","img/blue_2bandit_b.png","70","img/blue_2bandit_b.png","70","prac","","","","","","","","","","","","","","","","","","","",""
"null","191787","SARL_v6","SARL_v6j8y9h1ud","5fbc1367373b9307763985c0","fixation","","","img/fixation.png","null","","","prac","","","","","","","","","","","","","","","","","","","",""
"474.6000000014901","192265","SARL_v6","SARL_v6j8y9h1ud","5fbc1367373b9307763985c0","infreqPrac","","","img/orange_2bandit_b2.png","68","img/orange_2bandit_b2.png","68","prac","1","1","","","","","","","","","","","","","","","","","",""
"474.6000000014901","192601","SARL_v6","SARL_v6j8y9h1ud","5fbc1367373b9307763985c0","infreqPrac_resp","","","img/orange_2bandit_b.png","68","img/orange_2bandit_b.png","68","prac","","","","","","","","","","","","","","","","","","","",""
"null","192764","SARL_v6","SARL_v6j8y9h1ud","5fbc1367373b9307763985c0","fixation","","","img/fixation.png","null","","","prac","","","","","","","","","","","","","","","","","","","",""
"396.0999999977648","193164","SARL_v6","SARL_v6j8y9h1ud","5fbc1367373b9307763985c0","freqPrac","","","img/blue_2bandit_b2.png","70","img/blue_2bandit_b2.png","70","prac","1","1","","","","","","","","","","","","","","","","","",""
"396.0999999977648","193580","SARL_v6","SARL_v6j8y9h1ud","5fbc1367373b9307763985c0","freqPrac_resp","","","img/blue_2bandit_b.png","70","img/blue_2bandit_b.png","70","prac","","","","","","","","","","","","","","","","","","","",""
"null","193740","SARL_v6","SARL_v6j8y9h1ud","5fbc1367373b9307763985c0","fixation","","","img/fixation.png","null","","","prac","","","","","","","","","","","","","","","","","","","",""
"425.69999999925494","194170","SARL_v6","SARL_v6j8y9h1ud","5fbc1367373b9307763985c0","freqPrac","","","img/blue_2bandit_b2.png","70","img/blue_2bandit_b2.png","70","prac","1","1","","","","","","","","","","","","","","","","","",""
"425.69999999925494","194556","SARL_v6","SARL_v6j8y9h1ud","5fbc1367373b9307763985c0","freqPrac_resp","","","img/blue_2bandit_b.png","70","img/blue_2bandit_b.png","70","prac","","","","","","","","","","","","","","","","","","","",""
"null","194712","SARL_v6","SARL_v6j8y9h1ud","5fbc1367373b9307763985c0","fixation","","","img/fixation.png","null","","","prac","","","","","","","","","","","","","","","","","","","",""
"24212.29999999702","218928","SARL_v6","SARL_v6j8y9h1ud","5fbc1367373b9307763985c0","","","","","","","","prac","","","","","","","","","","","","","","","","","","","",""
"414.1000000014901","219346","SARL_v6","SARL_v6j8y9h1ud","5fbc1367373b9307763985c0","rlPractice","","","img/black_2bandit_b2.png","74","img/black_2bandit_b2.png","","prac","","","0","","","","","","","","","","","","","","","","",""
"null","220109","SARL_v6","SARL_v6j8y9h1ud","5fbc1367373b9307763985c0","feedback","","","<div class=""veryhighPoints""> 10 </div>","null","","na","prac","","","1","10","-14","10","","","","","","","","","","","","","",""
"null","220264","SARL_v6","SARL_v6j8y9h1ud","5fbc1367373b9307763985c0","fixation","","","img/fixation.png","null","","","prac","","","","","","","","","","","","","","","","","","","",""
"289.5","220557","SARL_v6","SARL_v6j8y9h1ud","5fbc1367373b9307763985c0","rlPractice","","","img/black_2bandit_b2.png","74","img/black_2bandit_b2.png","","prac","","","1","","","","","","","","","","","","","","","","",""
"null","221316","SARL_v6","SARL_v6j8y9h1ud","5fbc1367373b9307763985c0","feedback","","","<div class=""veryhighPoints""> 5 </div>","null","","na","prac","","","2","5","-5","5","","","","","","","","","","","","","",""
"null","221476","SARL_v6","SARL_v6j8y9h1ud","5fbc1367373b9307763985c0","fixation","","","img/fixation.png","null","","","prac","","","","","","","","","","","","","","","","","","","",""
"234.10000000149012","221714","SARL_v6","SARL_v6j8y9h1ud","5fbc1367373b9307763985c0","rlPractice","","","img/black_2bandit_b2.png","75","img/black_2bandit_b2.png","","prac","","","2","","","","","","","","","","","","","","","","",""
"null","222474","SARL_v6","SARL_v6j8y9h1ud","5fbc1367373b9307763985c0","feedback","","","<div class=""veryhighPoints_sq""> 2 </div>","null","","na","prac","","","3","30","2","30","","","","","","","","","","","","","",""
"null","222633","SARL_v6","SARL_v6j8y9h1ud","5fbc1367373b9307763985c0","fixation","","","img/fixation.png","null","","","prac","","","","","","","","","","","","","","","","","","","",""
"290.5","222928","SARL_v6","SARL_v6j8y9h1ud","5fbc1367373b9307763985c0","rlPractice","","","img/black_2bandit_b2.png","74","img/black_2bandit_b2.png","","prac","","","3","","","","","","","","","","","","","","","","",""
"null","223692","SARL_v6","SARL_v6j8y9h1ud","5fbc1367373b9307763985c0","feedback","","","<div class=""verylowPoints""> -2 </div>","null","","na","prac","","","4","-2","20","-2","","","","","","","","","","","","","",""
"null","223849","SARL_v6","SARL_v6j8y9h1ud","5fbc1367373b9307763985c0","fixation","","","img/fixation.png","null","","","prac","","","","","","","","","","","","","","","","","","","",""
"10337.199999999255","234189","SARL_v6","SARL_v6j8y9h1ud","5fbc1367373b9307763985c0","","","","","","","","prac","","","","","","","","","","","","","","","","","","","",""
"382.9000000022352","234576","SARL_v6","SARL_v6j8y9h1ud","5fbc1367373b9307763985c0","mixAttFreqPrac","","","img/blue_2bandit_b2.png","70","img/blue_2bandit_b2.png","70","prac","","","1","","","","","","","","","","","","","","","","",""
"382.9000000022352","235006","SARL_v6","SARL_v6j8y9h1ud","5fbc1367373b9307763985c0","freqPrac_resp","","","img/blue_2bandit_b.png","70","img/blue_2bandit_b.png","70","prac","","","1","","","","","","","","","","","","","","","","",""
"null","235162","SARL_v6","SARL_v6j8y9h1ud","5fbc1367373b9307763985c0","fixation","","","img/fixation.png","null","","","prac","","","","","","","","","","","","","","","","","","","",""
"397.19999999925494","235563","SARL_v6","SARL_v6j8y9h1ud","5fbc1367373b9307763985c0","mixAttInfreqPrac","","","img/orange_2bandit_b2.png","68","img/orange_2bandit_b2.png","68","prac","","","2","","","","","","","","","","","","","","","","",""
"397.19999999925494","235982","SARL_v6","SARL_v6j8y9h1ud","5fbc1367373b9307763985c0","infreqPrac_resp","","","img/orange_2bandit_b.png","68","img/blue_2bandit_b.png","68","prac","","","2","","","","","","","","","","","","","","","","",""
"null","236139","SARL_v6","SARL_v6j8y9h1ud","5fbc1367373b9307763985c0","fixation","","","img/fixation.png","null","","","prac","","","","","","","","","","","","","","","","","","","",""
"362.5","236505","SARL_v6","SARL_v6j8y9h1ud","5fbc1367373b9307763985c0","mixAttInfreqPrac","","","img/orange_2bandit_b2.png","68","img/orange_2bandit_b2.png","68","prac","","","3","","","","","","","","","","","","","","","","",""
"362.5","236954","SARL_v6","SARL_v6j8y9h1ud","5fbc1367373b9307763985c0","infreqPrac_resp","","","img/orange_2bandit_b.png","68","img/blue_2bandit_b.png","68","prac","","","3","","","","","","","","","","","","","","","","",""
"null","237113","SARL_v6","SARL_v6j8y9h1ud","5fbc1367373b9307763985c0","fixation","","","img/fixation.png","null","","","prac","","","","","","","","","","","","","","","","","","","",""
"357.69999999925494","237474","SARL_v6","SARL_v6j8y9h1ud","5fbc1367373b9307763985c0","mixAttInfreqPrac","","","img/orange_2bandit_b2.png","68","img/orange_2bandit_b2.png","68","prac","","","4","","","","","","","","","","","","","","","","",""
"357.69999999925494","237922","SARL_v6","SARL_v6j8y9h1ud","5fbc1367373b9307763985c0","infreqPrac_resp","","","img/orange_2bandit_b.png","68","img/blue_2bandit_b.png","68","prac","","","4","","","","","","","","","","","","","","","","",""
"null","238085","SARL_v6","SARL_v6j8y9h1ud","5fbc1367373b9307763985c0","fixation","","","img/fixation.png","null","","","prac","","","","","","","","","","","","","","","","","","","",""
"455","238545","SARL_v6","SARL_v6j8y9h1ud","5fbc1367373b9307763985c0","mixAttFreqPrac","","","img/blue_2bandit_b2.png","70","img/blue_2bandit_b2.png","70","prac","","","5","","","","","","","","","","","","","","","","",""
"455","238900","SARL_v6","SARL_v6j8y9h1ud","5fbc1367373b9307763985c0","freqPrac_resp","","","img/blue_2bandit_b.png","70","img/blue_2bandit_b.png","70","prac","","","5","","","","","","","","","","","","","","","","",""
"null","239058","SARL_v6","SARL_v6j8y9h1ud","5fbc1367373b9307763985c0","fixation","","","img/fixation.png","null","","","prac","","","","","","","","","","","","","","","","","","","",""
"525.3000000007451","239587","SARL_v6","SARL_v6j8y9h1ud","5fbc1367373b9307763985c0","mixRLPractice","","","img/black_2bandit_b2.png","75","img/black_2bandit_b2.png","","prac","","","5","","","","","","","","","","","","","","","","",""
"null","240346","SARL_v6","SARL_v6j8y9h1ud","5fbc1367373b9307763985c0","feedback","","","<div class=""veryhighPoints_sq""> 10 </div>","null","","na","prac","","","6","-14","10","-14","","","","","","","","","","","","","",""
"null","240509","SARL_v6","SARL_v6j8y9h1ud","5fbc1367373b9307763985c0","fixation","","","img/fixation.png","null","","","prac","","","","","","","","","","","","","","","","","","","",""
"464.5","240977","SARL_v6","SARL_v6j8y9h1ud","5fbc1367373b9307763985c0","mixAttFreqPrac","","","img/blue_2bandit_b2.png","70","img/blue_2bandit_b2.png","70","prac","","","7","","","","","","","","","","","","","","","","",""
"464.5","241326","SARL_v6","SARL_v6j8y9h1ud","5fbc1367373b9307763985c0","freqPrac_resp","","","img/blue_2bandit_b.png","70","img/blue_2bandit_b.png","70","prac","","","7","","","","","","","","","","","","","","","","",""
"null","241481","SARL_v6","SARL_v6j8y9h1ud","5fbc1367373b9307763985c0","fixation","","","img/fixation.png","null","","","prac","","","","","","","","","","","","","","","","","","","",""
"372.70000000298023","241857","SARL_v6","SARL_v6j8y9h1ud","5fbc1367373b9307763985c0","mixAttInfreqPrac","","","img/orange_2bandit_b2.png","68","img/orange_2bandit_b2.png","68","prac","","","8","","","","","","","","","","","","","","","","",""
"372.70000000298023","242290","SARL_v6","SARL_v6j8y9h1ud","5fbc1367373b9307763985c0","infreqPrac_resp","","","img/orange_2bandit_b.png","68","img/blue_2bandit_b.png","68","prac","","","8","","","","","","","","","","","","","","","","",""
"null","242449","SARL_v6","SARL_v6j8y9h1ud","5fbc1367373b9307763985c0","fixation","","","img/fixation.png","null","","","prac","","","","","","","","","","","","","","","","","","","",""
"473.4000000022352","242927","SARL_v6","SARL_v6j8y9h1ud","5fbc1367373b9307763985c0","mixAttFreqPrac","","","img/blue_2bandit_b2.png","68","img/blue_2bandit_b2.png","70","prac","","","9","","","","","","","","","","","","","","","","",""
"473.4000000022352","243258","SARL_v6","SARL_v6j8y9h1ud","5fbc1367373b9307763985c0","freqPrac_resp","","","img/blue_2bandit_b.png","68","img/blue_2bandit_b.png","70","prac","","","9","","","","","","","","","","","","","","","","",""
"null","243417","SARL_v6","SARL_v6j8y9h1ud","5fbc1367373b9307763985c0","fixation","","","img/fixation.png","null","","","prac","","","","","","","","","","","","","","","","","","","",""
"414.3999999985099","243835","SARL_v6","SARL_v6j8y9h1ud","5fbc1367373b9307763985c0","mixAttFreqPrac","","","img/blue_2bandit_b2.png","70","img/blue_2bandit_b2.png","70","prac","","","10","","","","","","","","","","","","","","","","",""
"414.3999999985099","244225","SARL_v6","SARL_v6j8y9h1ud","5fbc1367373b9307763985c0","freqPrac_resp","","","img/blue_2bandit_b.png","70","img/blue_2bandit_b.png","70","prac","","","10","","","","","","","","","","","","","","","","",""
"null","244390","SARL_v6","SARL_v6j8y9h1ud","5fbc1367373b9307763985c0","fixation","","","img/fixation.png","null","","","prac","","","","","","","","","","","","","","","","","","","",""
"370","244763","SARL_v6","SARL_v6j8y9h1ud","5fbc1367373b9307763985c0","mixAttInfreqPrac","","","img/orange_2bandit_b2.png","68","img/orange_2bandit_b2.png","68","prac","","","11","","","","","","","","","","","","","","","","",""
"370","245201","SARL_v6","SARL_v6j8y9h1ud","5fbc1367373b9307763985c0","infreqPrac_resp","","","img/orange_2bandit_b.png","68","img/blue_2bandit_b.png","68","prac","","","11","","","","","","","","","","","","","","","","",""
"null","245366","SARL_v6","SARL_v6j8y9h1ud","5fbc1367373b9307763985c0","fixation","","","img/fixation.png","null","","","prac","","","","","","","","","","","","","","","","","","","",""
"622.8000000007451","245992","SARL_v6","SARL_v6j8y9h1ud","5fbc1367373b9307763985c0","mixRLPractice","","","img/black_2bandit_b2.png","74","img/black_2bandit_b2.png","","prac","","","11","","","","","","","","","","","","","","","","",""
"null","246755","SARL_v6","SARL_v6j8y9h1ud","5fbc1367373b9307763985c0","feedback","","","<div class=""veryhighPoints""> 5 </div>","null","","na","prac","","","12","5","-5","5","","","","","","","","","","","","","",""
"null","246917","SARL_v6","SARL_v6j8y9h1ud","5fbc1367373b9307763985c0","fixation","","","img/fixation.png","null","","","prac","","","","","","","","","","","","","","","","","","","",""
"14002.699999999255","260923","SARL_v6","SARL_v6j8y9h1ud","5fbc1367373b9307763985c0","","","","","","","","prac","","","","","","","","","","","","","","","","","","","",""
"441.5","261369","SARL_v6","SARL_v6j8y9h1ud","5fbc1367373b9307763985c0","freq","","","img/blue_2bandit_b2.png","70","","70","test","1","","1","","","","circle","square","1","1","1","1","","","","","","","",""
"null","261739","SARL_v6","SARL_v6j8y9h1ud","5fbc1367373b9307763985c0","freq_resp","","","img/blue_2bandit_b.png","70","img/blue_2bandit_b.png","70","test","","","","","","","","","","","1","","","","","","","","",""
"null","261898","SARL_v6","SARL_v6j8y9h1ud","5fbc1367373b9307763985c0","fixation","","","img/fixation.png","null","","","test","","","","","","","","","","","","","","","","","","","",""
"406.69999999925494","262309","SARL_v6","SARL_v6j8y9h1ud","5fbc1367373b9307763985c0","freq","","","img/blue_2bandit_b2.png","70","","70","test","1","","2","","","","circle","square","2","2","1","1","","","","","","","",""
"null","262718","SARL_v6","SARL_v6j8y9h1ud","5fbc1367373b9307763985c0","freq_resp","","","img/blue_2bandit_b.png","70","img/blue_2bandit_b.png","70","test","","","","","","","","","","","1","","","","","","","","",""
"null","262874","SARL_v6","SARL_v6j8y9h1ud","5fbc1367373b9307763985c0","fixation","","","img/fixation.png","null","","","test","","","","","","","","","","","","","","","","","","","",""
"391.8999999985099","263270","SARL_v6","SARL_v6j8y9h1ud","5fbc1367373b9307763985c0","infreq","","","img/orange_2bandit_b2.png","68","","68","test","1","","3","","","","circle","square","3","3","1","1","","","","","","","",""
"null","263694","SARL_v6","SARL_v6j8y9h1ud","5fbc1367373b9307763985c0","infreq_resp","","","img/orange_2bandit_b.png","68","img/orange_2bandit_b.png","68","test","","","","","","","","","","","1","","","","","","","","",""
"null","263854","SARL_v6","SARL_v6j8y9h1ud","5fbc1367373b9307763985c0","fixation","","","img/fixation.png","null","","","test","","","","","","","","","","","","","","","","","","","",""
"523.7999999970198","264383","SARL_v6","SARL_v6j8y9h1ud","5fbc1367373b9307763985c0","freq","","","img/blue_2bandit_b2.png","70","","70","test","1","","4","","","","circle","square","4","4","1","1","","","","","","","",""
"null","264666","SARL_v6","SARL_v6j8y9h1ud","5fbc1367373b9307763985c0","freq_resp","","","img/blue_2bandit_b.png","70","img/blue_2bandit_b.png","70","test","","","","","","","","","","","1","","","","","","","","",""
"null","264829","SARL_v6","SARL_v6j8y9h1ud","5fbc1367373b9307763985c0","fixation","","","img/fixation.png","null","","","test","","","","","","","","","","","","","","","","","","","",""
"401.5","265234","SARL_v6","SARL_v6j8y9h1ud","5fbc1367373b9307763985c0","freq","","","img/blue_2bandit_b2.png","70","","70","test","1","","5","","","","circle","square","5","5","1","1","","","","","","","",""
"null","265646","SARL_v6","SARL_v6j8y9h1ud","5fbc1367373b9307763985c0","freq_resp","","","img/blue_2bandit_b.png","70","img/blue_2bandit_b.png","70","test","","","","","","","","","","","1","","","","","","","","",""
"null","265804","SARL_v6","SARL_v6j8y9h1ud","5fbc1367373b9307763985c0","fixation","","","img/fixation.png","null","","","test","","","","","","","","","","","","","","","","","","","",""
"417.4000000022352","266224","SARL_v6","SARL_v6j8y9h1ud","5fbc1367373b9307763985c0","freq","","","img/blue_2bandit_b2.png","70","","70","test","1","","6","","","","circle","square","6","6","1","1","","","","","","","",""
"null","266618","SARL_v6","SARL_v6j8y9h1ud","5fbc1367373b9307763985c0","freq_resp","","","img/blue_2bandit_b.png","70","img/blue_2bandit_b.png","70","test","","","","","","","","","","","1","","","","","","","","",""
"null","266780","SARL_v6","SARL_v6j8y9h1ud","5fbc1367373b9307763985c0","fixation","","","img/fixation.png","null","","","test","","","","","","","","","","","","","","","","","","","",""
"370.5","267154","SARL_v6","SARL_v6j8y9h1ud","5fbc1367373b9307763985c0","freq","","","img/blue_2bandit_b2.png","70","","70","test","1","","7","","","","circle","square","7","7","1","1","","","","","","","",""
"null","267595","SARL_v6","SARL_v6j8y9h1ud","5fbc1367373b9307763985c0","freq_resp","","","img/blue_2bandit_b.png","70","img/blue_2bandit_b.png","70","test","","","","","","","","","","","1","","","","","","","","",""
"null","267757","SARL_v6","SARL_v6j8y9h1ud","5fbc1367373b9307763985c0","fixation","","","img/fixation.png","null","","","test","","","","","","","","","","","","","","","","","","","",""
"387.5","268148","SARL_v6","SARL_v6j8y9h1ud","5fbc1367373b9307763985c0","freq","","","img/blue_2bandit_b2.png","70","","70","test","1","","8","","","","circle","square","8","8","1","1","","","","","","","",""
"null","268574","SARL_v6","SARL_v6j8y9h1ud","5fbc1367373b9307763985c0","freq_resp","","","img/blue_2bandit_b.png","70","img/blue_2bandit_b.png","70","test","","","","","","","","","","","1","","","","","","","","",""
"null","268734","SARL_v6","SARL_v6j8y9h1ud","5fbc1367373b9307763985c0","fixation","","","img/fixation.png","null","","","test","","","","","","","","","","","","","","","","","","","",""
"338.1000000014901","269076","SARL_v6","SARL_v6j8y9h1ud","5fbc1367373b9307763985c0","freq","","","img/blue_2bandit_b2.png","70","","70","test","1","","9","","","","circle","square","9","9","1","1","","","","","","","",""
"null","269547","SARL_v6","SARL_v6j8y9h1ud","5fbc1367373b9307763985c0","freq_resp","","","img/blue_2bandit_b.png","70","img/blue_2bandit_b.png","70","test","","","","","","","","","","","1","","","","","","","","",""
"null","269708","SARL_v6","SARL_v6j8y9h1ud","5fbc1367373b9307763985c0","fixation","","","img/fixation.png","null","","","test","","","","","","","","","","","","","","","","","","","",""
"390.69999999925494","270102","SARL_v6","SARL_v6j8y9h1ud","5fbc1367373b9307763985c0","infreq","","","img/orange_2bandit_b2.png","68","","68","test","1","","10","","","","circle","square","10","10","1","1","","","","","","","",""
"null","270526","SARL_v6","SARL_v6j8y9h1ud","5fbc1367373b9307763985c0","infreq_resp","","","img/orange_2bandit_b.png","68","img/orange_2bandit_b.png","68","test","","","","","","","","","","","1","","","","","","","","",""
"null","270687","SARL_v6","SARL_v6j8y9h1ud","5fbc1367373b9307763985c0","fixation","","","img/fixation.png","null","","","test","","","","","","","","","","","","","","","","","","","",""
"563.8000000007451","271254","SARL_v6","SARL_v6j8y9h1ud","5fbc1367373b9307763985c0","freq","","","img/blue_2bandit_b2.png","70","","70","test","1","","11","","","","circle","square","11","11","1","1","","","","","","","",""
"null","271499","SARL_v6","SARL_v6j8y9h1ud","5fbc1367373b9307763985c0","freq_resp","","","img/blue_2bandit_b.png","70","img/blue_2bandit_b.png","70","test","","","","","","","","","","","1","","","","","","","","",""
"null","271660","SARL_v6","SARL_v6j8y9h1ud","5fbc1367373b9307763985c0","fixation","","","img/fixation.png","null","","","test","","","","","","","","","","","","","","","","","","","",""
"461.80000000074506","272126","SARL_v6","SARL_v6j8y9h1ud","5fbc1367373b9307763985c0","freq","","","img/blue_2bandit_b2.png","70","","70","test","1","","12","","","","circle","square","12","12","1","1","","","","","","","",""
"null","272474","SARL_v6","SARL_v6j8y9h1ud","5fbc1367373b9307763985c0","freq_resp","","","img/blue_2bandit_b.png","70","img/blue_2bandit_b.png","70","test","","","","","","","","","","","1","","","","","","","","",""
"null","272637","SARL_v6","SARL_v6j8y9h1ud","5fbc1367373b9307763985c0","fixation","","","img/fixation.png","null","","","test","","","","","","","","","","","","","","","","","","","",""
"462.30000000074506","273103","SARL_v6","SARL_v6j8y9h1ud","5fbc1367373b9307763985c0","freq","","","img/blue_2bandit_b2.png","70","","70","test","1","","13","","","","circle","square","13","13","1","1","","","","","","","",""
"null","273453","SARL_v6","SARL_v6j8y9h1ud","5fbc1367373b9307763985c0","freq_resp","","","img/blue_2bandit_b.png","70","img/blue_2bandit_b.png","70","test","","","","","","","","","","","1","","","","","","","","",""
"null","273615","SARL_v6","SARL_v6j8y9h1ud","5fbc1367373b9307763985c0","fixation","","","img/fixation.png","null","","","test","","","","","","","","","","","","","","","","","","","",""
"452.30000000074506","274071","SARL_v6","SARL_v6j8y9h1ud","5fbc1367373b9307763985c0","infreq","","","img/orange_2bandit_b2.png","68","","68","test","1","","14","","","","circle","square","14","14","1","1","","","","","","","",""
"null","274428","SARL_v6","SARL_v6j8y9h1ud","5fbc1367373b9307763985c0","infreq_resp","","","img/orange_2bandit_b.png","68","img/orange_2bandit_b.png","68","test","","","","","","","","","","","1","","","","","","","","",""
"null","274588","SARL_v6","SARL_v6j8y9h1ud","5fbc1367373b9307763985c0","fixation","","","img/fixation.png","null","","","test","","","","","","","","","","","","","","","","","","","",""
"528.6999999992549","275120","SARL_v6","SARL_v6j8y9h1ud","5fbc1367373b9307763985c0","freq","","","img/blue_2bandit_b2.png","70","","70","test","1","","15","","","","circle","square","15","15","1","1","","","","","","","",""
"null","275407","SARL_v6","SARL_v6j8y9h1ud","5fbc1367373b9307763985c0","freq_resp","","","img/blue_2bandit_b.png","70","img/blue_2bandit_b.png","70","test","","","","","","","","","","","1","","","","","","","","",""
"null","275565","SARL_v6","SARL_v6j8y9h1ud","5fbc1367373b9307763985c0","fixation","","","img/fixation.png","null","","","test","","","","","","","","","","","","","","","","","","","",""
"356.5","275925","SARL_v6","SARL_v6j8y9h1ud","5fbc1367373b9307763985c0","freq","","","img/blue_2bandit_b2.png","70","","70","test","1","","16","","","","circle","square","16","16","1","1","","","","","","","",""
"null","276378","SARL_v6","SARL_v6j8y9h1ud","5fbc1367373b9307763985c0","freq_resp","","","img/blue_2bandit_b.png","70","img/blue_2bandit_b.png","70","test","","","","","","","","","","","1","","","","","","","","",""
"null","276538","SARL_v6","SARL_v6j8y9h1ud","5fbc1367373b9307763985c0","fixation","","","img/fixation.png","null","","","test","","","","","","","","","","","","","","","","","","","",""
"359.5","276901","SARL_v6","SARL_v6j8y9h1ud","5fbc1367373b9307763985c0","freq","","","img/blue_2bandit_b2.png","70","","70","test","1","","17","","","","circle","square","17","17","1","1","","","","","","","",""
"null","277346","SARL_v6","SARL_v6j8y9h1ud","5fbc1367373b9307763985c0","freq_resp","","","img/blue_2bandit_b.png","70","img/blue_2bandit_b.png","70","test","","","","","","","","","","","1","","","","","","","","",""
"null","277506","SARL_v6","SARL_v6j8y9h1ud","5fbc1367373b9307763985c0","fixation","","","img/fixation.png","null","","","test","","","","","","","","","","","","","","","","","","","",""
"340.8999999985099","277850","SARL_v6","SARL_v6j8y9h1ud","5fbc1367373b9307763985c0","freq","","","img/blue_2bandit_b2.png","70","","70","test","1","","18","","","","circle","square","18","18","1","1","","","","","","","",""
"null","278316","SARL_v6","SARL_v6j8y9h1ud","5fbc1367373b9307763985c0","freq_resp","","","img/blue_2bandit_b.png","70","img/blue_2bandit_b.png","70","test","","","","","","","","","","","1","","","","","","","","",""
"null","278479","SARL_v6","SARL_v6j8y9h1ud","5fbc1367373b9307763985c0","fixation","","","img/fixation.png","null","","","test","","","","","","","","","","","","","","","","","","","",""
"345.3999999985099","278828","SARL_v6","SARL_v6j8y9h1ud","5fbc1367373b9307763985c0","freq","","","img/blue_2bandit_b2.png","70","","70","test","1","","19","","","","circle","square","19","19","1","1","","","","","","","",""
"null","279292","SARL_v6","SARL_v6j8y9h1ud","5fbc1367373b9307763985c0","freq_resp","","","img/blue_2bandit_b.png","70","img/blue_2bandit_b.png","70","test","","","","","","","","","","","1","","","","","","","","",""
"null","279455","SARL_v6","SARL_v6j8y9h1ud","5fbc1367373b9307763985c0","fixation","","","img/fixation.png","null","","","test","","","","","","","","","","","","","","","","","","","",""
"348.30000000074506","279807","SARL_v6","SARL_v6j8y9h1ud","5fbc1367373b9307763985c0","freq","","","img/blue_2bandit_b2.png","70","","70","test","1","","20","","","","circle","square","20","20","1","1","","","","","","","",""
"null","280266","SARL_v6","SARL_v6j8y9h1ud","5fbc1367373b9307763985c0","freq_resp","","","img/blue_2bandit_b.png","70","img/blue_2bandit_b.png","70","test","","","","","","","","","","","1","","","","","","","","",""
"null","280429","SARL_v6","SARL_v6j8y9h1ud","5fbc1367373b9307763985c0","fixation","","","img/fixation.png","null","","","test","","","","","","","","","","","","","","","","","","","",""
"390","280823","SARL_v6","SARL_v6j8y9h1ud","5fbc1367373b9307763985c0","freq","","","img/blue_2bandit_b2.png","70","","70","test","1","","21","","","","circle","square","21","21","1","1","","","","","","","",""
"null","281247","SARL_v6","SARL_v6j8y9h1ud","5fbc1367373b9307763985c0","freq_resp","","","img/blue_2bandit_b.png","70","img/blue_2bandit_b.png","70","test","","","","","","","","","","","1","","","","","","","","",""
"null","281402","SARL_v6","SARL_v6j8y9h1ud","5fbc1367373b9307763985c0","fixation","","","img/fixation.png","null","","","test","","","","","","","","","","","","","","","","","","","",""
"345.69999999925494","281752","SARL_v6","SARL_v6j8y9h1ud","5fbc1367373b9307763985c0","freq","","","img/blue_2bandit_b2.png","70","","70","test","1","","22","","","","circle","square","22","22","1","1","","","","","","","",""
"null","282211","SARL_v6","SARL_v6j8y9h1ud","5fbc1367373b9307763985c0","freq_resp","","","img/blue_2bandit_b.png","70","img/blue_2bandit_b.png","70","test","","","","","","","","","","","1","","","","","","","","",""
"null","282370","SARL_v6","SARL_v6j8y9h1ud","5fbc1367373b9307763985c0","fixation","","","img/fixation.png","null","","","test","","","","","","","","","","","","","","","","","","","",""
"313.0999999977648","282687","SARL_v6","SARL_v6j8y9h1ud","5fbc1367373b9307763985c0","freq","","","img/blue_2bandit_b2.png","70","","70","test","1","","23","","","","circle","square","23","23","1","1","","","","","","","",""
"null","283180","SARL_v6","SARL_v6j8y9h1ud","5fbc1367373b9307763985c0","freq_resp","","","img/blue_2bandit_b.png","70","img/blue_2bandit_b.png","70","test","","","","","","","","","","","1","","","","","","","","",""
"null","283343","SARL_v6","SARL_v6j8y9h1ud","5fbc1367373b9307763985c0","fixation","","","img/fixation.png","null","","","test","","","","","","","","","","","","","","","","","","","",""
"779.7999999970198","284127","SARL_v6","SARL_v6j8y9h1ud","5fbc1367373b9307763985c0","rl","","","img/black_2bandit_b2.png","74","","0","test","","","24","","","-3","circle","square","","0","1","","74","-3","-3","-3","-3","circle","1","0"
"null","284886","SARL_v6","SARL_v6j8y9h1ud","5fbc1367373b9307763985c0","feedback","","","<div class=""verylowPoints""> -3 </div>","null","","na","test","","","NaN","","","","","","","","1","","74","","","","","","1",""
"541.6000000014901","285432","SARL_v6","SARL_v6j8y9h1ud","5fbc1367373b9307763985c0","freq","","","img/blue_2bandit_b2.png","70","","70","test","1","","25","","","","circle","square","24","1","2","1","","","","","","","",""
"null","285694","SARL_v6","SARL_v6j8y9h1ud","5fbc1367373b9307763985c0","freq_resp","","","img/blue_2bandit_b.png","70","img/blue_2bandit_b.png","70","test","","","","","","","","","","","2","","","","","","","","",""
"null","285853","SARL_v6","SARL_v6j8y9h1ud","5fbc1367373b9307763985c0","fixation","","","img/fixation.png","null","","","test","","","","","","","","","","","","","","","","","","","",""
"327.5","286184","SARL_v6","SARL_v6j8y9h1ud","5fbc1367373b9307763985c0","freq","","","img/blue_2bandit_b2.png","70","","70","test","1","","26","","","","circle","square","25","2","2","1","","","","","","","",""
"null","286667","SARL_v6","SARL_v6j8y9h1ud","5fbc1367373b9307763985c0","freq_resp","","","img/blue_2bandit_b.png","70","img/blue_2bandit_b.png","70","test","","","","","","","","","","","2","","","","","","","","",""
"null","286831","SARL_v6","SARL_v6j8y9h1ud","5fbc1367373b9307763985c0","fixation","","","img/fixation.png","null","","","test","","","","","","","","","","","","","","","","","","","",""
"473.30000000074506","287308","SARL_v6","SARL_v6j8y9h1ud","5fbc1367373b9307763985c0","infreq","","","img/orange_2bandit_b2.png","68","","68","test","1","","27","","","","circle","square","26","3","2","1","","","","","","","",""
"null","287643","SARL_v6","SARL_v6j8y9h1ud","5fbc1367373b9307763985c0","infreq_resp","","","img/orange_2bandit_b.png","68","img/orange_2bandit_b.png","68","test","","","","","","","","","","","2","","","","","","","","",""
"null","287803","SARL_v6","SARL_v6j8y9h1ud","5fbc1367373b9307763985c0","fixation","","","img/fixation.png","null","","","test","","","","","","","","","","","","","","","","","","","",""
"473.9000000022352","288280","SARL_v6","SARL_v6j8y9h1ud","5fbc1367373b9307763985c0","freq","","","img/blue_2bandit_b2.png","70","","70","test","1","","28","","","","circle","square","27","4","2","1","","","","","","","",""
"null","288620","SARL_v6","SARL_v6j8y9h1ud","5fbc1367373b9307763985c0","freq_resp","","","img/blue_2bandit_b.png","70","img/blue_2bandit_b.png","70","test","","","","","","","","","","","2","","","","","","","","",""
"null","288782","SARL_v6","SARL_v6j8y9h1ud","5fbc1367373b9307763985c0","fixation","","","img/fixation.png","null","","","test","","","","","","","","","","","","","","","","","","","",""
"345.80000000074506","289132","SARL_v6","SARL_v6j8y9h1ud","5fbc1367373b9307763985c0","freq","","","img/blue_2bandit_b2.png","70","","70","test","1","","29","","","","circle","square","28","5","2","1","","","","","","","",""
"null","289599","SARL_v6","SARL_v6j8y9h1ud","5fbc1367373b9307763985c0","freq_resp","","","img/blue_2bandit_b.png","70","img/blue_2bandit_b.png","70","test","","","","","","","","","","","2","","","","","","","","",""
"null","289759","SARL_v6","SARL_v6j8y9h1ud","5fbc1367373b9307763985c0","fixation","","","img/fixation.png","null","","","test","","","","","","","","","","","","","","","","","","","",""
"495.3999999985099","290259","SARL_v6","SARL_v6j8y9h1ud","5fbc1367373b9307763985c0","freq","","","img/blue_2bandit_b2.png","70","","70","test","1","","30","","","","circle","square","29","6","2","1","","","","","","","",""
"null","290575","SARL_v6","SARL_v6j8y9h1ud","5fbc1367373b9307763985c0","freq_resp","","","img/blue_2bandit_b.png","70","img/blue_2bandit_b.png","70","test","","","","","","","","","","","2","","","","","","","","",""
"null","290733","SARL_v6","SARL_v6j8y9h1ud","5fbc1367373b9307763985c0","fixation","","","img/fixation.png","null","","","test","","","","","","","","","","","","","","","","","","","",""
"357.69999999925494","291094","SARL_v6","SARL_v6j8y9h1ud","5fbc1367373b9307763985c0","freq","","","img/blue_2bandit_b2.png","70","","70","test","1","","31","","","","circle","square","30","7","2","1","","","","","","","",""
"null","291551","SARL_v6","SARL_v6j8y9h1ud","5fbc1367373b9307763985c0","freq_resp","","","img/blue_2bandit_b.png","70","img/blue_2bandit_b.png","70","test","","","","","","","","","","","2","","","","","","","","",""
"null","291711","SARL_v6","SARL_v6j8y9h1ud","5fbc1367373b9307763985c0","fixation","","","img/fixation.png","null","","","test","","","","","","","","","","","","","","","","","","","",""
"378.4000000022352","292093","SARL_v6","SARL_v6j8y9h1ud","5fbc1367373b9307763985c0","freq","","","img/blue_2bandit_b2.png","70","","70","test","1","","32","","","","circle","square","31","8","2","1","","","","","","","",""
"null","292526","SARL_v6","SARL_v6j8y9h1ud","5fbc1367373b9307763985c0","freq_resp","","","img/blue_2bandit_b.png","70","img/blue_2bandit_b.png","70","test","","","","","","","","","","","2","","","","","","","","",""
"null","292687","SARL_v6","SARL_v6j8y9h1ud","5fbc1367373b9307763985c0","fixation","","","img/fixation.png","null","","","test","","","","","","","","","","","","","","","","","","","",""
"352.80000000074506","293045","SARL_v6","SARL_v6j8y9h1ud","5fbc1367373b9307763985c0","freq","","","img/blue_2bandit_b2.png","70","","70","test","1","","33","","","","circle","square","32","9","2","1","","","","","","","",""
"null","293503","SARL_v6","SARL_v6j8y9h1ud","5fbc1367373b9307763985c0","freq_resp","","","img/blue_2bandit_b.png","70","img/blue_2bandit_b.png","70","test","","","","","","","","","","","2","","","","","","","","",""
"null","293659","SARL_v6","SARL_v6j8y9h1ud","5fbc1367373b9307763985c0","fixation","","","img/fixation.png","null","","","test","","","","","","","","","","","","","","","","","","","",""
"344.6000000014901","294007","SARL_v6","SARL_v6j8y9h1ud","5fbc1367373b9307763985c0","freq","","","img/blue_2bandit_b2.png","70","","70","test","1","","34","","","","circle","square","33","10","2","1","","","","","","","",""
"null","294466","SARL_v6","SARL_v6j8y9h1ud","5fbc1367373b9307763985c0","freq_resp","","","img/blue_2bandit_b.png","70","img/blue_2bandit_b.png","70","test","","","","","","","","","","","2","","","","","","","","",""
"null","294632","SARL_v6","SARL_v6j8y9h1ud","5fbc1367373b9307763985c0","fixation","","","img/fixation.png","null","","","test","","","","","","","","","","","","","","","","","","","",""
"308.6000000014901","294944","SARL_v6","SARL_v6j8y9h1ud","5fbc1367373b9307763985c0","freq","","","img/blue_2bandit_b2.png","70","","70","test","1","","35","","","","circle","square","34","11","2","1","","","","","","","",""
"null","295443","SARL_v6","SARL_v6j8y9h1ud","5fbc1367373b9307763985c0","freq_resp","","","img/blue_2bandit_b.png","70","img/blue_2bandit_b.png","70","test","","","","","","","","","","","2","","","","","","","","",""
"null","295603","SARL_v6","SARL_v6j8y9h1ud","5fbc1367373b9307763985c0","fixation","","","img/fixation.png","null","","","test","","","","","","","","","","","","","","","","","","","",""
"312.69999999925494","295919","SARL_v6","SARL_v6j8y9h1ud","5fbc1367373b9307763985c0","freq","","","img/blue_2bandit_b2.png","70","","70","test","1","","36","","","","circle","square","35","12","2","1","","","","","","","",""
"null","296414","SARL_v6","SARL_v6j8y9h1ud","5fbc1367373b9307763985c0","freq_resp","","","img/blue_2bandit_b.png","70","img/blue_2bandit_b.png","70","test","","","","","","","","","","","2","","","","","","","","",""
"null","296575","SARL_v6","SARL_v6j8y9h1ud","5fbc1367373b9307763985c0","fixation","","","img/fixation.png","null","","","test","","","","","","","","","","","","","","","","","","","",""
"312.9000000022352","296892","SARL_v6","SARL_v6j8y9h1ud","5fbc1367373b9307763985c0","freq","","","img/blue_2bandit_b2.png","70","","70","test","1","","37","","","","circle","square","36","13","2","1","","","","","","","",""
"null","297388","SARL_v6","SARL_v6j8y9h1ud","5fbc1367373b9307763985c0","freq_resp","","","img/blue_2bandit_b.png","70","img/blue_2bandit_b.png","70","test","","","","","","","","","","","2","","","","","","","","",""
"null","297548","SARL_v6","SARL_v6j8y9h1ud","5fbc1367373b9307763985c0","fixation","","","img/fixation.png","null","","","test","","","","","","","","","","","","","","","","","","","",""
"340.19999999925494","297892","SARL_v6","SARL_v6j8y9h1ud","5fbc1367373b9307763985c0","freq","","","img/blue_2bandit_b2.png","70","","70","test","1","","38","","","","circle","square","37","14","2","1","","","","","","","",""
"null","298367","SARL_v6","SARL_v6j8y9h1ud","5fbc1367373b9307763985c0","freq_resp","","","img/blue_2bandit_b.png","70","img/blue_2bandit_b.png","70","test","","","","","","","","","","","2","","","","","","","","",""
"null","298527","SARL_v6","SARL_v6j8y9h1ud","5fbc1367373b9307763985c0","fixation","","","img/fixation.png","null","","","test","","","","","","","","","","","","","","","","","","","",""
"349.80000000074506","298880","SARL_v6","SARL_v6j8y9h1ud","5fbc1367373b9307763985c0","freq","","","img/blue_2bandit_b2.png","70","","70","test","1","","39","","","","circle","square","38","15","2","1","","","","","","","",""
"null","299344","SARL_v6","SARL_v6j8y9h1ud","5fbc1367373b9307763985c0","freq_resp","","","img/blue_2bandit_b.png","70","img/blue_2bandit_b.png","70","test","","","","","","","","","","","2","","","","","","","","",""
"null","299501","SARL_v6","SARL_v6j8y9h1ud","5fbc1367373b9307763985c0","fixation","","","img/fixation.png","null","","","test","","","","","","","","","","","","","","","","","","","",""
"303.5","299808","SARL_v6","SARL_v6j8y9h1ud","5fbc1367373b9307763985c0","freq","","","img/blue_2bandit_b2.png","70","","70","test","1","","40","","","","circle","square","39","16","2","1","","","","","","","",""
"null","300319","SARL_v6","SARL_v6j8y9h1ud","5fbc1367373b9307763985c0","freq_resp","","","img/blue_2bandit_b.png","70","img/blue_2bandit_b.png","70","test","","","","","","","","","","","2","","","","","","","","",""
"null","300475","SARL_v6","SARL_v6j8y9h1ud","5fbc1367373b9307763985c0","fixation","","","img/fixation.png","null","","","test","","","","","","","","","","","","","","","","","","","",""
"374.80000000074506","300853","SARL_v6","SARL_v6j8y9h1ud","5fbc1367373b9307763985c0","freq","","","img/blue_2bandit_b2.png","70","","70","test","1","","41","","","","circle","square","40","17","2","1","","","","","","","",""
"null","301292","SARL_v6","SARL_v6j8y9h1ud","5fbc1367373b9307763985c0","freq_resp","","","img/blue_2bandit_b.png","70","img/blue_2bandit_b.png","70","test","","","","","","","","","","","2","","","","","","","","",""
"null","301455","SARL_v6","SARL_v6j8y9h1ud","5fbc1367373b9307763985c0","fixation","","","img/fixation.png","null","","","test","","","","","","","","","","","","","","","","","","","",""
"308.69999999925494","301767","SARL_v6","SARL_v6j8y9h1ud","5fbc1367373b9307763985c0","freq","","","img/blue_2bandit_b2.png","70","","70","test","1","","42","","","","circle","square","41","18","2","1","","","","","","","",""
"null","302272","SARL_v6","SARL_v6j8y9h1ud","5fbc1367373b9307763985c0","freq_resp","","","img/blue_2bandit_b.png","70","img/blue_2bandit_b.png","70","test","","","","","","","","","","","2","","","","","","","","",""
"null","302428","SARL_v6","SARL_v6j8y9h1ud","5fbc1367373b9307763985c0","fixation","","","img/fixation.png","null","","","test","","","","","","","","","","","","","","","","","","","",""
"425.80000000074506","302858","SARL_v6","SARL_v6j8y9h1ud","5fbc1367373b9307763985c0","infreq","","","img/orange_2bandit_b2.png","68","","68","test","1","","43","","","","circle","square","42","19","2","1","","","","","","","",""
"null","303248","SARL_v6","SARL_v6j8y9h1ud","5fbc1367373b9307763985c0","infreq_resp","","","img/orange_2bandit_b.png","68","img/orange_2bandit_b.png","68","test","","","","","","","","","","","2","","","","","","","","",""
"null","303405","SARL_v6","SARL_v6j8y9h1ud","5fbc1367373b9307763985c0","fixation","","","img/fixation.png","null","","","test","","","","","","","","","","","","","","","","","","","",""
"401","303810","SARL_v6","SARL_v6j8y9h1ud","5fbc1367373b9307763985c0","freq","","","img/blue_2bandit_b2.png","68","","70","test","0","","44","","","","circle","square","43","20","2","0.9767441860465116","","","","","","","",""
"null","304215","SARL_v6","SARL_v6j8y9h1ud","5fbc1367373b9307763985c0","freq_resp","","","img/blue_2bandit_b.png","68","img/blue_2bandit_b.png","70","test","","","","","","","","","","","2","","","","","","","","",""
"null","304371","SARL_v6","SARL_v6j8y9h1ud","5fbc1367373b9307763985c0","fixation","","","img/fixation.png","null","","","test","","","","","","","","","","","","","","","","","","","",""
"590.7000000029802","304965","SARL_v6","SARL_v6j8y9h1ud","5fbc1367373b9307763985c0","rl","","","img/black_2bandit_b2.png","75","","0","test","","","45","","","-5","circle","square","","0","2","","75","-8","-5","-8","-5","square","2","0"
"null","305728","SARL_v6","SARL_v6j8y9h1ud","5fbc1367373b9307763985c0","feedback","","","<div class=""verylowPoints_sq""> -5 </div>","null","","na","test","","","NaN","","","","","","","","2","","75","","","","","","2",""
"421.5","306154","SARL_v6","SARL_v6j8y9h1ud","5fbc1367373b9307763985c0","freq","","","img/blue_2bandit_b2.png","70","","70","test","1","","46","","","","circle","square","44","1","3","0.9772727272727273","","","","","","","",""
"null","306540","SARL_v6","SARL_v6j8y9h1ud","5fbc1367373b9307763985c0","freq_resp","","","img/blue_2bandit_b.png","70","img/blue_2bandit_b.png","70","test","","","","","","","","","","","3","","","","","","","","",""
"null","306703","SARL_v6","SARL_v6j8y9h1ud","5fbc1367373b9307763985c0","fixation","","","img/fixation.png","null","","","test","","","","","","","","","","","","","","","","","","","",""
"346.5","307054","SARL_v6","SARL_v6j8y9h1ud","5fbc1367373b9307763985c0","freq","","","img/blue_2bandit_b2.png","70","","70","test","1","","47","","","","circle","square","45","2","3","0.9777777777777777","","","","","","","",""
"null","307520","SARL_v6","SARL_v6j8y9h1ud","5fbc1367373b9307763985c0","freq_resp","","","img/blue_2bandit_b.png","70","img/blue_2bandit_b.png","70","test","","","","","","","","","","","3","","","","","","","","",""
"null","307687","SARL_v6","SARL_v6j8y9h1ud","5fbc1367373b9307763985c0","fixation","","","img/fixation.png","null","","","test","","","","","","","","","","","","","","","","","","","",""
"416.79999999701977","308108","SARL_v6","SARL_v6j8y9h1ud","5fbc1367373b9307763985c0","freq","","","img/blue_2bandit_b2.png","70","","70","test","1","","48","","","","circle","square","46","3","3","0.9782608695652174","","","","","","","",""
"null","308504","SARL_v6","SARL_v6j8y9h1ud","5fbc1367373b9307763985c0","freq_resp","","","img/blue_2bandit_b.png","70","img/blue_2bandit_b.png","70","test","","","","","","","","","","","3","","","","","","","","",""
"null","308664","SARL_v6","SARL_v6j8y9h1ud","5fbc1367373b9307763985c0","fixation","","","img/fixation.png","null","","","test","","","","","","","","","","","","","","","","","","","",""
"413.20000000298023","309081","SARL_v6","SARL_v6j8y9h1ud","5fbc1367373b9307763985c0","infreq","","","img/orange_2bandit_b2.png","68","","68","test","1","","49","","","","circle","square","47","4","3","0.9787234042553191","","","","","","","",""
"null","309476","SARL_v6","SARL_v6j8y9h1ud","5fbc1367373b9307763985c0","infreq_resp","","","img/orange_2bandit_b.png","68","img/orange_2bandit_b.png","68","test","","","","","","","","","","","3","","","","","","","","",""
"null","309637","SARL_v6","SARL_v6j8y9h1ud","5fbc1367373b9307763985c0","fixation","","","img/fixation.png","null","","","test","","","","","","","","","","","","","","","","","","","",""
"494.19999999925494","310135","SARL_v6","SARL_v6j8y9h1ud","5fbc1367373b9307763985c0","freq","","","img/blue_2bandit_b2.png","70","","70","test","1","","50","","","","circle","square","48","5","3","0.9791666666666666","","","","","","","",""
"null","310456","SARL_v6","SARL_v6j8y9h1ud","5fbc1367373b9307763985c0","freq_resp","","","img/blue_2bandit_b.png","70","img/blue_2bandit_b.png","70","test","","","","","","","","","","","3","","","","","","","","",""
"null","310615","SARL_v6","SARL_v6j8y9h1ud","5fbc1367373b9307763985c0","fixation","","","img/fixation.png","null","","","test","","","","","","","","","","","","","","","","","","","",""
"441.8999999985099","311061","SARL_v6","SARL_v6j8y9h1ud","5fbc1367373b9307763985c0","freq","","","img/blue_2bandit_b2.png","70","","70","test","1","","51","","","","circle","square","49","6","3","0.9795918367346939","","","","","","","",""
"null","311426","SARL_v6","SARL_v6j8y9h1ud","5fbc1367373b9307763985c0","freq_resp","","","img/blue_2bandit_b.png","70","img/blue_2bandit_b.png","70","test","","","","","","","","","","","3","","","","","","","","",""
"null","311588","SARL_v6","SARL_v6j8y9h1ud","5fbc1367373b9307763985c0","fixation","","","img/fixation.png","null","","","test","","","","","","","","","","","","","","","","","","","",""
"389.0999999977648","311981","SARL_v6","SARL_v6j8y9h1ud","5fbc1367373b9307763985c0","freq","","","img/blue_2bandit_b2.png","70","","70","test","1","","52","","","","circle","square","50","7","3","0.98","","","","","","","",""
"null","312400","SARL_v6","SARL_v6j8y9h1ud","5fbc1367373b9307763985c0","freq_resp","","","img/blue_2bandit_b.png","70","img/blue_2bandit_b.png","70","test","","","","","","","","","","","3","","","","","","","","",""
"null","312557","SARL_v6","SARL_v6j8y9h1ud","5fbc1367373b9307763985c0","fixation","","","img/fixation.png","null","","","test","","","","","","","","","","","","","","","","","","","",""
"312.30000000074506","312873","SARL_v6","SARL_v6j8y9h1ud","5fbc1367373b9307763985c0","freq","","","img/blue_2bandit_b2.png","70","","70","test","1","","53","","","","circle","square","51","8","3","0.9803921568627451","","","","","","","",""
"null","313372","SARL_v6","SARL_v6j8y9h1ud","5fbc1367373b9307763985c0","freq_resp","","","img/blue_2bandit_b.png","70","img/blue_2bandit_b.png","70","test","","","","","","","","","","","3","","","","","","","","",""
"null","313531","SARL_v6","SARL_v6j8y9h1ud","5fbc1367373b9307763985c0","fixation","","","img/fixation.png","null","","","test","","","","","","","","","","","","","","","","","","","",""
"412.8999999985099","313948","SARL_v6","SARL_v6j8y9h1ud","5fbc1367373b9307763985c0","freq","","","img/blue_2bandit_b2.png","70","","70","test","1","","54","","","","circle","square","52","9","3","0.9807692307692307","","","","","","","",""
"null","314344","SARL_v6","SARL_v6j8y9h1ud","5fbc1367373b9307763985c0","freq_resp","","","img/blue_2bandit_b.png","70","img/blue_2bandit_b.png","70","test","","","","","","","","","","","3","","","","","","","","",""
"null","314499","SARL_v6","SARL_v6j8y9h1ud","5fbc1367373b9307763985c0","fixation","","","img/fixation.png","null","","","test","","","","","","","","","","","","","","","","","","","",""
"350.3999999985099","314853","SARL_v6","SARL_v6j8y9h1ud","5fbc1367373b9307763985c0","freq","","","img/blue_2bandit_b2.png","70","","70","test","1","","55","","","","circle","square","53","10","3","0.9811320754716981","","","","","","","",""
"null","315308","SARL_v6","SARL_v6j8y9h1ud","5fbc1367373b9307763985c0","freq_resp","","","img/blue_2bandit_b.png","70","img/blue_2bandit_b.png","70","test","","","","","","","","","","","3","","","","","","","","",""
"null","315472","SARL_v6","SARL_v6j8y9h1ud","5fbc1367373b9307763985c0","fixation","","","img/fixation.png","null","","","test","","","","","","","","","","","","","","","","","","","",""
"334.3999999985099","315810","SARL_v6","SARL_v6j8y9h1ud","5fbc1367373b9307763985c0","freq","","","img/blue_2bandit_b2.png","70","","70","test","1","","56","","","","circle","square","54","11","3","0.9814814814814815","","","","","","","",""
"null","316288","SARL_v6","SARL_v6j8y9h1ud","5fbc1367373b9307763985c0","freq_resp","","","img/blue_2bandit_b.png","70","img/blue_2bandit_b.png","70","test","","","","","","","","","","","3","","","","","","","","",""
"null","316443","SARL_v6","SARL_v6j8y9h1ud","5fbc1367373b9307763985c0","fixation","","","img/fixation.png","null","","","test","","","","","","","","","","","","","","","","","","","",""
"382.19999999925494","316829","SARL_v6","SARL_v6j8y9h1ud","5fbc1367373b9307763985c0","freq","","","img/blue_2bandit_b2.png","70","","70","test","1","","57","","","","circle","square","55","12","3","0.9818181818181818","","","","","","","",""
"null","317251","SARL_v6","SARL_v6j8y9h1ud","5fbc1367373b9307763985c0","freq_resp","","","img/blue_2bandit_b.png","70","img/blue_2bandit_b.png","70","test","","","","","","","","","","","3","","","","","","","","",""
"null","317416","SARL_v6","SARL_v6j8y9h1ud","5fbc1367373b9307763985c0","fixation","","","img/fixation.png","null","","","test","","","","","","","","","","","","","","","","","","","",""
"540","317959","SARL_v6","SARL_v6j8y9h1ud","5fbc1367373b9307763985c0","freq","","","img/blue_2bandit_b2.png","70","","70","test","1","","58","","","","circle","square","56","13","3","0.9821428571428571","","","","","","","",""
"null","318232","SARL_v6","SARL_v6j8y9h1ud","5fbc1367373b9307763985c0","freq_resp","","","img/blue_2bandit_b.png","70","img/blue_2bandit_b.png","70","test","","","","","","","","","","","3","","","","","","","","",""
"null","318387","SARL_v6","SARL_v6j8y9h1ud","5fbc1367373b9307763985c0","fixation","","","img/fixation.png","null","","","test","","","","","","","","","","","","","","","","","","","",""
"319.30000000074506","318709","SARL_v6","SARL_v6j8y9h1ud","5fbc1367373b9307763985c0","freq","","","img/blue_2bandit_b2.png","70","","70","test","1","","59","","","","circle","square","57","14","3","0.9824561403508771","","","","","","","",""
"null","319200","SARL_v6","SARL_v6j8y9h1ud","5fbc1367373b9307763985c0","freq_resp","","","img/blue_2bandit_b.png","70","img/blue_2bandit_b.png","70","test","","","","","","","","","","","3","","","","","","","","",""
"null","319356","SARL_v6","SARL_v6j8y9h1ud","5fbc1367373b9307763985c0","fixation","","","img/fixation.png","null","","","test","","","","","","","","","","","","","","","","","","","",""
"349.1000000014901","319709","SARL_v6","SARL_v6j8y9h1ud","5fbc1367373b9307763985c0","freq","","","img/blue_2bandit_b2.png","70","","70","test","1","","60","","","","circle","square","58","15","3","0.9827586206896551","","","","","","","",""
"null","320168","SARL_v6","SARL_v6j8y9h1ud","5fbc1367373b9307763985c0","freq_resp","","","img/blue_2bandit_b.png","70","img/blue_2bandit_b.png","70","test","","","","","","","","","","","3","","","","","","","","",""
"null","320324","SARL_v6","SARL_v6j8y9h1ud","5fbc1367373b9307763985c0","fixation","","","img/fixation.png","null","","","test","","","","","","","","","","","","","","","","","","","",""
"326.79999999701977","320654","SARL_v6","SARL_v6j8y9h1ud","5fbc1367373b9307763985c0","freq","","","img/blue_2bandit_b2.png","70","","70","test","1","","61","","","","circle","square","59","16","3","0.9830508474576272","","","","","","","",""
"null","321134","SARL_v6","SARL_v6j8y9h1ud","5fbc1367373b9307763985c0","freq_resp","","","img/blue_2bandit_b.png","70","img/blue_2bandit_b.png","70","test","","","","","","","","","","","3","","","","","","","","",""
"null","321295","SARL_v6","SARL_v6j8y9h1ud","5fbc1367373b9307763985c0","fixation","","","img/fixation.png","null","","","test","","","","","","","","","","","","","","","","","","","",""
"300","321599","SARL_v6","SARL_v6j8y9h1ud","5fbc1367373b9307763985c0","freq","","","img/blue_2bandit_b2.png","70","","70","test","1","","62","","","","circle","square","60","17","3","0.9833333333333333","","","","","","","",""
"null","322113","SARL_v6","SARL_v6j8y9h1ud","5fbc1367373b9307763985c0","freq_resp","","","img/blue_2bandit_b.png","70","img/blue_2bandit_b.png","70","test","","","","","","","","","","","3","","","","","","","","",""
"null","322268","SARL_v6","SARL_v6j8y9h1ud","5fbc1367373b9307763985c0","fixation","","","img/fixation.png","null","","","test","","","","","","","","","","","","","","","","","","","",""
"334.3999999985099","322607","SARL_v6","SARL_v6j8y9h1ud","5fbc1367373b9307763985c0","freq","","","img/blue_2bandit_b2.png","70","","70","test","1","","63","","","","circle","square","61","18","3","0.9836065573770492","","","","","","","",""
"null","323088","SARL_v6","SARL_v6j8y9h1ud","5fbc1367373b9307763985c0","freq_resp","","","img/blue_2bandit_b.png","70","img/blue_2bandit_b.png","70","test","","","","","","","","","","","3","","","","","","","","",""
"null","323245","SARL_v6","SARL_v6j8y9h1ud","5fbc1367373b9307763985c0","fixation","","","img/fixation.png","null","","","test","","","","","","","","","","","","","","","","","","","",""
"365.1000000014901","323614","SARL_v6","SARL_v6j8y9h1ud","5fbc1367373b9307763985c0","freq","","","img/blue_2bandit_b2.png","70","","70","test","1","","64","","","","circle","square","62","19","3","0.9838709677419355","","","","","","","",""
"null","324064","SARL_v6","SARL_v6j8y9h1ud","5fbc1367373b9307763985c0","freq_resp","","","img/blue_2bandit_b.png","70","img/blue_2bandit_b.png","70","test","","","","","","","","","","","3","","","","","","","","",""
"null","324221","SARL_v6","SARL_v6j8y9h1ud","5fbc1367373b9307763985c0","fixation","","","img/fixation.png","null","","","test","","","","","","","","","","","","","","","","","","","",""
"324.5999999977648","324550","SARL_v6","SARL_v6j8y9h1ud","5fbc1367373b9307763985c0","freq","","","img/blue_2bandit_b2.png","70","","70","test","1","","65","","","","circle","square","63","20","3","0.9841269841269841","","","","","","","",""
"null","325039","SARL_v6","SARL_v6j8y9h1ud","5fbc1367373b9307763985c0","freq_resp","","","img/blue_2bandit_b.png","70","img/blue_2bandit_b.png","70","test","","","","","","","","","","","3","","","","","","","","",""
"null","325196","SARL_v6","SARL_v6j8y9h1ud","5fbc1367373b9307763985c0","fixation","","","img/fixation.png","null","","","test","","","","","","","","","","","","","","","","","","","",""
"330.5999999977648","325530","SARL_v6","SARL_v6j8y9h1ud","5fbc1367373b9307763985c0","freq","","","img/blue_2bandit_b2.png","70","","70","test","1","","66","","","","circle","square","64","21","3","0.984375","","","","","","","",""
"null","326003","SARL_v6","SARL_v6j8y9h1ud","5fbc1367373b9307763985c0","freq_resp","","","img/blue_2bandit_b.png","70","img/blue_2bandit_b.png","70","test","","","","","","","","","","","3","","","","","","","","",""
"null","326167","SARL_v6","SARL_v6j8y9h1ud","5fbc1367373b9307763985c0","fixation","","","img/fixation.png","null","","","test","","","","","","","","","","","","","","","","","","","",""
"320.6000000014901","326491","SARL_v6","SARL_v6j8y9h1ud","5fbc1367373b9307763985c0","freq","","","img/blue_2bandit_b2.png","70","","70","test","1","","67","","","","circle","square","65","22","3","0.9846153846153847","","","","","","","",""
"null","326979","SARL_v6","SARL_v6j8y9h1ud","5fbc1367373b9307763985c0","freq_resp","","","img/blue_2bandit_b.png","70","img/blue_2bandit_b.png","70","test","","","","","","","","","","","3","","","","","","","","",""
"null","327140","SARL_v6","SARL_v6j8y9h1ud","5fbc1367373b9307763985c0","fixation","","","img/fixation.png","null","","","test","","","","","","","","","","","","","","","","","","","",""
"337","327480","SARL_v6","SARL_v6j8y9h1ud","5fbc1367373b9307763985c0","freq","","","img/blue_2bandit_b2.png","70","","70","test","1","","68","","","","circle","square","66","23","3","0.9848484848484849","","","","","","","",""
"null","327959","SARL_v6","SARL_v6j8y9h1ud","5fbc1367373b9307763985c0","freq_resp","","","img/blue_2bandit_b.png","70","img/blue_2bandit_b.png","70","test","","","","","","","","","","","3","","","","","","","","",""
"null","328118","SARL_v6","SARL_v6j8y9h1ud","5fbc1367373b9307763985c0","fixation","","","img/fixation.png","null","","","test","","","","","","","","","","","","","","","","","","","",""
"499.30000000074506","328622","SARL_v6","SARL_v6j8y9h1ud","5fbc1367373b9307763985c0","infreq","","","img/orange_2bandit_b2.png","68","","68","test","1","","69","","","","circle","square","67","24","3","0.9850746268656716","","","","","","","",""
"null","328936","SARL_v6","SARL_v6j8y9h1ud","5fbc1367373b9307763985c0","infreq_resp","","","img/orange_2bandit_b.png","68","img/orange_2bandit_b.png","68","test","","","","","","","","","","","3","","","","","","","","",""
"null","329091","SARL_v6","SARL_v6j8y9h1ud","5fbc1367373b9307763985c0","fixation","","","img/fixation.png","null","","","test","","","","","","","","","","","","","","","","","","","",""
"489.69999999925494","329584","SARL_v6","SARL_v6j8y9h1ud","5fbc1367373b9307763985c0","freq","","","img/blue_2bandit_b2.png","70","","70","test","1","","70","","","","circle","square","68","25","3","0.9852941176470589","","","","","","","",""
"null","329902","SARL_v6","SARL_v6j8y9h1ud","5fbc1367373b9307763985c0","freq_resp","","","img/blue_2bandit_b.png","70","img/blue_2bandit_b.png","70","test","","","","","","","","","","","3","","","","","","","","",""
"null","330065","SARL_v6","SARL_v6j8y9h1ud","5fbc1367373b9307763985c0","fixation","","","img/fixation.png","null","","","test","","","","","","","","","","","","","","","","","","","",""
"356.8999999985099","330426","SARL_v6","SARL_v6j8y9h1ud","5fbc1367373b9307763985c0","freq","","","img/blue_2bandit_b2.png","70","","70","test","1","","71","","","","circle","square","69","26","3","0.9855072463768116","","","","","","","",""
"null","330880","SARL_v6","SARL_v6j8y9h1ud","5fbc1367373b9307763985c0","freq_resp","","","img/blue_2bandit_b.png","70","img/blue_2bandit_b.png","70","test","","","","","","","","","","","3","","","","","","","","",""
"null","331037","SARL_v6","SARL_v6j8y9h1ud","5fbc1367373b9307763985c0","fixation","","","img/fixation.png","null","","","test","","","","","","","","","","","","","","","","","","","",""
"557.2999999970198","331598","SARL_v6","SARL_v6j8y9h1ud","5fbc1367373b9307763985c0","rl","","","img/black_2bandit_b2.png","74","","0","test","","","72","","","-8","circle","square","","0","3","","74","-8","-4","-8","-4","circle","3","0"
"null","332355","SARL_v6","SARL_v6j8y9h1ud","5fbc1367373b9307763985c0","feedback","","","<div class=""verylowPoints""> -8 </div>","null","","na","test","","","NaN","","","","","","","","3","","74","","","","","","3",""
"null","333165","SARL_v6","SARL_v6j8y9h1ud","5fbc1367373b9307763985c0","freq","","","img/blue_2bandit_b2.png","null","","70","test","0","","73","","","","circle","square","70","1","4","0.9714285714285714","","","","","","","",""
"null","333328","SARL_v6","SARL_v6j8y9h1ud","5fbc1367373b9307763985c0","fixation","","","img/fixation.png","null","","","test","","","","","","","","","","","","","","","","","","","",""
"437.69999999925494","333769","SARL_v6","SARL_v6j8y9h1ud","5fbc1367373b9307763985c0","infreq","","","img/orange_2bandit_b2.png","68","","68","test","1","","74","","","","circle","square","71","2","4","0.971830985915493","","","","","","","",""
"null","334142","SARL_v6","SARL_v6j8y9h1ud","5fbc1367373b9307763985c0","infreq_resp","","","img/orange_2bandit_b.png","68","img/orange_2bandit_b.png","68","test","","","","","","","","","","","4","","","","","","","","",""
"null","334305","SARL_v6","SARL_v6j8y9h1ud","5fbc1367373b9307763985c0","fixation","","","img/fixation.png","null","","","test","","","","","","","","","","","","","","","","","","","",""
"345.79999999701977","334655","SARL_v6","SARL_v6j8y9h1ud","5fbc1367373b9307763985c0","freq","","","img/blue_2bandit_b2.png","70","","70","test","1","","75","","","","circle","square","72","3","4","0.9722222222222222","","","","","","","",""
"null","335115","SARL_v6","SARL_v6j8y9h1ud","5fbc1367373b9307763985c0","freq_resp","","","img/blue_2bandit_b.png","70","img/blue_2bandit_b.png","70","test","","","","","","","","","","","4","","","","","","","","",""
"null","335278","SARL_v6","SARL_v6j8y9h1ud","5fbc1367373b9307763985c0","fixation","","","img/fixation.png","null","","","test","","","","","","","","","","","","","","","","","","","",""
"304.4000000022352","335585","SARL_v6","SARL_v6j8y9h1ud","5fbc1367373b9307763985c0","freq","","","img/blue_2bandit_b2.png","70","","70","test","1","","76","","","","circle","square","73","4","4","0.9726027397260274","","","","","","","",""
"null","336095","SARL_v6","SARL_v6j8y9h1ud","5fbc1367373b9307763985c0","freq_resp","","","img/blue_2bandit_b.png","70","img/blue_2bandit_b.png","70","test","","","","","","","","","","","4","","","","","","","","",""
"null","336256","SARL_v6","SARL_v6j8y9h1ud","5fbc1367373b9307763985c0","fixation","","","img/fixation.png","null","","","test","","","","","","","","","","","","","","","","","","","",""
"305.79999999701977","336566","SARL_v6","SARL_v6j8y9h1ud","5fbc1367373b9307763985c0","freq","","","img/blue_2bandit_b2.png","70","","70","test","1","","77","","","","circle","square","74","5","4","0.972972972972973","","","","","","","",""
"null","337069","SARL_v6","SARL_v6j8y9h1ud","5fbc1367373b9307763985c0","freq_resp","","","img/blue_2bandit_b.png","70","img/blue_2bandit_b.png","70","test","","","","","","","","","","","4","","","","","","","","",""
"null","337230","SARL_v6","SARL_v6j8y9h1ud","5fbc1367373b9307763985c0","fixation","","","img/fixation.png","null","","","test","","","","","","","","","","","","","","","","","","","",""
"333","337567","SARL_v6","SARL_v6j8y9h1ud","5fbc1367373b9307763985c0","freq","","","img/blue_2bandit_b2.png","70","","70","test","1","","78","","","","circle","square","75","6","4","0.9733333333333334","","","","","","","",""
"null","338049","SARL_v6","SARL_v6j8y9h1ud","5fbc1367373b9307763985c0","freq_resp","","","img/blue_2bandit_b.png","70","img/blue_2bandit_b.png","70","test","","","","","","","","","","","4","","","","","","","","",""
"null","338209","SARL_v6","SARL_v6j8y9h1ud","5fbc1367373b9307763985c0","fixation","","","img/fixation.png","null","","","test","","","","","","","","","","","","","","","","","","","",""
"366.8999999985099","338579","SARL_v6","SARL_v6j8y9h1ud","5fbc1367373b9307763985c0","freq","","","img/blue_2bandit_b2.png","70","","70","test","1","","79","","","","circle","square","76","7","4","0.9736842105263158","","","","","","","",""
"null","339020","SARL_v6","SARL_v6j8y9h1ud","5fbc1367373b9307763985c0","freq_resp","","","img/blue_2bandit_b.png","70","img/blue_2bandit_b.png","70","test","","","","","","","","","","","4","","","","","","","","",""
"null","339178","SARL_v6","SARL_v6j8y9h1ud","5fbc1367373b9307763985c0","fixation","","","img/fixation.png","null","","","test","","","","","","","","","","","","","","","","","","","",""
"418.6000000014901","339600","SARL_v6","SARL_v6j8y9h1ud","5fbc1367373b9307763985c0","freq","","","img/blue_2bandit_b2.png","70","","70","test","1","","80","","","","circle","square","77","8","4","0.974025974025974","","","","","","","",""
"null","339992","SARL_v6","SARL_v6j8y9h1ud","5fbc1367373b9307763985c0","freq_resp","","","img/blue_2bandit_b.png","70","img/blue_2bandit_b.png","70","test","","","","","","","","","","","4","","","","","","","","",""
"null","340153","SARL_v6","SARL_v6j8y9h1ud","5fbc1367373b9307763985c0","fixation","","","img/fixation.png","null","","","test","","","","","","","","","","","","","","","","","","","",""
"350","340506","SARL_v6","SARL_v6j8y9h1ud","5fbc1367373b9307763985c0","freq","","","img/blue_2bandit_b2.png","70","","70","test","1","","81","","","","circle","square","78","9","4","0.9743589743589743","","","","","","","",""
"null","340964","SARL_v6","SARL_v6j8y9h1ud","5fbc1367373b9307763985c0","freq_resp","","","img/blue_2bandit_b.png","70","img/blue_2bandit_b.png","70","test","","","","","","","","","","","4","","","","","","","","",""
"null","341129","SARL_v6","SARL_v6j8y9h1ud","5fbc1367373b9307763985c0","fixation","","","img/fixation.png","null","","","test","","","","","","","","","","","","","","","","","","","",""
"317.80000000074506","341450","SARL_v6","SARL_v6j8y9h1ud","5fbc1367373b9307763985c0","freq","","","img/blue_2bandit_b2.png","70","","70","test","1","","82","","","","circle","square","79","10","4","0.9746835443037974","","","","","","","",""
"null","341943","SARL_v6","SARL_v6j8y9h1ud","5fbc1367373b9307763985c0","freq_resp","","","img/blue_2bandit_b.png","70","img/blue_2bandit_b.png","70","test","","","","","","","","","","","4","","","","","","","","",""
"null","342104","SARL_v6","SARL_v6j8y9h1ud","5fbc1367373b9307763985c0","fixation","","","img/fixation.png","null","","","test","","","","","","","","","","","","","","","","","","","",""
"325.80000000074506","342433","SARL_v6","SARL_v6j8y9h1ud","5fbc1367373b9307763985c0","freq","","","img/blue_2bandit_b2.png","70","","70","test","1","","83","","","","circle","square","80","11","4","0.975","","","","","","","",""
"null","342919","SARL_v6","SARL_v6j8y9h1ud","5fbc1367373b9307763985c0","freq_resp","","","img/blue_2bandit_b.png","70","img/blue_2bandit_b.png","70","test","","","","","","","","","","","4","","","","","","","","",""
"null","343080","SARL_v6","SARL_v6j8y9h1ud","5fbc1367373b9307763985c0","fixation","","","img/fixation.png","null","","","test","","","","","","","","","","","","","","","","","","","",""
"316","343400","SARL_v6","SARL_v6j8y9h1ud","5fbc1367373b9307763985c0","freq","","","img/blue_2bandit_b2.png","70","","70","test","1","","84","","","","circle","square","81","12","4","0.9753086419753086","","","","","","","",""
"null","343895","SARL_v6","SARL_v6j8y9h1ud","5fbc1367373b9307763985c0","freq_resp","","","img/blue_2bandit_b.png","70","img/blue_2bandit_b.png","70","test","","","","","","","","","","","4","","","","","","","","",""
"null","344057","SARL_v6","SARL_v6j8y9h1ud","5fbc1367373b9307763985c0","fixation","","","img/fixation.png","null","","","test","","","","","","","","","","","","","","","","","","","",""
"304.1000000014901","344365","SARL_v6","SARL_v6j8y9h1ud","5fbc1367373b9307763985c0","freq","","","img/blue_2bandit_b2.png","70","","70","test","1","","85","","","","circle","square","82","13","4","0.975609756097561","","","","","","","",""
"null","344873","SARL_v6","SARL_v6j8y9h1ud","5fbc1367373b9307763985c0","freq_resp","","","img/blue_2bandit_b.png","70","img/blue_2bandit_b.png","70","test","","","","","","","","","","","4","","","","","","","","",""
"null","345029","SARL_v6","SARL_v6j8y9h1ud","5fbc1367373b9307763985c0","fixation","","","img/fixation.png","null","","","test","","","","","","","","","","","","","","","","","","","",""
"387.5","345421","SARL_v6","SARL_v6j8y9h1ud","5fbc1367373b9307763985c0","infreq","","","img/orange_2bandit_b2.png","68","","68","test","1","","86","","","","circle","square","83","14","4","0.9759036144578314","","","","","","","",""
"null","345848","SARL_v6","SARL_v6j8y9h1ud","5fbc1367373b9307763985c0","infreq_resp","","","img/orange_2bandit_b.png","68","img/orange_2bandit_b.png","68","test","","","","","","","","","","","4","","","","","","","","",""
"null","346005","SARL_v6","SARL_v6j8y9h1ud","5fbc1367373b9307763985c0","fixation","","","img/fixation.png","null","","","test","","","","","","","","","","","","","","","","","","","",""
"485.4000000022352","346494","SARL_v6","SARL_v6j8y9h1ud","5fbc1367373b9307763985c0","freq","","","img/blue_2bandit_b2.png","70","","70","test","1","","87","","","","circle","square","84","15","4","0.9761904761904762","","","","","","","",""
"null","346820","SARL_v6","SARL_v6j8y9h1ud","5fbc1367373b9307763985c0","freq_resp","","","img/blue_2bandit_b.png","70","img/blue_2bandit_b.png","70","test","","","","","","","","","","","4","","","","","","","","",""
"null","346981","SARL_v6","SARL_v6j8y9h1ud","5fbc1367373b9307763985c0","fixation","","","img/fixation.png","null","","","test","","","","","","","","","","","","","","","","","","","",""
"480.1000000014901","347465","SARL_v6","SARL_v6j8y9h1ud","5fbc1367373b9307763985c0","freq","","","img/blue_2bandit_b2.png","70","","70","test","1","","88","","","","circle","square","85","16","4","0.9764705882352941","","","","","","","",""
"null","347791","SARL_v6","SARL_v6j8y9h1ud","5fbc1367373b9307763985c0","freq_resp","","","img/blue_2bandit_b.png","70","img/blue_2bandit_b.png","70","test","","","","","","","","","","","4","","","","","","","","",""
"null","347949","SARL_v6","SARL_v6j8y9h1ud","5fbc1367373b9307763985c0","fixation","","","img/fixation.png","null","","","test","","","","","","","","","","","","","","","","","","","",""
"333.3999999985099","348286","SARL_v6","SARL_v6j8y9h1ud","5fbc1367373b9307763985c0","freq","","","img/blue_2bandit_b2.png","70","","70","test","1","","89","","","","circle","square","86","17","4","0.9767441860465116","","","","","","","",""
"null","348762","SARL_v6","SARL_v6j8y9h1ud","5fbc1367373b9307763985c0","freq_resp","","","img/blue_2bandit_b.png","70","img/blue_2bandit_b.png","70","test","","","","","","","","","","","4","","","","","","","","",""
"null","348924","SARL_v6","SARL_v6j8y9h1ud","5fbc1367373b9307763985c0","fixation","","","img/fixation.png","null","","","test","","","","","","","","","","","","","","","","","","","",""
"385.5999999977648","349312","SARL_v6","SARL_v6j8y9h1ud","5fbc1367373b9307763985c0","freq","","","img/blue_2bandit_b2.png","70","","70","test","1","","90","","","","circle","square","87","18","4","0.9770114942528736","","","","","","","",""
"null","349737","SARL_v6","SARL_v6j8y9h1ud","5fbc1367373b9307763985c0","freq_resp","","","img/blue_2bandit_b.png","70","img/blue_2bandit_b.png","70","test","","","","","","","","","","","4","","","","","","","","",""
"null","349893","SARL_v6","SARL_v6j8y9h1ud","5fbc1367373b9307763985c0","fixation","","","img/fixation.png","null","","","test","","","","","","","","","","","","","","","","","","","",""
"363.6000000014901","350260","SARL_v6","SARL_v6j8y9h1ud","5fbc1367373b9307763985c0","freq","","","img/blue_2bandit_b2.png","70","","70","test","1","","91","","","","circle","square","88","19","4","0.9772727272727273","","","","","","","",""
"null","350713","SARL_v6","SARL_v6j8y9h1ud","5fbc1367373b9307763985c0","freq_resp","","","img/blue_2bandit_b.png","70","img/blue_2bandit_b.png","70","test","","","","","","","","","","","4","","","","","","","","",""
"null","350868","SARL_v6","SARL_v6j8y9h1ud","5fbc1367373b9307763985c0","fixation","","","img/fixation.png","null","","","test","","","","","","","","","","","","","","","","","","","",""
"376.1000000014901","351248","SARL_v6","SARL_v6j8y9h1ud","5fbc1367373b9307763985c0","freq","","","img/blue_2bandit_b2.png","70","","70","test","1","","92","","","","circle","square","89","20","4","0.9775280898876404","","","","","","","",""
"null","351676","SARL_v6","SARL_v6j8y9h1ud","5fbc1367373b9307763985c0","freq_resp","","","img/blue_2bandit_b.png","70","img/blue_2bandit_b.png","70","test","","","","","","","","","","","4","","","","","","","","",""
"null","351837","SARL_v6","SARL_v6j8y9h1ud","5fbc1367373b9307763985c0","fixation","","","img/fixation.png","null","","","test","","","","","","","","","","","","","","","","","","","",""
"801.3000000007451","352642","SARL_v6","SARL_v6j8y9h1ud","5fbc1367373b9307763985c0","rl","","","img/black_2bandit_b2.png","75","","0","test","","","93","","","0","circle","square","","0","4","","75","-12","0","-12","0","square","4","0"
"null","353409","SARL_v6","SARL_v6j8y9h1ud","5fbc1367373b9307763985c0","feedback","","","<div class=""verylowPoints_sq""> 0 </div>","null","","na","test","","","NaN","","","","","","","","4","","75","","","","","","4",""
"485.30000000074506","353899","SARL_v6","SARL_v6j8y9h1ud","5fbc1367373b9307763985c0","freq","","","img/blue_2bandit_b2.png","70","","70","test","1","","94","","","","circle","square","90","1","5","0.9777777777777777","","","","","","","",""
"null","354221","SARL_v6","SARL_v6j8y9h1ud","5fbc1367373b9307763985c0","freq_resp","","","img/blue_2bandit_b.png","70","img/blue_2bandit_b.png","70","test","","","","","","","","","","","5","","","","","","","","",""
"null","354385","SARL_v6","SARL_v6j8y9h1ud","5fbc1367373b9307763985c0","fixation","","","img/fixation.png","null","","","test","","","","","","","","","","","","","","","","","","","",""
"442.80000000074506","354830","SARL_v6","SARL_v6j8y9h1ud","5fbc1367373b9307763985c0","freq","","","img/blue_2bandit_b2.png","70","","70","test","1","","95","","","","circle","square","91","2","5","0.978021978021978","","","","","","","",""
"null","355201","SARL_v6","SARL_v6j8y9h1ud","5fbc1367373b9307763985c0","freq_resp","","","img/blue_2bandit_b.png","70","img/blue_2bandit_b.png","70","test","","","","","","","","","","","5","","","","","","","","",""
"null","355361","SARL_v6","SARL_v6j8y9h1ud","5fbc1367373b9307763985c0","fixation","","","img/fixation.png","null","","","test","","","","","","","","","","","","","","","","","","","",""
"338.5","355704","SARL_v6","SARL_v6j8y9h1ud","5fbc1367373b9307763985c0","freq","","","img/blue_2bandit_b2.png","70","","70","test","1","","96","","","","circle","square","92","3","5","0.9782608695652174","","","","","","","",""
"null","356173","SARL_v6","SARL_v6j8y9h1ud","5fbc1367373b9307763985c0","freq_resp","","","img/blue_2bandit_b.png","70","img/blue_2bandit_b.png","70","test","","","","","","","","","","","5","","","","","","","","",""
"null","356334","SARL_v6","SARL_v6j8y9h1ud","5fbc1367373b9307763985c0","fixation","","","img/fixation.png","null","","","test","","","","","","","","","","","","","","","","","","","",""
"339.30000000074506","356677","SARL_v6","SARL_v6j8y9h1ud","5fbc1367373b9307763985c0","freq","","","img/blue_2bandit_b2.png","70","","70","test","1","","97","","","","circle","square","93","4","5","0.978494623655914","","","","","","","",""
"null","357153","SARL_v6","SARL_v6j8y9h1ud","5fbc1367373b9307763985c0","freq_resp","","","img/blue_2bandit_b.png","70","img/blue_2bandit_b.png","70","test","","","","","","","","","","","5","","","","","","","","",""
"null","357312","SARL_v6","SARL_v6j8y9h1ud","5fbc1367373b9307763985c0","fixation","","","img/fixation.png","null","","","test","","","","","","","","","","","","","","","","","","","",""
"431.30000000074506","357747","SARL_v6","SARL_v6j8y9h1ud","5fbc1367373b9307763985c0","freq","","","img/blue_2bandit_b2.png","70","","70","test","1","","98","","","","circle","square","94","5","5","0.9787234042553191","","","","","","","",""
"null","358125","SARL_v6","SARL_v6j8y9h1ud","5fbc1367373b9307763985c0","freq_resp","","","img/blue_2bandit_b.png","70","img/blue_2bandit_b.png","70","test","","","","","","","","","","","5","","","","","","","","",""
"null","358284","SARL_v6","SARL_v6j8y9h1ud","5fbc1367373b9307763985c0","fixation","","","img/fixation.png","null","","","test","","","","","","","","","","","","","","","","","","","",""
"443.19999999925494","358731","SARL_v6","SARL_v6j8y9h1ud","5fbc1367373b9307763985c0","infreq","","","img/orange_2bandit_b2.png","68","","68","test","1","","99","","","","circle","square","95","6","5","0.9789473684210527","","","","","","","",""
"null","359097","SARL_v6","SARL_v6j8y9h1ud","5fbc1367373b9307763985c0","infreq_resp","","","img/orange_2bandit_b.png","68","img/orange_2bandit_b.png","68","test","","","","","","","","","","","5","","","","","","","","",""
"null","359255","SARL_v6","SARL_v6j8y9h1ud","5fbc1367373b9307763985c0","fixation","","","img/fixation.png","null","","","test","","","","","","","","","","","","","","","","","","","",""
"503.30000000074506","359762","SARL_v6","SARL_v6j8y9h1ud","5fbc1367373b9307763985c0","freq","","","img/blue_2bandit_b2.png","70","","70","test","1","","100","","","","circle","square","96","7","5","0.9791666666666666","","","","","","","",""
"null","360070","SARL_v6","SARL_v6j8y9h1ud","5fbc1367373b9307763985c0","freq_resp","","","img/blue_2bandit_b.png","70","img/blue_2bandit_b.png","70","test","","","","","","","","","","","5","","","","","","","","",""
"null","360229","SARL_v6","SARL_v6j8y9h1ud","5fbc1367373b9307763985c0","fixation","","","img/fixation.png","null","","","test","","","","","","","","","","","","","","","","","","","",""
"326.79999999701977","360559","SARL_v6","SARL_v6j8y9h1ud","5fbc1367373b9307763985c0","freq","","","img/blue_2bandit_b2.png","70","","70","test","1","","101","","","","circle","square","97","8","5","0.979381443298969","","","","","","","",""
"null","361045","SARL_v6","SARL_v6j8y9h1ud","5fbc1367373b9307763985c0","freq_resp","","","img/blue_2bandit_b.png","70","img/blue_2bandit_b.png","70","test","","","","","","","","","","","5","","","","","","","","",""
"null","361209","SARL_v6","SARL_v6j8y9h1ud","5fbc1367373b9307763985c0","fixation","","","img/fixation.png","null","","","test","","","","","","","","","","","","","","","","","","","",""
"326.4000000022352","361539","SARL_v6","SARL_v6j8y9h1ud","5fbc1367373b9307763985c0","freq","","","img/blue_2bandit_b2.png","70","","70","test","1","","102","","","","circle","square","98","9","5","0.9795918367346939","","","","","","","",""
"null","362026","SARL_v6","SARL_v6j8y9h1ud","5fbc1367373b9307763985c0","freq_resp","","","img/blue_2bandit_b.png","70","img/blue_2bandit_b.png","70","test","","","","","","","","","","","5","","","","","","","","",""
"null","362186","SARL_v6","SARL_v6j8y9h1ud","5fbc1367373b9307763985c0","fixation","","","img/fixation.png","null","","","test","","","","","","","","","","","","","","","","","","","",""
"424.80000000074506","362614","SARL_v6","SARL_v6j8y9h1ud","5fbc1367373b9307763985c0","infreq","","","img/orange_2bandit_b2.png","68","","68","test","1","","103","","","","circle","square","99","10","5","0.9797979797979798","","","","","","","",""
"null","362996","SARL_v6","SARL_v6j8y9h1ud","5fbc1367373b9307763985c0","infreq_resp","","","img/orange_2bandit_b.png","68","img/orange_2bandit_b.png","68","test","","","","","","","","","","","5","","","","","","","","",""
"null","363159","SARL_v6","SARL_v6j8y9h1ud","5fbc1367373b9307763985c0","fixation","","","img/fixation.png","null","","","test","","","","","","","","","","","","","","","","","","","",""
"533.8999999985099","363696","SARL_v6","SARL_v6j8y9h1ud","5fbc1367373b9307763985c0","freq","","","img/blue_2bandit_b2.png","70","","70","test","1","","104","","","","circle","square","100","11","5","0.98","","","","","","","",""
"null","363971","SARL_v6","SARL_v6j8y9h1ud","5fbc1367373b9307763985c0","freq_resp","","","img/blue_2bandit_b.png","70","img/blue_2bandit_b.png","70","test","","","","","","","","","","","5","","","","","","","","",""
"null","364132","SARL_v6","SARL_v6j8y9h1ud","5fbc1367373b9307763985c0","fixation","","","img/fixation.png","null","","","test","","","","","","","","","","","","","","","","","","","",""
"428","364563","SARL_v6","SARL_v6j8y9h1ud","5fbc1367373b9307763985c0","freq","","","img/blue_2bandit_b2.png","70","","70","test","1","","105","","","","circle","square","101","12","5","0.9801980198019802","","","","","","","",""
"null","364944","SARL_v6","SARL_v6j8y9h1ud","5fbc1367373b9307763985c0","freq_resp","","","img/blue_2bandit_b.png","70","img/blue_2bandit_b.png","70","test","","","","","","","","","","","5","","","","","","","","",""
"null","365101","SARL_v6","SARL_v6j8y9h1ud","5fbc1367373b9307763985c0","fixation","","","img/fixation.png","null","","","test","","","","","","","","","","","","","","","","","","","",""
"351.70000000298023","365456","SARL_v6","SARL_v6j8y9h1ud","5fbc1367373b9307763985c0","freq","","","img/blue_2bandit_b2.png","70","","70","test","1","","106","","","","circle","square","102","13","5","0.9803921568627451","","","","","","","",""
"null","365910","SARL_v6","SARL_v6j8y9h1ud","5fbc1367373b9307763985c0","freq_resp","","","img/blue_2bandit_b.png","70","img/blue_2bandit_b.png","70","test","","","","","","","","","","","5","","","","","","","","",""
"null","366072","SARL_v6","SARL_v6j8y9h1ud","5fbc1367373b9307763985c0","fixation","","","img/fixation.png","null","","","test","","","","","","","","","","","","","","","","","","","",""
"332.5","366407","SARL_v6","SARL_v6j8y9h1ud","5fbc1367373b9307763985c0","freq","","","img/blue_2bandit_b2.png","70","","70","test","1","","107","","","","circle","square","103","14","5","0.9805825242718447","","","","","","","",""
"null","366884","SARL_v6","SARL_v6j8y9h1ud","5fbc1367373b9307763985c0","freq_resp","","","img/blue_2bandit_b.png","70","img/blue_2bandit_b.png","70","test","","","","","","","","","","","5","","","","","","","","",""
"null","367046","SARL_v6","SARL_v6j8y9h1ud","5fbc1367373b9307763985c0","fixation","","","img/fixation.png","null","","","test","","","","","","","","","","","","","","","","","","","",""
"368.5","367418","SARL_v6","SARL_v6j8y9h1ud","5fbc1367373b9307763985c0","freq","","","img/blue_2bandit_b2.png","70","","70","test","1","","108","","","","circle","square","104","15","5","0.9807692307692307","","","","","","","",""
"null","367863","SARL_v6","SARL_v6j8y9h1ud","5fbc1367373b9307763985c0","freq_resp","","","img/blue_2bandit_b.png","70","img/blue_2bandit_b.png","70","test","","","","","","","","","","","5","","","","","","","","",""
"null","368024","SARL_v6","SARL_v6j8y9h1ud","5fbc1367373b9307763985c0","fixation","","","img/fixation.png","null","","","test","","","","","","","","","","","","","","","","","","","",""
"354.30000000074506","368383","SARL_v6","SARL_v6j8y9h1ud","5fbc1367373b9307763985c0","freq","","","img/blue_2bandit_b2.png","70","","70","test","1","","109","","","","circle","square","105","16","5","0.9809523809523809","","","","","","","",""
"null","368838","SARL_v6","SARL_v6j8y9h1ud","5fbc1367373b9307763985c0","freq_resp","","","img/blue_2bandit_b.png","70","img/blue_2bandit_b.png","70","test","","","","","","","","","","","5","","","","","","","","",""
"null","369001","SARL_v6","SARL_v6j8y9h1ud","5fbc1367373b9307763985c0","fixation","","","img/fixation.png","null","","","test","","","","","","","","","","","","","","","","","","","",""
"318.30000000074506","369323","SARL_v6","SARL_v6j8y9h1ud","5fbc1367373b9307763985c0","freq","","","img/blue_2bandit_b2.png","70","","70","test","1","","110","","","","circle","square","106","17","5","0.9811320754716981","","","","","","","",""
"null","369815","SARL_v6","SARL_v6j8y9h1ud","5fbc1367373b9307763985c0","freq_resp","","","img/blue_2bandit_b.png","70","img/blue_2bandit_b.png","70","test","","","","","","","","","","","5","","","","","","","","",""
"null","369974","SARL_v6","SARL_v6j8y9h1ud","5fbc1367373b9307763985c0","fixation","","","img/fixation.png","null","","","test","","","","","","","","","","","","","","","","","","","",""
"522.7999999970198","370501","SARL_v6","SARL_v6j8y9h1ud","5fbc1367373b9307763985c0","infreq","","","img/orange_2bandit_b2.png","68","","68","test","1","","111","","","","circle","square","107","18","5","0.9813084112149533","","","","","","","",""
"null","370791","SARL_v6","SARL_v6j8y9h1ud","5fbc1367373b9307763985c0","infreq_resp","","","img/orange_2bandit_b.png","68","img/orange_2bandit_b.png","68","test","","","","","","","","","","","5","","","","","","","","",""
"null","370954","SARL_v6","SARL_v6j8y9h1ud","5fbc1367373b9307763985c0","fixation","","","img/fixation.png","null","","","test","","","","","","","","","","","","","","","","","","","",""
"555","371512","SARL_v6","SARL_v6j8y9h1ud","5fbc1367373b9307763985c0","freq","","","img/blue_2bandit_b2.png","70","","70","test","1","","112","","","","circle","square","108","19","5","0.9814814814814815","","","","","","","",""
"null","371769","SARL_v6","SARL_v6j8y9h1ud","5fbc1367373b9307763985c0","freq_resp","","","img/blue_2bandit_b.png","70","img/blue_2bandit_b.png","70","test","","","","","","","","","","","5","","","","","","","","",""
"null","371928","SARL_v6","SARL_v6j8y9h1ud","5fbc1367373b9307763985c0","fixation","","","img/fixation.png","null","","","test","","","","","","","","","","","","","","","","","","","",""
"409.69999999925494","372341","SARL_v6","SARL_v6j8y9h1ud","5fbc1367373b9307763985c0","freq","","","img/blue_2bandit_b2.png","70","","70","test","1","","113","","","","circle","square","109","20","5","0.981651376146789","","","","","","","",""
"null","372746","SARL_v6","SARL_v6j8y9h1ud","5fbc1367373b9307763985c0","freq_resp","","","img/blue_2bandit_b.png","70","img/blue_2bandit_b.png","70","test","","","","","","","","","","","5","","","","","","","","",""
"null","372904","SARL_v6","SARL_v6j8y9h1ud","5fbc1367373b9307763985c0","fixation","","","img/fixation.png","null","","","test","","","","","","","","","","","","","","","","","","","",""
"332.5999999977648","373240","SARL_v6","SARL_v6j8y9h1ud","5fbc1367373b9307763985c0","freq","","","img/blue_2bandit_b2.png","70","","70","test","1","","114","","","","circle","square","110","21","5","0.9818181818181818","","","","","","","",""
"null","373717","SARL_v6","SARL_v6j8y9h1ud","5fbc1367373b9307763985c0","freq_resp","","","img/blue_2bandit_b.png","70","img/blue_2bandit_b.png","70","test","","","","","","","","","","","5","","","","","","","","",""
"null","373877","SARL_v6","SARL_v6j8y9h1ud","5fbc1367373b9307763985c0","fixation","","","img/fixation.png","null","","","test","","","","","","","","","","","","","","","","","","","",""
"363.1000000014901","374244","SARL_v6","SARL_v6j8y9h1ud","5fbc1367373b9307763985c0","freq","","","img/blue_2bandit_b2.png","70","","70","test","1","","115","","","","circle","square","111","22","5","0.9819819819819819","","","","","","","",""
"null","374685","SARL_v6","SARL_v6j8y9h1ud","5fbc1367373b9307763985c0","freq_resp","","","img/blue_2bandit_b.png","70","img/blue_2bandit_b.png","70","test","","","","","","","","","","","5","","","","","","","","",""
"null","374850","SARL_v6","SARL_v6j8y9h1ud","5fbc1367373b9307763985c0","fixation","","","img/fixation.png","null","","","test","","","","","","","","","","","","","","","","","","","",""
"355.69999999925494","375210","SARL_v6","SARL_v6j8y9h1ud","5fbc1367373b9307763985c0","freq","","","img/blue_2bandit_b2.png","70","","70","test","1","","116","","","","circle","square","112","23","5","0.9821428571428571","","","","","","","",""
"null","375661","SARL_v6","SARL_v6j8y9h1ud","5fbc1367373b9307763985c0","freq_resp","","","img/blue_2bandit_b.png","70","img/blue_2bandit_b.png","70","test","","","","","","","","","","","5","","","","","","","","",""
"null","375825","SARL_v6","SARL_v6j8y9h1ud","5fbc1367373b9307763985c0","fixation","","","img/fixation.png","null","","","test","","","","","","","","","","","","","","","","","","","",""
"672.6999999992549","376501","SARL_v6","SARL_v6j8y9h1ud","5fbc1367373b9307763985c0","rl","","","img/black_2bandit_b2.png","75","","0","test","","","117","","","4","circle","square","","0","5","","75","-7","4","-7","4","square","5","0"
"null","377266","SARL_v6","SARL_v6j8y9h1ud","5fbc1367373b9307763985c0","feedback","","","<div class=""veryhighPoints_sq""> 4 </div>","null","","na","test","","","NaN","","","","","","","","5","","75","","","","","","5",""
"410.1000000014901","377680","SARL_v6","SARL_v6j8y9h1ud","5fbc1367373b9307763985c0","freq","","","img/blue_2bandit_b2.png","70","","70","test","1","","118","","","","circle","square","113","1","6","0.9823008849557522","","","","","","","",""
"null","378081","SARL_v6","SARL_v6j8y9h1ud","5fbc1367373b9307763985c0","freq_resp","","","img/blue_2bandit_b.png","70","img/blue_2bandit_b.png","70","test","","","","","","","","","","","6","","","","","","","","",""
"null","378242","SARL_v6","SARL_v6j8y9h1ud","5fbc1367373b9307763985c0","fixation","","","img/fixation.png","null","","","test","","","","","","","","","","","","","","","","","","","",""
"356.3999999985099","378602","SARL_v6","SARL_v6j8y9h1ud","5fbc1367373b9307763985c0","freq","","","img/blue_2bandit_b2.png","70","","70","test","1","","119","","","","circle","square","114","2","6","0.9824561403508771","","","","","","","",""
"null","379053","SARL_v6","SARL_v6j8y9h1ud","5fbc1367373b9307763985c0","freq_resp","","","img/blue_2bandit_b.png","70","img/blue_2bandit_b.png","70","test","","","","","","","","","","","6","","","","","","","","",""
"null","379216","SARL_v6","SARL_v6j8y9h1ud","5fbc1367373b9307763985c0","fixation","","","img/fixation.png","null","","","test","","","","","","","","","","","","","","","","","","","",""
"307.30000000074506","379526","SARL_v6","SARL_v6j8y9h1ud","5fbc1367373b9307763985c0","freq","","","img/blue_2bandit_b2.png","70","","70","test","1","","120","","","","circle","square","115","3","6","0.9826086956521739","","","","","","","",""
"null","380031","SARL_v6","SARL_v6j8y9h1ud","5fbc1367373b9307763985c0","freq_resp","","","img/blue_2bandit_b.png","70","img/blue_2bandit_b.png","70","test","","","","","","","","","","","6","","","","","","","","",""
"null","380193","SARL_v6","SARL_v6j8y9h1ud","5fbc1367373b9307763985c0","fixation","","","img/fixation.png","null","","","test","","","","","","","","","","","","","","","","","","","",""
"323.3999999985099","380519","SARL_v6","SARL_v6j8y9h1ud","5fbc1367373b9307763985c0","freq","","","img/blue_2bandit_b2.png","70","","70","test","1","","121","","","","circle","square","116","4","6","0.9827586206896551","","","","","","","",""
"null","381009","SARL_v6","SARL_v6j8y9h1ud","5fbc1367373b9307763985c0","freq_resp","","","img/blue_2bandit_b.png","70","img/blue_2bandit_b.png","70","test","","","","","","","","","","","6","","","","","","","","",""
"null","381166","SARL_v6","SARL_v6j8y9h1ud","5fbc1367373b9307763985c0","fixation","","","img/fixation.png","null","","","test","","","","","","","","","","","","","","","","","","","",""
"420.5","381590","SARL_v6","SARL_v6j8y9h1ud","5fbc1367373b9307763985c0","infreq","","","img/orange_2bandit_b2.png","68","","68","test","1","","122","","","","circle","square","117","5","6","0.9829059829059829","","","","","","","",""
"null","381986","SARL_v6","SARL_v6j8y9h1ud","5fbc1367373b9307763985c0","infreq_resp","","","img/orange_2bandit_b.png","68","img/orange_2bandit_b.png","68","test","","","","","","","","","","","6","","","","","","","","",""
"null","382141","SARL_v6","SARL_v6j8y9h1ud","5fbc1367373b9307763985c0","fixation","","","img/fixation.png","null","","","test","","","","","","","","","","","","","","","","","","","",""
"387.79999999701977","382532","SARL_v6","SARL_v6j8y9h1ud","5fbc1367373b9307763985c0","infreq","","","img/orange_2bandit_b2.png","68","","68","test","1","","123","","","","circle","square","118","6","6","0.9830508474576272","","","","","","","",""
"null","382954","SARL_v6","SARL_v6j8y9h1ud","5fbc1367373b9307763985c0","infreq_resp","","","img/orange_2bandit_b.png","68","img/orange_2bandit_b.png","68","test","","","","","","","","","","","6","","","","","","","","",""
"null","383114","SARL_v6","SARL_v6j8y9h1ud","5fbc1367373b9307763985c0","fixation","","","img/fixation.png","null","","","test","","","","","","","","","","","","","","","","","","","",""
"438.1000000014901","383556","SARL_v6","SARL_v6j8y9h1ud","5fbc1367373b9307763985c0","freq","","","img/blue_2bandit_b2.png","70","","70","test","1","","124","","","","circle","square","119","7","6","0.9831932773109243","","","","","","","",""
"null","383930","SARL_v6","SARL_v6j8y9h1ud","5fbc1367373b9307763985c0","freq_resp","","","img/blue_2bandit_b.png","70","img/blue_2bandit_b.png","70","test","","","","","","","","","","","6","","","","","","","","",""
"null","384086","SARL_v6","SARL_v6j8y9h1ud","5fbc1367373b9307763985c0","fixation","","","img/fixation.png","null","","","test","","","","","","","","","","","","","","","","","","","",""
"387.8999999985099","384478","SARL_v6","SARL_v6j8y9h1ud","5fbc1367373b9307763985c0","freq","","","img/blue_2bandit_b2.png","70","","70","test","1","","125","","","","circle","square","120","8","6","0.9833333333333333","","","","","","","",""
"null","384904","SARL_v6","SARL_v6j8y9h1ud","5fbc1367373b9307763985c0","freq_resp","","","img/blue_2bandit_b.png","70","img/blue_2bandit_b.png","70","test","","","","","","","","","","","6","","","","","","","","",""
"null","385065","SARL_v6","SARL_v6j8y9h1ud","5fbc1367373b9307763985c0","fixation","","","img/fixation.png","null","","","test","","","","","","","","","","","","","","","","","","","",""
"377.80000000074506","385447","SARL_v6","SARL_v6j8y9h1ud","5fbc1367373b9307763985c0","freq","","","img/blue_2bandit_b2.png","70","","70","test","1","","126","","","","circle","square","121","9","6","0.9834710743801653","","","","","","","",""
"null","385879","SARL_v6","SARL_v6j8y9h1ud","5fbc1367373b9307763985c0","freq_resp","","","img/blue_2bandit_b.png","70","img/blue_2bandit_b.png","70","test","","","","","","","","","","","6","","","","","","","","",""
"null","386042","SARL_v6","SARL_v6j8y9h1ud","5fbc1367373b9307763985c0","fixation","","","img/fixation.png","null","","","test","","","","","","","","","","","","","","","","","","","",""
"366","386412","SARL_v6","SARL_v6j8y9h1ud","5fbc1367373b9307763985c0","freq","","","img/blue_2bandit_b2.png","70","","70","test","1","","127","","","","circle","square","122","10","6","0.9836065573770492","","","","","","","",""
"null","386858","SARL_v6","SARL_v6j8y9h1ud","5fbc1367373b9307763985c0","freq_resp","","","img/blue_2bandit_b.png","70","img/blue_2bandit_b.png","70","test","","","","","","","","","","","6","","","","","","","","",""
"null","387018","SARL_v6","SARL_v6j8y9h1ud","5fbc1367373b9307763985c0","fixation","","","img/fixation.png","null","","","test","","","","","","","","","","","","","","","","","","","",""
"341.4000000022352","387363","SARL_v6","SARL_v6j8y9h1ud","5fbc1367373b9307763985c0","freq","","","img/blue_2bandit_b2.png","70","","70","test","1","","128","","","","circle","square","123","11","6","0.983739837398374","","","","","","","",""
"null","387830","SARL_v6","SARL_v6j8y9h1ud","5fbc1367373b9307763985c0","freq_resp","","","img/blue_2bandit_b.png","70","img/blue_2bandit_b.png","70","test","","","","","","","","","","","6","","","","","","","","",""
"null","387990","SARL_v6","SARL_v6j8y9h1ud","5fbc1367373b9307763985c0","fixation","","","img/fixation.png","null","","","test","","","","","","","","","","","","","","","","","","","",""
"381.1000000014901","388375","SARL_v6","SARL_v6j8y9h1ud","5fbc1367373b9307763985c0","freq","","","img/blue_2bandit_b2.png","70","","70","test","1","","129","","","","circle","square","124","12","6","0.9838709677419355","","","","","","","",""
"null","388802","SARL_v6","SARL_v6j8y9h1ud","5fbc1367373b9307763985c0","freq_resp","","","img/blue_2bandit_b.png","70","img/blue_2bandit_b.png","70","test","","","","","","","","","","","6","","","","","","","","",""
"null","388962","SARL_v6","SARL_v6j8y9h1ud","5fbc1367373b9307763985c0","fixation","","","img/fixation.png","null","","","test","","","","","","","","","","","","","","","","","","","",""
"324","389290","SARL_v6","SARL_v6j8y9h1ud","5fbc1367373b9307763985c0","freq","","","img/blue_2bandit_b2.png","70","","70","test","1","","130","","","","circle","square","125","13","6","0.984","","","","","","","",""
"null","389774","SARL_v6","SARL_v6j8y9h1ud","5fbc1367373b9307763985c0","freq_resp","","","img/blue_2bandit_b.png","70","img/blue_2bandit_b.png","70","test","","","","","","","","","","","6","","","","","","","","",""
"null","389937","SARL_v6","SARL_v6j8y9h1ud","5fbc1367373b9307763985c0","fixation","","","img/fixation.png","null","","","test","","","","","","","","","","","","","","","","","","","",""
