"rt","time_elapsed","expId","subject","prolificID","trialType","rlType","attType","stimulus","key_press","stim","corrresp","phase","corr","pracCounter","trialNum","rewardOne","rewardTwo","reward","bandOne","bandTwo","attentionNum","attentionRunNum","blockNum","performance","bandChosen","circleVal","squareVal","bandOneVal","bandTwoVal","shapeChosen","rlNum","badFlag"
"11501.5","11504","SARL_v6","SARL_v6fyr7mr07","581d38509b5b8800014d507e","","","","","","","","","","","","","","","","","","","","","","","","","","","",""
"","13793","SARL_v6","SARL_v6fyr7mr07","581d38509b5b8800014d507e","fullscreen","fullscreen","fullscreen","","","","","","","","","","","","","","","","","","","","","","","","",""
"33646.89999997616","47441","SARL_v6","SARL_v6fyr7mr07","581d38509b5b8800014d507e","","","","","","","","","","","","","","","","","","","","","","","","","","","",""
"null","48250","SARL_v6","SARL_v6fyr7mr07","581d38509b5b8800014d507e","freqPrac","","","img/blue_2bandit_b2.png","null","img/blue_2bandit_b2.png","70","prac","0","1","","","","","","","","","","","","","","","","","",""
"null","49257","SARL_v6","SARL_v6fyr7mr07","581d38509b5b8800014d507e","feedback","","","img/tooSlow.png","null","","na","prac","","","","","","","","","","","","","","","","","","","",""
"null","49411","SARL_v6","SARL_v6fyr7mr07","581d38509b5b8800014d507e","fixation","","","img/fixation.png","null","","","prac","","","","","","","","","","","","","","","","","","","",""
"475.39999997615814","49888","SARL_v6","SARL_v6fyr7mr07","581d38509b5b8800014d507e","infreqPrac","","","img/orange_2bandit_b2.png","68","img/orange_2bandit_b2.png","68","prac","1","1","","","","","","","","","","","","","","","","","",""
"475.39999997615814","50214","SARL_v6","SARL_v6fyr7mr07","581d38509b5b8800014d507e","infreqPrac_resp","","","img/orange_2bandit_b.png","68","img/orange_2bandit_b.png","68","prac","","","","","","","","","","","","","","","","","","","",""
"null","50369","SARL_v6","SARL_v6fyr7mr07","581d38509b5b8800014d507e","fixation","","","img/fixation.png","null","","","prac","","","","","","","","","","","","","","","","","","","",""
"510.2999999523163","50881","SARL_v6","SARL_v6fyr7mr07","581d38509b5b8800014d507e","freqPrac","","","img/blue_2bandit_b2.png","70","img/blue_2bandit_b2.png","70","prac","1","1","","","","","","","","","","","","","","","","","",""
"510.2999999523163","51175","SARL_v6","SARL_v6fyr7mr07","581d38509b5b8800014d507e","freqPrac_resp","","","img/blue_2bandit_b.png","70","img/blue_2bandit_b.png","70","prac","","","","","","","","","","","","","","","","","","","",""
"null","51330","SARL_v6","SARL_v6fyr7mr07","581d38509b5b8800014d507e","fixation","","","img/fixation.png","null","","","prac","","","","","","","","","","","","","","","","","","","",""
"497.1999999284744","51829","SARL_v6","SARL_v6fyr7mr07","581d38509b5b8800014d507e","infreqPrac","","","img/orange_2bandit_b2.png","68","img/orange_2bandit_b2.png","68","prac","1","1","","","","","","","","","","","","","","","","","",""
"497.1999999284744","52137","SARL_v6","SARL_v6fyr7mr07","581d38509b5b8800014d507e","infreqPrac_resp","","","img/orange_2bandit_b.png","68","img/orange_2bandit_b.png","68","prac","","","","","","","","","","","","","","","","","","","",""
"null","52292","SARL_v6","SARL_v6fyr7mr07","581d38509b5b8800014d507e","fixation","","","img/fixation.png","null","","","prac","","","","","","","","","","","","","","","","","","","",""
"431.5","52725","SARL_v6","SARL_v6fyr7mr07","581d38509b5b8800014d507e","infreqPrac","","","img/orange_2bandit_b2.png","68","img/orange_2bandit_b2.png","68","prac","1","1","","","","","","","","","","","","","","","","","",""
"431.5","53099","SARL_v6","SARL_v6fyr7mr07","581d38509b5b8800014d507e","infreqPrac_resp","","","img/orange_2bandit_b.png","68","img/orange_2bandit_b.png","68","prac","","","","","","","","","","","","","","","","","","","",""
"null","53255","SARL_v6","SARL_v6fyr7mr07","581d38509b5b8800014d507e","fixation","","","img/fixation.png","null","","","prac","","","","","","","","","","","","","","","","","","","",""
"375.7000000476837","53632","SARL_v6","SARL_v6fyr7mr07","581d38509b5b8800014d507e","infreqPrac","","","img/orange_2bandit_b2.png","68","img/orange_2bandit_b2.png","68","prac","1","1","","","","","","","","","","","","","","","","","",""
"375.7000000476837","54061","SARL_v6","SARL_v6fyr7mr07","581d38509b5b8800014d507e","infreqPrac_resp","","","img/orange_2bandit_b.png","68","img/orange_2bandit_b.png","68","prac","","","","","","","","","","","","","","","","","","","",""
"null","54216","SARL_v6","SARL_v6fyr7mr07","581d38509b5b8800014d507e","fixation","","","img/fixation.png","null","","","prac","","","","","","","","","","","","","","","","","","","",""
"453.7999999523163","54671","SARL_v6","SARL_v6fyr7mr07","581d38509b5b8800014d507e","freqPrac","","","img/blue_2bandit_b2.png","70","img/blue_2bandit_b2.png","70","prac","1","1","","","","","","","","","","","","","","","","","",""
"453.7999999523163","55021","SARL_v6","SARL_v6fyr7mr07","581d38509b5b8800014d507e","freqPrac_resp","","","img/blue_2bandit_b.png","70","img/blue_2bandit_b.png","70","prac","","","","","","","","","","","","","","","","","","","",""
"null","55175","SARL_v6","SARL_v6fyr7mr07","581d38509b5b8800014d507e","fixation","","","img/fixation.png","null","","","prac","","","","","","","","","","","","","","","","","","","",""
"572.8999999761581","55750","SARL_v6","SARL_v6fyr7mr07","581d38509b5b8800014d507e","infreqPrac","","","img/orange_2bandit_b2.png","68","img/orange_2bandit_b2.png","68","prac","1","1","","","","","","","","","","","","","","","","","",""
"572.8999999761581","55979","SARL_v6","SARL_v6fyr7mr07","581d38509b5b8800014d507e","infreqPrac_resp","","","img/orange_2bandit_b.png","68","img/orange_2bandit_b.png","68","prac","","","","","","","","","","","","","","","","","","","",""
"null","56132","SARL_v6","SARL_v6fyr7mr07","581d38509b5b8800014d507e","fixation","","","img/fixation.png","null","","","prac","","","","","","","","","","","","","","","","","","","",""
"547.7999999523163","56681","SARL_v6","SARL_v6fyr7mr07","581d38509b5b8800014d507e","freqPrac","","","img/blue_2bandit_b2.png","70","img/blue_2bandit_b2.png","70","prac","1","1","","","","","","","","","","","","","","","","","",""
"547.7999999523163","56936","SARL_v6","SARL_v6fyr7mr07","581d38509b5b8800014d507e","freqPrac_resp","","","img/blue_2bandit_b.png","70","img/blue_2bandit_b.png","70","prac","","","","","","","","","","","","","","","","","","","",""
"null","57090","SARL_v6","SARL_v6fyr7mr07","581d38509b5b8800014d507e","fixation","","","img/fixation.png","null","","","prac","","","","","","","","","","","","","","","","","","","",""
"512.6999999284744","57604","SARL_v6","SARL_v6fyr7mr07","581d38509b5b8800014d507e","freqPrac","","","img/blue_2bandit_b2.png","70","img/blue_2bandit_b2.png","70","prac","1","1","","","","","","","","","","","","","","","","","",""
"512.6999999284744","57896","SARL_v6","SARL_v6fyr7mr07","581d38509b5b8800014d507e","freqPrac_resp","","","img/blue_2bandit_b.png","70","img/blue_2bandit_b.png","70","prac","","","","","","","","","","","","","","","","","","","",""
"null","58050","SARL_v6","SARL_v6fyr7mr07","581d38509b5b8800014d507e","fixation","","","img/fixation.png","null","","","prac","","","","","","","","","","","","","","","","","","","",""
"17447.200000047684","75498","SARL_v6","SARL_v6fyr7mr07","581d38509b5b8800014d507e","","","","","","","","prac","","","","","","","","","","","","","","","","","","","",""
"736.6999999284744","76236","SARL_v6","SARL_v6fyr7mr07","581d38509b5b8800014d507e","rlPractice","","","img/black_2bandit_b2.png","75","img/black_2bandit_b2.png","","prac","","","0","","","","","","","","","","","","","","","","",""
"null","76993","SARL_v6","SARL_v6fyr7mr07","581d38509b5b8800014d507e","feedback","","","<div class=""verylowPoints_sq""> -14 </div>","null","","na","prac","","","1","10","-14","10","","","","","","","","","","","","","",""
"null","77148","SARL_v6","SARL_v6fyr7mr07","581d38509b5b8800014d507e","fixation","","","img/fixation.png","null","","","prac","","","","","","","","","","","","","","","","","","","",""
"502.89999997615814","77652","SARL_v6","SARL_v6fyr7mr07","581d38509b5b8800014d507e","rlPractice","","","img/black_2bandit_b2.png","74","img/black_2bandit_b2.png","","prac","","","1","","","","","","","","","","","","","","","","",""
"null","78418","SARL_v6","SARL_v6fyr7mr07","581d38509b5b8800014d507e","feedback","","","<div class=""veryhighPoints""> 5 </div>","null","","na","prac","","","2","5","-5","5","","","","","","","","","","","","","",""
"null","78573","SARL_v6","SARL_v6fyr7mr07","581d38509b5b8800014d507e","fixation","","","img/fixation.png","null","","","prac","","","","","","","","","","","","","","","","","","","",""
"519.3999999761581","79094","SARL_v6","SARL_v6fyr7mr07","581d38509b5b8800014d507e","rlPractice","","","img/black_2bandit_b2.png","74","img/black_2bandit_b2.png","","prac","","","2","","","","","","","","","","","","","","","","",""
"null","79861","SARL_v6","SARL_v6fyr7mr07","581d38509b5b8800014d507e","feedback","","","<div class=""veryhighPoints""> 30 </div>","null","","na","prac","","","3","30","2","30","","","","","","","","","","","","","",""
"null","80016","SARL_v6","SARL_v6fyr7mr07","581d38509b5b8800014d507e","fixation","","","img/fixation.png","null","","","prac","","","","","","","","","","","","","","","","","","","",""
"380.2000000476837","80397","SARL_v6","SARL_v6fyr7mr07","581d38509b5b8800014d507e","rlPractice","","","img/black_2bandit_b2.png","74","img/black_2bandit_b2.png","","prac","","","3","","","","","","","","","","","","","","","","",""
"null","81160","SARL_v6","SARL_v6fyr7mr07","581d38509b5b8800014d507e","feedback","","","<div class=""verylowPoints""> -2 </div>","null","","na","prac","","","4","-2","20","-2","","","","","","","","","","","","","",""
"null","81316","SARL_v6","SARL_v6fyr7mr07","581d38509b5b8800014d507e","fixation","","","img/fixation.png","null","","","prac","","","","","","","","","","","","","","","","","","","",""
"7341.599999904633","88659","SARL_v6","SARL_v6fyr7mr07","581d38509b5b8800014d507e","","","","","","","","prac","","","","","","","","","","","","","","","","","","","",""
"770.1000000238419","89430","SARL_v6","SARL_v6fyr7mr07","581d38509b5b8800014d507e","mixAttFreqPrac","","","img/blue_2bandit_b2.png","70","img/blue_2bandit_b2.png","70","prac","","","1","","","","","","","","","","","","","","","","",""
"770.1000000238419","89468","SARL_v6","SARL_v6fyr7mr07","581d38509b5b8800014d507e","freqPrac_resp","","","img/blue_2bandit_b.png","70","img/blue_2bandit_b.png","70","prac","","","1","","","","","","","","","","","","","","","","",""
"null","89622","SARL_v6","SARL_v6fyr7mr07","581d38509b5b8800014d507e","fixation","","","img/fixation.png","null","","","prac","","","","","","","","","","","","","","","","","","","",""
"579.8999999761581","90203","SARL_v6","SARL_v6fyr7mr07","581d38509b5b8800014d507e","mixAttInfreqPrac","","","img/orange_2bandit_b2.png","68","img/orange_2bandit_b2.png","68","prac","","","2","","","","","","","","","","","","","","","","",""
"579.8999999761581","90441","SARL_v6","SARL_v6fyr7mr07","581d38509b5b8800014d507e","infreqPrac_resp","","","img/orange_2bandit_b.png","68","img/blue_2bandit_b.png","68","prac","","","2","","","","","","","","","","","","","","","","",""
"null","90595","SARL_v6","SARL_v6fyr7mr07","581d38509b5b8800014d507e","fixation","","","img/fixation.png","null","","","prac","","","","","","","","","","","","","","","","","","","",""
"491.39999997615814","91088","SARL_v6","SARL_v6fyr7mr07","581d38509b5b8800014d507e","mixAttInfreqPrac","","","img/orange_2bandit_b2.png","68","img/orange_2bandit_b2.png","68","prac","","","3","","","","","","","","","","","","","","","","",""
"491.39999997615814","91401","SARL_v6","SARL_v6fyr7mr07","581d38509b5b8800014d507e","infreqPrac_resp","","","img/orange_2bandit_b.png","68","img/blue_2bandit_b.png","68","prac","","","3","","","","","","","","","","","","","","","","",""
"null","91555","SARL_v6","SARL_v6fyr7mr07","581d38509b5b8800014d507e","fixation","","","img/fixation.png","null","","","prac","","","","","","","","","","","","","","","","","","","",""
"404.89999997615814","91961","SARL_v6","SARL_v6fyr7mr07","581d38509b5b8800014d507e","mixAttInfreqPrac","","","img/orange_2bandit_b2.png","68","img/orange_2bandit_b2.png","68","prac","","","4","","","","","","","","","","","","","","","","",""
"404.89999997615814","92363","SARL_v6","SARL_v6fyr7mr07","581d38509b5b8800014d507e","infreqPrac_resp","","","img/orange_2bandit_b.png","68","img/blue_2bandit_b.png","68","prac","","","4","","","","","","","","","","","","","","","","",""
"null","92518","SARL_v6","SARL_v6fyr7mr07","581d38509b5b8800014d507e","fixation","","","img/fixation.png","null","","","prac","","","","","","","","","","","","","","","","","","","",""
"376","92895","SARL_v6","SARL_v6fyr7mr07","581d38509b5b8800014d507e","mixAttFreqPrac","","","img/blue_2bandit_b2.png","68","img/blue_2bandit_b2.png","70","prac","","","5","","","","","","","","","","","","","","","","",""
"376","93323","SARL_v6","SARL_v6fyr7mr07","581d38509b5b8800014d507e","freqPrac_resp","","","img/blue_2bandit_b.png","68","img/blue_2bandit_b.png","70","prac","","","5","","","","","","","","","","","","","","","","",""
"null","93476","SARL_v6","SARL_v6fyr7mr07","581d38509b5b8800014d507e","fixation","","","img/fixation.png","null","","","prac","","","","","","","","","","","","","","","","","","","",""
"688.5","94166","SARL_v6","SARL_v6fyr7mr07","581d38509b5b8800014d507e","mixRLPractice","","","img/black_2bandit_b2.png","75","img/black_2bandit_b2.png","","prac","","","5","","","","","","","","","","","","","","","","",""
"null","94928","SARL_v6","SARL_v6fyr7mr07","581d38509b5b8800014d507e","feedback","","","<div class=""veryhighPoints_sq""> 10 </div>","null","","na","prac","","","6","-14","10","-14","","","","","","","","","","","","","",""
"null","95083","SARL_v6","SARL_v6fyr7mr07","581d38509b5b8800014d507e","fixation","","","img/fixation.png","null","","","prac","","","","","","","","","","","","","","","","","","","",""
"null","95886","SARL_v6","SARL_v6fyr7mr07","581d38509b5b8800014d507e","mixAttFreqPrac","","","img/blue_2bandit_b2.png","null","img/blue_2bandit_b2.png","70","prac","","","7","","","","","","","","","","","","","","","","",""
"14.399999976158142","96043","SARL_v6","SARL_v6fyr7mr07","581d38509b5b8800014d507e","fixation","","","img/fixation.png","70","","","prac","","","","","","","","","","","","","","","","","","","",""
"null","96846","SARL_v6","SARL_v6fyr7mr07","581d38509b5b8800014d507e","mixAttInfreqPrac","","","img/orange_2bandit_b2.png","null","img/orange_2bandit_b2.png","68","prac","","","8","","","","","","","","","","","","","","","","",""
"53.799999952316284","97001","SARL_v6","SARL_v6fyr7mr07","581d38509b5b8800014d507e","fixation","","","img/fixation.png","68","","","prac","","","","","","","","","","","","","","","","","","","",""
"765.1000000238419","97767","SARL_v6","SARL_v6fyr7mr07","581d38509b5b8800014d507e","mixAttFreqPrac","","","img/blue_2bandit_b2.png","70","img/blue_2bandit_b2.png","70","prac","","","9","","","","","","","","","","","","","","","","",""
"765.1000000238419","97805","SARL_v6","SARL_v6fyr7mr07","581d38509b5b8800014d507e","freqPrac_resp","","","img/blue_2bandit_b.png","70","img/blue_2bandit_b.png","70","prac","","","9","","","","","","","","","","","","","","","","",""
"null","97966","SARL_v6","SARL_v6fyr7mr07","581d38509b5b8800014d507e","fixation","","","img/fixation.png","null","","","prac","","","","","","","","","","","","","","","","","","","",""
"695.3000000715256","98662","SARL_v6","SARL_v6fyr7mr07","581d38509b5b8800014d507e","mixAttFreqPrac","","","img/blue_2bandit_b2.png","70","img/blue_2bandit_b2.png","70","prac","","","10","","","","","","","","","","","","","","","","",""
"695.3000000715256","98780","SARL_v6","SARL_v6fyr7mr07","581d38509b5b8800014d507e","freqPrac_resp","","","img/blue_2bandit_b.png","70","img/blue_2bandit_b.png","70","prac","","","10","","","","","","","","","","","","","","","","",""
"null","98935","SARL_v6","SARL_v6fyr7mr07","581d38509b5b8800014d507e","fixation","","","img/fixation.png","null","","","prac","","","","","","","","","","","","","","","","","","","",""
"550.5","99486","SARL_v6","SARL_v6fyr7mr07","581d38509b5b8800014d507e","mixAttInfreqPrac","","","img/orange_2bandit_b2.png","68","img/orange_2bandit_b2.png","68","prac","","","11","","","","","","","","","","","","","","","","",""
"550.5","99740","SARL_v6","SARL_v6fyr7mr07","581d38509b5b8800014d507e","infreqPrac_resp","","","img/orange_2bandit_b.png","68","img/blue_2bandit_b.png","68","prac","","","11","","","","","","","","","","","","","","","","",""
"null","99894","SARL_v6","SARL_v6fyr7mr07","581d38509b5b8800014d507e","fixation","","","img/fixation.png","null","","","prac","","","","","","","","","","","","","","","","","","","",""
"624.1999999284744","100519","SARL_v6","SARL_v6fyr7mr07","581d38509b5b8800014d507e","mixRLPractice","","","img/black_2bandit_b2.png","74","img/black_2bandit_b2.png","","prac","","","11","","","","","","","","","","","","","","","","",""
"null","101272","SARL_v6","SARL_v6fyr7mr07","581d38509b5b8800014d507e","feedback","","","<div class=""veryhighPoints""> 5 </div>","null","","na","prac","","","12","5","-5","5","","","","","","","","","","","","","",""
"null","101427","SARL_v6","SARL_v6fyr7mr07","581d38509b5b8800014d507e","fixation","","","img/fixation.png","null","","","prac","","","","","","","","","","","","","","","","","","","",""
"304563.39999997616","405991","SARL_v6","SARL_v6fyr7mr07","581d38509b5b8800014d507e","","","","","","","","prac","","","","","","","","","","","","","","","","","","","",""
"null","406799","SARL_v6","SARL_v6fyr7mr07","581d38509b5b8800014d507e","freq","","","img/blue_2bandit_b2.png","null","","70","test","0","","1","","","","circle","square","1","1","1","0","","","","","","","",""
"null","406953","SARL_v6","SARL_v6fyr7mr07","581d38509b5b8800014d507e","fixation","","","img/fixation.png","null","","","test","","","","","","","","","","","","","","","","","","","",""
"473.10000002384186","407428","SARL_v6","SARL_v6fyr7mr07","581d38509b5b8800014d507e","freq","","","img/blue_2bandit_b2.png","70","","70","test","1","","2","","","","circle","square","2","2","1","0.5","","","","","","","",""
"null","407756","SARL_v6","SARL_v6fyr7mr07","581d38509b5b8800014d507e","freq_resp","","","img/blue_2bandit_b.png","70","img/blue_2bandit_b.png","70","test","","","","","","","","","","","1","","","","","","","","",""
"null","407909","SARL_v6","SARL_v6fyr7mr07","581d38509b5b8800014d507e","fixation","","","img/fixation.png","null","","","test","","","","","","","","","","","","","","","","","","","",""
"398.5","408309","SARL_v6","SARL_v6fyr7mr07","581d38509b5b8800014d507e","freq","","","img/blue_2bandit_b2.png","70","","70","test","1","","3","","","","circle","square","3","3","1","0.6666666666666666","","","","","","","",""
"null","408742","SARL_v6","SARL_v6fyr7mr07","581d38509b5b8800014d507e","freq_resp","","","img/blue_2bandit_b.png","70","img/blue_2bandit_b.png","70","test","","","","","","","","","","","1","","","","","","","","",""
"null","408912","SARL_v6","SARL_v6fyr7mr07","581d38509b5b8800014d507e","fixation","","","img/fixation.png","null","","","test","","","","","","","","","","","","","","","","","","","",""
"331.2000000476837","409245","SARL_v6","SARL_v6fyr7mr07","581d38509b5b8800014d507e","freq","","","img/blue_2bandit_b2.png","70","","70","test","1","","4","","","","circle","square","4","4","1","0.75","","","","","","","",""
"null","409731","SARL_v6","SARL_v6fyr7mr07","581d38509b5b8800014d507e","freq_resp","","","img/blue_2bandit_b.png","70","img/blue_2bandit_b.png","70","test","","","","","","","","","","","1","","","","","","","","",""
"null","409886","SARL_v6","SARL_v6fyr7mr07","581d38509b5b8800014d507e","fixation","","","img/fixation.png","null","","","test","","","","","","","","","","","","","","","","","","","",""
"393.90000009536743","410281","SARL_v6","SARL_v6fyr7mr07","581d38509b5b8800014d507e","infreq","","","img/orange_2bandit_b2.png","68","","68","test","1","","5","","","","circle","square","5","5","1","0.8","","","","","","","",""
"null","410690","SARL_v6","SARL_v6fyr7mr07","581d38509b5b8800014d507e","infreq_resp","","","img/orange_2bandit_b.png","68","img/orange_2bandit_b.png","68","test","","","","","","","","","","","1","","","","","","","","",""
"null","410845","SARL_v6","SARL_v6fyr7mr07","581d38509b5b8800014d507e","fixation","","","img/fixation.png","null","","","test","","","","","","","","","","","","","","","","","","","",""
"453.8000000715256","411300","SARL_v6","SARL_v6fyr7mr07","581d38509b5b8800014d507e","freq","","","img/blue_2bandit_b2.png","70","","70","test","1","","6","","","","circle","square","6","6","1","0.8333333333333334","","","","","","","",""
"null","411661","SARL_v6","SARL_v6fyr7mr07","581d38509b5b8800014d507e","freq_resp","","","img/blue_2bandit_b.png","70","img/blue_2bandit_b.png","70","test","","","","","","","","","","","1","","","","","","","","",""
"null","411815","SARL_v6","SARL_v6fyr7mr07","581d38509b5b8800014d507e","fixation","","","img/fixation.png","null","","","test","","","","","","","","","","","","","","","","","","","",""
"432.2999999523163","412249","SARL_v6","SARL_v6fyr7mr07","581d38509b5b8800014d507e","freq","","","img/blue_2bandit_b2.png","70","","70","test","1","","7","","","","circle","square","7","7","1","0.8571428571428571","","","","","","","",""
"null","412630","SARL_v6","SARL_v6fyr7mr07","581d38509b5b8800014d507e","freq_resp","","","img/blue_2bandit_b.png","70","img/blue_2bandit_b.png","70","test","","","","","","","","","","","1","","","","","","","","",""
"null","412785","SARL_v6","SARL_v6fyr7mr07","581d38509b5b8800014d507e","fixation","","","img/fixation.png","null","","","test","","","","","","","","","","","","","","","","","","","",""
"335.5","413121","SARL_v6","SARL_v6fyr7mr07","581d38509b5b8800014d507e","freq","","","img/blue_2bandit_b2.png","70","","70","test","1","","8","","","","circle","square","8","8","1","0.875","","","","","","","",""
"null","413600","SARL_v6","SARL_v6fyr7mr07","581d38509b5b8800014d507e","freq_resp","","","img/blue_2bandit_b.png","70","img/blue_2bandit_b.png","70","test","","","","","","","","","","","1","","","","","","","","",""
"null","413754","SARL_v6","SARL_v6fyr7mr07","581d38509b5b8800014d507e","fixation","","","img/fixation.png","null","","","test","","","","","","","","","","","","","","","","","","","",""
"333.60000002384186","414089","SARL_v6","SARL_v6fyr7mr07","581d38509b5b8800014d507e","freq","","","img/blue_2bandit_b2.png","70","","70","test","1","","9","","","","circle","square","9","9","1","0.8888888888888888","","","","","","","",""
"null","414585","SARL_v6","SARL_v6fyr7mr07","581d38509b5b8800014d507e","freq_resp","","","img/blue_2bandit_b.png","70","img/blue_2bandit_b.png","70","test","","","","","","","","","","","1","","","","","","","","",""
"null","414770","SARL_v6","SARL_v6fyr7mr07","581d38509b5b8800014d507e","fixation","","","img/fixation.png","null","","","test","","","","","","","","","","","","","","","","","","","",""
"289.10000002384186","415060","SARL_v6","SARL_v6fyr7mr07","581d38509b5b8800014d507e","freq","","","img/blue_2bandit_b2.png","70","","70","test","1","","10","","","","circle","square","10","10","1","0.9","","","","","","","",""
"null","415572","SARL_v6","SARL_v6fyr7mr07","581d38509b5b8800014d507e","freq_resp","","","img/blue_2bandit_b.png","70","img/blue_2bandit_b.png","70","test","","","","","","","","","","","1","","","","","","","","",""
"null","415726","SARL_v6","SARL_v6fyr7mr07","581d38509b5b8800014d507e","fixation","","","img/fixation.png","null","","","test","","","","","","","","","","","","","","","","","","","",""
"282.5","416010","SARL_v6","SARL_v6fyr7mr07","581d38509b5b8800014d507e","freq","","","img/blue_2bandit_b2.png","70","","70","test","1","","11","","","","circle","square","11","11","1","0.9090909090909091","","","","","","","",""
"null","416540","SARL_v6","SARL_v6fyr7mr07","581d38509b5b8800014d507e","freq_resp","","","img/blue_2bandit_b.png","70","img/blue_2bandit_b.png","70","test","","","","","","","","","","","1","","","","","","","","",""
"null","416696","SARL_v6","SARL_v6fyr7mr07","581d38509b5b8800014d507e","fixation","","","img/fixation.png","null","","","test","","","","","","","","","","","","","","","","","","","",""
"430.89999997615814","417128","SARL_v6","SARL_v6fyr7mr07","581d38509b5b8800014d507e","freq","","","img/blue_2bandit_b2.png","70","","70","test","1","","12","","","","circle","square","12","12","1","0.9166666666666666","","","","","","","",""
"null","417500","SARL_v6","SARL_v6fyr7mr07","581d38509b5b8800014d507e","freq_resp","","","img/blue_2bandit_b.png","70","img/blue_2bandit_b.png","70","test","","","","","","","","","","","1","","","","","","","","",""
"null","417653","SARL_v6","SARL_v6fyr7mr07","581d38509b5b8800014d507e","fixation","","","img/fixation.png","null","","","test","","","","","","","","","","","","","","","","","","","",""
"329.90000009536743","417984","SARL_v6","SARL_v6fyr7mr07","581d38509b5b8800014d507e","freq","","","img/blue_2bandit_b2.png","70","","70","test","1","","13","","","","circle","square","13","13","1","0.9230769230769231","","","","","","","",""
"null","418468","SARL_v6","SARL_v6fyr7mr07","581d38509b5b8800014d507e","freq_resp","","","img/blue_2bandit_b.png","70","img/blue_2bandit_b.png","70","test","","","","","","","","","","","1","","","","","","","","",""
"null","418622","SARL_v6","SARL_v6fyr7mr07","581d38509b5b8800014d507e","fixation","","","img/fixation.png","null","","","test","","","","","","","","","","","","","","","","","","","",""
"250.60000002384186","418874","SARL_v6","SARL_v6fyr7mr07","581d38509b5b8800014d507e","freq","","","img/blue_2bandit_b2.png","70","","70","test","1","","14","","","","circle","square","14","14","1","0.9285714285714286","","","","","","","",""
"null","419439","SARL_v6","SARL_v6fyr7mr07","581d38509b5b8800014d507e","freq_resp","","","img/blue_2bandit_b.png","70","img/blue_2bandit_b.png","70","test","","","","","","","","","","","1","","","","","","","","",""
"null","419593","SARL_v6","SARL_v6fyr7mr07","581d38509b5b8800014d507e","fixation","","","img/fixation.png","null","","","test","","","","","","","","","","","","","","","","","","","",""
"103.79999995231628","419698","SARL_v6","SARL_v6fyr7mr07","581d38509b5b8800014d507e","freq","","","img/blue_2bandit_b2.png","70","","70","test","1","","15","","","","circle","square","15","15","1","0.9333333333333333","","","","","","","",""
"null","420409","SARL_v6","SARL_v6fyr7mr07","581d38509b5b8800014d507e","freq_resp","","","img/blue_2bandit_b.png","70","img/blue_2bandit_b.png","70","test","","","","","","","","","","","1","","","","","","","","",""
"null","420592","SARL_v6","SARL_v6fyr7mr07","581d38509b5b8800014d507e","fixation","","","img/fixation.png","null","","","test","","","","","","","","","","","","","","","","","","","",""
"37.10000002384186","420631","SARL_v6","SARL_v6fyr7mr07","581d38509b5b8800014d507e","freq","","","img/blue_2bandit_b2.png","70","","70","test","1","","16","","","","circle","square","16","16","1","0.9375","","","","","","","",""
"null","421397","SARL_v6","SARL_v6fyr7mr07","581d38509b5b8800014d507e","freq_resp","","","img/blue_2bandit_b.png","70","img/blue_2bandit_b.png","70","test","","","","","","","","","","","1","","","","","","","","",""
"null","421550","SARL_v6","SARL_v6fyr7mr07","581d38509b5b8800014d507e","fixation","","","img/fixation.png","null","","","test","","","","","","","","","","","","","","","","","","","",""
"100.60000002384186","421652","SARL_v6","SARL_v6fyr7mr07","581d38509b5b8800014d507e","infreq","","","img/orange_2bandit_b2.png","70","","68","test","0","","17","","","","circle","square","17","17","1","0.8823529411764706","","","","","","","",""
"null","422368","SARL_v6","SARL_v6fyr7mr07","581d38509b5b8800014d507e","infreq_resp","","","img/orange_2bandit_b.png","70","img/orange_2bandit_b.png","68","test","","","","","","","","","","","1","","","","","","","","",""
"null","422521","SARL_v6","SARL_v6fyr7mr07","581d38509b5b8800014d507e","fixation","","","img/fixation.png","null","","","test","","","","","","","","","","","","","","","","","","","",""
"497.89999997615814","423021","SARL_v6","SARL_v6fyr7mr07","581d38509b5b8800014d507e","freq","","","img/blue_2bandit_b2.png","70","","70","test","1","","18","","","","circle","square","18","18","1","0.8888888888888888","","","","","","","",""
"null","423339","SARL_v6","SARL_v6fyr7mr07","581d38509b5b8800014d507e","freq_resp","","","img/blue_2bandit_b.png","70","img/blue_2bandit_b.png","70","test","","","","","","","","","","","1","","","","","","","","",""
"null","423494","SARL_v6","SARL_v6fyr7mr07","581d38509b5b8800014d507e","fixation","","","img/fixation.png","null","","","test","","","","","","","","","","","","","","","","","","","",""
"488.60000002384186","423984","SARL_v6","SARL_v6fyr7mr07","581d38509b5b8800014d507e","freq","","","img/blue_2bandit_b2.png","68","","70","test","0","","19","","","","circle","square","19","19","1","0.8421052631578947","","","","","","","",""
"null","424311","SARL_v6","SARL_v6fyr7mr07","581d38509b5b8800014d507e","freq_resp","","","img/blue_2bandit_b.png","68","img/blue_2bandit_b.png","70","test","","","","","","","","","","","1","","","","","","","","",""
"null","424467","SARL_v6","SARL_v6fyr7mr07","581d38509b5b8800014d507e","fixation","","","img/fixation.png","null","","","test","","","","","","","","","","","","","","","","","","","",""
"968.7999999523163","425437","SARL_v6","SARL_v6fyr7mr07","581d38509b5b8800014d507e","rl","","","img/black_2bandit_b2.png","74","","0","test","","","20","","","-3","circle","square","","0","1","","74","-3","-3","-3","-3","circle","1","0"
"null","426197","SARL_v6","SARL_v6fyr7mr07","581d38509b5b8800014d507e","feedback","","","<div class=""verylowPoints""> -3 </div>","null","","na","test","","","NaN","","","","","","","","1","","74","","","","","","1",""
"544.8999999761581","426743","SARL_v6","SARL_v6fyr7mr07","581d38509b5b8800014d507e","freq","","","img/blue_2bandit_b2.png","70","","70","test","1","","21","","","","circle","square","20","1","2","0.85","","","","","","","",""
"null","427003","SARL_v6","SARL_v6fyr7mr07","581d38509b5b8800014d507e","freq_resp","","","img/blue_2bandit_b.png","70","img/blue_2bandit_b.png","70","test","","","","","","","","","","","2","","","","","","","","",""
"null","427158","SARL_v6","SARL_v6fyr7mr07","581d38509b5b8800014d507e","fixation","","","img/fixation.png","null","","","test","","","","","","","","","","","","","","","","","","","",""
"396.8000000715256","427556","SARL_v6","SARL_v6fyr7mr07","581d38509b5b8800014d507e","freq","","","img/blue_2bandit_b2.png","70","","70","test","1","","22","","","","circle","square","21","2","2","0.8571428571428571","","","","","","","",""
"null","427976","SARL_v6","SARL_v6fyr7mr07","581d38509b5b8800014d507e","freq_resp","","","img/blue_2bandit_b.png","70","img/blue_2bandit_b.png","70","test","","","","","","","","","","","2","","","","","","","","",""
"null","428128","SARL_v6","SARL_v6fyr7mr07","581d38509b5b8800014d507e","fixation","","","img/fixation.png","null","","","test","","","","","","","","","","","","","","","","","","","",""
"284.10000002384186","428414","SARL_v6","SARL_v6fyr7mr07","581d38509b5b8800014d507e","freq","","","img/blue_2bandit_b2.png","70","","70","test","1","","23","","","","circle","square","22","3","2","0.8636363636363636","","","","","","","",""
"null","428932","SARL_v6","SARL_v6fyr7mr07","581d38509b5b8800014d507e","freq_resp","","","img/blue_2bandit_b.png","70","img/blue_2bandit_b.png","70","test","","","","","","","","","","","2","","","","","","","","",""
"null","429085","SARL_v6","SARL_v6fyr7mr07","581d38509b5b8800014d507e","fixation","","","img/fixation.png","null","","","test","","","","","","","","","","","","","","","","","","","",""
"114.60000002384186","429200","SARL_v6","SARL_v6fyr7mr07","581d38509b5b8800014d507e","freq","","","img/blue_2bandit_b2.png","70","","70","test","1","","24","","","","circle","square","23","4","2","0.8695652173913043","","","","","","","",""
"null","429888","SARL_v6","SARL_v6fyr7mr07","581d38509b5b8800014d507e","freq_resp","","","img/blue_2bandit_b.png","70","img/blue_2bandit_b.png","70","test","","","","","","","","","","","2","","","","","","","","",""
"null","430043","SARL_v6","SARL_v6fyr7mr07","581d38509b5b8800014d507e","fixation","","","img/fixation.png","null","","","test","","","","","","","","","","","","","","","","","","","",""
"278.2000000476837","430322","SARL_v6","SARL_v6fyr7mr07","581d38509b5b8800014d507e","freq","","","img/blue_2bandit_b2.png","70","","70","test","1","","25","","","","circle","square","24","5","2","0.875","","","","","","","",""
"null","430846","SARL_v6","SARL_v6fyr7mr07","581d38509b5b8800014d507e","freq_resp","","","img/blue_2bandit_b.png","70","img/blue_2bandit_b.png","70","test","","","","","","","","","","","2","","","","","","","","",""
"null","430999","SARL_v6","SARL_v6fyr7mr07","581d38509b5b8800014d507e","fixation","","","img/fixation.png","null","","","test","","","","","","","","","","","","","","","","","","","",""
"292.8000000715256","431293","SARL_v6","SARL_v6fyr7mr07","581d38509b5b8800014d507e","freq","","","img/blue_2bandit_b2.png","70","","70","test","1","","26","","","","circle","square","25","6","2","0.88","","","","","","","",""
"null","431833","SARL_v6","SARL_v6fyr7mr07","581d38509b5b8800014d507e","freq_resp","","","img/blue_2bandit_b.png","70","img/blue_2bandit_b.png","70","test","","","","","","","","","","","2","","","","","","","","",""
"null","432018","SARL_v6","SARL_v6fyr7mr07","581d38509b5b8800014d507e","fixation","","","img/fixation.png","null","","","test","","","","","","","","","","","","","","","","","","","",""
"311.39999997615814","432330","SARL_v6","SARL_v6fyr7mr07","581d38509b5b8800014d507e","freq","","","img/blue_2bandit_b2.png","70","","70","test","1","","27","","","","circle","square","26","7","2","0.8846153846153846","","","","","","","",""
"null","432832","SARL_v6","SARL_v6fyr7mr07","581d38509b5b8800014d507e","freq_resp","","","img/blue_2bandit_b.png","70","img/blue_2bandit_b.png","70","test","","","","","","","","","","","2","","","","","","","","",""
"null","432987","SARL_v6","SARL_v6fyr7mr07","581d38509b5b8800014d507e","fixation","","","img/fixation.png","null","","","test","","","","","","","","","","","","","","","","","","","",""
"318.39999997615814","433306","SARL_v6","SARL_v6fyr7mr07","581d38509b5b8800014d507e","freq","","","img/blue_2bandit_b2.png","70","","70","test","1","","28","","","","circle","square","27","8","2","0.8888888888888888","","","","","","","",""
"null","433803","SARL_v6","SARL_v6fyr7mr07","581d38509b5b8800014d507e","freq_resp","","","img/blue_2bandit_b.png","70","img/blue_2bandit_b.png","70","test","","","","","","","","","","","2","","","","","","","","",""
"null","433959","SARL_v6","SARL_v6fyr7mr07","581d38509b5b8800014d507e","fixation","","","img/fixation.png","null","","","test","","","","","","","","","","","","","","","","","","","",""
"322.6999999284744","434283","SARL_v6","SARL_v6fyr7mr07","581d38509b5b8800014d507e","freq","","","img/blue_2bandit_b2.png","70","","70","test","1","","29","","","","circle","square","28","9","2","0.8928571428571429","","","","","","","",""
"null","434775","SARL_v6","SARL_v6fyr7mr07","581d38509b5b8800014d507e","freq_resp","","","img/blue_2bandit_b.png","70","img/blue_2bandit_b.png","70","test","","","","","","","","","","","2","","","","","","","","",""
"null","434929","SARL_v6","SARL_v6fyr7mr07","581d38509b5b8800014d507e","fixation","","","img/fixation.png","null","","","test","","","","","","","","","","","","","","","","","","","",""
"324.6999999284744","435255","SARL_v6","SARL_v6fyr7mr07","581d38509b5b8800014d507e","freq","","","img/blue_2bandit_b2.png","70","","70","test","1","","30","","","","circle","square","29","10","2","0.896551724137931","","","","","","","",""
"null","435744","SARL_v6","SARL_v6fyr7mr07","581d38509b5b8800014d507e","freq_resp","","","img/blue_2bandit_b.png","70","img/blue_2bandit_b.png","70","test","","","","","","","","","","","2","","","","","","","","",""
"null","435898","SARL_v6","SARL_v6fyr7mr07","581d38509b5b8800014d507e","fixation","","","img/fixation.png","null","","","test","","","","","","","","","","","","","","","","","","","",""
"298.8000000715256","436198","SARL_v6","SARL_v6fyr7mr07","581d38509b5b8800014d507e","freq","","","img/blue_2bandit_b2.png","70","","70","test","1","","31","","","","circle","square","30","11","2","0.9","","","","","","","",""
"null","436702","SARL_v6","SARL_v6fyr7mr07","581d38509b5b8800014d507e","freq_resp","","","img/blue_2bandit_b.png","70","img/blue_2bandit_b.png","70","test","","","","","","","","","","","2","","","","","","","","",""
"null","436857","SARL_v6","SARL_v6fyr7mr07","581d38509b5b8800014d507e","fixation","","","img/fixation.png","null","","","test","","","","","","","","","","","","","","","","","","","",""
"284.7000000476837","437143","SARL_v6","SARL_v6fyr7mr07","581d38509b5b8800014d507e","freq","","","img/blue_2bandit_b2.png","70","","70","test","1","","32","","","","circle","square","31","12","2","0.9032258064516129","","","","","","","",""
"null","437689","SARL_v6","SARL_v6fyr7mr07","581d38509b5b8800014d507e","freq_resp","","","img/blue_2bandit_b.png","70","img/blue_2bandit_b.png","70","test","","","","","","","","","","","2","","","","","","","","",""
"null","437874","SARL_v6","SARL_v6fyr7mr07","581d38509b5b8800014d507e","fixation","","","img/fixation.png","null","","","test","","","","","","","","","","","","","","","","","","","",""
"323.60000002384186","438199","SARL_v6","SARL_v6fyr7mr07","581d38509b5b8800014d507e","freq","","","img/blue_2bandit_b2.png","70","","70","test","1","","33","","","","circle","square","32","13","2","0.90625","","","","","","","",""
"null","438678","SARL_v6","SARL_v6fyr7mr07","581d38509b5b8800014d507e","freq_resp","","","img/blue_2bandit_b.png","70","img/blue_2bandit_b.png","70","test","","","","","","","","","","","2","","","","","","","","",""
"null","438832","SARL_v6","SARL_v6fyr7mr07","581d38509b5b8800014d507e","fixation","","","img/fixation.png","null","","","test","","","","","","","","","","","","","","","","","","","",""
"280.5","439114","SARL_v6","SARL_v6fyr7mr07","581d38509b5b8800014d507e","freq","","","img/blue_2bandit_b2.png","70","","70","test","1","","34","","","","circle","square","33","14","2","0.9090909090909091","","","","","","","",""
"null","439636","SARL_v6","SARL_v6fyr7mr07","581d38509b5b8800014d507e","freq_resp","","","img/blue_2bandit_b.png","70","img/blue_2bandit_b.png","70","test","","","","","","","","","","","2","","","","","","","","",""
"null","439791","SARL_v6","SARL_v6fyr7mr07","581d38509b5b8800014d507e","fixation","","","img/fixation.png","null","","","test","","","","","","","","","","","","","","","","","","","",""
"436.90000009536743","440229","SARL_v6","SARL_v6fyr7mr07","581d38509b5b8800014d507e","infreq","","","img/orange_2bandit_b2.png","68","","68","test","1","","35","","","","circle","square","34","15","2","0.9117647058823529","","","","","","","",""
"null","440605","SARL_v6","SARL_v6fyr7mr07","581d38509b5b8800014d507e","infreq_resp","","","img/orange_2bandit_b.png","68","img/orange_2bandit_b.png","68","test","","","","","","","","","","","2","","","","","","","","",""
"null","440759","SARL_v6","SARL_v6fyr7mr07","581d38509b5b8800014d507e","fixation","","","img/fixation.png","null","","","test","","","","","","","","","","","","","","","","","","","",""
"529.3999999761581","441290","SARL_v6","SARL_v6fyr7mr07","581d38509b5b8800014d507e","freq","","","img/blue_2bandit_b2.png","70","","70","test","1","","36","","","","circle","square","35","16","2","0.9142857142857143","","","","","","","",""
"null","441563","SARL_v6","SARL_v6fyr7mr07","581d38509b5b8800014d507e","freq_resp","","","img/blue_2bandit_b.png","70","img/blue_2bandit_b.png","70","test","","","","","","","","","","","2","","","","","","","","",""
"null","441718","SARL_v6","SARL_v6fyr7mr07","581d38509b5b8800014d507e","fixation","","","img/fixation.png","null","","","test","","","","","","","","","","","","","","","","","","","",""
"530.5","442250","SARL_v6","SARL_v6fyr7mr07","581d38509b5b8800014d507e","freq","","","img/blue_2bandit_b2.png","70","","70","test","1","","37","","","","circle","square","36","17","2","0.9166666666666666","","","","","","","",""
"null","442535","SARL_v6","SARL_v6fyr7mr07","581d38509b5b8800014d507e","freq_resp","","","img/blue_2bandit_b.png","70","img/blue_2bandit_b.png","70","test","","","","","","","","","","","2","","","","","","","","",""
"null","442690","SARL_v6","SARL_v6fyr7mr07","581d38509b5b8800014d507e","fixation","","","img/fixation.png","null","","","test","","","","","","","","","","","","","","","","","","","",""
"337.7999999523163","443029","SARL_v6","SARL_v6fyr7mr07","581d38509b5b8800014d507e","freq","","","img/blue_2bandit_b2.png","70","","70","test","1","","38","","","","circle","square","37","18","2","0.918918918918919","","","","","","","",""
"null","443506","SARL_v6","SARL_v6fyr7mr07","581d38509b5b8800014d507e","freq_resp","","","img/blue_2bandit_b.png","70","img/blue_2bandit_b.png","70","test","","","","","","","","","","","2","","","","","","","","",""
"null","443691","SARL_v6","SARL_v6fyr7mr07","581d38509b5b8800014d507e","fixation","","","img/fixation.png","null","","","test","","","","","","","","","","","","","","","","","","","",""
"556.8999999761581","444249","SARL_v6","SARL_v6fyr7mr07","581d38509b5b8800014d507e","infreq","","","img/orange_2bandit_b2.png","68","","68","test","1","","39","","","","circle","square","38","19","2","0.9210526315789473","","","","","","","",""
"null","444495","SARL_v6","SARL_v6fyr7mr07","581d38509b5b8800014d507e","infreq_resp","","","img/orange_2bandit_b.png","68","img/orange_2bandit_b.png","68","test","","","","","","","","","","","2","","","","","","","","",""
"null","444650","SARL_v6","SARL_v6fyr7mr07","581d38509b5b8800014d507e","fixation","","","img/fixation.png","null","","","test","","","","","","","","","","","","","","","","","","","",""
"619.8999999761581","445271","SARL_v6","SARL_v6fyr7mr07","581d38509b5b8800014d507e","freq","","","img/blue_2bandit_b2.png","70","","70","test","1","","40","","","","circle","square","39","20","2","0.9230769230769231","","","","","","","",""
"null","445466","SARL_v6","SARL_v6fyr7mr07","581d38509b5b8800014d507e","freq_resp","","","img/blue_2bandit_b.png","70","img/blue_2bandit_b.png","70","test","","","","","","","","","","","2","","","","","","","","",""
"null","445622","SARL_v6","SARL_v6fyr7mr07","581d38509b5b8800014d507e","fixation","","","img/fixation.png","null","","","test","","","","","","","","","","","","","","","","","","","",""
"452.3000000715256","446076","SARL_v6","SARL_v6fyr7mr07","581d38509b5b8800014d507e","freq","","","img/blue_2bandit_b2.png","70","","70","test","1","","41","","","","circle","square","40","21","2","0.925","","","","","","","",""
"null","446439","SARL_v6","SARL_v6fyr7mr07","581d38509b5b8800014d507e","freq_resp","","","img/blue_2bandit_b.png","70","img/blue_2bandit_b.png","70","test","","","","","","","","","","","2","","","","","","","","",""
"null","446594","SARL_v6","SARL_v6fyr7mr07","581d38509b5b8800014d507e","fixation","","","img/fixation.png","null","","","test","","","","","","","","","","","","","","","","","","","",""
"414.8000000715256","447010","SARL_v6","SARL_v6fyr7mr07","581d38509b5b8800014d507e","freq","","","img/blue_2bandit_b2.png","70","","70","test","1","","42","","","","circle","square","41","22","2","0.926829268292683","","","","","","","",""
"null","447398","SARL_v6","SARL_v6fyr7mr07","581d38509b5b8800014d507e","freq_resp","","","img/blue_2bandit_b.png","70","img/blue_2bandit_b.png","70","test","","","","","","","","","","","2","","","","","","","","",""
"null","447554","SARL_v6","SARL_v6fyr7mr07","581d38509b5b8800014d507e","fixation","","","img/fixation.png","null","","","test","","","","","","","","","","","","","","","","","","","",""
"572.8999999761581","448128","SARL_v6","SARL_v6fyr7mr07","581d38509b5b8800014d507e","rl","","","img/black_2bandit_b2.png","74","","0","test","","","43","","","-8","circle","square","","0","2","","74","-8","-5","-8","-5","circle","2","0"
"null","448882","SARL_v6","SARL_v6fyr7mr07","581d38509b5b8800014d507e","feedback","","","<div class=""verylowPoints""> -8 </div>","null","","na","test","","","NaN","","","","","","","","2","","74","","","","","","2",""
"616.2000000476837","449499","SARL_v6","SARL_v6fyr7mr07","581d38509b5b8800014d507e","freq","","","img/blue_2bandit_b2.png","70","","70","test","1","","44","","","","circle","square","42","1","3","0.9285714285714286","","","","","","","",""
"null","449694","SARL_v6","SARL_v6fyr7mr07","581d38509b5b8800014d507e","freq_resp","","","img/blue_2bandit_b.png","70","img/blue_2bandit_b.png","70","test","","","","","","","","","","","3","","","","","","","","",""
"null","449847","SARL_v6","SARL_v6fyr7mr07","581d38509b5b8800014d507e","fixation","","","img/fixation.png","null","","","test","","","","","","","","","","","","","","","","","","","",""
"385.7999999523163","450234","SARL_v6","SARL_v6fyr7mr07","581d38509b5b8800014d507e","freq","","","img/blue_2bandit_b2.png","70","","70","test","1","","45","","","","circle","square","43","2","3","0.9302325581395349","","","","","","","",""
"null","450651","SARL_v6","SARL_v6fyr7mr07","581d38509b5b8800014d507e","freq_resp","","","img/blue_2bandit_b.png","70","img/blue_2bandit_b.png","70","test","","","","","","","","","","","3","","","","","","","","",""
"null","450805","SARL_v6","SARL_v6fyr7mr07","581d38509b5b8800014d507e","fixation","","","img/fixation.png","null","","","test","","","","","","","","","","","","","","","","","","","",""
"423.60000002384186","451231","SARL_v6","SARL_v6fyr7mr07","581d38509b5b8800014d507e","freq","","","img/blue_2bandit_b2.png","70","","70","test","1","","46","","","","circle","square","44","3","3","0.9318181818181818","","","","","","","",""
"null","451623","SARL_v6","SARL_v6fyr7mr07","581d38509b5b8800014d507e","freq_resp","","","img/blue_2bandit_b.png","70","img/blue_2bandit_b.png","70","test","","","","","","","","","","","3","","","","","","","","",""
"null","451776","SARL_v6","SARL_v6fyr7mr07","581d38509b5b8800014d507e","fixation","","","img/fixation.png","null","","","test","","","","","","","","","","","","","","","","","","","",""
"381.60000002384186","452159","SARL_v6","SARL_v6fyr7mr07","581d38509b5b8800014d507e","freq","","","img/blue_2bandit_b2.png","70","","70","test","1","","47","","","","circle","square","45","4","3","0.9333333333333333","","","","","","","",""
"null","452594","SARL_v6","SARL_v6fyr7mr07","581d38509b5b8800014d507e","freq_resp","","","img/blue_2bandit_b.png","70","img/blue_2bandit_b.png","70","test","","","","","","","","","","","3","","","","","","","","",""
"null","452748","SARL_v6","SARL_v6fyr7mr07","581d38509b5b8800014d507e","fixation","","","img/fixation.png","null","","","test","","","","","","","","","","","","","","","","","","","",""
"403.10000002384186","453153","SARL_v6","SARL_v6fyr7mr07","581d38509b5b8800014d507e","freq","","","img/blue_2bandit_b2.png","70","","70","test","1","","48","","","","circle","square","46","5","3","0.9347826086956522","","","","","","","",""
"null","453552","SARL_v6","SARL_v6fyr7mr07","581d38509b5b8800014d507e","freq_resp","","","img/blue_2bandit_b.png","70","img/blue_2bandit_b.png","70","test","","","","","","","","","","","3","","","","","","","","",""
"null","453706","SARL_v6","SARL_v6fyr7mr07","581d38509b5b8800014d507e","fixation","","","img/fixation.png","null","","","test","","","","","","","","","","","","","","","","","","","",""
"371.39999997615814","454079","SARL_v6","SARL_v6fyr7mr07","581d38509b5b8800014d507e","infreq","","","img/orange_2bandit_b2.png","70","","68","test","0","","49","","","","circle","square","47","6","3","0.9148936170212766","","","","","","","",""
"null","454512","SARL_v6","SARL_v6fyr7mr07","581d38509b5b8800014d507e","infreq_resp","","","img/orange_2bandit_b.png","70","img/orange_2bandit_b.png","68","test","","","","","","","","","","","3","","","","","","","","",""
"null","454698","SARL_v6","SARL_v6fyr7mr07","581d38509b5b8800014d507e","fixation","","","img/fixation.png","null","","","test","","","","","","","","","","","","","","","","","","","",""
"608","455307","SARL_v6","SARL_v6fyr7mr07","581d38509b5b8800014d507e","freq","","","img/blue_2bandit_b2.png","70","","70","test","1","","50","","","","circle","square","48","7","3","0.9166666666666666","","","","","","","",""
"null","455502","SARL_v6","SARL_v6fyr7mr07","581d38509b5b8800014d507e","freq_resp","","","img/blue_2bandit_b.png","70","img/blue_2bandit_b.png","70","test","","","","","","","","","","","3","","","","","","","","",""
"null","455657","SARL_v6","SARL_v6fyr7mr07","581d38509b5b8800014d507e","fixation","","","img/fixation.png","null","","","test","","","","","","","","","","","","","","","","","","","",""
"448","456106","SARL_v6","SARL_v6fyr7mr07","581d38509b5b8800014d507e","freq","","","img/blue_2bandit_b2.png","70","","70","test","1","","51","","","","circle","square","49","8","3","0.9183673469387755","","","","","","","",""
"null","456473","SARL_v6","SARL_v6fyr7mr07","581d38509b5b8800014d507e","freq_resp","","","img/blue_2bandit_b.png","70","img/blue_2bandit_b.png","70","test","","","","","","","","","","","3","","","","","","","","",""
"null","456627","SARL_v6","SARL_v6fyr7mr07","581d38509b5b8800014d507e","fixation","","","img/fixation.png","null","","","test","","","","","","","","","","","","","","","","","","","",""
"369.7000000476837","456998","SARL_v6","SARL_v6fyr7mr07","581d38509b5b8800014d507e","freq","","","img/blue_2bandit_b2.png","70","","70","test","1","","52","","","","circle","square","50","9","3","0.92","","","","","","","",""
"null","457445","SARL_v6","SARL_v6fyr7mr07","581d38509b5b8800014d507e","freq_resp","","","img/blue_2bandit_b.png","70","img/blue_2bandit_b.png","70","test","","","","","","","","","","","3","","","","","","","","",""
"null","457599","SARL_v6","SARL_v6fyr7mr07","581d38509b5b8800014d507e","fixation","","","img/fixation.png","null","","","test","","","","","","","","","","","","","","","","","","","",""
"355.5","457955","SARL_v6","SARL_v6fyr7mr07","581d38509b5b8800014d507e","freq","","","img/blue_2bandit_b2.png","70","","70","test","1","","53","","","","circle","square","51","10","3","0.9215686274509803","","","","","","","",""
"null","458416","SARL_v6","SARL_v6fyr7mr07","581d38509b5b8800014d507e","freq_resp","","","img/blue_2bandit_b.png","70","img/blue_2bandit_b.png","70","test","","","","","","","","","","","3","","","","","","","","",""
"null","458570","SARL_v6","SARL_v6fyr7mr07","581d38509b5b8800014d507e","fixation","","","img/fixation.png","null","","","test","","","","","","","","","","","","","","","","","","","",""
"386.8000000715256","458958","SARL_v6","SARL_v6fyr7mr07","581d38509b5b8800014d507e","freq","","","img/blue_2bandit_b2.png","70","","70","test","1","","54","","","","circle","square","52","11","3","0.9230769230769231","","","","","","","",""
"null","459374","SARL_v6","SARL_v6fyr7mr07","581d38509b5b8800014d507e","freq_resp","","","img/blue_2bandit_b.png","70","img/blue_2bandit_b.png","70","test","","","","","","","","","","","3","","","","","","","","",""
"null","459529","SARL_v6","SARL_v6fyr7mr07","581d38509b5b8800014d507e","fixation","","","img/fixation.png","null","","","test","","","","","","","","","","","","","","","","","","","",""
"325.2999999523163","459855","SARL_v6","SARL_v6fyr7mr07","581d38509b5b8800014d507e","freq","","","img/blue_2bandit_b2.png","70","","70","test","1","","55","","","","circle","square","53","12","3","0.9245283018867925","","","","","","","",""
"null","460333","SARL_v6","SARL_v6fyr7mr07","581d38509b5b8800014d507e","freq_resp","","","img/blue_2bandit_b.png","70","img/blue_2bandit_b.png","70","test","","","","","","","","","","","3","","","","","","","","",""
"null","460517","SARL_v6","SARL_v6fyr7mr07","581d38509b5b8800014d507e","fixation","","","img/fixation.png","null","","","test","","","","","","","","","","","","","","","","","","","",""
"329.7000000476837","460848","SARL_v6","SARL_v6fyr7mr07","581d38509b5b8800014d507e","freq","","","img/blue_2bandit_b2.png","70","","70","test","1","","56","","","","circle","square","54","13","3","0.9259259259259259","","","","","","","",""
"null","461323","SARL_v6","SARL_v6fyr7mr07","581d38509b5b8800014d507e","freq_resp","","","img/blue_2bandit_b.png","70","img/blue_2bandit_b.png","70","test","","","","","","","","","","","3","","","","","","","","",""
"null","461476","SARL_v6","SARL_v6fyr7mr07","581d38509b5b8800014d507e","fixation","","","img/fixation.png","null","","","test","","","","","","","","","","","","","","","","","","","",""
"322.5","461800","SARL_v6","SARL_v6fyr7mr07","581d38509b5b8800014d507e","freq","","","img/blue_2bandit_b2.png","70","","70","test","1","","57","","","","circle","square","55","14","3","0.9272727272727272","","","","","","","",""
"null","462293","SARL_v6","SARL_v6fyr7mr07","581d38509b5b8800014d507e","freq_resp","","","img/blue_2bandit_b.png","70","img/blue_2bandit_b.png","70","test","","","","","","","","","","","3","","","","","","","","",""
"null","462447","SARL_v6","SARL_v6fyr7mr07","581d38509b5b8800014d507e","fixation","","","img/fixation.png","null","","","test","","","","","","","","","","","","","","","","","","","",""
"355.6999999284744","462804","SARL_v6","SARL_v6fyr7mr07","581d38509b5b8800014d507e","freq","","","img/blue_2bandit_b2.png","70","","70","test","1","","58","","","","circle","square","56","15","3","0.9285714285714286","","","","","","","",""
"null","463251","SARL_v6","SARL_v6fyr7mr07","581d38509b5b8800014d507e","freq_resp","","","img/blue_2bandit_b.png","70","img/blue_2bandit_b.png","70","test","","","","","","","","","","","3","","","","","","","","",""
"null","463406","SARL_v6","SARL_v6fyr7mr07","581d38509b5b8800014d507e","fixation","","","img/fixation.png","null","","","test","","","","","","","","","","","","","","","","","","","",""
"276.60000002384186","463683","SARL_v6","SARL_v6fyr7mr07","581d38509b5b8800014d507e","freq","","","img/blue_2bandit_b2.png","70","","70","test","1","","59","","","","circle","square","57","16","3","0.9298245614035088","","","","","","","",""
"null","464223","SARL_v6","SARL_v6fyr7mr07","581d38509b5b8800014d507e","freq_resp","","","img/blue_2bandit_b.png","70","img/blue_2bandit_b.png","70","test","","","","","","","","","","","3","","","","","","","","",""
"null","464379","SARL_v6","SARL_v6fyr7mr07","581d38509b5b8800014d507e","fixation","","","img/fixation.png","null","","","test","","","","","","","","","","","","","","","","","","","",""
"113.30000007152557","464493","SARL_v6","SARL_v6fyr7mr07","581d38509b5b8800014d507e","freq","","","img/blue_2bandit_b2.png","70","","70","test","1","","60","","","","circle","square","58","17","3","0.9310344827586207","","","","","","","",""
"null","465182","SARL_v6","SARL_v6fyr7mr07","581d38509b5b8800014d507e","freq_resp","","","img/blue_2bandit_b.png","70","img/blue_2bandit_b.png","70","test","","","","","","","","","","","3","","","","","","","","",""
"null","465336","SARL_v6","SARL_v6fyr7mr07","581d38509b5b8800014d507e","fixation","","","img/fixation.png","null","","","test","","","","","","","","","","","","","","","","","","","",""
"34.699999928474426","465372","SARL_v6","SARL_v6fyr7mr07","581d38509b5b8800014d507e","freq","","","img/blue_2bandit_b2.png","70","","70","test","1","","61","","","","circle","square","59","18","3","0.9322033898305084","","","","","","","",""
"null","466157","SARL_v6","SARL_v6fyr7mr07","581d38509b5b8800014d507e","freq_resp","","","img/blue_2bandit_b.png","70","img/blue_2bandit_b.png","70","test","","","","","","","","","","","3","","","","","","","","",""
"null","466333","SARL_v6","SARL_v6fyr7mr07","581d38509b5b8800014d507e","fixation","","","img/fixation.png","null","","","test","","","","","","","","","","","","","","","","","","","",""
"null","467145","SARL_v6","SARL_v6fyr7mr07","581d38509b5b8800014d507e","freq","","","img/blue_2bandit_b2.png","null","","70","test","0","","62","","","","circle","square","60","19","3","0.9166666666666666","","","","","","","",""
"null","467300","SARL_v6","SARL_v6fyr7mr07","581d38509b5b8800014d507e","fixation","","","img/fixation.png","null","","","test","","","","","","","","","","","","","","","","","","","",""
"620.2999999523163","467922","SARL_v6","SARL_v6fyr7mr07","581d38509b5b8800014d507e","infreq","","","img/orange_2bandit_b2.png","68","","68","test","1","","63","","","","circle","square","61","20","3","0.9180327868852459","","","","","","","",""
"null","468104","SARL_v6","SARL_v6fyr7mr07","581d38509b5b8800014d507e","infreq_resp","","","img/orange_2bandit_b.png","68","img/orange_2bandit_b.png","68","test","","","","","","","","","","","3","","","","","","","","",""
"null","468271","SARL_v6","SARL_v6fyr7mr07","581d38509b5b8800014d507e","fixation","","","img/fixation.png","null","","","test","","","","","","","","","","","","","","","","","","","",""
"514.6000000238419","468787","SARL_v6","SARL_v6fyr7mr07","581d38509b5b8800014d507e","freq","","","img/blue_2bandit_b2.png","70","","70","test","1","","64","","","","circle","square","62","21","3","0.9193548387096774","","","","","","","",""
"null","469076","SARL_v6","SARL_v6fyr7mr07","581d38509b5b8800014d507e","freq_resp","","","img/blue_2bandit_b.png","70","img/blue_2bandit_b.png","70","test","","","","","","","","","","","3","","","","","","","","",""
"null","469231","SARL_v6","SARL_v6fyr7mr07","581d38509b5b8800014d507e","fixation","","","img/fixation.png","null","","","test","","","","","","","","","","","","","","","","","","","",""
"376.8000000715256","469610","SARL_v6","SARL_v6fyr7mr07","581d38509b5b8800014d507e","freq","","","img/blue_2bandit_b2.png","70","","70","test","1","","65","","","","circle","square","63","22","3","0.9206349206349206","","","","","","","",""
"null","470050","SARL_v6","SARL_v6fyr7mr07","581d38509b5b8800014d507e","freq_resp","","","img/blue_2bandit_b.png","70","img/blue_2bandit_b.png","70","test","","","","","","","","","","","3","","","","","","","","",""
"null","470205","SARL_v6","SARL_v6fyr7mr07","581d38509b5b8800014d507e","fixation","","","img/fixation.png","null","","","test","","","","","","","","","","","","","","","","","","","",""
"448.8000000715256","470655","SARL_v6","SARL_v6fyr7mr07","581d38509b5b8800014d507e","rl","","","img/black_2bandit_b2.png","75","","0","test","","","66","","","-4","circle","square","","0","3","","75","-8","-4","-8","-4","square","3","0"
"null","471440","SARL_v6","SARL_v6fyr7mr07","581d38509b5b8800014d507e","feedback","","","<div class=""verylowPoints_sq""> -4 </div>","null","","na","test","","","NaN","","","","","","","","3","","75","","","","","","3",""
"669.3999999761581","472111","SARL_v6","SARL_v6fyr7mr07","581d38509b5b8800014d507e","freq","","","img/blue_2bandit_b2.png","70","","70","test","1","","67","","","","circle","square","64","1","4","0.921875","","","","","","","",""
"null","472257","SARL_v6","SARL_v6fyr7mr07","581d38509b5b8800014d507e","freq_resp","","","img/blue_2bandit_b.png","70","img/blue_2bandit_b.png","70","test","","","","","","","","","","","4","","","","","","","","",""
"null","472411","SARL_v6","SARL_v6fyr7mr07","581d38509b5b8800014d507e","fixation","","","img/fixation.png","null","","","test","","","","","","","","","","","","","","","","","","","",""
"523.9000000953674","472936","SARL_v6","SARL_v6fyr7mr07","581d38509b5b8800014d507e","freq","","","img/blue_2bandit_b2.png","70","","70","test","1","","68","","","","circle","square","65","2","4","0.9230769230769231","","","","","","","",""
"null","473228","SARL_v6","SARL_v6fyr7mr07","581d38509b5b8800014d507e","freq_resp","","","img/blue_2bandit_b.png","70","img/blue_2bandit_b.png","70","test","","","","","","","","","","","4","","","","","","","","",""
"null","473381","SARL_v6","SARL_v6fyr7mr07","581d38509b5b8800014d507e","fixation","","","img/fixation.png","null","","","test","","","","","","","","","","","","","","","","","","","",""
"518.1000000238419","473900","SARL_v6","SARL_v6fyr7mr07","581d38509b5b8800014d507e","freq","","","img/blue_2bandit_b2.png","70","","70","test","1","","69","","","","circle","square","66","3","4","0.9242424242424242","","","","","","","",""
"null","474197","SARL_v6","SARL_v6fyr7mr07","581d38509b5b8800014d507e","freq_resp","","","img/blue_2bandit_b.png","70","img/blue_2bandit_b.png","70","test","","","","","","","","","","","4","","","","","","","","",""
"null","474350","SARL_v6","SARL_v6fyr7mr07","581d38509b5b8800014d507e","fixation","","","img/fixation.png","null","","","test","","","","","","","","","","","","","","","","","","","",""
"370","474722","SARL_v6","SARL_v6fyr7mr07","581d38509b5b8800014d507e","freq","","","img/blue_2bandit_b2.png","70","","70","test","1","","70","","","","circle","square","67","4","4","0.9253731343283582","","","","","","","",""
"null","475167","SARL_v6","SARL_v6fyr7mr07","581d38509b5b8800014d507e","freq_resp","","","img/blue_2bandit_b.png","70","img/blue_2bandit_b.png","70","test","","","","","","","","","","","4","","","","","","","","",""
"null","475323","SARL_v6","SARL_v6fyr7mr07","581d38509b5b8800014d507e","fixation","","","img/fixation.png","null","","","test","","","","","","","","","","","","","","","","","","","",""
"343","475667","SARL_v6","SARL_v6fyr7mr07","581d38509b5b8800014d507e","freq","","","img/blue_2bandit_b2.png","70","","70","test","1","","71","","","","circle","square","68","5","4","0.9264705882352942","","","","","","","",""
"null","476129","SARL_v6","SARL_v6fyr7mr07","581d38509b5b8800014d507e","freq_resp","","","img/blue_2bandit_b.png","70","img/blue_2bandit_b.png","70","test","","","","","","","","","","","4","","","","","","","","",""
"null","476284","SARL_v6","SARL_v6fyr7mr07","581d38509b5b8800014d507e","fixation","","","img/fixation.png","null","","","test","","","","","","","","","","","","","","","","","","","",""
"537.2999999523163","476822","SARL_v6","SARL_v6fyr7mr07","581d38509b5b8800014d507e","freq","","","img/blue_2bandit_b2.png","70","","70","test","1","","72","","","","circle","square","69","6","4","0.927536231884058","","","","","","","",""
"null","477102","SARL_v6","SARL_v6fyr7mr07","581d38509b5b8800014d507e","freq_resp","","","img/blue_2bandit_b.png","70","img/blue_2bandit_b.png","70","test","","","","","","","","","","","4","","","","","","","","",""
"null","477287","SARL_v6","SARL_v6fyr7mr07","581d38509b5b8800014d507e","fixation","","","img/fixation.png","null","","","test","","","","","","","","","","","","","","","","","","","",""
"569.2000000476837","477858","SARL_v6","SARL_v6fyr7mr07","581d38509b5b8800014d507e","freq","","","img/blue_2bandit_b2.png","70","","70","test","1","","73","","","","circle","square","70","7","4","0.9285714285714286","","","","","","","",""
"null","478090","SARL_v6","SARL_v6fyr7mr07","581d38509b5b8800014d507e","freq_resp","","","img/blue_2bandit_b.png","70","img/blue_2bandit_b.png","70","test","","","","","","","","","","","4","","","","","","","","",""
"null","478244","SARL_v6","SARL_v6fyr7mr07","581d38509b5b8800014d507e","fixation","","","img/fixation.png","null","","","test","","","","","","","","","","","","","","","","","","","",""
"545.3999999761581","478790","SARL_v6","SARL_v6fyr7mr07","581d38509b5b8800014d507e","freq","","","img/blue_2bandit_b2.png","70","","70","test","1","","74","","","","circle","square","71","8","4","0.9295774647887324","","","","","","","",""
"null","479049","SARL_v6","SARL_v6fyr7mr07","581d38509b5b8800014d507e","freq_resp","","","img/blue_2bandit_b.png","70","img/blue_2bandit_b.png","70","test","","","","","","","","","","","4","","","","","","","","",""
"null","479216","SARL_v6","SARL_v6fyr7mr07","581d38509b5b8800014d507e","fixation","","","img/fixation.png","null","","","test","","","","","","","","","","","","","","","","","","","",""
"358.39999997615814","479576","SARL_v6","SARL_v6fyr7mr07","581d38509b5b8800014d507e","freq","","","img/blue_2bandit_b2.png","70","","70","test","1","","75","","","","circle","square","72","9","4","0.9305555555555556","","","","","","","",""
"null","480034","SARL_v6","SARL_v6fyr7mr07","581d38509b5b8800014d507e","freq_resp","","","img/blue_2bandit_b.png","70","img/blue_2bandit_b.png","70","test","","","","","","","","","","","4","","","","","","","","",""
"null","480187","SARL_v6","SARL_v6fyr7mr07","581d38509b5b8800014d507e","fixation","","","img/fixation.png","null","","","test","","","","","","","","","","","","","","","","","","","",""
"327.39999997615814","480516","SARL_v6","SARL_v6fyr7mr07","581d38509b5b8800014d507e","freq","","","img/blue_2bandit_b2.png","70","","70","test","1","","76","","","","circle","square","73","10","4","0.9315068493150684","","","","","","","",""
"null","480990","SARL_v6","SARL_v6fyr7mr07","581d38509b5b8800014d507e","freq_resp","","","img/blue_2bandit_b.png","70","img/blue_2bandit_b.png","70","test","","","","","","","","","","","4","","","","","","","","",""
"null","481145","SARL_v6","SARL_v6fyr7mr07","581d38509b5b8800014d507e","fixation","","","img/fixation.png","null","","","test","","","","","","","","","","","","","","","","","","","",""
"342","481489","SARL_v6","SARL_v6fyr7mr07","581d38509b5b8800014d507e","freq","","","img/blue_2bandit_b2.png","70","","70","test","1","","77","","","","circle","square","74","11","4","0.9324324324324325","","","","","","","",""
"null","481963","SARL_v6","SARL_v6fyr7mr07","581d38509b5b8800014d507e","freq_resp","","","img/blue_2bandit_b.png","70","img/blue_2bandit_b.png","70","test","","","","","","","","","","","4","","","","","","","","",""
"null","482118","SARL_v6","SARL_v6fyr7mr07","581d38509b5b8800014d507e","fixation","","","img/fixation.png","null","","","test","","","","","","","","","","","","","","","","","","","",""
"345.10000002384186","482464","SARL_v6","SARL_v6fyr7mr07","581d38509b5b8800014d507e","freq","","","img/blue_2bandit_b2.png","70","","70","test","1","","78","","","","circle","square","75","12","4","0.9333333333333333","","","","","","","",""
"null","482935","SARL_v6","SARL_v6fyr7mr07","581d38509b5b8800014d507e","freq_resp","","","img/blue_2bandit_b.png","70","img/blue_2bandit_b.png","70","test","","","","","","","","","","","4","","","","","","","","",""
"null","483106","SARL_v6","SARL_v6fyr7mr07","581d38509b5b8800014d507e","fixation","","","img/fixation.png","null","","","test","","","","","","","","","","","","","","","","","","","",""
"498.10000002384186","483606","SARL_v6","SARL_v6fyr7mr07","581d38509b5b8800014d507e","freq","","","img/blue_2bandit_b2.png","70","","70","test","1","","79","","","","circle","square","76","13","4","0.9342105263157895","","","","","","","",""
"null","483923","SARL_v6","SARL_v6fyr7mr07","581d38509b5b8800014d507e","freq_resp","","","img/blue_2bandit_b.png","70","img/blue_2bandit_b.png","70","test","","","","","","","","","","","4","","","","","","","","",""
"null","484077","SARL_v6","SARL_v6fyr7mr07","581d38509b5b8800014d507e","fixation","","","img/fixation.png","null","","","test","","","","","","","","","","","","","","","","","","","",""
"404.39999997615814","484483","SARL_v6","SARL_v6fyr7mr07","581d38509b5b8800014d507e","freq","","","img/blue_2bandit_b2.png","70","","70","test","1","","80","","","","circle","square","77","14","4","0.935064935064935","","","","","","","",""
"null","484894","SARL_v6","SARL_v6fyr7mr07","581d38509b5b8800014d507e","freq_resp","","","img/blue_2bandit_b.png","70","img/blue_2bandit_b.png","70","test","","","","","","","","","","","4","","","","","","","","",""
"null","485049","SARL_v6","SARL_v6fyr7mr07","581d38509b5b8800014d507e","fixation","","","img/fixation.png","null","","","test","","","","","","","","","","","","","","","","","","","",""
"399.2000000476837","485449","SARL_v6","SARL_v6fyr7mr07","581d38509b5b8800014d507e","freq","","","img/blue_2bandit_b2.png","70","","70","test","1","","81","","","","circle","square","78","15","4","0.9358974358974359","","","","","","","",""
"null","485854","SARL_v6","SARL_v6fyr7mr07","581d38509b5b8800014d507e","freq_resp","","","img/blue_2bandit_b.png","70","img/blue_2bandit_b.png","70","test","","","","","","","","","","","4","","","","","","","","",""
"null","486008","SARL_v6","SARL_v6fyr7mr07","581d38509b5b8800014d507e","fixation","","","img/fixation.png","null","","","test","","","","","","","","","","","","","","","","","","","",""
"473.89999997615814","486484","SARL_v6","SARL_v6fyr7mr07","581d38509b5b8800014d507e","infreq","","","img/orange_2bandit_b2.png","68","","68","test","1","","82","","","","circle","square","79","16","4","0.9367088607594937","","","","","","","",""
"null","486812","SARL_v6","SARL_v6fyr7mr07","581d38509b5b8800014d507e","infreq_resp","","","img/orange_2bandit_b.png","68","img/orange_2bandit_b.png","68","test","","","","","","","","","","","4","","","","","","","","",""
"null","486967","SARL_v6","SARL_v6fyr7mr07","581d38509b5b8800014d507e","fixation","","","img/fixation.png","null","","","test","","","","","","","","","","","","","","","","","","","",""
"456.39999997615814","487424","SARL_v6","SARL_v6fyr7mr07","581d38509b5b8800014d507e","freq","","","img/blue_2bandit_b2.png","70","","70","test","1","","83","","","","circle","square","80","17","4","0.9375","","","","","","","",""
"null","487769","SARL_v6","SARL_v6fyr7mr07","581d38509b5b8800014d507e","freq_resp","","","img/blue_2bandit_b.png","70","img/blue_2bandit_b.png","70","test","","","","","","","","","","","4","","","","","","","","",""
"null","487924","SARL_v6","SARL_v6fyr7mr07","581d38509b5b8800014d507e","fixation","","","img/fixation.png","null","","","test","","","","","","","","","","","","","","","","","","","",""
"543.2000000476837","488468","SARL_v6","SARL_v6fyr7mr07","581d38509b5b8800014d507e","infreq","","","img/orange_2bandit_b2.png","68","","68","test","1","","84","","","","circle","square","81","18","4","0.9382716049382716","","","","","","","",""
"null","488757","SARL_v6","SARL_v6fyr7mr07","581d38509b5b8800014d507e","infreq_resp","","","img/orange_2bandit_b.png","68","img/orange_2bandit_b.png","68","test","","","","","","","","","","","4","","","","","","","","",""
"null","488926","SARL_v6","SARL_v6fyr7mr07","581d38509b5b8800014d507e","fixation","","","img/fixation.png","null","","","test","","","","","","","","","","","","","","","","","","","",""
"622.9000000953674","489551","SARL_v6","SARL_v6fyr7mr07","581d38509b5b8800014d507e","freq","","","img/blue_2bandit_b2.png","70","","70","test","1","","85","","","","circle","square","82","19","4","0.9390243902439024","","","","","","","",""
"null","489730","SARL_v6","SARL_v6fyr7mr07","581d38509b5b8800014d507e","freq_resp","","","img/blue_2bandit_b.png","70","img/blue_2bandit_b.png","70","test","","","","","","","","","","","4","","","","","","","","",""
"null","489885","SARL_v6","SARL_v6fyr7mr07","581d38509b5b8800014d507e","fixation","","","img/fixation.png","null","","","test","","","","","","","","","","","","","","","","","","","",""
"null","490699","SARL_v6","SARL_v6fyr7mr07","581d38509b5b8800014d507e","freq","","","img/blue_2bandit_b2.png","null","","70","test","0","","86","","","","circle","square","83","20","4","0.927710843373494","","","","","","","",""
"null","490855","SARL_v6","SARL_v6fyr7mr07","581d38509b5b8800014d507e","fixation","","","img/fixation.png","null","","","test","","","","","","","","","","","","","","","","","","","",""
"415.10000002384186","491271","SARL_v6","SARL_v6fyr7mr07","581d38509b5b8800014d507e","freq","","","img/blue_2bandit_b2.png","70","","70","test","1","","87","","","","circle","square","84","21","4","0.9285714285714286","","","","","","","",""
"null","491657","SARL_v6","SARL_v6fyr7mr07","581d38509b5b8800014d507e","freq_resp","","","img/blue_2bandit_b.png","70","img/blue_2bandit_b.png","70","test","","","","","","","","","","","4","","","","","","","","",""
"null","491811","SARL_v6","SARL_v6fyr7mr07","581d38509b5b8800014d507e","fixation","","","img/fixation.png","null","","","test","","","","","","","","","","","","","","","","","","","",""
"549.7999999523163","492362","SARL_v6","SARL_v6fyr7mr07","581d38509b5b8800014d507e","rl","","","img/black_2bandit_b2.png","74","","0","test","","","88","","","-12","circle","square","","0","4","","74","-12","0","-12","0","circle","4","0"
"null","493125","SARL_v6","SARL_v6fyr7mr07","581d38509b5b8800014d507e","feedback","","","<div class=""verylowPoints""> -12 </div>","null","","na","test","","","NaN","","","","","","","","4","","74","","","","","","4",""
"564.6000000238419","493691","SARL_v6","SARL_v6fyr7mr07","581d38509b5b8800014d507e","freq","","","img/blue_2bandit_b2.png","70","","70","test","1","","89","","","","circle","square","85","1","5","0.9294117647058824","","","","","","","",""
"null","493942","SARL_v6","SARL_v6fyr7mr07","581d38509b5b8800014d507e","freq_resp","","","img/blue_2bandit_b.png","70","img/blue_2bandit_b.png","70","test","","","","","","","","","","","5","","","","","","","","",""
"null","494096","SARL_v6","SARL_v6fyr7mr07","581d38509b5b8800014d507e","fixation","","","img/fixation.png","null","","","test","","","","","","","","","","","","","","","","","","","",""
"535.3999999761581","494632","SARL_v6","SARL_v6fyr7mr07","581d38509b5b8800014d507e","freq","","","img/blue_2bandit_b2.png","70","","70","test","1","","90","","","","circle","square","86","2","5","0.9302325581395349","","","","","","","",""
"null","494900","SARL_v6","SARL_v6fyr7mr07","581d38509b5b8800014d507e","freq_resp","","","img/blue_2bandit_b.png","70","img/blue_2bandit_b.png","70","test","","","","","","","","","","","5","","","","","","","","",""
"null","495054","SARL_v6","SARL_v6fyr7mr07","581d38509b5b8800014d507e","fixation","","","img/fixation.png","null","","","test","","","","","","","","","","","","","","","","","","","",""
"315.2999999523163","495370","SARL_v6","SARL_v6fyr7mr07","581d38509b5b8800014d507e","freq","","","img/blue_2bandit_b2.png","70","","70","test","1","","91","","","","circle","square","87","3","5","0.9310344827586207","","","","","","","",""
"null","495857","SARL_v6","SARL_v6fyr7mr07","581d38509b5b8800014d507e","freq_resp","","","img/blue_2bandit_b.png","70","img/blue_2bandit_b.png","70","test","","","","","","","","","","","5","","","","","","","","",""
"null","496010","SARL_v6","SARL_v6fyr7mr07","581d38509b5b8800014d507e","fixation","","","img/fixation.png","null","","","test","","","","","","","","","","","","","","","","","","","",""
"113.60000002384186","496125","SARL_v6","SARL_v6fyr7mr07","581d38509b5b8800014d507e","freq","","","img/blue_2bandit_b2.png","70","","70","test","1","","92","","","","circle","square","88","4","5","0.9318181818181818","","","","","","","",""
"null","496815","SARL_v6","SARL_v6fyr7mr07","581d38509b5b8800014d507e","freq_resp","","","img/blue_2bandit_b.png","70","img/blue_2bandit_b.png","70","test","","","","","","","","","","","5","","","","","","","","",""
"null","496969","SARL_v6","SARL_v6fyr7mr07","581d38509b5b8800014d507e","fixation","","","img/fixation.png","null","","","test","","","","","","","","","","","","","","","","","","","",""
"131.60000002384186","497102","SARL_v6","SARL_v6fyr7mr07","581d38509b5b8800014d507e","freq","","","img/blue_2bandit_b2.png","70","","70","test","1","","93","","","","circle","square","89","5","5","0.9325842696629213","","","","","","","",""
"null","497786","SARL_v6","SARL_v6fyr7mr07","581d38509b5b8800014d507e","freq_resp","","","img/blue_2bandit_b.png","70","img/blue_2bandit_b.png","70","test","","","","","","","","","","","5","","","","","","","","",""
"null","497940","SARL_v6","SARL_v6fyr7mr07","581d38509b5b8800014d507e","fixation","","","img/fixation.png","null","","","test","","","","","","","","","","","","","","","","","","","",""
"328.60000002384186","498270","SARL_v6","SARL_v6fyr7mr07","581d38509b5b8800014d507e","infreq","","","img/orange_2bandit_b2.png","70","","68","test","0","","94","","","","circle","square","90","6","5","0.9222222222222223","","","","","","","",""
"null","498743","SARL_v6","SARL_v6fyr7mr07","581d38509b5b8800014d507e","infreq_resp","","","img/orange_2bandit_b.png","70","img/orange_2bandit_b.png","68","test","","","","","","","","","","","5","","","","","","","","",""
"null","498897","SARL_v6","SARL_v6fyr7mr07","581d38509b5b8800014d507e","fixation","","","img/fixation.png","null","","","test","","","","","","","","","","","","","","","","","","","",""
"159.39999997615814","499057","SARL_v6","SARL_v6fyr7mr07","581d38509b5b8800014d507e","freq","","","img/blue_2bandit_b2.png","68","","70","test","0","","95","","","","circle","square","91","7","5","0.9120879120879121","","","","","","","",""
"null","499730","SARL_v6","SARL_v6fyr7mr07","581d38509b5b8800014d507e","freq_resp","","","img/blue_2bandit_b.png","68","img/blue_2bandit_b.png","70","test","","","","","","","","","","","5","","","","","","","","",""
"null","499916","SARL_v6","SARL_v6fyr7mr07","581d38509b5b8800014d507e","fixation","","","img/fixation.png","null","","","test","","","","","","","","","","","","","","","","","","","",""
"457.1999999284744","500374","SARL_v6","SARL_v6fyr7mr07","581d38509b5b8800014d507e","freq","","","img/blue_2bandit_b2.png","70","","70","test","1","","96","","","","circle","square","92","8","5","0.9130434782608695","","","","","","","",""
"null","500733","SARL_v6","SARL_v6fyr7mr07","581d38509b5b8800014d507e","freq_resp","","","img/blue_2bandit_b.png","70","img/blue_2bandit_b.png","70","test","","","","","","","","","","","5","","","","","","","","",""
"null","500888","SARL_v6","SARL_v6fyr7mr07","581d38509b5b8800014d507e","fixation","","","img/fixation.png","null","","","test","","","","","","","","","","","","","","","","","","","",""
"406.5","501296","SARL_v6","SARL_v6fyr7mr07","581d38509b5b8800014d507e","freq","","","img/blue_2bandit_b2.png","70","","70","test","1","","97","","","","circle","square","93","9","5","0.9139784946236559","","","","","","","",""
"null","501705","SARL_v6","SARL_v6fyr7mr07","581d38509b5b8800014d507e","freq_resp","","","img/blue_2bandit_b.png","70","img/blue_2bandit_b.png","70","test","","","","","","","","","","","5","","","","","","","","",""
"null","501859","SARL_v6","SARL_v6fyr7mr07","581d38509b5b8800014d507e","fixation","","","img/fixation.png","null","","","test","","","","","","","","","","","","","","","","","","","",""
"399.3000000715256","502260","SARL_v6","SARL_v6fyr7mr07","581d38509b5b8800014d507e","freq","","","img/blue_2bandit_b2.png","70","","70","test","1","","98","","","","circle","square","94","10","5","0.9148936170212766","","","","","","","",""
"null","502664","SARL_v6","SARL_v6fyr7mr07","581d38509b5b8800014d507e","freq_resp","","","img/blue_2bandit_b.png","70","img/blue_2bandit_b.png","70","test","","","","","","","","","","","5","","","","","","","","",""
"null","502818","SARL_v6","SARL_v6fyr7mr07","581d38509b5b8800014d507e","fixation","","","img/fixation.png","null","","","test","","","","","","","","","","","","","","","","","","","",""
"375.59999990463257","503195","SARL_v6","SARL_v6fyr7mr07","581d38509b5b8800014d507e","freq","","","img/blue_2bandit_b2.png","70","","70","test","1","","99","","","","circle","square","95","11","5","0.9157894736842105","","","","","","","",""
"null","503634","SARL_v6","SARL_v6fyr7mr07","581d38509b5b8800014d507e","freq_resp","","","img/blue_2bandit_b.png","70","img/blue_2bandit_b.png","70","test","","","","","","","","","","","5","","","","","","","","",""
"null","503788","SARL_v6","SARL_v6fyr7mr07","581d38509b5b8800014d507e","fixation","","","img/fixation.png","null","","","test","","","","","","","","","","","","","","","","","","","",""
"438.89999997615814","504228","SARL_v6","SARL_v6fyr7mr07","581d38509b5b8800014d507e","freq","","","img/blue_2bandit_b2.png","70","","70","test","1","","100","","","","circle","square","96","12","5","0.9166666666666666","","","","","","","",""
"null","504605","SARL_v6","SARL_v6fyr7mr07","581d38509b5b8800014d507e","freq_resp","","","img/blue_2bandit_b.png","70","img/blue_2bandit_b.png","70","test","","","","","","","","","","","5","","","","","","","","",""
"null","504759","SARL_v6","SARL_v6fyr7mr07","581d38509b5b8800014d507e","fixation","","","img/fixation.png","null","","","test","","","","","","","","","","","","","","","","","","","",""
"323.5","505084","SARL_v6","SARL_v6fyr7mr07","581d38509b5b8800014d507e","freq","","","img/blue_2bandit_b2.png","70","","70","test","1","","101","","","","circle","square","97","13","5","0.9175257731958762","","","","","","","",""
"null","505579","SARL_v6","SARL_v6fyr7mr07","581d38509b5b8800014d507e","freq_resp","","","img/blue_2bandit_b.png","70","img/blue_2bandit_b.png","70","test","","","","","","","","","","","5","","","","","","","","",""
"null","505765","SARL_v6","SARL_v6fyr7mr07","581d38509b5b8800014d507e","fixation","","","img/fixation.png","null","","","test","","","","","","","","","","","","","","","","","","","",""
"311.2000000476837","506077","SARL_v6","SARL_v6fyr7mr07","581d38509b5b8800014d507e","freq","","","img/blue_2bandit_b2.png","70","","70","test","1","","102","","","","circle","square","98","14","5","0.9183673469387755","","","","","","","",""
"null","506581","SARL_v6","SARL_v6fyr7mr07","581d38509b5b8800014d507e","freq_resp","","","img/blue_2bandit_b.png","70","img/blue_2bandit_b.png","70","test","","","","","","","","","","","5","","","","","","","","",""
"null","506735","SARL_v6","SARL_v6fyr7mr07","581d38509b5b8800014d507e","fixation","","","img/fixation.png","null","","","test","","","","","","","","","","","","","","","","","","","",""
"486.60000002384186","507223","SARL_v6","SARL_v6fyr7mr07","581d38509b5b8800014d507e","infreq","","","img/orange_2bandit_b2.png","68","","68","test","1","","103","","","","circle","square","99","15","5","0.9191919191919192","","","","","","","",""
"null","507553","SARL_v6","SARL_v6fyr7mr07","581d38509b5b8800014d507e","infreq_resp","","","img/orange_2bandit_b.png","68","img/orange_2bandit_b.png","68","test","","","","","","","","","","","5","","","","","","","","",""
"null","507707","SARL_v6","SARL_v6fyr7mr07","581d38509b5b8800014d507e","fixation","","","img/fixation.png","null","","","test","","","","","","","","","","","","","","","","","","","",""
"532.6999999284744","508241","SARL_v6","SARL_v6fyr7mr07","581d38509b5b8800014d507e","freq","","","img/blue_2bandit_b2.png","70","","70","test","1","","104","","","","circle","square","100","16","5","0.92","","","","","","","",""
"null","508524","SARL_v6","SARL_v6fyr7mr07","581d38509b5b8800014d507e","freq_resp","","","img/blue_2bandit_b.png","70","img/blue_2bandit_b.png","70","test","","","","","","","","","","","5","","","","","","","","",""
"null","508680","SARL_v6","SARL_v6fyr7mr07","581d38509b5b8800014d507e","fixation","","","img/fixation.png","null","","","test","","","","","","","","","","","","","","","","","","","",""
"541.7000000476837","509223","SARL_v6","SARL_v6fyr7mr07","581d38509b5b8800014d507e","freq","","","img/blue_2bandit_b2.png","70","","70","test","1","","105","","","","circle","square","101","17","5","0.9207920792079208","","","","","","","",""
"null","509497","SARL_v6","SARL_v6fyr7mr07","581d38509b5b8800014d507e","freq_resp","","","img/blue_2bandit_b.png","70","img/blue_2bandit_b.png","70","test","","","","","","","","","","","5","","","","","","","","",""
"null","509651","SARL_v6","SARL_v6fyr7mr07","581d38509b5b8800014d507e","fixation","","","img/fixation.png","null","","","test","","","","","","","","","","","","","","","","","","","",""
"570.6000000238419","510223","SARL_v6","SARL_v6fyr7mr07","581d38509b5b8800014d507e","freq","","","img/blue_2bandit_b2.png","70","","70","test","1","","106","","","","circle","square","102","18","5","0.9215686274509803","","","","","","","",""
"null","510469","SARL_v6","SARL_v6fyr7mr07","581d38509b5b8800014d507e","freq_resp","","","img/blue_2bandit_b.png","70","img/blue_2bandit_b.png","70","test","","","","","","","","","","","5","","","","","","","","",""
"null","510623","SARL_v6","SARL_v6fyr7mr07","581d38509b5b8800014d507e","fixation","","","img/fixation.png","null","","","test","","","","","","","","","","","","","","","","","","","",""
"479.2999999523163","511104","SARL_v6","SARL_v6fyr7mr07","581d38509b5b8800014d507e","freq","","","img/blue_2bandit_b2.png","70","","70","test","1","","107","","","","circle","square","103","19","5","0.9223300970873787","","","","","","","",""
"null","511426","SARL_v6","SARL_v6fyr7mr07","581d38509b5b8800014d507e","freq_resp","","","img/blue_2bandit_b.png","70","img/blue_2bandit_b.png","70","test","","","","","","","","","","","5","","","","","","","","",""
"null","511579","SARL_v6","SARL_v6fyr7mr07","581d38509b5b8800014d507e","fixation","","","img/fixation.png","null","","","test","","","","","","","","","","","","","","","","","","","",""
"462.40000009536743","512042","SARL_v6","SARL_v6fyr7mr07","581d38509b5b8800014d507e","freq","","","img/blue_2bandit_b2.png","70","","70","test","1","","108","","","","circle","square","104","20","5","0.9230769230769231","","","","","","","",""
"null","512382","SARL_v6","SARL_v6fyr7mr07","581d38509b5b8800014d507e","freq_resp","","","img/blue_2bandit_b.png","70","img/blue_2bandit_b.png","70","test","","","","","","","","","","","5","","","","","","","","",""
"null","512535","SARL_v6","SARL_v6fyr7mr07","581d38509b5b8800014d507e","fixation","","","img/fixation.png","null","","","test","","","","","","","","","","","","","","","","","","","",""
"678.1999999284744","513215","SARL_v6","SARL_v6fyr7mr07","581d38509b5b8800014d507e","rl","","","img/black_2bandit_b2.png","75","","0","test","","","109","","","4","circle","square","","0","5","","75","-7","4","-7","4","square","5","0"
"null","513980","SARL_v6","SARL_v6fyr7mr07","581d38509b5b8800014d507e","feedback","","","<div class=""veryhighPoints_sq""> 4 </div>","null","","na","test","","","NaN","","","","","","","","5","","75","","","","","","5",""
"529.1999999284744","514511","SARL_v6","SARL_v6fyr7mr07","581d38509b5b8800014d507e","freq","","","img/blue_2bandit_b2.png","70","","70","test","1","","110","","","","circle","square","105","1","6","0.9238095238095239","","","","","","","",""
"null","514785","SARL_v6","SARL_v6fyr7mr07","581d38509b5b8800014d507e","freq_resp","","","img/blue_2bandit_b.png","70","img/blue_2bandit_b.png","70","test","","","","","","","","","","","6","","","","","","","","",""
"null","514938","SARL_v6","SARL_v6fyr7mr07","581d38509b5b8800014d507e","fixation","","","img/fixation.png","null","","","test","","","","","","","","","","","","","","","","","","","",""
"616.5","515556","SARL_v6","SARL_v6fyr7mr07","581d38509b5b8800014d507e","infreq","","","img/orange_2bandit_b2.png","68","","68","test","1","","111","","","","circle","square","106","2","6","0.9245283018867925","","","","","","","",""
"null","515742","SARL_v6","SARL_v6fyr7mr07","581d38509b5b8800014d507e","infreq_resp","","","img/orange_2bandit_b.png","68","img/orange_2bandit_b.png","68","test","","","","","","","","","","","6","","","","","","","","",""
"null","515897","SARL_v6","SARL_v6fyr7mr07","581d38509b5b8800014d507e","fixation","","","img/fixation.png","null","","","test","","","","","","","","","","","","","","","","","","","",""
"560.8999999761581","516459","SARL_v6","SARL_v6fyr7mr07","581d38509b5b8800014d507e","freq","","","img/blue_2bandit_b2.png","70","","70","test","1","","112","","","","circle","square","107","3","6","0.9252336448598131","","","","","","","",""
"null","516716","SARL_v6","SARL_v6fyr7mr07","581d38509b5b8800014d507e","freq_resp","","","img/blue_2bandit_b.png","70","img/blue_2bandit_b.png","70","test","","","","","","","","","","","6","","","","","","","","",""
"null","516870","SARL_v6","SARL_v6fyr7mr07","581d38509b5b8800014d507e","fixation","","","img/fixation.png","null","","","test","","","","","","","","","","","","","","","","","","","",""
"690.3000000715256","517562","SARL_v6","SARL_v6fyr7mr07","581d38509b5b8800014d507e","freq","","","img/blue_2bandit_b2.png","70","","70","test","1","","113","","","","circle","square","108","4","6","0.9259259259259259","","","","","","","",""
"null","517674","SARL_v6","SARL_v6fyr7mr07","581d38509b5b8800014d507e","freq_resp","","","img/blue_2bandit_b.png","70","img/blue_2bandit_b.png","70","test","","","","","","","","","","","6","","","","","","","","",""
"null","517826","SARL_v6","SARL_v6fyr7mr07","581d38509b5b8800014d507e","fixation","","","img/fixation.png","null","","","test","","","","","","","","","","","","","","","","","","","",""
"718.6999999284744","518546","SARL_v6","SARL_v6fyr7mr07","581d38509b5b8800014d507e","freq","","","img/blue_2bandit_b2.png","70","","70","test","1","","114","","","","circle","square","109","5","6","0.926605504587156","","","","","","","",""
"null","518643","SARL_v6","SARL_v6fyr7mr07","581d38509b5b8800014d507e","freq_resp","","","img/blue_2bandit_b.png","70","img/blue_2bandit_b.png","70","test","","","","","","","","","","","6","","","","","","","","",""
"null","518797","SARL_v6","SARL_v6fyr7mr07","581d38509b5b8800014d507e","fixation","","","img/fixation.png","null","","","test","","","","","","","","","","","","","","","","","","","",""
"568.6000000238419","519368","SARL_v6","SARL_v6fyr7mr07","581d38509b5b8800014d507e","freq","","","img/blue_2bandit_b2.png","70","","70","test","1","","115","","","","circle","square","110","6","6","0.9272727272727272","","","","","","","",""
"null","519601","SARL_v6","SARL_v6fyr7mr07","581d38509b5b8800014d507e","freq_resp","","","img/blue_2bandit_b.png","70","img/blue_2bandit_b.png","70","test","","","","","","","","","","","6","","","","","","","","",""
"null","519755","SARL_v6","SARL_v6fyr7mr07","581d38509b5b8800014d507e","fixation","","","img/fixation.png","null","","","test","","","","","","","","","","","","","","","","","","","",""
"401.1999999284744","520157","SARL_v6","SARL_v6fyr7mr07","581d38509b5b8800014d507e","freq","","","img/blue_2bandit_b2.png","70","","70","test","1","","116","","","","circle","square","111","7","6","0.9279279279279279","","","","","","","",""
"null","520572","SARL_v6","SARL_v6fyr7mr07","581d38509b5b8800014d507e","freq_resp","","","img/blue_2bandit_b.png","70","img/blue_2bandit_b.png","70","test","","","","","","","","","","","6","","","","","","","","",""
"null","520726","SARL_v6","SARL_v6fyr7mr07","581d38509b5b8800014d507e","fixation","","","img/fixation.png","null","","","test","","","","","","","","","","","","","","","","","","","",""
"418.39999997615814","521145","SARL_v6","SARL_v6fyr7mr07","581d38509b5b8800014d507e","freq","","","img/blue_2bandit_b2.png","70","","70","test","1","","117","","","","circle","square","112","8","6","0.9285714285714286","","","","","","","",""
"null","521545","SARL_v6","SARL_v6fyr7mr07","581d38509b5b8800014d507e","freq_resp","","","img/blue_2bandit_b.png","70","img/blue_2bandit_b.png","70","test","","","","","","","","","","","6","","","","","","","","",""
"null","521715","SARL_v6","SARL_v6fyr7mr07","581d38509b5b8800014d507e","fixation","","","img/fixation.png","null","","","test","","","","","","","","","","","","","","","","","","","",""
"319.39999997615814","522036","SARL_v6","SARL_v6fyr7mr07","581d38509b5b8800014d507e","freq","","","img/blue_2bandit_b2.png","70","","70","test","1","","118","","","","circle","square","113","9","6","0.9292035398230089","","","","","","","",""
"null","522532","SARL_v6","SARL_v6fyr7mr07","581d38509b5b8800014d507e","freq_resp","","","img/blue_2bandit_b.png","70","img/blue_2bandit_b.png","70","test","","","","","","","","","","","6","","","","","","","","",""
"null","522686","SARL_v6","SARL_v6fyr7mr07","581d38509b5b8800014d507e","fixation","","","img/fixation.png","null","","","test","","","","","","","","","","","","","","","","","","","",""
"341.8000000715256","523030","SARL_v6","SARL_v6fyr7mr07","581d38509b5b8800014d507e","freq","","","img/blue_2bandit_b2.png","70","","70","test","1","","119","","","","circle","square","114","10","6","0.9298245614035088","","","","","","","",""
"null","523505","SARL_v6","SARL_v6fyr7mr07","581d38509b5b8800014d507e","freq_resp","","","img/blue_2bandit_b.png","70","img/blue_2bandit_b.png","70","test","","","","","","","","","","","6","","","","","","","","",""
"null","523660","SARL_v6","SARL_v6fyr7mr07","581d38509b5b8800014d507e","fixation","","","img/fixation.png","null","","","test","","","","","","","","","","","","","","","","","","","",""
"343.89999997615814","524005","SARL_v6","SARL_v6fyr7mr07","581d38509b5b8800014d507e","freq","","","img/blue_2bandit_b2.png","70","","70","test","1","","120","","","","circle","square","115","11","6","0.9304347826086956","","","","","","","",""
"null","524478","SARL_v6","SARL_v6fyr7mr07","581d38509b5b8800014d507e","freq_resp","","","img/blue_2bandit_b.png","70","img/blue_2bandit_b.png","70","test","","","","","","","","","","","6","","","","","","","","",""
"null","524632","SARL_v6","SARL_v6fyr7mr07","581d38509b5b8800014d507e","fixation","","","img/fixation.png","null","","","test","","","","","","","","","","","","","","","","","","","",""
"313.2000000476837","524946","SARL_v6","SARL_v6fyr7mr07","581d38509b5b8800014d507e","freq","","","img/blue_2bandit_b2.png","70","","70","test","1","","121","","","","circle","square","116","12","6","0.9310344827586207","","","","","","","",""
"null","525447","SARL_v6","SARL_v6fyr7mr07","581d38509b5b8800014d507e","freq_resp","","","img/blue_2bandit_b.png","70","img/blue_2bandit_b.png","70","test","","","","","","","","","","","6","","","","","","","","",""
"null","525601","SARL_v6","SARL_v6fyr7mr07","581d38509b5b8800014d507e","fixation","","","img/fixation.png","null","","","test","","","","","","","","","","","","","","","","","","","",""
"292.7999999523163","525895","SARL_v6","SARL_v6fyr7mr07","581d38509b5b8800014d507e","freq","","","img/blue_2bandit_b2.png","70","","70","test","1","","122","","","","circle","square","117","13","6","0.9316239316239316","","","","","","","",""
"null","526404","SARL_v6","SARL_v6fyr7mr07","581d38509b5b8800014d507e","freq_resp","","","img/blue_2bandit_b.png","70","img/blue_2bandit_b.png","70","test","","","","","","","","","","","6","","","","","","","","",""
"null","526558","SARL_v6","SARL_v6fyr7mr07","581d38509b5b8800014d507e","fixation","","","img/fixation.png","null","","","test","","","","","","","","","","","","","","","","","","","",""
"354","526914","SARL_v6","SARL_v6fyr7mr07","581d38509b5b8800014d507e","freq","","","img/blue_2bandit_b2.png","70","","70","test","1","","123","","","","circle","square","118","14","6","0.9322033898305084","","","","","","","",""
"null","527362","SARL_v6","SARL_v6fyr7mr07","581d38509b5b8800014d507e","freq_resp","","","img/blue_2bandit_b.png","70","img/blue_2bandit_b.png","70","test","","","","","","","","","","","6","","","","","","","","",""
"null","527519","SARL_v6","SARL_v6fyr7mr07","581d38509b5b8800014d507e","fixation","","","img/fixation.png","null","","","test","","","","","","","","","","","","","","","","","","","",""
"306","527826","SARL_v6","SARL_v6fyr7mr07","581d38509b5b8800014d507e","freq","","","img/blue_2bandit_b2.png","70","","70","test","1","","124","","","","circle","square","119","15","6","0.9327731092436975","","","","","","","",""
"null","528334","SARL_v6","SARL_v6fyr7mr07","581d38509b5b8800014d507e","freq_resp","","","img/blue_2bandit_b.png","70","img/blue_2bandit_b.png","70","test","","","","","","","","","","","6","","","","","","","","",""
"null","528489","SARL_v6","SARL_v6fyr7mr07","581d38509b5b8800014d507e","fixation","","","img/fixation.png","null","","","test","","","","","","","","","","","","","","","","","","","",""
"310.09999990463257","528800","SARL_v6","SARL_v6fyr7mr07","581d38509b5b8800014d507e","freq","","","img/blue_2bandit_b2.png","70","","70","test","1","","125","","","","circle","square","120","16","6","0.9333333333333333","","","","","","","",""
"null","529292","SARL_v6","SARL_v6fyr7mr07","581d38509b5b8800014d507e","freq_resp","","","img/blue_2bandit_b.png","70","img/blue_2bandit_b.png","70","test","","","","","","","","","","","6","","","","","","","","",""
"null","529445","SARL_v6","SARL_v6fyr7mr07","581d38509b5b8800014d507e","fixation","","","img/fixation.png","null","","","test","","","","","","","","","","","","","","","","","","","",""
"310.5","529757","SARL_v6","SARL_v6fyr7mr07","581d38509b5b8800014d507e","freq","","","img/blue_2bandit_b2.png","70","","70","test","1","","126","","","","circle","square","121","17","6","0.9338842975206612","","","","","","","",""
"null","530248","SARL_v6","SARL_v6fyr7mr07","581d38509b5b8800014d507e","freq_resp","","","img/blue_2bandit_b.png","70","img/blue_2bandit_b.png","70","test","","","","","","","","","","","6","","","","","","","","",""
"null","530402","SARL_v6","SARL_v6fyr7mr07","581d38509b5b8800014d507e","fixation","","","img/fixation.png","null","","","test","","","","","","","","","","","","","","","","","","","",""
"311.09999990463257","530715","SARL_v6","SARL_v6fyr7mr07","581d38509b5b8800014d507e","freq","","","img/blue_2bandit_b2.png","70","","70","test","1","","127","","","","circle","square","122","18","6","0.9344262295081968","","","","","","","",""
"null","531205","SARL_v6","SARL_v6fyr7mr07","581d38509b5b8800014d507e","freq_resp","","","img/blue_2bandit_b.png","70","img/blue_2bandit_b.png","70","test","","","","","","","","","","","6","","","","","","","","",""
"null","531361","SARL_v6","SARL_v6fyr7mr07","581d38509b5b8800014d507e","fixation","","","img/fixation.png","null","","","test","","","","","","","","","","","","","","","","","","","",""
"329.7999999523163","531692","SARL_v6","SARL_v6fyr7mr07","581d38509b5b8800014d507e","freq","","","img/blue_2bandit_b2.png","70","","70","test","1","","128","","","","circle","square","123","19","6","0.9349593495934959","","","","","","","",""
"null","532193","SARL_v6","SARL_v6fyr7mr07","581d38509b5b8800014d507e","freq_resp","","","img/blue_2bandit_b.png","70","img/blue_2bandit_b.png","70","test","","","","","","","","","","","6","","","","","","","","",""
"null","532362","SARL_v6","SARL_v6fyr7mr07","581d38509b5b8800014d507e","fixation","","","img/fixation.png","null","","","test","","","","","","","","","","","","","","","","","","","",""
"464.6999999284744","532828","SARL_v6","SARL_v6fyr7mr07","581d38509b5b8800014d507e","infreq","","","img/orange_2bandit_b2.png","68","","68","test","1","","129","","","","circle","square","124","20","6","0.9354838709677419","","","","","","","",""
"null","533167","SARL_v6","SARL_v6fyr7mr07","581d38509b5b8800014d507e","infreq_resp","","","img/orange_2bandit_b.png","68","img/orange_2bandit_b.png","68","test","","","","","","","","","","","6","","","","","","","","",""
"null","533321","SARL_v6","SARL_v6fyr7mr07","581d38509b5b8800014d507e","fixation","","","img/fixation.png","null","","","test","","","","","","","","","","","","","","","","","","","",""
"429.89999997615814","533753","SARL_v6","SARL_v6fyr7mr07","581d38509b5b8800014d507e","freq","","","img/blue_2bandit_b2.png","70","","70","test","1","","130","","","","circle","square","125","21","6","0.936","","","","","","","",""
"null","534138","SARL_v6","SARL_v6fyr7mr07","581d38509b5b8800014d507e","freq_resp","","","img/blue_2bandit_b.png","70","img/blue_2bandit_b.png","70","test","","","","","","","","","","","6","","","","","","","","",""
"null","534294","SARL_v6","SARL_v6fyr7mr07","581d38509b5b8800014d507e","fixation","","","img/fixation.png","null","","","test","","","","","","","","","","","","","","","","","","","",""
"470.8000000715256","534766","SARL_v6","SARL_v6fyr7mr07","581d38509b5b8800014d507e","rl","","","img/black_2bandit_b2.png","75","","0","test","","","131","","","-4","circle","square","","0","6","","75","-1","-4","-1","-4","square","6","0"
