"rt","time_elapsed","expId","subject","prolificID","trialType","rlType","attType","stimulus","key_press","stim","corrresp","phase","corr","pracCounter","trialNum","rewardOne","rewardTwo","reward","bandOne","bandTwo","attentionNum","attentionRunNum","blockNum","performance","bandChosen","circleVal","squareVal","bandOneVal","bandTwoVal","shapeChosen","rlNum","badFlag"
"23306.700000000186","23312","SARL_v6","SARL_v6mb57ae0b","5bace423b95cc700014b5334","","","","","","","","","","","","","","","","","","","","","","","","","","","",""
"","25629","SARL_v6","SARL_v6mb57ae0b","5bace423b95cc700014b5334","fullscreen","fullscreen","fullscreen","","","","","","","","","","","","","","","","","","","","","","","","",""
"26015.300000000047","51647","SARL_v6","SARL_v6mb57ae0b","5bace423b95cc700014b5334","","","","","","","","","","","","","","","","","","","","","","","","","","","",""
"null","52454","SARL_v6","SARL_v6mb57ae0b","5bace423b95cc700014b5334","freqPrac","","","img/orange_2bandit_a2.png","null","img/orange_2bandit_a2.png","70","prac","0","1","","","","","","","","","","","","","","","","","",""
"null","53468","SARL_v6","SARL_v6mb57ae0b","5bace423b95cc700014b5334","feedback","","","img/tooSlow.png","null","","na","prac","","","","","","","","","","","","","","","","","","","",""
"null","53631","SARL_v6","SARL_v6mb57ae0b","5bace423b95cc700014b5334","fixation","","","img/fixation.png","null","","","prac","","","","","","","","","","","","","","","","","","","",""
"421.60000000009313","54055","SARL_v6","SARL_v6mb57ae0b","5bace423b95cc700014b5334","infreqPrac","","","img/blue_2bandit_a2.png","68","img/blue_2bandit_a2.png","68","prac","1","1","","","","","","","","","","","","","","","","","",""
"421.60000000009313","54448","SARL_v6","SARL_v6mb57ae0b","5bace423b95cc700014b5334","infreqPrac_resp","","","img/blue_2bandit_a.png","68","img/blue_2bandit_a.png","68","prac","","","","","","","","","","","","","","","","","","","",""
"null","54611","SARL_v6","SARL_v6mb57ae0b","5bace423b95cc700014b5334","fixation","","","img/fixation.png","null","","","prac","","","","","","","","","","","","","","","","","","","",""
"547.8000000000466","55162","SARL_v6","SARL_v6mb57ae0b","5bace423b95cc700014b5334","freqPrac","","","img/orange_2bandit_a2.png","70","img/orange_2bandit_a2.png","70","prac","1","1","","","","","","","","","","","","","","","","","",""
"547.8000000000466","55423","SARL_v6","SARL_v6mb57ae0b","5bace423b95cc700014b5334","freqPrac_resp","","","img/orange_2bandit_a.png","70","img/orange_2bandit_a.png","70","prac","","","","","","","","","","","","","","","","","","","",""
"null","55578","SARL_v6","SARL_v6mb57ae0b","5bace423b95cc700014b5334","fixation","","","img/fixation.png","null","","","prac","","","","","","","","","","","","","","","","","","","",""
"406","55987","SARL_v6","SARL_v6mb57ae0b","5bace423b95cc700014b5334","infreqPrac","","","img/blue_2bandit_a2.png","68","img/blue_2bandit_a2.png","68","prac","1","1","","","","","","","","","","","","","","","","","",""
"406","56395","SARL_v6","SARL_v6mb57ae0b","5bace423b95cc700014b5334","infreqPrac_resp","","","img/blue_2bandit_a.png","68","img/blue_2bandit_a.png","68","prac","","","","","","","","","","","","","","","","","","","",""
"null","56560","SARL_v6","SARL_v6mb57ae0b","5bace423b95cc700014b5334","fixation","","","img/fixation.png","null","","","prac","","","","","","","","","","","","","","","","","","","",""
"425.4000000001397","56988","SARL_v6","SARL_v6mb57ae0b","5bace423b95cc700014b5334","infreqPrac","","","img/blue_2bandit_a2.png","68","img/blue_2bandit_a2.png","68","prac","1","1","","","","","","","","","","","","","","","","","",""
"425.4000000001397","57377","SARL_v6","SARL_v6mb57ae0b","5bace423b95cc700014b5334","infreqPrac_resp","","","img/blue_2bandit_a.png","68","img/blue_2bandit_a.png","68","prac","","","","","","","","","","","","","","","","","","","",""
"null","57541","SARL_v6","SARL_v6mb57ae0b","5bace423b95cc700014b5334","fixation","","","img/fixation.png","null","","","prac","","","","","","","","","","","","","","","","","","","",""
"520.8000000000466","58065","SARL_v6","SARL_v6mb57ae0b","5bace423b95cc700014b5334","infreqPrac","","","img/blue_2bandit_a2.png","68","img/blue_2bandit_a2.png","68","prac","1","1","","","","","","","","","","","","","","","","","",""
"520.8000000000466","58353","SARL_v6","SARL_v6mb57ae0b","5bace423b95cc700014b5334","infreqPrac_resp","","","img/blue_2bandit_a.png","68","img/blue_2bandit_a.png","68","prac","","","","","","","","","","","","","","","","","","","",""
"null","58509","SARL_v6","SARL_v6mb57ae0b","5bace423b95cc700014b5334","fixation","","","img/fixation.png","null","","","prac","","","","","","","","","","","","","","","","","","","",""
"584.1000000000931","59096","SARL_v6","SARL_v6mb57ae0b","5bace423b95cc700014b5334","freqPrac","","","img/orange_2bandit_a2.png","70","img/orange_2bandit_a2.png","70","prac","1","1","","","","","","","","","","","","","","","","","",""
"584.1000000000931","59322","SARL_v6","SARL_v6mb57ae0b","5bace423b95cc700014b5334","freqPrac_resp","","","img/orange_2bandit_a.png","70","img/orange_2bandit_a.png","70","prac","","","","","","","","","","","","","","","","","","","",""
"null","59489","SARL_v6","SARL_v6mb57ae0b","5bace423b95cc700014b5334","fixation","","","img/fixation.png","null","","","prac","","","","","","","","","","","","","","","","","","","",""
"430.60000000009313","59923","SARL_v6","SARL_v6mb57ae0b","5bace423b95cc700014b5334","infreqPrac","","","img/blue_2bandit_a2.png","68","img/blue_2bandit_a2.png","68","prac","1","1","","","","","","","","","","","","","","","","","",""
"430.60000000009313","60300","SARL_v6","SARL_v6mb57ae0b","5bace423b95cc700014b5334","infreqPrac_resp","","","img/blue_2bandit_a.png","68","img/blue_2bandit_a.png","68","prac","","","","","","","","","","","","","","","","","","","",""
"1.3999999999068677","60456","SARL_v6","SARL_v6mb57ae0b","5bace423b95cc700014b5334","fixation","","","img/fixation.png","68","","","prac","","","","","","","","","","","","","","","","","","","",""
"557.2999999998137","61016","SARL_v6","SARL_v6mb57ae0b","5bace423b95cc700014b5334","freqPrac","","","img/orange_2bandit_a2.png","70","img/orange_2bandit_a2.png","70","prac","1","1","","","","","","","","","","","","","","","","","",""
"557.2999999998137","61261","SARL_v6","SARL_v6mb57ae0b","5bace423b95cc700014b5334","freqPrac_resp","","","img/orange_2bandit_a.png","70","img/orange_2bandit_a.png","70","prac","","","","","","","","","","","","","","","","","","","",""
"null","61422","SARL_v6","SARL_v6mb57ae0b","5bace423b95cc700014b5334","fixation","","","img/fixation.png","null","","","prac","","","","","","","","","","","","","","","","","","","",""
"453.69999999995343","61878","SARL_v6","SARL_v6mb57ae0b","5bace423b95cc700014b5334","freqPrac","","","img/orange_2bandit_a2.png","70","img/orange_2bandit_a2.png","70","prac","1","1","","","","","","","","","","","","","","","","","",""
"453.69999999995343","62241","SARL_v6","SARL_v6mb57ae0b","5bace423b95cc700014b5334","freqPrac_resp","","","img/orange_2bandit_a.png","70","img/orange_2bandit_a.png","70","prac","","","","","","","","","","","","","","","","","","","",""
"null","62404","SARL_v6","SARL_v6mb57ae0b","5bace423b95cc700014b5334","fixation","","","img/fixation.png","null","","","prac","","","","","","","","","","","","","","","","","","","",""
"13198","75604","SARL_v6","SARL_v6mb57ae0b","5bace423b95cc700014b5334","","","","","","","","prac","","","","","","","","","","","","","","","","","","","",""
"1075.6999999999534","76683","SARL_v6","SARL_v6mb57ae0b","5bace423b95cc700014b5334","rlPractice","","","img/black_2bandit_a2.png","74","img/black_2bandit_a2.png","","prac","","","0","","","","","","","","","","","","","","","","",""
"null","77449","SARL_v6","SARL_v6mb57ae0b","5bace423b95cc700014b5334","feedback","","","<div class=""verylowPoints_sq""> -14 </div>","null","","na","prac","","","1","10","-14","10","","","","","","","","","","","","","",""
"null","77606","SARL_v6","SARL_v6mb57ae0b","5bace423b95cc700014b5334","fixation","","","img/fixation.png","null","","","prac","","","","","","","","","","","","","","","","","","","",""
"553.1000000000931","78162","SARL_v6","SARL_v6mb57ae0b","5bace423b95cc700014b5334","rlPractice","","","img/black_2bandit_a2.png","75","img/black_2bandit_a2.png","","prac","","","1","","","","","","","","","","","","","","","","",""
"null","78915","SARL_v6","SARL_v6mb57ae0b","5bace423b95cc700014b5334","feedback","","","<div class=""veryhighPoints""> 5 </div>","null","","na","prac","","","2","5","-5","5","","","","","","","","","","","","","",""
"null","79071","SARL_v6","SARL_v6mb57ae0b","5bace423b95cc700014b5334","fixation","","","img/fixation.png","null","","","prac","","","","","","","","","","","","","","","","","","","",""
"430.4000000001397","79504","SARL_v6","SARL_v6mb57ae0b","5bace423b95cc700014b5334","rlPractice","","","img/black_2bandit_a2.png","75","img/black_2bandit_a2.png","","prac","","","2","","","","","","","","","","","","","","","","",""
"null","80262","SARL_v6","SARL_v6mb57ae0b","5bace423b95cc700014b5334","feedback","","","<div class=""veryhighPoints""> 30 </div>","null","","na","prac","","","3","30","2","30","","","","","","","","","","","","","",""
"null","80419","SARL_v6","SARL_v6mb57ae0b","5bace423b95cc700014b5334","fixation","","","img/fixation.png","null","","","prac","","","","","","","","","","","","","","","","","","","",""
"366","80788","SARL_v6","SARL_v6mb57ae0b","5bace423b95cc700014b5334","rlPractice","","","img/black_2bandit_a2.png","75","img/black_2bandit_a2.png","","prac","","","3","","","","","","","","","","","","","","","","",""
"null","81552","SARL_v6","SARL_v6mb57ae0b","5bace423b95cc700014b5334","feedback","","","<div class=""verylowPoints""> -2 </div>","null","","na","prac","","","4","-2","20","-2","","","","","","","","","","","","","",""
"null","81717","SARL_v6","SARL_v6mb57ae0b","5bace423b95cc700014b5334","fixation","","","img/fixation.png","null","","","prac","","","","","","","","","","","","","","","","","","","",""
"10119.899999999907","91839","SARL_v6","SARL_v6mb57ae0b","5bace423b95cc700014b5334","","","","","","","","prac","","","","","","","","","","","","","","","","","","","",""
"null","92647","SARL_v6","SARL_v6mb57ae0b","5bace423b95cc700014b5334","mixAttFreqPrac","","","img/orange_2bandit_a2.png","null","img/orange_2bandit_a2.png","70","prac","","","1","","","","","","","","","","","","","","","","",""
"135.89999999990687","92799","SARL_v6","SARL_v6mb57ae0b","5bace423b95cc700014b5334","fixation","","","img/fixation.png","70","","","prac","","","","","","","","","","","","","","","","","","","",""
"461.20000000018626","93263","SARL_v6","SARL_v6mb57ae0b","5bace423b95cc700014b5334","mixAttInfreqPrac","","","img/blue_2bandit_a2.png","68","img/blue_2bandit_a2.png","68","prac","","","2","","","","","","","","","","","","","","","","",""
"461.20000000018626","93612","SARL_v6","SARL_v6mb57ae0b","5bace423b95cc700014b5334","infreqPrac_resp","","","img/blue_2bandit_a.png","68","img/orange_2bandit_a.png","68","prac","","","2","","","","","","","","","","","","","","","","",""
"null","93774","SARL_v6","SARL_v6mb57ae0b","5bace423b95cc700014b5334","fixation","","","img/fixation.png","null","","","prac","","","","","","","","","","","","","","","","","","","",""
"473.4000000001397","94250","SARL_v6","SARL_v6mb57ae0b","5bace423b95cc700014b5334","mixAttInfreqPrac","","","img/blue_2bandit_a2.png","68","img/blue_2bandit_a2.png","68","prac","","","3","","","","","","","","","","","","","","","","",""
"473.4000000001397","94593","SARL_v6","SARL_v6mb57ae0b","5bace423b95cc700014b5334","infreqPrac_resp","","","img/blue_2bandit_a.png","68","img/orange_2bandit_a.png","68","prac","","","3","","","","","","","","","","","","","","","","",""
"null","94755","SARL_v6","SARL_v6mb57ae0b","5bace423b95cc700014b5334","fixation","","","img/fixation.png","null","","","prac","","","","","","","","","","","","","","","","","","","",""
"424.19999999995343","95182","SARL_v6","SARL_v6mb57ae0b","5bace423b95cc700014b5334","mixAttInfreqPrac","","","img/blue_2bandit_a2.png","68","img/blue_2bandit_a2.png","68","prac","","","4","","","","","","","","","","","","","","","","",""
"424.19999999995343","95572","SARL_v6","SARL_v6mb57ae0b","5bace423b95cc700014b5334","infreqPrac_resp","","","img/blue_2bandit_a.png","68","img/orange_2bandit_a.png","68","prac","","","4","","","","","","","","","","","","","","","","",""
"null","95737","SARL_v6","SARL_v6mb57ae0b","5bace423b95cc700014b5334","fixation","","","img/fixation.png","null","","","prac","","","","","","","","","","","","","","","","","","","",""
"359.0999999998603","96098","SARL_v6","SARL_v6mb57ae0b","5bace423b95cc700014b5334","mixAttFreqPrac","","","img/orange_2bandit_a2.png","70","img/orange_2bandit_a2.png","70","prac","","","5","","","","","","","","","","","","","","","","",""
"359.0999999998603","96550","SARL_v6","SARL_v6mb57ae0b","5bace423b95cc700014b5334","freqPrac_resp","","","img/orange_2bandit_a.png","70","img/orange_2bandit_a.png","70","prac","","","5","","","","","","","","","","","","","","","","",""
"null","96703","SARL_v6","SARL_v6mb57ae0b","5bace423b95cc700014b5334","fixation","","","img/fixation.png","null","","","prac","","","","","","","","","","","","","","","","","","","",""
"498.39999999990687","97204","SARL_v6","SARL_v6mb57ae0b","5bace423b95cc700014b5334","mixRLPractice","","","img/black_2bandit_a2.png","74","img/black_2bandit_a2.png","","prac","","","5","","","","","","","","","","","","","","","","",""
"null","97969","SARL_v6","SARL_v6mb57ae0b","5bace423b95cc700014b5334","feedback","","","<div class=""veryhighPoints_sq""> 10 </div>","null","","na","prac","","","6","-14","10","-14","","","","","","","","","","","","","",""
"null","98134","SARL_v6","SARL_v6mb57ae0b","5bace423b95cc700014b5334","fixation","","","img/fixation.png","null","","","prac","","","","","","","","","","","","","","","","","","","",""
"513.1999999999534","98650","SARL_v6","SARL_v6mb57ae0b","5bace423b95cc700014b5334","mixAttFreqPrac","","","img/orange_2bandit_a2.png","70","img/orange_2bandit_a2.png","70","prac","","","7","","","","","","","","","","","","","","","","",""
"513.1999999999534","98942","SARL_v6","SARL_v6mb57ae0b","5bace423b95cc700014b5334","freqPrac_resp","","","img/orange_2bandit_a.png","70","img/orange_2bandit_a.png","70","prac","","","7","","","","","","","","","","","","","","","","",""
"null","99100","SARL_v6","SARL_v6mb57ae0b","5bace423b95cc700014b5334","fixation","","","img/fixation.png","null","","","prac","","","","","","","","","","","","","","","","","","","",""
"344.60000000009313","99448","SARL_v6","SARL_v6mb57ae0b","5bace423b95cc700014b5334","mixAttInfreqPrac","","","img/blue_2bandit_a2.png","68","img/blue_2bandit_a2.png","68","prac","","","8","","","","","","","","","","","","","","","","",""
"344.60000000009313","99913","SARL_v6","SARL_v6mb57ae0b","5bace423b95cc700014b5334","infreqPrac_resp","","","img/blue_2bandit_a.png","68","img/orange_2bandit_a.png","68","prac","","","8","","","","","","","","","","","","","","","","",""
"null","100082","SARL_v6","SARL_v6mb57ae0b","5bace423b95cc700014b5334","fixation","","","img/fixation.png","null","","","prac","","","","","","","","","","","","","","","","","","","",""
"323","100407","SARL_v6","SARL_v6mb57ae0b","5bace423b95cc700014b5334","mixAttFreqPrac","","","img/orange_2bandit_a2.png","70","img/orange_2bandit_a2.png","70","prac","","","9","","","","","","","","","","","","","","","","",""
"323","100894","SARL_v6","SARL_v6mb57ae0b","5bace423b95cc700014b5334","freqPrac_resp","","","img/orange_2bandit_a.png","70","img/orange_2bandit_a.png","70","prac","","","9","","","","","","","","","","","","","","","","",""
"null","101049","SARL_v6","SARL_v6mb57ae0b","5bace423b95cc700014b5334","fixation","","","img/fixation.png","null","","","prac","","","","","","","","","","","","","","","","","","","",""
"373.60000000009313","101425","SARL_v6","SARL_v6mb57ae0b","5bace423b95cc700014b5334","mixAttFreqPrac","","","img/orange_2bandit_a2.png","68","img/orange_2bandit_a2.png","70","prac","","","10","","","","","","","","","","","","","","","","",""
"373.60000000009313","101857","SARL_v6","SARL_v6mb57ae0b","5bace423b95cc700014b5334","freqPrac_resp","","","img/orange_2bandit_a.png","68","img/orange_2bandit_a.png","70","prac","","","10","","","","","","","","","","","","","","","","",""
"null","102024","SARL_v6","SARL_v6mb57ae0b","5bace423b95cc700014b5334","fixation","","","img/fixation.png","null","","","prac","","","","","","","","","","","","","","","","","","","",""
"422","102448","SARL_v6","SARL_v6mb57ae0b","5bace423b95cc700014b5334","mixAttInfreqPrac","","","img/blue_2bandit_a2.png","68","img/blue_2bandit_a2.png","68","prac","","","11","","","","","","","","","","","","","","","","",""
"422","102831","SARL_v6","SARL_v6mb57ae0b","5bace423b95cc700014b5334","infreqPrac_resp","","","img/blue_2bandit_a.png","68","img/orange_2bandit_a.png","68","prac","","","11","","","","","","","","","","","","","","","","",""
"null","102993","SARL_v6","SARL_v6mb57ae0b","5bace423b95cc700014b5334","fixation","","","img/fixation.png","null","","","prac","","","","","","","","","","","","","","","","","","","",""
"499","103494","SARL_v6","SARL_v6mb57ae0b","5bace423b95cc700014b5334","mixRLPractice","","","img/black_2bandit_a2.png","75","img/black_2bandit_a2.png","","prac","","","11","","","","","","","","","","","","","","","","",""
"null","104256","SARL_v6","SARL_v6mb57ae0b","5bace423b95cc700014b5334","feedback","","","<div class=""veryhighPoints""> 5 </div>","null","","na","prac","","","12","5","-5","5","","","","","","","","","","","","","",""
"null","104411","SARL_v6","SARL_v6mb57ae0b","5bace423b95cc700014b5334","fixation","","","img/fixation.png","null","","","prac","","","","","","","","","","","","","","","","","","","",""
"8885.699999999953","113299","SARL_v6","SARL_v6mb57ae0b","5bace423b95cc700014b5334","","","","","","","","prac","","","","","","","","","","","","","","","","","","","",""
"721.5","114024","SARL_v6","SARL_v6mb57ae0b","5bace423b95cc700014b5334","freq","","","img/orange_2bandit_a2.png","70","","70","test","1","","1","","","","square","circle","1","1","1","1","","","","","","","",""
"null","114109","SARL_v6","SARL_v6mb57ae0b","5bace423b95cc700014b5334","freq_resp","","","img/orange_2bandit_a.png","70","img/orange_2bandit_a.png","70","test","","","","","","","","","","","1","","","","","","","","",""
"null","114271","SARL_v6","SARL_v6mb57ae0b","5bace423b95cc700014b5334","fixation","","","img/fixation.png","null","","","test","","","","","","","","","","","","","","","","","","","",""
"446.19999999995343","114721","SARL_v6","SARL_v6mb57ae0b","5bace423b95cc700014b5334","freq","","","img/orange_2bandit_a2.png","70","","70","test","1","","2","","","","square","circle","2","2","1","1","","","","","","","",""
"null","115088","SARL_v6","SARL_v6mb57ae0b","5bace423b95cc700014b5334","freq_resp","","","img/orange_2bandit_a.png","70","img/orange_2bandit_a.png","70","test","","","","","","","","","","","1","","","","","","","","",""
"null","115251","SARL_v6","SARL_v6mb57ae0b","5bace423b95cc700014b5334","fixation","","","img/fixation.png","null","","","test","","","","","","","","","","","","","","","","","","","",""
"440.80000000004657","115695","SARL_v6","SARL_v6mb57ae0b","5bace423b95cc700014b5334","freq","","","img/orange_2bandit_a2.png","70","","70","test","1","","3","","","","square","circle","3","3","1","1","","","","","","","",""
"null","116069","SARL_v6","SARL_v6mb57ae0b","5bace423b95cc700014b5334","freq_resp","","","img/orange_2bandit_a.png","70","img/orange_2bandit_a.png","70","test","","","","","","","","","","","1","","","","","","","","",""
"null","116235","SARL_v6","SARL_v6mb57ae0b","5bace423b95cc700014b5334","fixation","","","img/fixation.png","null","","","test","","","","","","","","","","","","","","","","","","","",""
"389.89999999990687","116627","SARL_v6","SARL_v6mb57ae0b","5bace423b95cc700014b5334","freq","","","img/orange_2bandit_a2.png","70","","70","test","1","","4","","","","square","circle","4","4","1","1","","","","","","","",""
"null","117048","SARL_v6","SARL_v6mb57ae0b","5bace423b95cc700014b5334","freq_resp","","","img/orange_2bandit_a.png","70","img/orange_2bandit_a.png","70","test","","","","","","","","","","","1","","","","","","","","",""
"null","117215","SARL_v6","SARL_v6mb57ae0b","5bace423b95cc700014b5334","fixation","","","img/fixation.png","null","","","test","","","","","","","","","","","","","","","","","","","",""
"444.0999999998603","117662","SARL_v6","SARL_v6mb57ae0b","5bace423b95cc700014b5334","freq","","","img/orange_2bandit_a2.png","70","","70","test","1","","5","","","","square","circle","5","5","1","1","","","","","","","",""
"null","118034","SARL_v6","SARL_v6mb57ae0b","5bace423b95cc700014b5334","freq_resp","","","img/orange_2bandit_a.png","70","img/orange_2bandit_a.png","70","test","","","","","","","","","","","1","","","","","","","","",""
"null","118198","SARL_v6","SARL_v6mb57ae0b","5bace423b95cc700014b5334","fixation","","","img/fixation.png","null","","","test","","","","","","","","","","","","","","","","","","","",""
"534.1999999999534","118735","SARL_v6","SARL_v6mb57ae0b","5bace423b95cc700014b5334","freq","","","img/orange_2bandit_a2.png","70","","70","test","1","","6","","","","square","circle","6","6","1","1","","","","","","","",""
"null","119006","SARL_v6","SARL_v6mb57ae0b","5bace423b95cc700014b5334","freq_resp","","","img/orange_2bandit_a.png","70","img/orange_2bandit_a.png","70","test","","","","","","","","","","","1","","","","","","","","",""
"null","119164","SARL_v6","SARL_v6mb57ae0b","5bace423b95cc700014b5334","fixation","","","img/fixation.png","null","","","test","","","","","","","","","","","","","","","","","","","",""
"364.80000000004657","119532","SARL_v6","SARL_v6mb57ae0b","5bace423b95cc700014b5334","freq","","","img/orange_2bandit_a2.png","70","","70","test","1","","7","","","","square","circle","7","7","1","1","","","","","","","",""
"null","119973","SARL_v6","SARL_v6mb57ae0b","5bace423b95cc700014b5334","freq_resp","","","img/orange_2bandit_a.png","70","img/orange_2bandit_a.png","70","test","","","","","","","","","","","1","","","","","","","","",""
"null","120130","SARL_v6","SARL_v6mb57ae0b","5bace423b95cc700014b5334","fixation","","","img/fixation.png","null","","","test","","","","","","","","","","","","","","","","","","","",""
"417.80000000004657","120550","SARL_v6","SARL_v6mb57ae0b","5bace423b95cc700014b5334","freq","","","img/orange_2bandit_a2.png","70","","70","test","1","","8","","","","square","circle","8","8","1","1","","","","","","","",""
"null","120947","SARL_v6","SARL_v6mb57ae0b","5bace423b95cc700014b5334","freq_resp","","","img/orange_2bandit_a.png","70","img/orange_2bandit_a.png","70","test","","","","","","","","","","","1","","","","","","","","",""
"null","121106","SARL_v6","SARL_v6mb57ae0b","5bace423b95cc700014b5334","fixation","","","img/fixation.png","null","","","test","","","","","","","","","","","","","","","","","","","",""
"344.80000000004657","121454","SARL_v6","SARL_v6mb57ae0b","5bace423b95cc700014b5334","freq","","","img/orange_2bandit_a2.png","70","","70","test","1","","9","","","","square","circle","9","9","1","1","","","","","","","",""
"null","121925","SARL_v6","SARL_v6mb57ae0b","5bace423b95cc700014b5334","freq_resp","","","img/orange_2bandit_a.png","70","img/orange_2bandit_a.png","70","test","","","","","","","","","","","1","","","","","","","","",""
"null","122093","SARL_v6","SARL_v6mb57ae0b","5bace423b95cc700014b5334","fixation","","","img/fixation.png","null","","","test","","","","","","","","","","","","","","","","","","","",""
"371.10000000009313","122467","SARL_v6","SARL_v6mb57ae0b","5bace423b95cc700014b5334","freq","","","img/orange_2bandit_a2.png","70","","70","test","1","","10","","","","square","circle","10","10","1","1","","","","","","","",""
"null","122901","SARL_v6","SARL_v6mb57ae0b","5bace423b95cc700014b5334","freq_resp","","","img/orange_2bandit_a.png","70","img/orange_2bandit_a.png","70","test","","","","","","","","","","","1","","","","","","","","",""
"null","123061","SARL_v6","SARL_v6mb57ae0b","5bace423b95cc700014b5334","fixation","","","img/fixation.png","null","","","test","","","","","","","","","","","","","","","","","","","",""
"370","123433","SARL_v6","SARL_v6mb57ae0b","5bace423b95cc700014b5334","freq","","","img/orange_2bandit_a2.png","70","","70","test","1","","11","","","","square","circle","11","11","1","1","","","","","","","",""
"null","123874","SARL_v6","SARL_v6mb57ae0b","5bace423b95cc700014b5334","freq_resp","","","img/orange_2bandit_a.png","70","img/orange_2bandit_a.png","70","test","","","","","","","","","","","1","","","","","","","","",""
"null","124042","SARL_v6","SARL_v6mb57ae0b","5bace423b95cc700014b5334","fixation","","","img/fixation.png","null","","","test","","","","","","","","","","","","","","","","","","","",""
"385.60000000009313","124430","SARL_v6","SARL_v6mb57ae0b","5bace423b95cc700014b5334","freq","","","img/orange_2bandit_a2.png","70","","70","test","1","","12","","","","square","circle","12","12","1","1","","","","","","","",""
"null","124852","SARL_v6","SARL_v6mb57ae0b","5bace423b95cc700014b5334","freq_resp","","","img/orange_2bandit_a.png","70","img/orange_2bandit_a.png","70","test","","","","","","","","","","","1","","","","","","","","",""
"null","125008","SARL_v6","SARL_v6mb57ae0b","5bace423b95cc700014b5334","fixation","","","img/fixation.png","null","","","test","","","","","","","","","","","","","","","","","","","",""
"295.5","125306","SARL_v6","SARL_v6mb57ae0b","5bace423b95cc700014b5334","freq","","","img/orange_2bandit_a2.png","70","","70","test","1","","13","","","","square","circle","13","13","1","1","","","","","","","",""
"null","125818","SARL_v6","SARL_v6mb57ae0b","5bace423b95cc700014b5334","freq_resp","","","img/orange_2bandit_a.png","70","img/orange_2bandit_a.png","70","test","","","","","","","","","","","1","","","","","","","","",""
"null","125973","SARL_v6","SARL_v6mb57ae0b","5bace423b95cc700014b5334","fixation","","","img/fixation.png","null","","","test","","","","","","","","","","","","","","","","","","","",""
"384.5","126360","SARL_v6","SARL_v6mb57ae0b","5bace423b95cc700014b5334","freq","","","img/orange_2bandit_a2.png","70","","70","test","1","","14","","","","square","circle","14","14","1","1","","","","","","","",""
"null","126789","SARL_v6","SARL_v6mb57ae0b","5bace423b95cc700014b5334","freq_resp","","","img/orange_2bandit_a.png","70","img/orange_2bandit_a.png","70","test","","","","","","","","","","","1","","","","","","","","",""
"null","126955","SARL_v6","SARL_v6mb57ae0b","5bace423b95cc700014b5334","fixation","","","img/fixation.png","null","","","test","","","","","","","","","","","","","","","","","","","",""
"315.39999999990687","127273","SARL_v6","SARL_v6mb57ae0b","5bace423b95cc700014b5334","freq","","","img/orange_2bandit_a2.png","70","","70","test","1","","15","","","","square","circle","15","15","1","1","","","","","","","",""
"null","127766","SARL_v6","SARL_v6mb57ae0b","5bace423b95cc700014b5334","freq_resp","","","img/orange_2bandit_a.png","70","img/orange_2bandit_a.png","70","test","","","","","","","","","","","1","","","","","","","","",""
"null","127923","SARL_v6","SARL_v6mb57ae0b","5bace423b95cc700014b5334","fixation","","","img/fixation.png","null","","","test","","","","","","","","","","","","","","","","","","","",""
"305.9000000001397","128231","SARL_v6","SARL_v6mb57ae0b","5bace423b95cc700014b5334","freq","","","img/orange_2bandit_a2.png","70","","70","test","1","","16","","","","square","circle","16","16","1","1","","","","","","","",""
"null","128732","SARL_v6","SARL_v6mb57ae0b","5bace423b95cc700014b5334","freq_resp","","","img/orange_2bandit_a.png","70","img/orange_2bandit_a.png","70","test","","","","","","","","","","","1","","","","","","","","",""
"null","128889","SARL_v6","SARL_v6mb57ae0b","5bace423b95cc700014b5334","fixation","","","img/fixation.png","null","","","test","","","","","","","","","","","","","","","","","","","",""
"515.1999999999534","129407","SARL_v6","SARL_v6mb57ae0b","5bace423b95cc700014b5334","infreq","","","img/blue_2bandit_a2.png","68","","68","test","1","","17","","","","square","circle","17","17","1","1","","","","","","","",""
"null","129696","SARL_v6","SARL_v6mb57ae0b","5bace423b95cc700014b5334","infreq_resp","","","img/blue_2bandit_a.png","68","img/blue_2bandit_a.png","68","test","","","","","","","","","","","1","","","","","","","","",""
"null","129854","SARL_v6","SARL_v6mb57ae0b","5bace423b95cc700014b5334","fixation","","","img/fixation.png","null","","","test","","","","","","","","","","","","","","","","","","","",""
"334","130190","SARL_v6","SARL_v6mb57ae0b","5bace423b95cc700014b5334","infreq","","","img/blue_2bandit_a2.png","68","","68","test","1","","18","","","","square","circle","18","18","1","1","","","","","","","",""
"null","130665","SARL_v6","SARL_v6mb57ae0b","5bace423b95cc700014b5334","infreq_resp","","","img/blue_2bandit_a.png","68","img/blue_2bandit_a.png","68","test","","","","","","","","","","","1","","","","","","","","",""
"null","130819","SARL_v6","SARL_v6mb57ae0b","5bace423b95cc700014b5334","fixation","","","img/fixation.png","null","","","test","","","","","","","","","","","","","","","","","","","",""
"423.5","131245","SARL_v6","SARL_v6mb57ae0b","5bace423b95cc700014b5334","freq","","","img/orange_2bandit_a2.png","70","","70","test","1","","19","","","","square","circle","19","19","1","1","","","","","","","",""
"null","131637","SARL_v6","SARL_v6mb57ae0b","5bace423b95cc700014b5334","freq_resp","","","img/orange_2bandit_a.png","70","img/orange_2bandit_a.png","70","test","","","","","","","","","","","1","","","","","","","","",""
"null","131803","SARL_v6","SARL_v6mb57ae0b","5bace423b95cc700014b5334","fixation","","","img/fixation.png","null","","","test","","","","","","","","","","","","","","","","","","","",""
"346.5","132153","SARL_v6","SARL_v6mb57ae0b","5bace423b95cc700014b5334","freq","","","img/orange_2bandit_a2.png","70","","70","test","1","","20","","","","square","circle","20","20","1","1","","","","","","","",""
"null","132613","SARL_v6","SARL_v6mb57ae0b","5bace423b95cc700014b5334","freq_resp","","","img/orange_2bandit_a.png","70","img/orange_2bandit_a.png","70","test","","","","","","","","","","","1","","","","","","","","",""
"null","132766","SARL_v6","SARL_v6mb57ae0b","5bace423b95cc700014b5334","fixation","","","img/fixation.png","null","","","test","","","","","","","","","","","","","","","","","","","",""
"412.5","133181","SARL_v6","SARL_v6mb57ae0b","5bace423b95cc700014b5334","freq","","","img/orange_2bandit_a2.png","70","","70","test","1","","21","","","","square","circle","21","21","1","1","","","","","","","",""
"null","133582","SARL_v6","SARL_v6mb57ae0b","5bace423b95cc700014b5334","freq_resp","","","img/orange_2bandit_a.png","70","img/orange_2bandit_a.png","70","test","","","","","","","","","","","1","","","","","","","","",""
"null","133749","SARL_v6","SARL_v6mb57ae0b","5bace423b95cc700014b5334","fixation","","","img/fixation.png","null","","","test","","","","","","","","","","","","","","","","","","","",""
"620.3999999999069","134372","SARL_v6","SARL_v6mb57ae0b","5bace423b95cc700014b5334","rl","","","img/black_2bandit_a2.png","75","","0","test","","","22","","","-3","square","circle","","0","1","","75","-3","-3","-3","-3","circle","1","0"
"null","135127","SARL_v6","SARL_v6mb57ae0b","5bace423b95cc700014b5334","feedback","","","<div class=""verylowPoints""> -3 </div>","null","","na","test","","","NaN","","","","","","","","1","","75","","","","","","1",""
"736.1999999999534","135866","SARL_v6","SARL_v6mb57ae0b","5bace423b95cc700014b5334","freq","","","img/orange_2bandit_a2.png","70","","70","test","1","","23","","","","square","circle","22","1","2","1","","","","","","","",""
"null","135935","SARL_v6","SARL_v6mb57ae0b","5bace423b95cc700014b5334","freq_resp","","","img/orange_2bandit_a.png","70","img/orange_2bandit_a.png","70","test","","","","","","","","","","","2","","","","","","","","",""
"null","136097","SARL_v6","SARL_v6mb57ae0b","5bace423b95cc700014b5334","fixation","","","img/fixation.png","null","","","test","","","","","","","","","","","","","","","","","","","",""
"614.8000000000466","136714","SARL_v6","SARL_v6mb57ae0b","5bace423b95cc700014b5334","infreq","","","img/blue_2bandit_a2.png","68","","68","test","1","","24","","","","square","circle","23","2","2","1","","","","","","","",""
"null","136909","SARL_v6","SARL_v6mb57ae0b","5bace423b95cc700014b5334","infreq_resp","","","img/blue_2bandit_a.png","68","img/blue_2bandit_a.png","68","test","","","","","","","","","","","2","","","","","","","","",""
"null","137064","SARL_v6","SARL_v6mb57ae0b","5bace423b95cc700014b5334","fixation","","","img/fixation.png","null","","","test","","","","","","","","","","","","","","","","","","","",""
"656.7999999998137","137723","SARL_v6","SARL_v6mb57ae0b","5bace423b95cc700014b5334","freq","","","img/orange_2bandit_a2.png","70","","70","test","1","","25","","","","square","circle","24","3","2","1","","","","","","","",""
"null","137878","SARL_v6","SARL_v6mb57ae0b","5bace423b95cc700014b5334","freq_resp","","","img/orange_2bandit_a.png","70","img/orange_2bandit_a.png","70","test","","","","","","","","","","","2","","","","","","","","",""
"null","138043","SARL_v6","SARL_v6mb57ae0b","5bace423b95cc700014b5334","fixation","","","img/fixation.png","null","","","test","","","","","","","","","","","","","","","","","","","",""
"606.1999999999534","138652","SARL_v6","SARL_v6mb57ae0b","5bace423b95cc700014b5334","infreq","","","img/blue_2bandit_a2.png","68","","68","test","1","","26","","","","square","circle","25","4","2","1","","","","","","","",""
"null","138858","SARL_v6","SARL_v6mb57ae0b","5bace423b95cc700014b5334","infreq_resp","","","img/blue_2bandit_a.png","68","img/blue_2bandit_a.png","68","test","","","","","","","","","","","2","","","","","","","","",""
"null","139026","SARL_v6","SARL_v6mb57ae0b","5bace423b95cc700014b5334","fixation","","","img/fixation.png","null","","","test","","","","","","","","","","","","","","","","","","","",""
"468.30000000004657","139497","SARL_v6","SARL_v6mb57ae0b","5bace423b95cc700014b5334","freq","","","img/orange_2bandit_a2.png","70","","70","test","1","","27","","","","square","circle","26","5","2","1","","","","","","","",""
"null","139840","SARL_v6","SARL_v6mb57ae0b","5bace423b95cc700014b5334","freq_resp","","","img/orange_2bandit_a.png","70","img/orange_2bandit_a.png","70","test","","","","","","","","","","","2","","","","","","","","",""
"null","139997","SARL_v6","SARL_v6mb57ae0b","5bace423b95cc700014b5334","fixation","","","img/fixation.png","null","","","test","","","","","","","","","","","","","","","","","","","",""
"534.3999999999069","140534","SARL_v6","SARL_v6mb57ae0b","5bace423b95cc700014b5334","freq","","","img/orange_2bandit_a2.png","70","","70","test","1","","28","","","","square","circle","27","6","2","1","","","","","","","",""
"null","140803","SARL_v6","SARL_v6mb57ae0b","5bace423b95cc700014b5334","freq_resp","","","img/orange_2bandit_a.png","70","img/orange_2bandit_a.png","70","test","","","","","","","","","","","2","","","","","","","","",""
"null","140959","SARL_v6","SARL_v6mb57ae0b","5bace423b95cc700014b5334","fixation","","","img/fixation.png","null","","","test","","","","","","","","","","","","","","","","","","","",""
"415.5999999998603","141377","SARL_v6","SARL_v6mb57ae0b","5bace423b95cc700014b5334","freq","","","img/orange_2bandit_a2.png","70","","70","test","1","","29","","","","square","circle","28","7","2","1","","","","","","","",""
"null","141776","SARL_v6","SARL_v6mb57ae0b","5bace423b95cc700014b5334","freq_resp","","","img/orange_2bandit_a.png","70","img/orange_2bandit_a.png","70","test","","","","","","","","","","","2","","","","","","","","",""
"null","141940","SARL_v6","SARL_v6mb57ae0b","5bace423b95cc700014b5334","fixation","","","img/fixation.png","null","","","test","","","","","","","","","","","","","","","","","","","",""
"425.69999999995343","142368","SARL_v6","SARL_v6mb57ae0b","5bace423b95cc700014b5334","freq","","","img/orange_2bandit_a2.png","70","","70","test","1","","30","","","","square","circle","29","8","2","1","","","","","","","",""
"null","142760","SARL_v6","SARL_v6mb57ae0b","5bace423b95cc700014b5334","freq_resp","","","img/orange_2bandit_a.png","70","img/orange_2bandit_a.png","70","test","","","","","","","","","","","2","","","","","","","","",""
"null","142925","SARL_v6","SARL_v6mb57ae0b","5bace423b95cc700014b5334","fixation","","","img/fixation.png","null","","","test","","","","","","","","","","","","","","","","","","","",""
"404.69999999995343","143332","SARL_v6","SARL_v6mb57ae0b","5bace423b95cc700014b5334","freq","","","img/orange_2bandit_a2.png","70","","70","test","1","","31","","","","square","circle","30","9","2","1","","","","","","","",""
"null","143741","SARL_v6","SARL_v6mb57ae0b","5bace423b95cc700014b5334","freq_resp","","","img/orange_2bandit_a.png","70","img/orange_2bandit_a.png","70","test","","","","","","","","","","","2","","","","","","","","",""
"null","143907","SARL_v6","SARL_v6mb57ae0b","5bace423b95cc700014b5334","fixation","","","img/fixation.png","null","","","test","","","","","","","","","","","","","","","","","","","",""
"369.30000000004657","144279","SARL_v6","SARL_v6mb57ae0b","5bace423b95cc700014b5334","freq","","","img/orange_2bandit_a2.png","70","","70","test","1","","32","","","","square","circle","31","10","2","1","","","","","","","",""
"null","144720","SARL_v6","SARL_v6mb57ae0b","5bace423b95cc700014b5334","freq_resp","","","img/orange_2bandit_a.png","70","img/orange_2bandit_a.png","70","test","","","","","","","","","","","2","","","","","","","","",""
"null","144888","SARL_v6","SARL_v6mb57ae0b","5bace423b95cc700014b5334","fixation","","","img/fixation.png","null","","","test","","","","","","","","","","","","","","","","","","","",""
"379.5","145270","SARL_v6","SARL_v6mb57ae0b","5bace423b95cc700014b5334","freq","","","img/orange_2bandit_a2.png","70","","70","test","1","","33","","","","square","circle","32","11","2","1","","","","","","","",""
"null","145702","SARL_v6","SARL_v6mb57ae0b","5bace423b95cc700014b5334","freq_resp","","","img/orange_2bandit_a.png","70","img/orange_2bandit_a.png","70","test","","","","","","","","","","","2","","","","","","","","",""
"null","145869","SARL_v6","SARL_v6mb57ae0b","5bace423b95cc700014b5334","fixation","","","img/fixation.png","null","","","test","","","","","","","","","","","","","","","","","","","",""
"377.19999999995343","146249","SARL_v6","SARL_v6mb57ae0b","5bace423b95cc700014b5334","freq","","","img/orange_2bandit_a2.png","70","","70","test","1","","34","","","","square","circle","33","12","2","1","","","","","","","",""
"null","146700","SARL_v6","SARL_v6mb57ae0b","5bace423b95cc700014b5334","freq_resp","","","img/orange_2bandit_a.png","70","img/orange_2bandit_a.png","70","test","","","","","","","","","","","2","","","","","","","","",""
"null","146854","SARL_v6","SARL_v6mb57ae0b","5bace423b95cc700014b5334","fixation","","","img/fixation.png","null","","","test","","","","","","","","","","","","","","","","","","","",""
"418.0999999998603","147275","SARL_v6","SARL_v6mb57ae0b","5bace423b95cc700014b5334","freq","","","img/orange_2bandit_a2.png","70","","70","test","1","","35","","","","square","circle","34","13","2","1","","","","","","","",""
"null","147672","SARL_v6","SARL_v6mb57ae0b","5bace423b95cc700014b5334","freq_resp","","","img/orange_2bandit_a.png","70","img/orange_2bandit_a.png","70","test","","","","","","","","","","","2","","","","","","","","",""
"null","147835","SARL_v6","SARL_v6mb57ae0b","5bace423b95cc700014b5334","fixation","","","img/fixation.png","null","","","test","","","","","","","","","","","","","","","","","","","",""
"377.5999999998603","148215","SARL_v6","SARL_v6mb57ae0b","5bace423b95cc700014b5334","freq","","","img/orange_2bandit_a2.png","70","","70","test","1","","36","","","","square","circle","35","14","2","1","","","","","","","",""
"null","148650","SARL_v6","SARL_v6mb57ae0b","5bace423b95cc700014b5334","freq_resp","","","img/orange_2bandit_a.png","70","img/orange_2bandit_a.png","70","test","","","","","","","","","","","2","","","","","","","","",""
"null","148817","SARL_v6","SARL_v6mb57ae0b","5bace423b95cc700014b5334","fixation","","","img/fixation.png","null","","","test","","","","","","","","","","","","","","","","","","","",""
"370.89999999990687","149191","SARL_v6","SARL_v6mb57ae0b","5bace423b95cc700014b5334","freq","","","img/orange_2bandit_a2.png","70","","70","test","1","","37","","","","square","circle","36","15","2","1","","","","","","","",""
"null","149632","SARL_v6","SARL_v6mb57ae0b","5bace423b95cc700014b5334","freq_resp","","","img/orange_2bandit_a.png","70","img/orange_2bandit_a.png","70","test","","","","","","","","","","","2","","","","","","","","",""
"null","149799","SARL_v6","SARL_v6mb57ae0b","5bace423b95cc700014b5334","fixation","","","img/fixation.png","null","","","test","","","","","","","","","","","","","","","","","","","",""
"385.0999999998603","150187","SARL_v6","SARL_v6mb57ae0b","5bace423b95cc700014b5334","freq","","","img/orange_2bandit_a2.png","70","","70","test","1","","38","","","","square","circle","37","16","2","1","","","","","","","",""
"null","150615","SARL_v6","SARL_v6mb57ae0b","5bace423b95cc700014b5334","freq_resp","","","img/orange_2bandit_a.png","70","img/orange_2bandit_a.png","70","test","","","","","","","","","","","2","","","","","","","","",""
"null","150781","SARL_v6","SARL_v6mb57ae0b","5bace423b95cc700014b5334","fixation","","","img/fixation.png","null","","","test","","","","","","","","","","","","","","","","","","","",""
"455","151239","SARL_v6","SARL_v6mb57ae0b","5bace423b95cc700014b5334","freq","","","img/orange_2bandit_a2.png","70","","70","test","1","","39","","","","square","circle","38","17","2","1","","","","","","","",""
"null","151602","SARL_v6","SARL_v6mb57ae0b","5bace423b95cc700014b5334","freq_resp","","","img/orange_2bandit_a.png","70","img/orange_2bandit_a.png","70","test","","","","","","","","","","","2","","","","","","","","",""
"null","151765","SARL_v6","SARL_v6mb57ae0b","5bace423b95cc700014b5334","fixation","","","img/fixation.png","null","","","test","","","","","","","","","","","","","","","","","","","",""
"399.39999999990687","152167","SARL_v6","SARL_v6mb57ae0b","5bace423b95cc700014b5334","freq","","","img/orange_2bandit_a2.png","70","","70","test","1","","40","","","","square","circle","39","18","2","1","","","","","","","",""
"null","152596","SARL_v6","SARL_v6mb57ae0b","5bace423b95cc700014b5334","freq_resp","","","img/orange_2bandit_a.png","70","img/orange_2bandit_a.png","70","test","","","","","","","","","","","2","","","","","","","","",""
"null","152779","SARL_v6","SARL_v6mb57ae0b","5bace423b95cc700014b5334","fixation","","","img/fixation.png","null","","","test","","","","","","","","","","","","","","","","","","","",""
"356.9000000001397","153138","SARL_v6","SARL_v6mb57ae0b","5bace423b95cc700014b5334","freq","","","img/orange_2bandit_a2.png","70","","70","test","1","","41","","","","square","circle","40","19","2","1","","","","","","","",""
"null","153594","SARL_v6","SARL_v6mb57ae0b","5bace423b95cc700014b5334","freq_resp","","","img/orange_2bandit_a.png","70","img/orange_2bandit_a.png","70","test","","","","","","","","","","","2","","","","","","","","",""
"null","153762","SARL_v6","SARL_v6mb57ae0b","5bace423b95cc700014b5334","fixation","","","img/fixation.png","null","","","test","","","","","","","","","","","","","","","","","","","",""
"553.3000000000466","154318","SARL_v6","SARL_v6mb57ae0b","5bace423b95cc700014b5334","rl","","","img/black_2bandit_a2.png","75","","0","test","","","42","","","-8","square","circle","","0","2","","75","-8","-5","-5","-8","circle","2","0"
"null","155074","SARL_v6","SARL_v6mb57ae0b","5bace423b95cc700014b5334","feedback","","","<div class=""verylowPoints""> -8 </div>","null","","na","test","","","NaN","","","","","","","","2","","75","","","","","","2",""
"558.9000000001397","155635","SARL_v6","SARL_v6mb57ae0b","5bace423b95cc700014b5334","freq","","","img/orange_2bandit_a2.png","70","","70","test","1","","43","","","","square","circle","41","1","3","1","","","","","","","",""
"null","155888","SARL_v6","SARL_v6mb57ae0b","5bace423b95cc700014b5334","freq_resp","","","img/orange_2bandit_a.png","70","img/orange_2bandit_a.png","70","test","","","","","","","","","","","3","","","","","","","","",""
"null","156044","SARL_v6","SARL_v6mb57ae0b","5bace423b95cc700014b5334","fixation","","","img/fixation.png","null","","","test","","","","","","","","","","","","","","","","","","","",""
"367.4000000001397","156414","SARL_v6","SARL_v6mb57ae0b","5bace423b95cc700014b5334","freq","","","img/orange_2bandit_a2.png","70","","70","test","1","","44","","","","square","circle","42","2","3","1","","","","","","","",""
"null","156858","SARL_v6","SARL_v6mb57ae0b","5bace423b95cc700014b5334","freq_resp","","","img/orange_2bandit_a.png","70","img/orange_2bandit_a.png","70","test","","","","","","","","","","","3","","","","","","","","",""
"null","157011","SARL_v6","SARL_v6mb57ae0b","5bace423b95cc700014b5334","fixation","","","img/fixation.png","null","","","test","","","","","","","","","","","","","","","","","","","",""
"348","157361","SARL_v6","SARL_v6mb57ae0b","5bace423b95cc700014b5334","freq","","","img/orange_2bandit_a2.png","70","","70","test","1","","45","","","","square","circle","43","3","3","1","","","","","","","",""
"null","157821","SARL_v6","SARL_v6mb57ae0b","5bace423b95cc700014b5334","freq_resp","","","img/orange_2bandit_a.png","70","img/orange_2bandit_a.png","70","test","","","","","","","","","","","3","","","","","","","","",""
"null","157987","SARL_v6","SARL_v6mb57ae0b","5bace423b95cc700014b5334","fixation","","","img/fixation.png","null","","","test","","","","","","","","","","","","","","","","","","","",""
"377","158367","SARL_v6","SARL_v6mb57ae0b","5bace423b95cc700014b5334","freq","","","img/orange_2bandit_a2.png","70","","70","test","1","","46","","","","square","circle","44","4","3","1","","","","","","","",""
"null","158808","SARL_v6","SARL_v6mb57ae0b","5bace423b95cc700014b5334","freq_resp","","","img/orange_2bandit_a.png","70","img/orange_2bandit_a.png","70","test","","","","","","","","","","","3","","","","","","","","",""
"null","158973","SARL_v6","SARL_v6mb57ae0b","5bace423b95cc700014b5334","fixation","","","img/fixation.png","null","","","test","","","","","","","","","","","","","","","","","","","",""
"383.29999999981374","159359","SARL_v6","SARL_v6mb57ae0b","5bace423b95cc700014b5334","freq","","","img/orange_2bandit_a2.png","70","","70","test","1","","47","","","","square","circle","45","5","3","1","","","","","","","",""
"null","159789","SARL_v6","SARL_v6mb57ae0b","5bace423b95cc700014b5334","freq_resp","","","img/orange_2bandit_a.png","70","img/orange_2bandit_a.png","70","test","","","","","","","","","","","3","","","","","","","","",""
"null","159956","SARL_v6","SARL_v6mb57ae0b","5bace423b95cc700014b5334","fixation","","","img/fixation.png","null","","","test","","","","","","","","","","","","","","","","","","","",""
"373.9000000001397","160333","SARL_v6","SARL_v6mb57ae0b","5bace423b95cc700014b5334","freq","","","img/orange_2bandit_a2.png","70","","70","test","1","","48","","","","square","circle","46","6","3","1","","","","","","","",""
"null","160771","SARL_v6","SARL_v6mb57ae0b","5bace423b95cc700014b5334","freq_resp","","","img/orange_2bandit_a.png","70","img/orange_2bandit_a.png","70","test","","","","","","","","","","","3","","","","","","","","",""
"null","160937","SARL_v6","SARL_v6mb57ae0b","5bace423b95cc700014b5334","fixation","","","img/fixation.png","null","","","test","","","","","","","","","","","","","","","","","","","",""
"384.10000000009313","161324","SARL_v6","SARL_v6mb57ae0b","5bace423b95cc700014b5334","freq","","","img/orange_2bandit_a2.png","70","","70","test","1","","49","","","","square","circle","47","7","3","1","","","","","","","",""
"null","161754","SARL_v6","SARL_v6mb57ae0b","5bace423b95cc700014b5334","freq_resp","","","img/orange_2bandit_a.png","70","img/orange_2bandit_a.png","70","test","","","","","","","","","","","3","","","","","","","","",""
"null","161921","SARL_v6","SARL_v6mb57ae0b","5bace423b95cc700014b5334","fixation","","","img/fixation.png","null","","","test","","","","","","","","","","","","","","","","","","","",""
"336.5999999998603","162260","SARL_v6","SARL_v6mb57ae0b","5bace423b95cc700014b5334","freq","","","img/orange_2bandit_a2.png","70","","70","test","1","","50","","","","square","circle","48","8","3","1","","","","","","","",""
"null","162735","SARL_v6","SARL_v6mb57ae0b","5bace423b95cc700014b5334","freq_resp","","","img/orange_2bandit_a.png","70","img/orange_2bandit_a.png","70","test","","","","","","","","","","","3","","","","","","","","",""
"null","162907","SARL_v6","SARL_v6mb57ae0b","5bace423b95cc700014b5334","fixation","","","img/fixation.png","null","","","test","","","","","","","","","","","","","","","","","","","",""
"420.60000000009313","163331","SARL_v6","SARL_v6mb57ae0b","5bace423b95cc700014b5334","freq","","","img/orange_2bandit_a2.png","70","","70","test","1","","51","","","","square","circle","49","9","3","1","","","","","","","",""
"null","163722","SARL_v6","SARL_v6mb57ae0b","5bace423b95cc700014b5334","freq_resp","","","img/orange_2bandit_a.png","70","img/orange_2bandit_a.png","70","test","","","","","","","","","","","3","","","","","","","","",""
"null","163885","SARL_v6","SARL_v6mb57ae0b","5bace423b95cc700014b5334","fixation","","","img/fixation.png","null","","","test","","","","","","","","","","","","","","","","","","","",""
"406.9000000001397","164295","SARL_v6","SARL_v6mb57ae0b","5bace423b95cc700014b5334","freq","","","img/orange_2bandit_a2.png","70","","70","test","1","","52","","","","square","circle","50","10","3","1","","","","","","","",""
"null","164702","SARL_v6","SARL_v6mb57ae0b","5bace423b95cc700014b5334","freq_resp","","","img/orange_2bandit_a.png","70","img/orange_2bandit_a.png","70","test","","","","","","","","","","","3","","","","","","","","",""
"null","164867","SARL_v6","SARL_v6mb57ae0b","5bace423b95cc700014b5334","fixation","","","img/fixation.png","null","","","test","","","","","","","","","","","","","","","","","","","",""
"428.19999999995343","165298","SARL_v6","SARL_v6mb57ae0b","5bace423b95cc700014b5334","freq","","","img/orange_2bandit_a2.png","70","","70","test","1","","53","","","","square","circle","51","11","3","1","","","","","","","",""
"null","165686","SARL_v6","SARL_v6mb57ae0b","5bace423b95cc700014b5334","freq_resp","","","img/orange_2bandit_a.png","70","img/orange_2bandit_a.png","70","test","","","","","","","","","","","3","","","","","","","","",""
"null","165849","SARL_v6","SARL_v6mb57ae0b","5bace423b95cc700014b5334","fixation","","","img/fixation.png","null","","","test","","","","","","","","","","","","","","","","","","","",""
"358","166210","SARL_v6","SARL_v6mb57ae0b","5bace423b95cc700014b5334","freq","","","img/orange_2bandit_a2.png","70","","70","test","1","","54","","","","square","circle","52","12","3","1","","","","","","","",""
"null","166664","SARL_v6","SARL_v6mb57ae0b","5bace423b95cc700014b5334","freq_resp","","","img/orange_2bandit_a.png","70","img/orange_2bandit_a.png","70","test","","","","","","","","","","","3","","","","","","","","",""
"null","166817","SARL_v6","SARL_v6mb57ae0b","5bace423b95cc700014b5334","fixation","","","img/fixation.png","null","","","test","","","","","","","","","","","","","","","","","","","",""
"361.80000000004657","167181","SARL_v6","SARL_v6mb57ae0b","5bace423b95cc700014b5334","freq","","","img/orange_2bandit_a2.png","70","","70","test","1","","55","","","","square","circle","53","13","3","1","","","","","","","",""
"null","167629","SARL_v6","SARL_v6mb57ae0b","5bace423b95cc700014b5334","freq_resp","","","img/orange_2bandit_a.png","70","img/orange_2bandit_a.png","70","test","","","","","","","","","","","3","","","","","","","","",""
"null","167782","SARL_v6","SARL_v6mb57ae0b","5bace423b95cc700014b5334","fixation","","","img/fixation.png","null","","","test","","","","","","","","","","","","","","","","","","","",""
"575.5","168361","SARL_v6","SARL_v6mb57ae0b","5bace423b95cc700014b5334","freq","","","img/orange_2bandit_a2.png","70","","70","test","1","","56","","","","square","circle","54","14","3","1","","","","","","","",""
"null","168593","SARL_v6","SARL_v6mb57ae0b","5bace423b95cc700014b5334","freq_resp","","","img/orange_2bandit_a.png","70","img/orange_2bandit_a.png","70","test","","","","","","","","","","","3","","","","","","","","",""
"null","168748","SARL_v6","SARL_v6mb57ae0b","5bace423b95cc700014b5334","fixation","","","img/fixation.png","null","","","test","","","","","","","","","","","","","","","","","","","",""
"613.5","169364","SARL_v6","SARL_v6mb57ae0b","5bace423b95cc700014b5334","freq","","","img/orange_2bandit_a2.png","70","","70","test","1","","57","","","","square","circle","55","15","3","1","","","","","","","",""
"null","169561","SARL_v6","SARL_v6mb57ae0b","5bace423b95cc700014b5334","freq_resp","","","img/orange_2bandit_a.png","70","img/orange_2bandit_a.png","70","test","","","","","","","","","","","3","","","","","","","","",""
"null","169714","SARL_v6","SARL_v6mb57ae0b","5bace423b95cc700014b5334","fixation","","","img/fixation.png","null","","","test","","","","","","","","","","","","","","","","","","","",""
"527.7000000001863","170244","SARL_v6","SARL_v6mb57ae0b","5bace423b95cc700014b5334","freq","","","img/orange_2bandit_a2.png","70","","70","test","1","","58","","","","square","circle","56","16","3","1","","","","","","","",""
"null","170521","SARL_v6","SARL_v6mb57ae0b","5bace423b95cc700014b5334","freq_resp","","","img/orange_2bandit_a.png","70","img/orange_2bandit_a.png","70","test","","","","","","","","","","","3","","","","","","","","",""
"null","170679","SARL_v6","SARL_v6mb57ae0b","5bace423b95cc700014b5334","fixation","","","img/fixation.png","null","","","test","","","","","","","","","","","","","","","","","","","",""
"376","171058","SARL_v6","SARL_v6mb57ae0b","5bace423b95cc700014b5334","freq","","","img/orange_2bandit_a2.png","70","","70","test","1","","59","","","","square","circle","57","17","3","1","","","","","","","",""
"null","171493","SARL_v6","SARL_v6mb57ae0b","5bace423b95cc700014b5334","freq_resp","","","img/orange_2bandit_a.png","70","img/orange_2bandit_a.png","70","test","","","","","","","","","","","3","","","","","","","","",""
"null","171660","SARL_v6","SARL_v6mb57ae0b","5bace423b95cc700014b5334","fixation","","","img/fixation.png","null","","","test","","","","","","","","","","","","","","","","","","","",""
"366.60000000009313","172030","SARL_v6","SARL_v6mb57ae0b","5bace423b95cc700014b5334","infreq","","","img/blue_2bandit_a2.png","68","","68","test","1","","60","","","","square","circle","58","18","3","1","","","","","","","",""
"null","172475","SARL_v6","SARL_v6mb57ae0b","5bace423b95cc700014b5334","infreq_resp","","","img/blue_2bandit_a.png","68","img/blue_2bandit_a.png","68","test","","","","","","","","","","","3","","","","","","","","",""
"null","172643","SARL_v6","SARL_v6mb57ae0b","5bace423b95cc700014b5334","fixation","","","img/fixation.png","null","","","test","","","","","","","","","","","","","","","","","","","",""
"567.5","173213","SARL_v6","SARL_v6mb57ae0b","5bace423b95cc700014b5334","freq","","","img/orange_2bandit_a2.png","70","","70","test","1","","61","","","","square","circle","59","19","3","1","","","","","","","",""
"null","173455","SARL_v6","SARL_v6mb57ae0b","5bace423b95cc700014b5334","freq_resp","","","img/orange_2bandit_a.png","70","img/orange_2bandit_a.png","70","test","","","","","","","","","","","3","","","","","","","","",""
"null","173610","SARL_v6","SARL_v6mb57ae0b","5bace423b95cc700014b5334","fixation","","","img/fixation.png","null","","","test","","","","","","","","","","","","","","","","","","","",""
"508","174120","SARL_v6","SARL_v6mb57ae0b","5bace423b95cc700014b5334","infreq","","","img/blue_2bandit_a2.png","68","","68","test","1","","62","","","","square","circle","60","20","3","1","","","","","","","",""
"null","174418","SARL_v6","SARL_v6mb57ae0b","5bace423b95cc700014b5334","infreq_resp","","","img/blue_2bandit_a.png","68","img/blue_2bandit_a.png","68","test","","","","","","","","","","","3","","","","","","","","",""
"null","174575","SARL_v6","SARL_v6mb57ae0b","5bace423b95cc700014b5334","fixation","","","img/fixation.png","null","","","test","","","","","","","","","","","","","","","","","","","",""
"396.89999999990687","174975","SARL_v6","SARL_v6mb57ae0b","5bace423b95cc700014b5334","freq","","","img/orange_2bandit_a2.png","70","","70","test","1","","63","","","","square","circle","61","21","3","1","","","","","","","",""
"null","175390","SARL_v6","SARL_v6mb57ae0b","5bace423b95cc700014b5334","freq_resp","","","img/orange_2bandit_a.png","70","img/orange_2bandit_a.png","70","test","","","","","","","","","","","3","","","","","","","","",""
"null","175557","SARL_v6","SARL_v6mb57ae0b","5bace423b95cc700014b5334","fixation","","","img/fixation.png","null","","","test","","","","","","","","","","","","","","","","","","","",""
"389","175949","SARL_v6","SARL_v6mb57ae0b","5bace423b95cc700014b5334","freq","","","img/orange_2bandit_a2.png","70","","70","test","1","","64","","","","square","circle","62","22","3","1","","","","","","","",""
"null","176372","SARL_v6","SARL_v6mb57ae0b","5bace423b95cc700014b5334","freq_resp","","","img/orange_2bandit_a.png","70","img/orange_2bandit_a.png","70","test","","","","","","","","","","","3","","","","","","","","",""
"null","176539","SARL_v6","SARL_v6mb57ae0b","5bace423b95cc700014b5334","fixation","","","img/fixation.png","null","","","test","","","","","","","","","","","","","","","","","","","",""
"328.60000000009313","176870","SARL_v6","SARL_v6mb57ae0b","5bace423b95cc700014b5334","freq","","","img/orange_2bandit_a2.png","70","","70","test","1","","65","","","","square","circle","63","23","3","1","","","","","","","",""
"null","177352","SARL_v6","SARL_v6mb57ae0b","5bace423b95cc700014b5334","freq_resp","","","img/orange_2bandit_a.png","70","img/orange_2bandit_a.png","70","test","","","","","","","","","","","3","","","","","","","","",""
"null","177507","SARL_v6","SARL_v6mb57ae0b","5bace423b95cc700014b5334","fixation","","","img/fixation.png","null","","","test","","","","","","","","","","","","","","","","","","","",""
"341.5999999998603","177851","SARL_v6","SARL_v6mb57ae0b","5bace423b95cc700014b5334","freq","","","img/orange_2bandit_a2.png","70","","70","test","1","","66","","","","square","circle","64","24","3","1","","","","","","","",""
"null","178319","SARL_v6","SARL_v6mb57ae0b","5bace423b95cc700014b5334","freq_resp","","","img/orange_2bandit_a.png","70","img/orange_2bandit_a.png","70","test","","","","","","","","","","","3","","","","","","","","",""
"null","178487","SARL_v6","SARL_v6mb57ae0b","5bace423b95cc700014b5334","fixation","","","img/fixation.png","null","","","test","","","","","","","","","","","","","","","","","","","",""
"623.7000000001863","179114","SARL_v6","SARL_v6mb57ae0b","5bace423b95cc700014b5334","rl","","","img/black_2bandit_a2.png","74","","0","test","","","67","","","-4","square","circle","","0","3","","74","-8","-4","-4","-8","square","3","0"
"null","179881","SARL_v6","SARL_v6mb57ae0b","5bace423b95cc700014b5334","feedback","","","<div class=""verylowPoints_sq""> -4 </div>","null","","na","test","","","NaN","","","","","","","","3","","74","","","","","","3",""
"588.7000000001863","180472","SARL_v6","SARL_v6mb57ae0b","5bace423b95cc700014b5334","freq","","","img/orange_2bandit_a2.png","70","","70","test","1","","68","","","","square","circle","65","1","4","1","","","","","","","",""
"null","180699","SARL_v6","SARL_v6mb57ae0b","5bace423b95cc700014b5334","freq_resp","","","img/orange_2bandit_a.png","70","img/orange_2bandit_a.png","70","test","","","","","","","","","","","4","","","","","","","","",""
"null","180853","SARL_v6","SARL_v6mb57ae0b","5bace423b95cc700014b5334","fixation","","","img/fixation.png","null","","","test","","","","","","","","","","","","","","","","","","","",""
"550.6000000000931","181406","SARL_v6","SARL_v6mb57ae0b","5bace423b95cc700014b5334","freq","","","img/orange_2bandit_a2.png","70","","70","test","1","","69","","","","square","circle","66","2","4","1","","","","","","","",""
"null","181662","SARL_v6","SARL_v6mb57ae0b","5bace423b95cc700014b5334","freq_resp","","","img/orange_2bandit_a.png","70","img/orange_2bandit_a.png","70","test","","","","","","","","","","","4","","","","","","","","",""
"null","181818","SARL_v6","SARL_v6mb57ae0b","5bace423b95cc700014b5334","fixation","","","img/fixation.png","null","","","test","","","","","","","","","","","","","","","","","","","",""
"407.4000000001397","182228","SARL_v6","SARL_v6mb57ae0b","5bace423b95cc700014b5334","freq","","","img/orange_2bandit_a2.png","70","","70","test","1","","70","","","","square","circle","67","3","4","1","","","","","","","",""
"null","182635","SARL_v6","SARL_v6mb57ae0b","5bace423b95cc700014b5334","freq_resp","","","img/orange_2bandit_a.png","70","img/orange_2bandit_a.png","70","test","","","","","","","","","","","4","","","","","","","","",""
"null","182800","SARL_v6","SARL_v6mb57ae0b","5bace423b95cc700014b5334","fixation","","","img/fixation.png","null","","","test","","","","","","","","","","","","","","","","","","","",""
"548.7000000001863","183351","SARL_v6","SARL_v6mb57ae0b","5bace423b95cc700014b5334","freq","","","img/orange_2bandit_a2.png","70","","70","test","1","","71","","","","square","circle","68","4","4","1","","","","","","","",""
"null","183609","SARL_v6","SARL_v6mb57ae0b","5bace423b95cc700014b5334","freq_resp","","","img/orange_2bandit_a.png","70","img/orange_2bandit_a.png","70","test","","","","","","","","","","","4","","","","","","","","",""
"null","183767","SARL_v6","SARL_v6mb57ae0b","5bace423b95cc700014b5334","fixation","","","img/fixation.png","null","","","test","","","","","","","","","","","","","","","","","","","",""
"424.0999999998603","184194","SARL_v6","SARL_v6mb57ae0b","5bace423b95cc700014b5334","freq","","","img/orange_2bandit_a2.png","70","","70","test","1","","72","","","","square","circle","69","5","4","1","","","","","","","",""
"null","184586","SARL_v6","SARL_v6mb57ae0b","5bace423b95cc700014b5334","freq_resp","","","img/orange_2bandit_a.png","70","img/orange_2bandit_a.png","70","test","","","","","","","","","","","4","","","","","","","","",""
"null","184749","SARL_v6","SARL_v6mb57ae0b","5bace423b95cc700014b5334","fixation","","","img/fixation.png","null","","","test","","","","","","","","","","","","","","","","","","","",""
"398.89999999990687","185150","SARL_v6","SARL_v6mb57ae0b","5bace423b95cc700014b5334","freq","","","img/orange_2bandit_a2.png","70","","70","test","1","","73","","","","square","circle","70","6","4","1","","","","","","","",""
"null","185564","SARL_v6","SARL_v6mb57ae0b","5bace423b95cc700014b5334","freq_resp","","","img/orange_2bandit_a.png","70","img/orange_2bandit_a.png","70","test","","","","","","","","","","","4","","","","","","","","",""
"null","185730","SARL_v6","SARL_v6mb57ae0b","5bace423b95cc700014b5334","fixation","","","img/fixation.png","null","","","test","","","","","","","","","","","","","","","","","","","",""
"420.10000000009313","186153","SARL_v6","SARL_v6mb57ae0b","5bace423b95cc700014b5334","infreq","","","img/blue_2bandit_a2.png","68","","68","test","1","","74","","","","square","circle","71","7","4","1","","","","","","","",""
"null","186549","SARL_v6","SARL_v6mb57ae0b","5bace423b95cc700014b5334","infreq_resp","","","img/blue_2bandit_a.png","68","img/blue_2bandit_a.png","68","test","","","","","","","","","","","4","","","","","","","","",""
"null","186712","SARL_v6","SARL_v6mb57ae0b","5bace423b95cc700014b5334","fixation","","","img/fixation.png","null","","","test","","","","","","","","","","","","","","","","","","","",""
"450.10000000009313","187164","SARL_v6","SARL_v6mb57ae0b","5bace423b95cc700014b5334","freq","","","img/orange_2bandit_a2.png","70","","70","test","1","","75","","","","square","circle","72","8","4","1","","","","","","","",""
"null","187531","SARL_v6","SARL_v6mb57ae0b","5bace423b95cc700014b5334","freq_resp","","","img/orange_2bandit_a.png","70","img/orange_2bandit_a.png","70","test","","","","","","","","","","","4","","","","","","","","",""
"null","187694","SARL_v6","SARL_v6mb57ae0b","5bace423b95cc700014b5334","fixation","","","img/fixation.png","null","","","test","","","","","","","","","","","","","","","","","","","",""
"416.0999999998603","188112","SARL_v6","SARL_v6mb57ae0b","5bace423b95cc700014b5334","freq","","","img/orange_2bandit_a2.png","70","","70","test","1","","76","","","","square","circle","73","9","4","1","","","","","","","",""
"null","188513","SARL_v6","SARL_v6mb57ae0b","5bace423b95cc700014b5334","freq_resp","","","img/orange_2bandit_a.png","70","img/orange_2bandit_a.png","70","test","","","","","","","","","","","4","","","","","","","","",""
"null","188677","SARL_v6","SARL_v6mb57ae0b","5bace423b95cc700014b5334","fixation","","","img/fixation.png","null","","","test","","","","","","","","","","","","","","","","","","","",""
"411.39999999990687","189090","SARL_v6","SARL_v6mb57ae0b","5bace423b95cc700014b5334","freq","","","img/orange_2bandit_a2.png","70","","70","test","1","","77","","","","square","circle","74","10","4","1","","","","","","","",""
"null","189494","SARL_v6","SARL_v6mb57ae0b","5bace423b95cc700014b5334","freq_resp","","","img/orange_2bandit_a.png","70","img/orange_2bandit_a.png","70","test","","","","","","","","","","","4","","","","","","","","",""
"null","189659","SARL_v6","SARL_v6mb57ae0b","5bace423b95cc700014b5334","fixation","","","img/fixation.png","null","","","test","","","","","","","","","","","","","","","","","","","",""
"336","189998","SARL_v6","SARL_v6mb57ae0b","5bace423b95cc700014b5334","freq","","","img/orange_2bandit_a2.png","70","","70","test","1","","78","","","","square","circle","75","11","4","1","","","","","","","",""
"null","190473","SARL_v6","SARL_v6mb57ae0b","5bace423b95cc700014b5334","freq_resp","","","img/orange_2bandit_a.png","70","img/orange_2bandit_a.png","70","test","","","","","","","","","","","4","","","","","","","","",""
"null","190626","SARL_v6","SARL_v6mb57ae0b","5bace423b95cc700014b5334","fixation","","","img/fixation.png","null","","","test","","","","","","","","","","","","","","","","","","","",""
"334","190962","SARL_v6","SARL_v6mb57ae0b","5bace423b95cc700014b5334","freq","","","img/orange_2bandit_a2.png","70","","70","test","1","","79","","","","square","circle","76","12","4","1","","","","","","","",""
"null","191439","SARL_v6","SARL_v6mb57ae0b","5bace423b95cc700014b5334","freq_resp","","","img/orange_2bandit_a.png","70","img/orange_2bandit_a.png","70","test","","","","","","","","","","","4","","","","","","","","",""
"null","191592","SARL_v6","SARL_v6mb57ae0b","5bace423b95cc700014b5334","fixation","","","img/fixation.png","null","","","test","","","","","","","","","","","","","","","","","","","",""
"391.5","191986","SARL_v6","SARL_v6mb57ae0b","5bace423b95cc700014b5334","freq","","","img/orange_2bandit_a2.png","70","","70","test","1","","80","","","","square","circle","77","13","4","1","","","","","","","",""
"null","192407","SARL_v6","SARL_v6mb57ae0b","5bace423b95cc700014b5334","freq_resp","","","img/orange_2bandit_a.png","70","img/orange_2bandit_a.png","70","test","","","","","","","","","","","4","","","","","","","","",""
"null","192573","SARL_v6","SARL_v6mb57ae0b","5bace423b95cc700014b5334","fixation","","","img/fixation.png","null","","","test","","","","","","","","","","","","","","","","","","","",""
"354.19999999995343","192930","SARL_v6","SARL_v6mb57ae0b","5bace423b95cc700014b5334","freq","","","img/orange_2bandit_a2.png","70","","70","test","1","","81","","","","square","circle","78","14","4","1","","","","","","","",""
"null","193389","SARL_v6","SARL_v6mb57ae0b","5bace423b95cc700014b5334","freq_resp","","","img/orange_2bandit_a.png","70","img/orange_2bandit_a.png","70","test","","","","","","","","","","","4","","","","","","","","",""
"null","193556","SARL_v6","SARL_v6mb57ae0b","5bace423b95cc700014b5334","fixation","","","img/fixation.png","null","","","test","","","","","","","","","","","","","","","","","","","",""
"167.39999999990687","193726","SARL_v6","SARL_v6mb57ae0b","5bace423b95cc700014b5334","freq","","","img/orange_2bandit_a2.png","70","","70","test","1","","82","","","","square","circle","79","15","4","1","","","","","","","",""
"null","194373","SARL_v6","SARL_v6mb57ae0b","5bace423b95cc700014b5334","freq_resp","","","img/orange_2bandit_a.png","70","img/orange_2bandit_a.png","70","test","","","","","","","","","","","4","","","","","","","","",""
"null","194538","SARL_v6","SARL_v6mb57ae0b","5bace423b95cc700014b5334","fixation","","","img/fixation.png","null","","","test","","","","","","","","","","","","","","","","","","","",""
"240.4000000001397","194781","SARL_v6","SARL_v6mb57ae0b","5bace423b95cc700014b5334","freq","","","img/orange_2bandit_a2.png","70","","70","test","1","","83","","","","square","circle","80","16","4","1","","","","","","","",""
"null","195345","SARL_v6","SARL_v6mb57ae0b","5bace423b95cc700014b5334","freq_resp","","","img/orange_2bandit_a.png","70","img/orange_2bandit_a.png","70","test","","","","","","","","","","","4","","","","","","","","",""
"null","195505","SARL_v6","SARL_v6mb57ae0b","5bace423b95cc700014b5334","fixation","","","img/fixation.png","null","","","test","","","","","","","","","","","","","","","","","","","",""
"324.9000000001397","195833","SARL_v6","SARL_v6mb57ae0b","5bace423b95cc700014b5334","freq","","","img/orange_2bandit_a2.png","70","","70","test","1","","84","","","","square","circle","81","17","4","1","","","","","","","",""
"null","196322","SARL_v6","SARL_v6mb57ae0b","5bace423b95cc700014b5334","freq_resp","","","img/orange_2bandit_a.png","70","img/orange_2bandit_a.png","70","test","","","","","","","","","","","4","","","","","","","","",""
"null","196486","SARL_v6","SARL_v6mb57ae0b","5bace423b95cc700014b5334","fixation","","","img/fixation.png","null","","","test","","","","","","","","","","","","","","","","","","","",""
"188.80000000004657","196677","SARL_v6","SARL_v6mb57ae0b","5bace423b95cc700014b5334","infreq","","","img/blue_2bandit_a2.png","70","","68","test","0","","85","","","","square","circle","82","18","4","0.9878048780487805","","","","","","","",""
"null","197305","SARL_v6","SARL_v6mb57ae0b","5bace423b95cc700014b5334","infreq_resp","","","img/blue_2bandit_a.png","70","img/blue_2bandit_a.png","68","test","","","","","","","","","","","4","","","","","","","","",""
"null","197470","SARL_v6","SARL_v6mb57ae0b","5bace423b95cc700014b5334","fixation","","","img/fixation.png","null","","","test","","","","","","","","","","","","","","","","","","","",""
"619.3999999999069","198092","SARL_v6","SARL_v6mb57ae0b","5bace423b95cc700014b5334","freq","","","img/orange_2bandit_a2.png","70","","70","test","1","","86","","","","square","circle","83","19","4","0.9879518072289156","","","","","","","",""
"null","198285","SARL_v6","SARL_v6mb57ae0b","5bace423b95cc700014b5334","freq_resp","","","img/orange_2bandit_a.png","70","img/orange_2bandit_a.png","70","test","","","","","","","","","","","4","","","","","","","","",""
"null","198451","SARL_v6","SARL_v6mb57ae0b","5bace423b95cc700014b5334","fixation","","","img/fixation.png","null","","","test","","","","","","","","","","","","","","","","","","","",""
"536.1999999999534","198990","SARL_v6","SARL_v6mb57ae0b","5bace423b95cc700014b5334","rl","","","img/black_2bandit_a2.png","74","","0","test","","","87","","","0","square","circle","","0","4","","74","-12","0","0","-12","square","4","0"
"null","199746","SARL_v6","SARL_v6mb57ae0b","5bace423b95cc700014b5334","feedback","","","<div class=""verylowPoints_sq""> 0 </div>","null","","na","test","","","NaN","","","","","","","","4","","74","","","","","","4",""
"626","200375","SARL_v6","SARL_v6mb57ae0b","5bace423b95cc700014b5334","freq","","","img/orange_2bandit_a2.png","70","","70","test","1","","88","","","","square","circle","84","1","5","0.9880952380952381","","","","","","","",""
"null","200566","SARL_v6","SARL_v6mb57ae0b","5bace423b95cc700014b5334","freq_resp","","","img/orange_2bandit_a.png","70","img/orange_2bandit_a.png","70","test","","","","","","","","","","","5","","","","","","","","",""
"null","200732","SARL_v6","SARL_v6mb57ae0b","5bace423b95cc700014b5334","fixation","","","img/fixation.png","null","","","test","","","","","","","","","","","","","","","","","","","",""
"473.5","201209","SARL_v6","SARL_v6mb57ae0b","5bace423b95cc700014b5334","freq","","","img/orange_2bandit_a2.png","70","","70","test","1","","89","","","","square","circle","85","2","5","0.9882352941176471","","","","","","","",""
"null","201538","SARL_v6","SARL_v6mb57ae0b","5bace423b95cc700014b5334","freq_resp","","","img/orange_2bandit_a.png","70","img/orange_2bandit_a.png","70","test","","","","","","","","","","","5","","","","","","","","",""
"null","201701","SARL_v6","SARL_v6mb57ae0b","5bace423b95cc700014b5334","fixation","","","img/fixation.png","null","","","test","","","","","","","","","","","","","","","","","","","",""
"410.19999999995343","202114","SARL_v6","SARL_v6mb57ae0b","5bace423b95cc700014b5334","freq","","","img/orange_2bandit_a2.png","70","","70","test","1","","90","","","","square","circle","86","3","5","0.9883720930232558","","","","","","","",""
"null","202516","SARL_v6","SARL_v6mb57ae0b","5bace423b95cc700014b5334","freq_resp","","","img/orange_2bandit_a.png","70","img/orange_2bandit_a.png","70","test","","","","","","","","","","","5","","","","","","","","",""
"null","202680","SARL_v6","SARL_v6mb57ae0b","5bace423b95cc700014b5334","fixation","","","img/fixation.png","null","","","test","","","","","","","","","","","","","","","","","","","",""
"444.4000000001397","203127","SARL_v6","SARL_v6mb57ae0b","5bace423b95cc700014b5334","infreq","","","img/blue_2bandit_a2.png","68","","68","test","1","","91","","","","square","circle","87","4","5","0.9885057471264368","","","","","","","",""
"null","203500","SARL_v6","SARL_v6mb57ae0b","5bace423b95cc700014b5334","infreq_resp","","","img/blue_2bandit_a.png","68","img/blue_2bandit_a.png","68","test","","","","","","","","","","","5","","","","","","","","",""
"null","203665","SARL_v6","SARL_v6mb57ae0b","5bace423b95cc700014b5334","fixation","","","img/fixation.png","null","","","test","","","","","","","","","","","","","","","","","","","",""
"421","204089","SARL_v6","SARL_v6mb57ae0b","5bace423b95cc700014b5334","freq","","","img/orange_2bandit_a2.png","70","","70","test","1","","92","","","","square","circle","88","5","5","0.9886363636363636","","","","","","","",""
"null","204481","SARL_v6","SARL_v6mb57ae0b","5bace423b95cc700014b5334","freq_resp","","","img/orange_2bandit_a.png","70","img/orange_2bandit_a.png","70","test","","","","","","","","","","","5","","","","","","","","",""
"null","204645","SARL_v6","SARL_v6mb57ae0b","5bace423b95cc700014b5334","fixation","","","img/fixation.png","null","","","test","","","","","","","","","","","","","","","","","","","",""
"454.4000000001397","205102","SARL_v6","SARL_v6mb57ae0b","5bace423b95cc700014b5334","infreq","","","img/blue_2bandit_a2.png","68","","68","test","1","","93","","","","square","circle","89","6","5","0.9887640449438202","","","","","","","",""
"null","205465","SARL_v6","SARL_v6mb57ae0b","5bace423b95cc700014b5334","infreq_resp","","","img/blue_2bandit_a.png","68","img/blue_2bandit_a.png","68","test","","","","","","","","","","","5","","","","","","","","",""
"null","205629","SARL_v6","SARL_v6mb57ae0b","5bace423b95cc700014b5334","fixation","","","img/fixation.png","null","","","test","","","","","","","","","","","","","","","","","","","",""
"465.30000000004657","206096","SARL_v6","SARL_v6mb57ae0b","5bace423b95cc700014b5334","freq","","","img/orange_2bandit_a2.png","70","","70","test","1","","94","","","","square","circle","90","7","5","0.9888888888888889","","","","","","","",""
"null","206448","SARL_v6","SARL_v6mb57ae0b","5bace423b95cc700014b5334","freq_resp","","","img/orange_2bandit_a.png","70","img/orange_2bandit_a.png","70","test","","","","","","","","","","","5","","","","","","","","",""
"null","206611","SARL_v6","SARL_v6mb57ae0b","5bace423b95cc700014b5334","fixation","","","img/fixation.png","null","","","test","","","","","","","","","","","","","","","","","","","",""
"360.79999999981374","206975","SARL_v6","SARL_v6mb57ae0b","5bace423b95cc700014b5334","freq","","","img/orange_2bandit_a2.png","70","","70","test","1","","95","","","","square","circle","91","8","5","0.989010989010989","","","","","","","",""
"null","207425","SARL_v6","SARL_v6mb57ae0b","5bace423b95cc700014b5334","freq_resp","","","img/orange_2bandit_a.png","70","img/orange_2bandit_a.png","70","test","","","","","","","","","","","5","","","","","","","","",""
"null","207593","SARL_v6","SARL_v6mb57ae0b","5bace423b95cc700014b5334","fixation","","","img/fixation.png","null","","","test","","","","","","","","","","","","","","","","","","","",""
"311.60000000009313","207908","SARL_v6","SARL_v6mb57ae0b","5bace423b95cc700014b5334","freq","","","img/orange_2bandit_a2.png","70","","70","test","1","","96","","","","square","circle","92","9","5","0.9891304347826086","","","","","","","",""
"null","208403","SARL_v6","SARL_v6mb57ae0b","5bace423b95cc700014b5334","freq_resp","","","img/orange_2bandit_a.png","70","img/orange_2bandit_a.png","70","test","","","","","","","","","","","5","","","","","","","","",""
"null","208559","SARL_v6","SARL_v6mb57ae0b","5bace423b95cc700014b5334","fixation","","","img/fixation.png","null","","","test","","","","","","","","","","","","","","","","","","","",""
"334.89999999990687","208897","SARL_v6","SARL_v6mb57ae0b","5bace423b95cc700014b5334","freq","","","img/orange_2bandit_a2.png","70","","70","test","1","","97","","","","square","circle","93","10","5","0.989247311827957","","","","","","","",""
"null","209372","SARL_v6","SARL_v6mb57ae0b","5bace423b95cc700014b5334","freq_resp","","","img/orange_2bandit_a.png","70","img/orange_2bandit_a.png","70","test","","","","","","","","","","","5","","","","","","","","",""
"null","209540","SARL_v6","SARL_v6mb57ae0b","5bace423b95cc700014b5334","fixation","","","img/fixation.png","null","","","test","","","","","","","","","","","","","","","","","","","",""
"327.5","209871","SARL_v6","SARL_v6mb57ae0b","5bace423b95cc700014b5334","freq","","","img/orange_2bandit_a2.png","70","","70","test","1","","98","","","","square","circle","94","11","5","0.9893617021276596","","","","","","","",""
"null","210352","SARL_v6","SARL_v6mb57ae0b","5bace423b95cc700014b5334","freq_resp","","","img/orange_2bandit_a.png","70","img/orange_2bandit_a.png","70","test","","","","","","","","","","","5","","","","","","","","",""
"null","210508","SARL_v6","SARL_v6mb57ae0b","5bace423b95cc700014b5334","fixation","","","img/fixation.png","null","","","test","","","","","","","","","","","","","","","","","","","",""
"337","210848","SARL_v6","SARL_v6mb57ae0b","5bace423b95cc700014b5334","freq","","","img/orange_2bandit_a2.png","70","","70","test","1","","99","","","","square","circle","95","12","5","0.9894736842105263","","","","","","","",""
"null","211317","SARL_v6","SARL_v6mb57ae0b","5bace423b95cc700014b5334","freq_resp","","","img/orange_2bandit_a.png","70","img/orange_2bandit_a.png","70","test","","","","","","","","","","","5","","","","","","","","",""
"null","211473","SARL_v6","SARL_v6mb57ae0b","5bace423b95cc700014b5334","fixation","","","img/fixation.png","null","","","test","","","","","","","","","","","","","","","","","","","",""
"270.69999999995343","211747","SARL_v6","SARL_v6mb57ae0b","5bace423b95cc700014b5334","freq","","","img/orange_2bandit_a2.png","70","","70","test","1","","100","","","","square","circle","96","13","5","0.9895833333333334","","","","","","","",""
"null","212281","SARL_v6","SARL_v6mb57ae0b","5bace423b95cc700014b5334","freq_resp","","","img/orange_2bandit_a.png","70","img/orange_2bandit_a.png","70","test","","","","","","","","","","","5","","","","","","","","",""
"null","212438","SARL_v6","SARL_v6mb57ae0b","5bace423b95cc700014b5334","fixation","","","img/fixation.png","null","","","test","","","","","","","","","","","","","","","","","","","",""
"278.10000000009313","212719","SARL_v6","SARL_v6mb57ae0b","5bace423b95cc700014b5334","freq","","","img/orange_2bandit_a2.png","70","","70","test","1","","101","","","","square","circle","97","14","5","0.9896907216494846","","","","","","","",""
"null","213247","SARL_v6","SARL_v6mb57ae0b","5bace423b95cc700014b5334","freq_resp","","","img/orange_2bandit_a.png","70","img/orange_2bandit_a.png","70","test","","","","","","","","","","","5","","","","","","","","",""
"null","213404","SARL_v6","SARL_v6mb57ae0b","5bace423b95cc700014b5334","fixation","","","img/fixation.png","null","","","test","","","","","","","","","","","","","","","","","","","",""
"273.0999999998603","213680","SARL_v6","SARL_v6mb57ae0b","5bace423b95cc700014b5334","freq","","","img/orange_2bandit_a2.png","70","","70","test","1","","102","","","","square","circle","98","15","5","0.9897959183673469","","","","","","","",""
"null","214214","SARL_v6","SARL_v6mb57ae0b","5bace423b95cc700014b5334","freq_resp","","","img/orange_2bandit_a.png","70","img/orange_2bandit_a.png","70","test","","","","","","","","","","","5","","","","","","","","",""
"null","214370","SARL_v6","SARL_v6mb57ae0b","5bace423b95cc700014b5334","fixation","","","img/fixation.png","null","","","test","","","","","","","","","","","","","","","","","","","",""
"304.19999999995343","214677","SARL_v6","SARL_v6mb57ae0b","5bace423b95cc700014b5334","infreq","","","img/blue_2bandit_a2.png","70","","68","test","0","","103","","","","square","circle","99","16","5","0.9797979797979798","","","","","","","",""
"null","215180","SARL_v6","SARL_v6mb57ae0b","5bace423b95cc700014b5334","infreq_resp","","","img/blue_2bandit_a.png","70","img/blue_2bandit_a.png","68","test","","","","","","","","","","","5","","","","","","","","",""
"null","215334","SARL_v6","SARL_v6mb57ae0b","5bace423b95cc700014b5334","fixation","","","img/fixation.png","null","","","test","","","","","","","","","","","","","","","","","","","",""
"684.8999999999069","216022","SARL_v6","SARL_v6mb57ae0b","5bace423b95cc700014b5334","freq","","","img/orange_2bandit_a2.png","70","","70","test","1","","104","","","","square","circle","100","17","5","0.98","","","","","","","",""
"null","216153","SARL_v6","SARL_v6mb57ae0b","5bace423b95cc700014b5334","freq_resp","","","img/orange_2bandit_a.png","70","img/orange_2bandit_a.png","70","test","","","","","","","","","","","5","","","","","","","","",""
"null","216318","SARL_v6","SARL_v6mb57ae0b","5bace423b95cc700014b5334","fixation","","","img/fixation.png","null","","","test","","","","","","","","","","","","","","","","","","","",""
"498.80000000004657","216819","SARL_v6","SARL_v6mb57ae0b","5bace423b95cc700014b5334","freq","","","img/orange_2bandit_a2.png","70","","70","test","1","","105","","","","square","circle","101","18","5","0.9801980198019802","","","","","","","",""
"null","217124","SARL_v6","SARL_v6mb57ae0b","5bace423b95cc700014b5334","freq_resp","","","img/orange_2bandit_a.png","70","img/orange_2bandit_a.png","70","test","","","","","","","","","","","5","","","","","","","","",""
"null","217284","SARL_v6","SARL_v6mb57ae0b","5bace423b95cc700014b5334","fixation","","","img/fixation.png","null","","","test","","","","","","","","","","","","","","","","","","","",""
"436","217723","SARL_v6","SARL_v6mb57ae0b","5bace423b95cc700014b5334","freq","","","img/orange_2bandit_a2.png","70","","70","test","1","","106","","","","square","circle","102","19","5","0.9803921568627451","","","","","","","",""
"null","218093","SARL_v6","SARL_v6mb57ae0b","5bace423b95cc700014b5334","freq_resp","","","img/orange_2bandit_a.png","70","img/orange_2bandit_a.png","70","test","","","","","","","","","","","5","","","","","","","","",""
"null","218250","SARL_v6","SARL_v6mb57ae0b","5bace423b95cc700014b5334","fixation","","","img/fixation.png","null","","","test","","","","","","","","","","","","","","","","","","","",""
"442.5","218696","SARL_v6","SARL_v6mb57ae0b","5bace423b95cc700014b5334","freq","","","img/orange_2bandit_a2.png","70","","70","test","1","","107","","","","square","circle","103","20","5","0.9805825242718447","","","","","","","",""
"null","219068","SARL_v6","SARL_v6mb57ae0b","5bace423b95cc700014b5334","freq_resp","","","img/orange_2bandit_a.png","70","img/orange_2bandit_a.png","70","test","","","","","","","","","","","5","","","","","","","","",""
"null","219232","SARL_v6","SARL_v6mb57ae0b","5bace423b95cc700014b5334","fixation","","","img/fixation.png","null","","","test","","","","","","","","","","","","","","","","","","","",""
"456.5","219691","SARL_v6","SARL_v6mb57ae0b","5bace423b95cc700014b5334","freq","","","img/orange_2bandit_a2.png","70","","70","test","1","","108","","","","square","circle","104","21","5","0.9807692307692307","","","","","","","",""
"null","220051","SARL_v6","SARL_v6mb57ae0b","5bace423b95cc700014b5334","freq_resp","","","img/orange_2bandit_a.png","70","img/orange_2bandit_a.png","70","test","","","","","","","","","","","5","","","","","","","","",""
"null","220214","SARL_v6","SARL_v6mb57ae0b","5bace423b95cc700014b5334","fixation","","","img/fixation.png","null","","","test","","","","","","","","","","","","","","","","","","","",""
"379.39999999990687","220597","SARL_v6","SARL_v6mb57ae0b","5bace423b95cc700014b5334","freq","","","img/orange_2bandit_a2.png","70","","70","test","1","","109","","","","square","circle","105","22","5","0.9809523809523809","","","","","","","",""
"null","221028","SARL_v6","SARL_v6mb57ae0b","5bace423b95cc700014b5334","freq_resp","","","img/orange_2bandit_a.png","70","img/orange_2bandit_a.png","70","test","","","","","","","","","","","5","","","","","","","","",""
"null","221195","SARL_v6","SARL_v6mb57ae0b","5bace423b95cc700014b5334","fixation","","","img/fixation.png","null","","","test","","","","","","","","","","","","","","","","","","","",""
"426.19999999995343","221624","SARL_v6","SARL_v6mb57ae0b","5bace423b95cc700014b5334","freq","","","img/orange_2bandit_a2.png","70","","70","test","1","","110","","","","square","circle","106","23","5","0.9811320754716981","","","","","","","",""
"null","222014","SARL_v6","SARL_v6mb57ae0b","5bace423b95cc700014b5334","freq_resp","","","img/orange_2bandit_a.png","70","img/orange_2bandit_a.png","70","test","","","","","","","","","","","5","","","","","","","","",""
"null","222178","SARL_v6","SARL_v6mb57ae0b","5bace423b95cc700014b5334","fixation","","","img/fixation.png","null","","","test","","","","","","","","","","","","","","","","","","","",""
"355.10000000009313","222536","SARL_v6","SARL_v6mb57ae0b","5bace423b95cc700014b5334","freq","","","img/orange_2bandit_a2.png","70","","70","test","1","","111","","","","square","circle","107","24","5","0.9813084112149533","","","","","","","",""
"null","222999","SARL_v6","SARL_v6mb57ae0b","5bace423b95cc700014b5334","freq_resp","","","img/orange_2bandit_a.png","70","img/orange_2bandit_a.png","70","test","","","","","","","","","","","5","","","","","","","","",""
"null","223161","SARL_v6","SARL_v6mb57ae0b","5bace423b95cc700014b5334","fixation","","","img/fixation.png","null","","","test","","","","","","","","","","","","","","","","","","","",""
"356","223520","SARL_v6","SARL_v6mb57ae0b","5bace423b95cc700014b5334","freq","","","img/orange_2bandit_a2.png","70","","70","test","1","","112","","","","square","circle","108","25","5","0.9814814814814815","","","","","","","",""
"null","223974","SARL_v6","SARL_v6mb57ae0b","5bace423b95cc700014b5334","freq_resp","","","img/orange_2bandit_a.png","70","img/orange_2bandit_a.png","70","test","","","","","","","","","","","5","","","","","","","","",""
"null","224127","SARL_v6","SARL_v6mb57ae0b","5bace423b95cc700014b5334","fixation","","","img/fixation.png","null","","","test","","","","","","","","","","","","","","","","","","","",""
"471.19999999995343","224601","SARL_v6","SARL_v6mb57ae0b","5bace423b95cc700014b5334","rl","","","img/black_2bandit_a2.png","75","","0","test","","","113","","","-7","square","circle","","0","5","","75","-7","4","4","-7","circle","5","0"
"null","225370","SARL_v6","SARL_v6mb57ae0b","5bace423b95cc700014b5334","feedback","","","<div class=""verylowPoints""> -7 </div>","null","","na","test","","","NaN","","","","","","","","5","","75","","","","","","5",""
"699.3000000000466","226072","SARL_v6","SARL_v6mb57ae0b","5bace423b95cc700014b5334","freq","","","img/orange_2bandit_a2.png","70","","70","test","1","","114","","","","square","circle","109","1","6","0.981651376146789","","","","","","","",""
"null","226178","SARL_v6","SARL_v6mb57ae0b","5bace423b95cc700014b5334","freq_resp","","","img/orange_2bandit_a.png","70","img/orange_2bandit_a.png","70","test","","","","","","","","","","","6","","","","","","","","",""
"null","226342","SARL_v6","SARL_v6mb57ae0b","5bace423b95cc700014b5334","fixation","","","img/fixation.png","null","","","test","","","","","","","","","","","","","","","","","","","",""
"553.6999999999534","226898","SARL_v6","SARL_v6mb57ae0b","5bace423b95cc700014b5334","infreq","","","img/blue_2bandit_a2.png","68","","68","test","1","","115","","","","square","circle","110","2","6","0.9818181818181818","","","","","","","",""
"null","227151","SARL_v6","SARL_v6mb57ae0b","5bace423b95cc700014b5334","infreq_resp","","","img/blue_2bandit_a.png","68","img/blue_2bandit_a.png","68","test","","","","","","","","","","","6","","","","","","","","",""
"null","227308","SARL_v6","SARL_v6mb57ae0b","5bace423b95cc700014b5334","fixation","","","img/fixation.png","null","","","test","","","","","","","","","","","","","","","","","","","",""
"420.80000000004657","227732","SARL_v6","SARL_v6mb57ae0b","5bace423b95cc700014b5334","infreq","","","img/blue_2bandit_a2.png","68","","68","test","1","","116","","","","square","circle","111","3","6","0.9819819819819819","","","","","","","",""
"null","228124","SARL_v6","SARL_v6mb57ae0b","5bace423b95cc700014b5334","infreq_resp","","","img/blue_2bandit_a.png","68","img/blue_2bandit_a.png","68","test","","","","","","","","","","","6","","","","","","","","",""
"null","228287","SARL_v6","SARL_v6mb57ae0b","5bace423b95cc700014b5334","fixation","","","img/fixation.png","null","","","test","","","","","","","","","","","","","","","","","","","",""
"430","228721","SARL_v6","SARL_v6mb57ae0b","5bace423b95cc700014b5334","freq","","","img/orange_2bandit_a2.png","70","","70","test","1","","117","","","","square","circle","112","4","6","0.9821428571428571","","","","","","","",""
"null","229107","SARL_v6","SARL_v6mb57ae0b","5bace423b95cc700014b5334","freq_resp","","","img/orange_2bandit_a.png","70","img/orange_2bandit_a.png","70","test","","","","","","","","","","","6","","","","","","","","",""
"null","229270","SARL_v6","SARL_v6mb57ae0b","5bace423b95cc700014b5334","fixation","","","img/fixation.png","null","","","test","","","","","","","","","","","","","","","","","","","",""
"441.5","229715","SARL_v6","SARL_v6mb57ae0b","5bace423b95cc700014b5334","freq","","","img/orange_2bandit_a2.png","70","","70","test","1","","118","","","","square","circle","113","5","6","0.9823008849557522","","","","","","","",""
"null","230089","SARL_v6","SARL_v6mb57ae0b","5bace423b95cc700014b5334","freq_resp","","","img/orange_2bandit_a.png","70","img/orange_2bandit_a.png","70","test","","","","","","","","","","","6","","","","","","","","",""
"null","230252","SARL_v6","SARL_v6mb57ae0b","5bace423b95cc700014b5334","fixation","","","img/fixation.png","null","","","test","","","","","","","","","","","","","","","","","","","",""
"453.60000000009313","230709","SARL_v6","SARL_v6mb57ae0b","5bace423b95cc700014b5334","freq","","","img/orange_2bandit_a2.png","70","","70","test","1","","119","","","","square","circle","114","6","6","0.9824561403508771","","","","","","","",""
"null","231060","SARL_v6","SARL_v6mb57ae0b","5bace423b95cc700014b5334","freq_resp","","","img/orange_2bandit_a.png","70","img/orange_2bandit_a.png","70","test","","","","","","","","","","","6","","","","","","","","",""
"null","231221","SARL_v6","SARL_v6mb57ae0b","5bace423b95cc700014b5334","fixation","","","img/fixation.png","null","","","test","","","","","","","","","","","","","","","","","","","",""
"458.39999999990687","231683","SARL_v6","SARL_v6mb57ae0b","5bace423b95cc700014b5334","freq","","","img/orange_2bandit_a2.png","70","","70","test","1","","120","","","","square","circle","115","7","6","0.9826086956521739","","","","","","","",""
"null","232041","SARL_v6","SARL_v6mb57ae0b","5bace423b95cc700014b5334","freq_resp","","","img/orange_2bandit_a.png","70","img/orange_2bandit_a.png","70","test","","","","","","","","","","","6","","","","","","","","",""
"null","232203","SARL_v6","SARL_v6mb57ae0b","5bace423b95cc700014b5334","fixation","","","img/fixation.png","null","","","test","","","","","","","","","","","","","","","","","","","",""
"444.0999999998603","232650","SARL_v6","SARL_v6mb57ae0b","5bace423b95cc700014b5334","freq","","","img/orange_2bandit_a2.png","70","","70","test","1","","121","","","","square","circle","116","8","6","0.9827586206896551","","","","","","","",""
"null","233020","SARL_v6","SARL_v6mb57ae0b","5bace423b95cc700014b5334","freq_resp","","","img/orange_2bandit_a.png","70","img/orange_2bandit_a.png","70","test","","","","","","","","","","","6","","","","","","","","",""
"null","233185","SARL_v6","SARL_v6mb57ae0b","5bace423b95cc700014b5334","fixation","","","img/fixation.png","null","","","test","","","","","","","","","","","","","","","","","","","",""
"405.89999999990687","233594","SARL_v6","SARL_v6mb57ae0b","5bace423b95cc700014b5334","freq","","","img/orange_2bandit_a2.png","70","","70","test","1","","122","","","","square","circle","117","9","6","0.9829059829059829","","","","","","","",""
"null","234001","SARL_v6","SARL_v6mb57ae0b","5bace423b95cc700014b5334","freq_resp","","","img/orange_2bandit_a.png","70","img/orange_2bandit_a.png","70","test","","","","","","","","","","","6","","","","","","","","",""
"null","234166","SARL_v6","SARL_v6mb57ae0b","5bace423b95cc700014b5334","fixation","","","img/fixation.png","null","","","test","","","","","","","","","","","","","","","","","","","",""
"417.0999999998603","234586","SARL_v6","SARL_v6mb57ae0b","5bace423b95cc700014b5334","freq","","","img/orange_2bandit_a2.png","70","","70","test","1","","123","","","","square","circle","118","10","6","0.9830508474576272","","","","","","","",""
"null","234984","SARL_v6","SARL_v6mb57ae0b","5bace423b95cc700014b5334","freq_resp","","","img/orange_2bandit_a.png","70","img/orange_2bandit_a.png","70","test","","","","","","","","","","","6","","","","","","","","",""
"null","235148","SARL_v6","SARL_v6mb57ae0b","5bace423b95cc700014b5334","fixation","","","img/fixation.png","null","","","test","","","","","","","","","","","","","","","","","","","",""
"465.4000000001397","235616","SARL_v6","SARL_v6mb57ae0b","5bace423b95cc700014b5334","freq","","","img/orange_2bandit_a2.png","70","","70","test","1","","124","","","","square","circle","119","11","6","0.9831932773109243","","","","","","","",""
"null","235967","SARL_v6","SARL_v6mb57ae0b","5bace423b95cc700014b5334","freq_resp","","","img/orange_2bandit_a.png","70","img/orange_2bandit_a.png","70","test","","","","","","","","","","","6","","","","","","","","",""
"null","236131","SARL_v6","SARL_v6mb57ae0b","5bace423b95cc700014b5334","fixation","","","img/fixation.png","null","","","test","","","","","","","","","","","","","","","","","","","",""
"423.5999999998603","236558","SARL_v6","SARL_v6mb57ae0b","5bace423b95cc700014b5334","freq","","","img/orange_2bandit_a2.png","70","","70","test","1","","125","","","","square","circle","120","12","6","0.9833333333333333","","","","","","","",""
"null","236947","SARL_v6","SARL_v6mb57ae0b","5bace423b95cc700014b5334","freq_resp","","","img/orange_2bandit_a.png","70","img/orange_2bandit_a.png","70","test","","","","","","","","","","","6","","","","","","","","",""
"null","237113","SARL_v6","SARL_v6mb57ae0b","5bace423b95cc700014b5334","fixation","","","img/fixation.png","null","","","test","","","","","","","","","","","","","","","","","","","",""
"410.69999999995343","237526","SARL_v6","SARL_v6mb57ae0b","5bace423b95cc700014b5334","freq","","","img/orange_2bandit_a2.png","70","","70","test","1","","126","","","","square","circle","121","13","6","0.9834710743801653","","","","","","","",""
"null","237929","SARL_v6","SARL_v6mb57ae0b","5bace423b95cc700014b5334","freq_resp","","","img/orange_2bandit_a.png","70","img/orange_2bandit_a.png","70","test","","","","","","","","","","","6","","","","","","","","",""
"null","238095","SARL_v6","SARL_v6mb57ae0b","5bace423b95cc700014b5334","fixation","","","img/fixation.png","null","","","test","","","","","","","","","","","","","","","","","","","",""
"397.10000000009313","238494","SARL_v6","SARL_v6mb57ae0b","5bace423b95cc700014b5334","freq","","","img/orange_2bandit_a2.png","70","","70","test","1","","127","","","","square","circle","122","14","6","0.9836065573770492","","","","","","","",""
"null","238912","SARL_v6","SARL_v6mb57ae0b","5bace423b95cc700014b5334","freq_resp","","","img/orange_2bandit_a.png","70","img/orange_2bandit_a.png","70","test","","","","","","","","","","","6","","","","","","","","",""
"null","239077","SARL_v6","SARL_v6mb57ae0b","5bace423b95cc700014b5334","fixation","","","img/fixation.png","null","","","test","","","","","","","","","","","","","","","","","","","",""
"356.10000000009313","239436","SARL_v6","SARL_v6mb57ae0b","5bace423b95cc700014b5334","freq","","","img/orange_2bandit_a2.png","70","","70","test","1","","128","","","","square","circle","123","15","6","0.983739837398374","","","","","","","",""
"null","239892","SARL_v6","SARL_v6mb57ae0b","5bace423b95cc700014b5334","freq_resp","","","img/orange_2bandit_a.png","70","img/orange_2bandit_a.png","70","test","","","","","","","","","","","6","","","","","","","","",""
"null","240046","SARL_v6","SARL_v6mb57ae0b","5bace423b95cc700014b5334","fixation","","","img/fixation.png","null","","","test","","","","","","","","","","","","","","","","","","","",""
"377.60000000009313","240426","SARL_v6","SARL_v6mb57ae0b","5bace423b95cc700014b5334","freq","","","img/orange_2bandit_a2.png","70","","70","test","1","","129","","","","square","circle","124","16","6","0.9838709677419355","","","","","","","",""
"null","240859","SARL_v6","SARL_v6mb57ae0b","5bace423b95cc700014b5334","freq_resp","","","img/orange_2bandit_a.png","70","img/orange_2bandit_a.png","70","test","","","","","","","","","","","6","","","","","","","","",""
"null","241026","SARL_v6","SARL_v6mb57ae0b","5bace423b95cc700014b5334","fixation","","","img/fixation.png","null","","","test","","","","","","","","","","","","","","","","","","","",""
"444.30000000004657","241473","SARL_v6","SARL_v6mb57ae0b","5bace423b95cc700014b5334","freq","","","img/orange_2bandit_a2.png","70","","70","test","1","","130","","","","square","circle","125","17","6","0.984","","","","","","","",""
"null","241846","SARL_v6","SARL_v6mb57ae0b","5bace423b95cc700014b5334","freq_resp","","","img/orange_2bandit_a.png","70","img/orange_2bandit_a.png","70","test","","","","","","","","","","","6","","","","","","","","",""
"null","242010","SARL_v6","SARL_v6mb57ae0b","5bace423b95cc700014b5334","fixation","","","img/fixation.png","null","","","test","","","","","","","","","","","","","","","","","","","",""
