"rt","time_elapsed","expId","subject","prolificID","trialType","rlType","attType","stimulus","key_press","stim","corrresp","phase","corr","pracCounter","trialNum","rewardOne","rewardTwo","reward","bandOne","bandTwo","attentionNum","attentionRunNum","blockNum","performance","bandChosen","circleVal","squareVal","bandOneVal","bandTwoVal","shapeChosen","rlNum","badFlag"
"12529.10000000149","12538","SARL_v6","SARL_v61ymvgvxp","5eb32b8adc8fc511560fca82","","","","","","","","","","","","","","","","","","","","","","","","","","","",""
"","14803","SARL_v6","SARL_v61ymvgvxp","5eb32b8adc8fc511560fca82","fullscreen","fullscreen","fullscreen","","","","","","","","","","","","","","","","","","","","","","","","",""
"53279.20000000298","68087","SARL_v6","SARL_v61ymvgvxp","5eb32b8adc8fc511560fca82","","","","","","","","","","","","","","","","","","","","","","","","","","","",""
"null","68898","SARL_v6","SARL_v61ymvgvxp","5eb32b8adc8fc511560fca82","freqPrac","","","img/blue_2bandit_b2.png","null","img/blue_2bandit_b2.png","70","prac","0","1","","","","","","","","","","","","","","","","","",""
"null","69918","SARL_v6","SARL_v61ymvgvxp","5eb32b8adc8fc511560fca82","feedback","","","img/tooSlow.png","null","","na","prac","","","","","","","","","","","","","","","","","","","",""
"null","70074","SARL_v6","SARL_v61ymvgvxp","5eb32b8adc8fc511560fca82","fixation","","","img/fixation.png","null","","","prac","","","","","","","","","","","","","","","","","","","",""
"316.8999999985099","70396","SARL_v6","SARL_v61ymvgvxp","5eb32b8adc8fc511560fca82","infreqPrac","","","img/orange_2bandit_b2.png","70","img/orange_2bandit_b2.png","68","prac","0","2","","","","","","","","","","","","","","","","","",""
"316.8999999985099","70893","SARL_v6","SARL_v61ymvgvxp","5eb32b8adc8fc511560fca82","infreqPrac_resp","","","img/orange_2bandit_b.png","70","img/orange_2bandit_b.png","68","prac","","","","","","","","","","","","","","","","","","","",""
"null","71908","SARL_v6","SARL_v61ymvgvxp","5eb32b8adc8fc511560fca82","feedback","","","img/wrongKey.png","null","","na","prac","","","","","","","","","","","","","","","","","","","",""
"null","72067","SARL_v6","SARL_v61ymvgvxp","5eb32b8adc8fc511560fca82","fixation","","","img/fixation.png","null","","","prac","","","","","","","","","","","","","","","","","","","",""
"401.6000000014901","72473","SARL_v6","SARL_v61ymvgvxp","5eb32b8adc8fc511560fca82","freqPrac","","","img/blue_2bandit_b2.png","70","img/blue_2bandit_b2.png","70","prac","1","2","","","","","","","","","","","","","","","","","",""
"401.6000000014901","72883","SARL_v6","SARL_v61ymvgvxp","5eb32b8adc8fc511560fca82","freqPrac_resp","","","img/blue_2bandit_b.png","70","img/blue_2bandit_b.png","70","prac","","","","","","","","","","","","","","","","","","","",""
"null","73042","SARL_v6","SARL_v61ymvgvxp","5eb32b8adc8fc511560fca82","fixation","","","img/fixation.png","null","","","prac","","","","","","","","","","","","","","","","","","","",""
"441.6000000014901","73487","SARL_v6","SARL_v61ymvgvxp","5eb32b8adc8fc511560fca82","infreqPrac","","","img/orange_2bandit_b2.png","68","img/orange_2bandit_b2.png","68","prac","1","2","","","","","","","","","","","","","","","","","",""
"441.6000000014901","73861","SARL_v6","SARL_v61ymvgvxp","5eb32b8adc8fc511560fca82","infreqPrac_resp","","","img/orange_2bandit_b.png","68","img/orange_2bandit_b.png","68","prac","","","","","","","","","","","","","","","","","","","",""
"null","74017","SARL_v6","SARL_v61ymvgvxp","5eb32b8adc8fc511560fca82","fixation","","","img/fixation.png","null","","","prac","","","","","","","","","","","","","","","","","","","",""
"404.80000000447035","74426","SARL_v6","SARL_v61ymvgvxp","5eb32b8adc8fc511560fca82","infreqPrac","","","img/orange_2bandit_b2.png","68","img/orange_2bandit_b2.png","68","prac","1","2","","","","","","","","","","","","","","","","","",""
"404.80000000447035","74831","SARL_v6","SARL_v61ymvgvxp","5eb32b8adc8fc511560fca82","infreqPrac_resp","","","img/orange_2bandit_b.png","68","img/orange_2bandit_b.png","68","prac","","","","","","","","","","","","","","","","","","","",""
"null","74990","SARL_v6","SARL_v61ymvgvxp","5eb32b8adc8fc511560fca82","fixation","","","img/fixation.png","null","","","prac","","","","","","","","","","","","","","","","","","","",""
"294.19999999552965","75289","SARL_v6","SARL_v61ymvgvxp","5eb32b8adc8fc511560fca82","infreqPrac","","","img/orange_2bandit_b2.png","68","img/orange_2bandit_b2.png","68","prac","1","2","","","","","","","","","","","","","","","","","",""
"294.19999999552965","75802","SARL_v6","SARL_v61ymvgvxp","5eb32b8adc8fc511560fca82","infreqPrac_resp","","","img/orange_2bandit_b.png","68","img/orange_2bandit_b.png","68","prac","","","","","","","","","","","","","","","","","","","",""
"null","75957","SARL_v6","SARL_v61ymvgvxp","5eb32b8adc8fc511560fca82","fixation","","","img/fixation.png","null","","","prac","","","","","","","","","","","","","","","","","","","",""
"327","76288","SARL_v6","SARL_v61ymvgvxp","5eb32b8adc8fc511560fca82","freqPrac","","","img/blue_2bandit_b2.png","70","img/blue_2bandit_b2.png","70","prac","1","2","","","","","","","","","","","","","","","","","",""
"327","76781","SARL_v6","SARL_v61ymvgvxp","5eb32b8adc8fc511560fca82","freqPrac_resp","","","img/blue_2bandit_b.png","70","img/blue_2bandit_b.png","70","prac","","","","","","","","","","","","","","","","","","","",""
"null","76940","SARL_v6","SARL_v61ymvgvxp","5eb32b8adc8fc511560fca82","fixation","","","img/fixation.png","null","","","prac","","","","","","","","","","","","","","","","","","","",""
"504.20000000298023","77448","SARL_v6","SARL_v61ymvgvxp","5eb32b8adc8fc511560fca82","infreqPrac","","","img/orange_2bandit_b2.png","68","img/orange_2bandit_b2.png","68","prac","1","2","","","","","","","","","","","","","","","","","",""
"504.20000000298023","77756","SARL_v6","SARL_v61ymvgvxp","5eb32b8adc8fc511560fca82","infreqPrac_resp","","","img/orange_2bandit_b.png","68","img/orange_2bandit_b.png","68","prac","","","","","","","","","","","","","","","","","","","",""
"null","77915","SARL_v6","SARL_v61ymvgvxp","5eb32b8adc8fc511560fca82","fixation","","","img/fixation.png","null","","","prac","","","","","","","","","","","","","","","","","","","",""
"344.3999999985099","78264","SARL_v6","SARL_v61ymvgvxp","5eb32b8adc8fc511560fca82","freqPrac","","","img/blue_2bandit_b2.png","70","img/blue_2bandit_b2.png","70","prac","1","2","","","","","","","","","","","","","","","","","",""
"344.3999999985099","78729","SARL_v6","SARL_v61ymvgvxp","5eb32b8adc8fc511560fca82","freqPrac_resp","","","img/blue_2bandit_b.png","70","img/blue_2bandit_b.png","70","prac","","","","","","","","","","","","","","","","","","","",""
"null","78895","SARL_v6","SARL_v61ymvgvxp","5eb32b8adc8fc511560fca82","fixation","","","img/fixation.png","null","","","prac","","","","","","","","","","","","","","","","","","","",""
"133.79999999701977","79032","SARL_v6","SARL_v61ymvgvxp","5eb32b8adc8fc511560fca82","freqPrac","","","img/blue_2bandit_b2.png","68","img/blue_2bandit_b2.png","70","prac","0","3","","","","","","","","","","","","","","","","","",""
"133.79999999701977","79714","SARL_v6","SARL_v61ymvgvxp","5eb32b8adc8fc511560fca82","freqPrac_resp","","","img/blue_2bandit_b.png","68","img/blue_2bandit_b.png","70","prac","","","","","","","","","","","","","","","","","","","",""
"null","80721","SARL_v6","SARL_v61ymvgvxp","5eb32b8adc8fc511560fca82","feedback","","","img/wrongKey.png","null","","na","prac","","","","","","","","","","","","","","","","","","","",""
"null","80876","SARL_v6","SARL_v61ymvgvxp","5eb32b8adc8fc511560fca82","fixation","","","img/fixation.png","null","","","prac","","","","","","","","","","","","","","","","","","","",""
"20393.20000000298","101273","SARL_v6","SARL_v61ymvgvxp","5eb32b8adc8fc511560fca82","","","","","","","","prac","","","","","","","","","","","","","","","","","","","",""
"505.09999999403954","101783","SARL_v6","SARL_v61ymvgvxp","5eb32b8adc8fc511560fca82","rlPractice","","","img/black_2bandit_b2.png","74","img/black_2bandit_b2.png","","prac","","","0","","","","","","","","","","","","","","","","",""
"null","102542","SARL_v6","SARL_v61ymvgvxp","5eb32b8adc8fc511560fca82","feedback","","","<div class=""veryhighPoints""> 10 </div>","null","","na","prac","","","1","10","-14","10","","","","","","","","","","","","","",""
"null","102702","SARL_v6","SARL_v61ymvgvxp","5eb32b8adc8fc511560fca82","fixation","","","img/fixation.png","null","","","prac","","","","","","","","","","","","","","","","","","","",""
"294.8999999985099","103001","SARL_v6","SARL_v61ymvgvxp","5eb32b8adc8fc511560fca82","rlPractice","","","img/black_2bandit_b2.png","75","img/black_2bandit_b2.png","","prac","","","1","","","","","","","","","","","","","","","","",""
"null","103760","SARL_v6","SARL_v61ymvgvxp","5eb32b8adc8fc511560fca82","feedback","","","<div class=""verylowPoints_sq""> -5 </div>","null","","na","prac","","","2","5","-5","5","","","","","","","","","","","","","",""
"null","103921","SARL_v6","SARL_v61ymvgvxp","5eb32b8adc8fc511560fca82","fixation","","","img/fixation.png","null","","","prac","","","","","","","","","","","","","","","","","","","",""
"17.700000002980232","103942","SARL_v6","SARL_v61ymvgvxp","5eb32b8adc8fc511560fca82","rlPractice","","","img/black_2bandit_b2.png","74","img/black_2bandit_b2.png","","prac","","","2","","","","","","","","","","","","","","","","",""
"null","104698","SARL_v6","SARL_v61ymvgvxp","5eb32b8adc8fc511560fca82","feedback","","","<div class=""veryhighPoints""> 30 </div>","null","","na","prac","","","3","30","2","30","","","","","","","","","","","","","",""
"null","104854","SARL_v6","SARL_v61ymvgvxp","5eb32b8adc8fc511560fca82","fixation","","","img/fixation.png","null","","","prac","","","","","","","","","","","","","","","","","","","",""
"372.29999999701977","105230","SARL_v6","SARL_v61ymvgvxp","5eb32b8adc8fc511560fca82","rlPractice","","","img/black_2bandit_b2.png","74","img/black_2bandit_b2.png","","prac","","","3","","","","","","","","","","","","","","","","",""
"null","105997","SARL_v6","SARL_v61ymvgvxp","5eb32b8adc8fc511560fca82","feedback","","","<div class=""verylowPoints""> -2 </div>","null","","na","prac","","","4","-2","20","-2","","","","","","","","","","","","","",""
"null","106160","SARL_v6","SARL_v61ymvgvxp","5eb32b8adc8fc511560fca82","fixation","","","img/fixation.png","null","","","prac","","","","","","","","","","","","","","","","","","","",""
"4891.5","111056","SARL_v6","SARL_v61ymvgvxp","5eb32b8adc8fc511560fca82","","","","","","","","prac","","","","","","","","","","","","","","","","","","","",""
"null","111867","SARL_v6","SARL_v61ymvgvxp","5eb32b8adc8fc511560fca82","mixAttFreqPrac","","","img/blue_2bandit_b2.png","null","img/blue_2bandit_b2.png","70","prac","","","1","","","","","","","","","","","","","","","","",""
"null","112022","SARL_v6","SARL_v61ymvgvxp","5eb32b8adc8fc511560fca82","fixation","","","img/fixation.png","null","","","prac","","","","","","","","","","","","","","","","","","","",""
"606.7000000029802","112633","SARL_v6","SARL_v61ymvgvxp","5eb32b8adc8fc511560fca82","mixAttInfreqPrac","","","img/orange_2bandit_b2.png","70","img/orange_2bandit_b2.png","68","prac","","","2","","","","","","","","","","","","","","","","",""
"606.7000000029802","112834","SARL_v6","SARL_v61ymvgvxp","5eb32b8adc8fc511560fca82","infreqPrac_resp","","","img/orange_2bandit_b.png","70","img/blue_2bandit_b.png","68","prac","","","2","","","","","","","","","","","","","","","","",""
"null","112989","SARL_v6","SARL_v61ymvgvxp","5eb32b8adc8fc511560fca82","fixation","","","img/fixation.png","null","","","prac","","","","","","","","","","","","","","","","","","","",""
"484.5","113478","SARL_v6","SARL_v61ymvgvxp","5eb32b8adc8fc511560fca82","mixAttInfreqPrac","","","img/orange_2bandit_b2.png","70","img/orange_2bandit_b2.png","68","prac","","","3","","","","","","","","","","","","","","","","",""
"484.5","113805","SARL_v6","SARL_v61ymvgvxp","5eb32b8adc8fc511560fca82","infreqPrac_resp","","","img/orange_2bandit_b.png","70","img/blue_2bandit_b.png","68","prac","","","3","","","","","","","","","","","","","","","","",""
"null","113960","SARL_v6","SARL_v61ymvgvxp","5eb32b8adc8fc511560fca82","fixation","","","img/fixation.png","null","","","prac","","","","","","","","","","","","","","","","","","","",""
"405.8999999985099","114370","SARL_v6","SARL_v61ymvgvxp","5eb32b8adc8fc511560fca82","mixAttInfreqPrac","","","img/orange_2bandit_b2.png","68","img/orange_2bandit_b2.png","68","prac","","","4","","","","","","","","","","","","","","","","",""
"405.8999999985099","114780","SARL_v6","SARL_v61ymvgvxp","5eb32b8adc8fc511560fca82","infreqPrac_resp","","","img/orange_2bandit_b.png","68","img/blue_2bandit_b.png","68","prac","","","4","","","","","","","","","","","","","","","","",""
"null","114939","SARL_v6","SARL_v61ymvgvxp","5eb32b8adc8fc511560fca82","fixation","","","img/fixation.png","null","","","prac","","","","","","","","","","","","","","","","","","","",""
"784.8999999985099","115728","SARL_v6","SARL_v61ymvgvxp","5eb32b8adc8fc511560fca82","mixAttFreqPrac","","","img/blue_2bandit_b2.png","70","img/blue_2bandit_b2.png","70","prac","","","5","","","","","","","","","","","","","","","","",""
"784.8999999985099","115750","SARL_v6","SARL_v61ymvgvxp","5eb32b8adc8fc511560fca82","freqPrac_resp","","","img/blue_2bandit_b.png","70","img/blue_2bandit_b.png","70","prac","","","5","","","","","","","","","","","","","","","","",""
"null","115910","SARL_v6","SARL_v61ymvgvxp","5eb32b8adc8fc511560fca82","fixation","","","img/fixation.png","null","","","prac","","","","","","","","","","","","","","","","","","","",""
"1009.5","116924","SARL_v6","SARL_v61ymvgvxp","5eb32b8adc8fc511560fca82","mixRLPractice","","","img/black_2bandit_b2.png","74","img/black_2bandit_b2.png","","prac","","","5","","","","","","","","","","","","","","","","",""
"null","117680","SARL_v6","SARL_v61ymvgvxp","5eb32b8adc8fc511560fca82","feedback","","","<div class=""verylowPoints""> -14 </div>","null","","na","prac","","","6","-14","10","-14","","","","","","","","","","","","","",""
"null","117839","SARL_v6","SARL_v61ymvgvxp","5eb32b8adc8fc511560fca82","fixation","","","img/fixation.png","null","","","prac","","","","","","","","","","","","","","","","","","","",""
"450","118293","SARL_v6","SARL_v61ymvgvxp","5eb32b8adc8fc511560fca82","mixAttFreqPrac","","","img/blue_2bandit_b2.png","70","img/blue_2bandit_b2.png","70","prac","","","7","","","","","","","","","","","","","","","","",""
"450","118654","SARL_v6","SARL_v61ymvgvxp","5eb32b8adc8fc511560fca82","freqPrac_resp","","","img/blue_2bandit_b.png","70","img/blue_2bandit_b.png","70","prac","","","7","","","","","","","","","","","","","","","","",""
"null","118810","SARL_v6","SARL_v61ymvgvxp","5eb32b8adc8fc511560fca82","fixation","","","img/fixation.png","null","","","prac","","","","","","","","","","","","","","","","","","","",""
"429.29999999701977","119243","SARL_v6","SARL_v61ymvgvxp","5eb32b8adc8fc511560fca82","mixAttInfreqPrac","","","img/orange_2bandit_b2.png","68","img/orange_2bandit_b2.png","68","prac","","","8","","","","","","","","","","","","","","","","",""
"429.29999999701977","119625","SARL_v6","SARL_v61ymvgvxp","5eb32b8adc8fc511560fca82","infreqPrac_resp","","","img/orange_2bandit_b.png","68","img/blue_2bandit_b.png","68","prac","","","8","","","","","","","","","","","","","","","","",""
"null","119785","SARL_v6","SARL_v61ymvgvxp","5eb32b8adc8fc511560fca82","fixation","","","img/fixation.png","null","","","prac","","","","","","","","","","","","","","","","","","","",""
"370.09999999403954","120159","SARL_v6","SARL_v61ymvgvxp","5eb32b8adc8fc511560fca82","mixAttFreqPrac","","","img/blue_2bandit_b2.png","70","img/blue_2bandit_b2.png","70","prac","","","9","","","","","","","","","","","","","","","","",""
"370.09999999403954","120596","SARL_v6","SARL_v61ymvgvxp","5eb32b8adc8fc511560fca82","freqPrac_resp","","","img/blue_2bandit_b.png","70","img/blue_2bandit_b.png","70","prac","","","9","","","","","","","","","","","","","","","","",""
"null","120756","SARL_v6","SARL_v61ymvgvxp","5eb32b8adc8fc511560fca82","fixation","","","img/fixation.png","null","","","prac","","","","","","","","","","","","","","","","","","","",""
"295.6000000014901","121056","SARL_v6","SARL_v61ymvgvxp","5eb32b8adc8fc511560fca82","mixAttFreqPrac","","","img/blue_2bandit_b2.png","68","img/blue_2bandit_b2.png","70","prac","","","10","","","","","","","","","","","","","","","","",""
"295.6000000014901","121567","SARL_v6","SARL_v61ymvgvxp","5eb32b8adc8fc511560fca82","freqPrac_resp","","","img/blue_2bandit_b.png","68","img/blue_2bandit_b.png","70","prac","","","10","","","","","","","","","","","","","","","","",""
"null","121727","SARL_v6","SARL_v61ymvgvxp","5eb32b8adc8fc511560fca82","fixation","","","img/fixation.png","null","","","prac","","","","","","","","","","","","","","","","","","","",""
"720","122452","SARL_v6","SARL_v61ymvgvxp","5eb32b8adc8fc511560fca82","mixAttInfreqPrac","","","img/orange_2bandit_b2.png","68","img/orange_2bandit_b2.png","68","prac","","","11","","","","","","","","","","","","","","","","",""
"720","122542","SARL_v6","SARL_v61ymvgvxp","5eb32b8adc8fc511560fca82","infreqPrac_resp","","","img/orange_2bandit_b.png","68","img/blue_2bandit_b.png","68","prac","","","11","","","","","","","","","","","","","","","","",""
"null","122698","SARL_v6","SARL_v61ymvgvxp","5eb32b8adc8fc511560fca82","fixation","","","img/fixation.png","null","","","prac","","","","","","","","","","","","","","","","","","","",""
"896.7000000029802","123599","SARL_v6","SARL_v61ymvgvxp","5eb32b8adc8fc511560fca82","mixRLPractice","","","img/black_2bandit_b2.png","75","img/black_2bandit_b2.png","","prac","","","11","","","","","","","","","","","","","","","","",""
"null","124369","SARL_v6","SARL_v61ymvgvxp","5eb32b8adc8fc511560fca82","feedback","","","<div class=""verylowPoints_sq""> -5 </div>","null","","na","prac","","","12","5","-5","5","","","","","","","","","","","","","",""
"null","124526","SARL_v6","SARL_v61ymvgvxp","5eb32b8adc8fc511560fca82","fixation","","","img/fixation.png","null","","","prac","","","","","","","","","","","","","","","","","","","",""
"6316","130845","SARL_v6","SARL_v61ymvgvxp","5eb32b8adc8fc511560fca82","","","","","","","","prac","","","","","","","","","","","","","","","","","","","",""
"471.8999999985099","131322","SARL_v6","SARL_v61ymvgvxp","5eb32b8adc8fc511560fca82","freq","","","img/blue_2bandit_b2.png","70","","70","test","1","","1","","","","circle","square","1","1","1","1","","","","","","","",""
"null","131657","SARL_v6","SARL_v61ymvgvxp","5eb32b8adc8fc511560fca82","freq_resp","","","img/blue_2bandit_b.png","70","img/blue_2bandit_b.png","70","test","","","","","","","","","","","1","","","","","","","","",""
"null","131813","SARL_v6","SARL_v61ymvgvxp","5eb32b8adc8fc511560fca82","fixation","","","img/fixation.png","null","","","test","","","","","","","","","","","","","","","","","","","",""
"378.8999999985099","132195","SARL_v6","SARL_v61ymvgvxp","5eb32b8adc8fc511560fca82","freq","","","img/blue_2bandit_b2.png","70","","70","test","1","","2","","","","circle","square","2","2","1","1","","","","","","","",""
"null","132628","SARL_v6","SARL_v61ymvgvxp","5eb32b8adc8fc511560fca82","freq_resp","","","img/blue_2bandit_b.png","70","img/blue_2bandit_b.png","70","test","","","","","","","","","","","1","","","","","","","","",""
"null","132788","SARL_v6","SARL_v61ymvgvxp","5eb32b8adc8fc511560fca82","fixation","","","img/fixation.png","null","","","test","","","","","","","","","","","","","","","","","","","",""
"533.3000000044703","133325","SARL_v6","SARL_v61ymvgvxp","5eb32b8adc8fc511560fca82","infreq","","","img/orange_2bandit_b2.png","68","","68","test","1","","3","","","","circle","square","3","3","1","1","","","","","","","",""
"null","133610","SARL_v6","SARL_v61ymvgvxp","5eb32b8adc8fc511560fca82","infreq_resp","","","img/orange_2bandit_b.png","68","img/orange_2bandit_b.png","68","test","","","","","","","","","","","1","","","","","","","","",""
"null","133766","SARL_v6","SARL_v61ymvgvxp","5eb32b8adc8fc511560fca82","fixation","","","img/fixation.png","null","","","test","","","","","","","","","","","","","","","","","","","",""
"328.5","134098","SARL_v6","SARL_v61ymvgvxp","5eb32b8adc8fc511560fca82","freq","","","img/blue_2bandit_b2.png","70","","70","test","1","","4","","","","circle","square","4","4","1","1","","","","","","","",""
"null","134581","SARL_v6","SARL_v61ymvgvxp","5eb32b8adc8fc511560fca82","freq_resp","","","img/blue_2bandit_b.png","70","img/blue_2bandit_b.png","70","test","","","","","","","","","","","1","","","","","","","","",""
"null","134741","SARL_v6","SARL_v61ymvgvxp","5eb32b8adc8fc511560fca82","fixation","","","img/fixation.png","null","","","test","","","","","","","","","","","","","","","","","","","",""
"353","135098","SARL_v6","SARL_v61ymvgvxp","5eb32b8adc8fc511560fca82","freq","","","img/blue_2bandit_b2.png","70","","70","test","1","","5","","","","circle","square","5","5","1","1","","","","","","","",""
"null","135552","SARL_v6","SARL_v61ymvgvxp","5eb32b8adc8fc511560fca82","freq_resp","","","img/blue_2bandit_b.png","70","img/blue_2bandit_b.png","70","test","","","","","","","","","","","1","","","","","","","","",""
"null","135707","SARL_v6","SARL_v61ymvgvxp","5eb32b8adc8fc511560fca82","fixation","","","img/fixation.png","null","","","test","","","","","","","","","","","","","","","","","","","",""
"288.8999999985099","136000","SARL_v6","SARL_v61ymvgvxp","5eb32b8adc8fc511560fca82","freq","","","img/blue_2bandit_b2.png","70","","70","test","1","","6","","","","circle","square","6","6","1","1","","","","","","","",""
"null","136522","SARL_v6","SARL_v61ymvgvxp","5eb32b8adc8fc511560fca82","freq_resp","","","img/blue_2bandit_b.png","70","img/blue_2bandit_b.png","70","test","","","","","","","","","","","1","","","","","","","","",""
"null","136678","SARL_v6","SARL_v61ymvgvxp","5eb32b8adc8fc511560fca82","fixation","","","img/fixation.png","null","","","test","","","","","","","","","","","","","","","","","","","",""
"320.5","137003","SARL_v6","SARL_v61ymvgvxp","5eb32b8adc8fc511560fca82","freq","","","img/blue_2bandit_b2.png","70","","70","test","1","","7","","","","circle","square","7","7","1","1","","","","","","","",""
"null","137493","SARL_v6","SARL_v61ymvgvxp","5eb32b8adc8fc511560fca82","freq_resp","","","img/blue_2bandit_b.png","70","img/blue_2bandit_b.png","70","test","","","","","","","","","","","1","","","","","","","","",""
"null","137649","SARL_v6","SARL_v61ymvgvxp","5eb32b8adc8fc511560fca82","fixation","","","img/fixation.png","null","","","test","","","","","","","","","","","","","","","","","","","",""
"306.79999999701977","137960","SARL_v6","SARL_v61ymvgvxp","5eb32b8adc8fc511560fca82","freq","","","img/blue_2bandit_b2.png","70","","70","test","1","","8","","","","circle","square","8","8","1","1","","","","","","","",""
"null","138463","SARL_v6","SARL_v61ymvgvxp","5eb32b8adc8fc511560fca82","freq_resp","","","img/blue_2bandit_b.png","70","img/blue_2bandit_b.png","70","test","","","","","","","","","","","1","","","","","","","","",""
"null","138624","SARL_v6","SARL_v61ymvgvxp","5eb32b8adc8fc511560fca82","fixation","","","img/fixation.png","null","","","test","","","","","","","","","","","","","","","","","","","",""
"288","138916","SARL_v6","SARL_v61ymvgvxp","5eb32b8adc8fc511560fca82","freq","","","img/blue_2bandit_b2.png","70","","70","test","1","","9","","","","circle","square","9","9","1","1","","","","","","","",""
"null","139451","SARL_v6","SARL_v61ymvgvxp","5eb32b8adc8fc511560fca82","freq_resp","","","img/blue_2bandit_b.png","70","img/blue_2bandit_b.png","70","test","","","","","","","","","","","1","","","","","","","","",""
"null","139611","SARL_v6","SARL_v61ymvgvxp","5eb32b8adc8fc511560fca82","fixation","","","img/fixation.png","null","","","test","","","","","","","","","","","","","","","","","","","",""
"414.6000000014901","140030","SARL_v6","SARL_v61ymvgvxp","5eb32b8adc8fc511560fca82","infreq","","","img/orange_2bandit_b2.png","68","","68","test","1","","10","","","","circle","square","10","10","1","1","","","","","","","",""
"null","140426","SARL_v6","SARL_v61ymvgvxp","5eb32b8adc8fc511560fca82","infreq_resp","","","img/orange_2bandit_b.png","68","img/orange_2bandit_b.png","68","test","","","","","","","","","","","1","","","","","","","","",""
"null","140586","SARL_v6","SARL_v61ymvgvxp","5eb32b8adc8fc511560fca82","fixation","","","img/fixation.png","null","","","test","","","","","","","","","","","","","","","","","","","",""
"311.29999999701977","140902","SARL_v6","SARL_v61ymvgvxp","5eb32b8adc8fc511560fca82","freq","","","img/blue_2bandit_b2.png","70","","70","test","1","","11","","","","circle","square","11","11","1","1","","","","","","","",""
"null","141406","SARL_v6","SARL_v61ymvgvxp","5eb32b8adc8fc511560fca82","freq_resp","","","img/blue_2bandit_b.png","70","img/blue_2bandit_b.png","70","test","","","","","","","","","","","1","","","","","","","","",""
"null","141566","SARL_v6","SARL_v61ymvgvxp","5eb32b8adc8fc511560fca82","fixation","","","img/fixation.png","null","","","test","","","","","","","","","","","","","","","","","","","",""
"298.5","141869","SARL_v6","SARL_v61ymvgvxp","5eb32b8adc8fc511560fca82","freq","","","img/blue_2bandit_b2.png","70","","70","test","1","","12","","","","circle","square","12","12","1","1","","","","","","","",""
"null","142381","SARL_v6","SARL_v61ymvgvxp","5eb32b8adc8fc511560fca82","freq_resp","","","img/blue_2bandit_b.png","70","img/blue_2bandit_b.png","70","test","","","","","","","","","","","1","","","","","","","","",""
"null","142540","SARL_v6","SARL_v61ymvgvxp","5eb32b8adc8fc511560fca82","fixation","","","img/fixation.png","null","","","test","","","","","","","","","","","","","","","","","","","",""
"277.29999999701977","142821","SARL_v6","SARL_v61ymvgvxp","5eb32b8adc8fc511560fca82","freq","","","img/blue_2bandit_b2.png","70","","70","test","1","","13","","","","circle","square","13","13","1","1","","","","","","","",""
"null","143356","SARL_v6","SARL_v61ymvgvxp","5eb32b8adc8fc511560fca82","freq_resp","","","img/blue_2bandit_b.png","70","img/blue_2bandit_b.png","70","test","","","","","","","","","","","1","","","","","","","","",""
"null","143515","SARL_v6","SARL_v61ymvgvxp","5eb32b8adc8fc511560fca82","fixation","","","img/fixation.png","null","","","test","","","","","","","","","","","","","","","","","","","",""
"290.1000000014901","143810","SARL_v6","SARL_v61ymvgvxp","5eb32b8adc8fc511560fca82","infreq","","","img/orange_2bandit_b2.png","70","","68","test","0","","14","","","","circle","square","14","14","1","0.9285714285714286","","","","","","","",""
"null","144339","SARL_v6","SARL_v61ymvgvxp","5eb32b8adc8fc511560fca82","infreq_resp","","","img/orange_2bandit_b.png","70","img/orange_2bandit_b.png","68","test","","","","","","","","","","","1","","","","","","","","",""
"null","144500","SARL_v6","SARL_v61ymvgvxp","5eb32b8adc8fc511560fca82","fixation","","","img/fixation.png","null","","","test","","","","","","","","","","","","","","","","","","","",""
"387.29999999701977","144892","SARL_v6","SARL_v61ymvgvxp","5eb32b8adc8fc511560fca82","freq","","","img/blue_2bandit_b2.png","70","","70","test","1","","15","","","","circle","square","15","15","1","0.9333333333333333","","","","","","","",""
"null","145323","SARL_v6","SARL_v61ymvgvxp","5eb32b8adc8fc511560fca82","freq_resp","","","img/blue_2bandit_b.png","70","img/blue_2bandit_b.png","70","test","","","","","","","","","","","1","","","","","","","","",""
"null","145479","SARL_v6","SARL_v61ymvgvxp","5eb32b8adc8fc511560fca82","fixation","","","img/fixation.png","null","","","test","","","","","","","","","","","","","","","","","","","",""
"347.20000000298023","145830","SARL_v6","SARL_v61ymvgvxp","5eb32b8adc8fc511560fca82","freq","","","img/blue_2bandit_b2.png","70","","70","test","1","","16","","","","circle","square","16","16","1","0.9375","","","","","","","",""
"null","146294","SARL_v6","SARL_v61ymvgvxp","5eb32b8adc8fc511560fca82","freq_resp","","","img/blue_2bandit_b.png","70","img/blue_2bandit_b.png","70","test","","","","","","","","","","","1","","","","","","","","",""
"null","146454","SARL_v6","SARL_v61ymvgvxp","5eb32b8adc8fc511560fca82","fixation","","","img/fixation.png","null","","","test","","","","","","","","","","","","","","","","","","","",""
"299.70000000298023","146758","SARL_v6","SARL_v61ymvgvxp","5eb32b8adc8fc511560fca82","freq","","","img/blue_2bandit_b2.png","70","","70","test","1","","17","","","","circle","square","17","17","1","0.9411764705882353","","","","","","","",""
"null","147265","SARL_v6","SARL_v61ymvgvxp","5eb32b8adc8fc511560fca82","freq_resp","","","img/blue_2bandit_b.png","70","img/blue_2bandit_b.png","70","test","","","","","","","","","","","1","","","","","","","","",""
"null","147421","SARL_v6","SARL_v61ymvgvxp","5eb32b8adc8fc511560fca82","fixation","","","img/fixation.png","null","","","test","","","","","","","","","","","","","","","","","","","",""
"322.69999999552965","147747","SARL_v6","SARL_v61ymvgvxp","5eb32b8adc8fc511560fca82","freq","","","img/blue_2bandit_b2.png","70","","70","test","1","","18","","","","circle","square","18","18","1","0.9444444444444444","","","","","","","",""
"null","148236","SARL_v6","SARL_v61ymvgvxp","5eb32b8adc8fc511560fca82","freq_resp","","","img/blue_2bandit_b.png","70","img/blue_2bandit_b.png","70","test","","","","","","","","","","","1","","","","","","","","",""
"null","148391","SARL_v6","SARL_v61ymvgvxp","5eb32b8adc8fc511560fca82","fixation","","","img/fixation.png","null","","","test","","","","","","","","","","","","","","","","","","","",""
"302.19999999552965","148697","SARL_v6","SARL_v61ymvgvxp","5eb32b8adc8fc511560fca82","freq","","","img/blue_2bandit_b2.png","70","","70","test","1","","19","","","","circle","square","19","19","1","0.9473684210526315","","","","","","","",""
"null","149207","SARL_v6","SARL_v61ymvgvxp","5eb32b8adc8fc511560fca82","freq_resp","","","img/blue_2bandit_b.png","70","img/blue_2bandit_b.png","70","test","","","","","","","","","","","1","","","","","","","","",""
"null","149362","SARL_v6","SARL_v61ymvgvxp","5eb32b8adc8fc511560fca82","fixation","","","img/fixation.png","null","","","test","","","","","","","","","","","","","","","","","","","",""
"357.29999999701977","149723","SARL_v6","SARL_v61ymvgvxp","5eb32b8adc8fc511560fca82","freq","","","img/blue_2bandit_b2.png","70","","70","test","1","","20","","","","circle","square","20","20","1","0.95","","","","","","","",""
"null","150177","SARL_v6","SARL_v61ymvgvxp","5eb32b8adc8fc511560fca82","freq_resp","","","img/blue_2bandit_b.png","70","img/blue_2bandit_b.png","70","test","","","","","","","","","","","1","","","","","","","","",""
"null","150336","SARL_v6","SARL_v61ymvgvxp","5eb32b8adc8fc511560fca82","fixation","","","img/fixation.png","null","","","test","","","","","","","","","","","","","","","","","","","",""
"271.1000000014901","150611","SARL_v6","SARL_v61ymvgvxp","5eb32b8adc8fc511560fca82","freq","","","img/blue_2bandit_b2.png","70","","70","test","1","","21","","","","circle","square","21","21","1","0.9523809523809523","","","","","","","",""
"null","151160","SARL_v6","SARL_v61ymvgvxp","5eb32b8adc8fc511560fca82","freq_resp","","","img/blue_2bandit_b.png","70","img/blue_2bandit_b.png","70","test","","","","","","","","","","","1","","","","","","","","",""
"null","151315","SARL_v6","SARL_v61ymvgvxp","5eb32b8adc8fc511560fca82","fixation","","","img/fixation.png","null","","","test","","","","","","","","","","","","","","","","","","","",""
"291.90000000596046","151611","SARL_v6","SARL_v61ymvgvxp","5eb32b8adc8fc511560fca82","freq","","","img/blue_2bandit_b2.png","70","","70","test","1","","22","","","","circle","square","22","22","1","0.9545454545454546","","","","","","","",""
"null","152135","SARL_v6","SARL_v61ymvgvxp","5eb32b8adc8fc511560fca82","freq_resp","","","img/blue_2bandit_b.png","70","img/blue_2bandit_b.png","70","test","","","","","","","","","","","1","","","","","","","","",""
"null","152291","SARL_v6","SARL_v61ymvgvxp","5eb32b8adc8fc511560fca82","fixation","","","img/fixation.png","null","","","test","","","","","","","","","","","","","","","","","","","",""
"270.30000000447035","152565","SARL_v6","SARL_v61ymvgvxp","5eb32b8adc8fc511560fca82","freq","","","img/blue_2bandit_b2.png","70","","70","test","1","","23","","","","circle","square","23","23","1","0.9565217391304348","","","","","","","",""
"null","153106","SARL_v6","SARL_v61ymvgvxp","5eb32b8adc8fc511560fca82","freq_resp","","","img/blue_2bandit_b.png","70","img/blue_2bandit_b.png","70","test","","","","","","","","","","","1","","","","","","","","",""
"null","153261","SARL_v6","SARL_v61ymvgvxp","5eb32b8adc8fc511560fca82","fixation","","","img/fixation.png","null","","","test","","","","","","","","","","","","","","","","","","","",""
"474.90000000596046","153741","SARL_v6","SARL_v61ymvgvxp","5eb32b8adc8fc511560fca82","rl","","","img/black_2bandit_b2.png","75","","0","test","","","24","","","-3","circle","square","","0","1","","75","-3","-3","-3","-3","square","1","0"
"null","154501","SARL_v6","SARL_v61ymvgvxp","5eb32b8adc8fc511560fca82","feedback","","","<div class=""verylowPoints_sq""> -3 </div>","null","","na","test","","","NaN","","","","","","","","1","","75","","","","","","1",""
"325.8999999985099","154831","SARL_v6","SARL_v61ymvgvxp","5eb32b8adc8fc511560fca82","freq","","","img/blue_2bandit_b2.png","70","","70","test","1","","25","","","","circle","square","24","1","2","0.9583333333333334","","","","","","","",""
"null","155319","SARL_v6","SARL_v61ymvgvxp","5eb32b8adc8fc511560fca82","freq_resp","","","img/blue_2bandit_b.png","70","img/blue_2bandit_b.png","70","test","","","","","","","","","","","2","","","","","","","","",""
"null","155487","SARL_v6","SARL_v61ymvgvxp","5eb32b8adc8fc511560fca82","fixation","","","img/fixation.png","null","","","test","","","","","","","","","","","","","","","","","","","",""
"326.09999999403954","155817","SARL_v6","SARL_v61ymvgvxp","5eb32b8adc8fc511560fca82","freq","","","img/blue_2bandit_b2.png","70","","70","test","1","","26","","","","circle","square","25","2","2","0.96","","","","","","","",""
"null","156298","SARL_v6","SARL_v61ymvgvxp","5eb32b8adc8fc511560fca82","freq_resp","","","img/blue_2bandit_b.png","70","img/blue_2bandit_b.png","70","test","","","","","","","","","","","2","","","","","","","","",""
"null","156453","SARL_v6","SARL_v61ymvgvxp","5eb32b8adc8fc511560fca82","fixation","","","img/fixation.png","null","","","test","","","","","","","","","","","","","","","","","","","",""
"273.6000000014901","156732","SARL_v6","SARL_v61ymvgvxp","5eb32b8adc8fc511560fca82","infreq","","","img/orange_2bandit_b2.png","70","","68","test","0","","27","","","","circle","square","26","3","2","0.9230769230769231","","","","","","","",""
"null","157269","SARL_v6","SARL_v61ymvgvxp","5eb32b8adc8fc511560fca82","infreq_resp","","","img/orange_2bandit_b.png","70","img/orange_2bandit_b.png","68","test","","","","","","","","","","","2","","","","","","","","",""
"null","157424","SARL_v6","SARL_v61ymvgvxp","5eb32b8adc8fc511560fca82","fixation","","","img/fixation.png","null","","","test","","","","","","","","","","","","","","","","","","","",""
"302","157730","SARL_v6","SARL_v61ymvgvxp","5eb32b8adc8fc511560fca82","freq","","","img/blue_2bandit_b2.png","70","","70","test","1","","28","","","","circle","square","27","4","2","0.9259259259259259","","","","","","","",""
"null","158235","SARL_v6","SARL_v61ymvgvxp","5eb32b8adc8fc511560fca82","freq_resp","","","img/blue_2bandit_b.png","70","img/blue_2bandit_b.png","70","test","","","","","","","","","","","2","","","","","","","","",""
"null","158391","SARL_v6","SARL_v61ymvgvxp","5eb32b8adc8fc511560fca82","fixation","","","img/fixation.png","null","","","test","","","","","","","","","","","","","","","","","","","",""
"410.19999999552965","158805","SARL_v6","SARL_v61ymvgvxp","5eb32b8adc8fc511560fca82","freq","","","img/blue_2bandit_b2.png","70","","70","test","1","","29","","","","circle","square","28","5","2","0.9285714285714286","","","","","","","",""
"null","159206","SARL_v6","SARL_v61ymvgvxp","5eb32b8adc8fc511560fca82","freq_resp","","","img/blue_2bandit_b.png","70","img/blue_2bandit_b.png","70","test","","","","","","","","","","","2","","","","","","","","",""
"null","159369","SARL_v6","SARL_v61ymvgvxp","5eb32b8adc8fc511560fca82","fixation","","","img/fixation.png","null","","","test","","","","","","","","","","","","","","","","","","","",""
"351.3999999985099","159725","SARL_v6","SARL_v61ymvgvxp","5eb32b8adc8fc511560fca82","freq","","","img/blue_2bandit_b2.png","70","","70","test","1","","30","","","","circle","square","29","6","2","0.9310344827586207","","","","","","","",""
"null","160189","SARL_v6","SARL_v61ymvgvxp","5eb32b8adc8fc511560fca82","freq_resp","","","img/blue_2bandit_b.png","70","img/blue_2bandit_b.png","70","test","","","","","","","","","","","2","","","","","","","","",""
"null","160352","SARL_v6","SARL_v61ymvgvxp","5eb32b8adc8fc511560fca82","fixation","","","img/fixation.png","null","","","test","","","","","","","","","","","","","","","","","","","",""
"347.1000000014901","160703","SARL_v6","SARL_v61ymvgvxp","5eb32b8adc8fc511560fca82","freq","","","img/blue_2bandit_b2.png","70","","70","test","1","","31","","","","circle","square","30","7","2","0.9333333333333333","","","","","","","",""
"null","161169","SARL_v6","SARL_v61ymvgvxp","5eb32b8adc8fc511560fca82","freq_resp","","","img/blue_2bandit_b.png","70","img/blue_2bandit_b.png","70","test","","","","","","","","","","","2","","","","","","","","",""
"null","161324","SARL_v6","SARL_v61ymvgvxp","5eb32b8adc8fc511560fca82","fixation","","","img/fixation.png","null","","","test","","","","","","","","","","","","","","","","","","","",""
"345","161674","SARL_v6","SARL_v61ymvgvxp","5eb32b8adc8fc511560fca82","freq","","","img/blue_2bandit_b2.png","70","","70","test","1","","32","","","","circle","square","31","8","2","0.9354838709677419","","","","","","","",""
"null","162135","SARL_v6","SARL_v61ymvgvxp","5eb32b8adc8fc511560fca82","freq_resp","","","img/blue_2bandit_b.png","70","img/blue_2bandit_b.png","70","test","","","","","","","","","","","2","","","","","","","","",""
"null","162291","SARL_v6","SARL_v61ymvgvxp","5eb32b8adc8fc511560fca82","fixation","","","img/fixation.png","null","","","test","","","","","","","","","","","","","","","","","","","",""
"485.3999999985099","162781","SARL_v6","SARL_v61ymvgvxp","5eb32b8adc8fc511560fca82","freq","","","img/blue_2bandit_b2.png","70","","70","test","1","","33","","","","circle","square","32","9","2","0.9375","","","","","","","",""
"null","163106","SARL_v6","SARL_v61ymvgvxp","5eb32b8adc8fc511560fca82","freq_resp","","","img/blue_2bandit_b.png","70","img/blue_2bandit_b.png","70","test","","","","","","","","","","","2","","","","","","","","",""
"null","163262","SARL_v6","SARL_v61ymvgvxp","5eb32b8adc8fc511560fca82","fixation","","","img/fixation.png","null","","","test","","","","","","","","","","","","","","","","","","","",""
"348.30000000447035","163615","SARL_v6","SARL_v61ymvgvxp","5eb32b8adc8fc511560fca82","freq","","","img/blue_2bandit_b2.png","70","","70","test","1","","34","","","","circle","square","33","10","2","0.9393939393939394","","","","","","","",""
"null","164073","SARL_v6","SARL_v61ymvgvxp","5eb32b8adc8fc511560fca82","freq_resp","","","img/blue_2bandit_b.png","70","img/blue_2bandit_b.png","70","test","","","","","","","","","","","2","","","","","","","","",""
"null","164233","SARL_v6","SARL_v61ymvgvxp","5eb32b8adc8fc511560fca82","fixation","","","img/fixation.png","null","","","test","","","","","","","","","","","","","","","","","","","",""
"338.30000000447035","164576","SARL_v6","SARL_v61ymvgvxp","5eb32b8adc8fc511560fca82","freq","","","img/blue_2bandit_b2.png","70","","70","test","1","","35","","","","circle","square","34","11","2","0.9411764705882353","","","","","","","",""
"null","165045","SARL_v6","SARL_v61ymvgvxp","5eb32b8adc8fc511560fca82","freq_resp","","","img/blue_2bandit_b.png","70","img/blue_2bandit_b.png","70","test","","","","","","","","","","","2","","","","","","","","",""
"null","165205","SARL_v6","SARL_v61ymvgvxp","5eb32b8adc8fc511560fca82","fixation","","","img/fixation.png","null","","","test","","","","","","","","","","","","","","","","","","","",""
"339.30000000447035","165549","SARL_v6","SARL_v61ymvgvxp","5eb32b8adc8fc511560fca82","freq","","","img/blue_2bandit_b2.png","70","","70","test","1","","36","","","","circle","square","35","12","2","0.9428571428571428","","","","","","","",""
"null","166016","SARL_v6","SARL_v61ymvgvxp","5eb32b8adc8fc511560fca82","freq_resp","","","img/blue_2bandit_b.png","70","img/blue_2bandit_b.png","70","test","","","","","","","","","","","2","","","","","","","","",""
"null","166176","SARL_v6","SARL_v61ymvgvxp","5eb32b8adc8fc511560fca82","fixation","","","img/fixation.png","null","","","test","","","","","","","","","","","","","","","","","","","",""
"350.5","166531","SARL_v6","SARL_v61ymvgvxp","5eb32b8adc8fc511560fca82","freq","","","img/blue_2bandit_b2.png","70","","70","test","1","","37","","","","circle","square","36","13","2","0.9444444444444444","","","","","","","",""
"null","166991","SARL_v6","SARL_v61ymvgvxp","5eb32b8adc8fc511560fca82","freq_resp","","","img/blue_2bandit_b.png","70","img/blue_2bandit_b.png","70","test","","","","","","","","","","","2","","","","","","","","",""
"null","167151","SARL_v6","SARL_v61ymvgvxp","5eb32b8adc8fc511560fca82","fixation","","","img/fixation.png","null","","","test","","","","","","","","","","","","","","","","","","","",""
"316.8999999985099","167472","SARL_v6","SARL_v61ymvgvxp","5eb32b8adc8fc511560fca82","freq","","","img/blue_2bandit_b2.png","70","","70","test","1","","38","","","","circle","square","37","14","2","0.9459459459459459","","","","","","","",""
"null","167975","SARL_v6","SARL_v61ymvgvxp","5eb32b8adc8fc511560fca82","freq_resp","","","img/blue_2bandit_b.png","70","img/blue_2bandit_b.png","70","test","","","","","","","","","","","2","","","","","","","","",""
"null","168134","SARL_v6","SARL_v61ymvgvxp","5eb32b8adc8fc511560fca82","fixation","","","img/fixation.png","null","","","test","","","","","","","","","","","","","","","","","","","",""
"355","168494","SARL_v6","SARL_v61ymvgvxp","5eb32b8adc8fc511560fca82","freq","","","img/blue_2bandit_b2.png","70","","70","test","1","","39","","","","circle","square","38","15","2","0.9473684210526315","","","","","","","",""
"null","168947","SARL_v6","SARL_v61ymvgvxp","5eb32b8adc8fc511560fca82","freq_resp","","","img/blue_2bandit_b.png","70","img/blue_2bandit_b.png","70","test","","","","","","","","","","","2","","","","","","","","",""
"null","169104","SARL_v6","SARL_v61ymvgvxp","5eb32b8adc8fc511560fca82","fixation","","","img/fixation.png","null","","","test","","","","","","","","","","","","","","","","","","","",""
"313.69999999552965","169422","SARL_v6","SARL_v61ymvgvxp","5eb32b8adc8fc511560fca82","freq","","","img/blue_2bandit_b2.png","70","","70","test","1","","40","","","","circle","square","39","16","2","0.9487179487179487","","","","","","","",""
"null","169923","SARL_v6","SARL_v61ymvgvxp","5eb32b8adc8fc511560fca82","freq_resp","","","img/blue_2bandit_b.png","70","img/blue_2bandit_b.png","70","test","","","","","","","","","","","2","","","","","","","","",""
"null","170079","SARL_v6","SARL_v61ymvgvxp","5eb32b8adc8fc511560fca82","fixation","","","img/fixation.png","null","","","test","","","","","","","","","","","","","","","","","","","",""
"347.70000000298023","170431","SARL_v6","SARL_v61ymvgvxp","5eb32b8adc8fc511560fca82","freq","","","img/blue_2bandit_b2.png","70","","70","test","1","","41","","","","circle","square","40","17","2","0.95","","","","","","","",""
"null","170894","SARL_v6","SARL_v61ymvgvxp","5eb32b8adc8fc511560fca82","freq_resp","","","img/blue_2bandit_b.png","70","img/blue_2bandit_b.png","70","test","","","","","","","","","","","2","","","","","","","","",""
"null","171046","SARL_v6","SARL_v61ymvgvxp","5eb32b8adc8fc511560fca82","fixation","","","img/fixation.png","null","","","test","","","","","","","","","","","","","","","","","","","",""
"314.1000000014901","171365","SARL_v6","SARL_v61ymvgvxp","5eb32b8adc8fc511560fca82","freq","","","img/blue_2bandit_b2.png","70","","70","test","1","","42","","","","circle","square","41","18","2","0.9512195121951219","","","","","","","",""
"null","171857","SARL_v6","SARL_v61ymvgvxp","5eb32b8adc8fc511560fca82","freq_resp","","","img/blue_2bandit_b.png","70","img/blue_2bandit_b.png","70","test","","","","","","","","","","","2","","","","","","","","",""
"null","172013","SARL_v6","SARL_v61ymvgvxp","5eb32b8adc8fc511560fca82","fixation","","","img/fixation.png","null","","","test","","","","","","","","","","","","","","","","","","","",""
"622.8999999985099","172640","SARL_v6","SARL_v61ymvgvxp","5eb32b8adc8fc511560fca82","infreq","","","img/orange_2bandit_b2.png","68","","68","test","1","","43","","","","circle","square","42","19","2","0.9523809523809523","","","","","","","",""
"null","172824","SARL_v6","SARL_v61ymvgvxp","5eb32b8adc8fc511560fca82","infreq_resp","","","img/orange_2bandit_b.png","68","img/orange_2bandit_b.png","68","test","","","","","","","","","","","2","","","","","","","","",""
"null","172983","SARL_v6","SARL_v61ymvgvxp","5eb32b8adc8fc511560fca82","fixation","","","img/fixation.png","null","","","test","","","","","","","","","","","","","","","","","","","",""
"338.5","173326","SARL_v6","SARL_v61ymvgvxp","5eb32b8adc8fc511560fca82","freq","","","img/blue_2bandit_b2.png","70","","70","test","1","","44","","","","circle","square","43","20","2","0.9534883720930233","","","","","","","",""
"null","173795","SARL_v6","SARL_v61ymvgvxp","5eb32b8adc8fc511560fca82","freq_resp","","","img/blue_2bandit_b.png","70","img/blue_2bandit_b.png","70","test","","","","","","","","","","","2","","","","","","","","",""
"null","173950","SARL_v6","SARL_v61ymvgvxp","5eb32b8adc8fc511560fca82","fixation","","","img/fixation.png","null","","","test","","","","","","","","","","","","","","","","","","","",""
"586.2999999970198","174541","SARL_v6","SARL_v61ymvgvxp","5eb32b8adc8fc511560fca82","rl","","","img/black_2bandit_b2.png","74","","0","test","","","45","","","-5","circle","square","","0","2","","74","-5","-8","-5","-8","circle","2","0"
"null","175308","SARL_v6","SARL_v61ymvgvxp","5eb32b8adc8fc511560fca82","feedback","","","<div class=""verylowPoints""> -5 </div>","null","","na","test","","","NaN","","","","","","","","2","","74","","","","","","2",""
"337.30000000447035","175650","SARL_v6","SARL_v61ymvgvxp","5eb32b8adc8fc511560fca82","freq","","","img/blue_2bandit_b2.png","70","","70","test","1","","46","","","","circle","square","44","1","3","0.9545454545454546","","","","","","","",""
"null","176123","SARL_v6","SARL_v61ymvgvxp","5eb32b8adc8fc511560fca82","freq_resp","","","img/blue_2bandit_b.png","70","img/blue_2bandit_b.png","70","test","","","","","","","","","","","3","","","","","","","","",""
"null","176283","SARL_v6","SARL_v61ymvgvxp","5eb32b8adc8fc511560fca82","fixation","","","img/fixation.png","null","","","test","","","","","","","","","","","","","","","","","","","",""
"305.70000000298023","176593","SARL_v6","SARL_v61ymvgvxp","5eb32b8adc8fc511560fca82","freq","","","img/blue_2bandit_b2.png","70","","70","test","1","","47","","","","circle","square","45","2","3","0.9555555555555556","","","","","","","",""
"null","177099","SARL_v6","SARL_v61ymvgvxp","5eb32b8adc8fc511560fca82","freq_resp","","","img/blue_2bandit_b.png","70","img/blue_2bandit_b.png","70","test","","","","","","","","","","","3","","","","","","","","",""
"null","177258","SARL_v6","SARL_v61ymvgvxp","5eb32b8adc8fc511560fca82","fixation","","","img/fixation.png","null","","","test","","","","","","","","","","","","","","","","","","","",""
"274.5","177537","SARL_v6","SARL_v61ymvgvxp","5eb32b8adc8fc511560fca82","freq","","","img/blue_2bandit_b2.png","70","","70","test","1","","48","","","","circle","square","46","3","3","0.9565217391304348","","","","","","","",""
"null","178070","SARL_v6","SARL_v61ymvgvxp","5eb32b8adc8fc511560fca82","freq_resp","","","img/blue_2bandit_b.png","70","img/blue_2bandit_b.png","70","test","","","","","","","","","","","3","","","","","","","","",""
"null","178229","SARL_v6","SARL_v61ymvgvxp","5eb32b8adc8fc511560fca82","fixation","","","img/fixation.png","null","","","test","","","","","","","","","","","","","","","","","","","",""
"162.5","178396","SARL_v6","SARL_v61ymvgvxp","5eb32b8adc8fc511560fca82","infreq","","","img/orange_2bandit_b2.png","70","","68","test","0","","49","","","","circle","square","47","4","3","0.9361702127659575","","","","","","","",""
"null","179045","SARL_v6","SARL_v61ymvgvxp","5eb32b8adc8fc511560fca82","infreq_resp","","","img/orange_2bandit_b.png","70","img/orange_2bandit_b.png","68","test","","","","","","","","","","","3","","","","","","","","",""
"null","179204","SARL_v6","SARL_v61ymvgvxp","5eb32b8adc8fc511560fca82","fixation","","","img/fixation.png","null","","","test","","","","","","","","","","","","","","","","","","","",""
"264.69999999552965","179473","SARL_v6","SARL_v61ymvgvxp","5eb32b8adc8fc511560fca82","freq","","","img/blue_2bandit_b2.png","70","","70","test","1","","50","","","","circle","square","48","5","3","0.9375","","","","","","","",""
"null","180015","SARL_v6","SARL_v61ymvgvxp","5eb32b8adc8fc511560fca82","freq_resp","","","img/blue_2bandit_b.png","70","img/blue_2bandit_b.png","70","test","","","","","","","","","","","3","","","","","","","","",""
"null","180183","SARL_v6","SARL_v61ymvgvxp","5eb32b8adc8fc511560fca82","fixation","","","img/fixation.png","null","","","test","","","","","","","","","","","","","","","","","","","",""
"328","180515","SARL_v6","SARL_v61ymvgvxp","5eb32b8adc8fc511560fca82","freq","","","img/blue_2bandit_b2.png","70","","70","test","1","","51","","","","circle","square","49","6","3","0.9387755102040817","","","","","","","",""
"null","181006","SARL_v6","SARL_v61ymvgvxp","5eb32b8adc8fc511560fca82","freq_resp","","","img/blue_2bandit_b.png","70","img/blue_2bandit_b.png","70","test","","","","","","","","","","","3","","","","","","","","",""
"null","181162","SARL_v6","SARL_v61ymvgvxp","5eb32b8adc8fc511560fca82","fixation","","","img/fixation.png","null","","","test","","","","","","","","","","","","","","","","","","","",""
"292.90000000596046","181458","SARL_v6","SARL_v61ymvgvxp","5eb32b8adc8fc511560fca82","freq","","","img/blue_2bandit_b2.png","70","","70","test","1","","52","","","","circle","square","50","7","3","0.94","","","","","","","",""
"null","181973","SARL_v6","SARL_v61ymvgvxp","5eb32b8adc8fc511560fca82","freq_resp","","","img/blue_2bandit_b.png","70","img/blue_2bandit_b.png","70","test","","","","","","","","","","","3","","","","","","","","",""
"null","182129","SARL_v6","SARL_v61ymvgvxp","5eb32b8adc8fc511560fca82","fixation","","","img/fixation.png","null","","","test","","","","","","","","","","","","","","","","","","","",""
"277.1000000014901","182410","SARL_v6","SARL_v61ymvgvxp","5eb32b8adc8fc511560fca82","freq","","","img/blue_2bandit_b2.png","70","","70","test","1","","53","","","","circle","square","51","8","3","0.9411764705882353","","","","","","","",""
"null","182947","SARL_v6","SARL_v61ymvgvxp","5eb32b8adc8fc511560fca82","freq_resp","","","img/blue_2bandit_b.png","70","img/blue_2bandit_b.png","70","test","","","","","","","","","","","3","","","","","","","","",""
"null","183107","SARL_v6","SARL_v61ymvgvxp","5eb32b8adc8fc511560fca82","fixation","","","img/fixation.png","null","","","test","","","","","","","","","","","","","","","","","","","",""
"389.40000000596046","183501","SARL_v6","SARL_v61ymvgvxp","5eb32b8adc8fc511560fca82","freq","","","img/blue_2bandit_b2.png","70","","70","test","1","","54","","","","circle","square","52","9","3","0.9423076923076923","","","","","","","",""
"null","183918","SARL_v6","SARL_v61ymvgvxp","5eb32b8adc8fc511560fca82","freq_resp","","","img/blue_2bandit_b.png","70","img/blue_2bandit_b.png","70","test","","","","","","","","","","","3","","","","","","","","",""
"null","184086","SARL_v6","SARL_v61ymvgvxp","5eb32b8adc8fc511560fca82","fixation","","","img/fixation.png","null","","","test","","","","","","","","","","","","","","","","","","","",""
"323.3999999985099","184414","SARL_v6","SARL_v61ymvgvxp","5eb32b8adc8fc511560fca82","freq","","","img/blue_2bandit_b2.png","70","","70","test","1","","55","","","","circle","square","53","10","3","0.9433962264150944","","","","","","","",""
"null","184901","SARL_v6","SARL_v61ymvgvxp","5eb32b8adc8fc511560fca82","freq_resp","","","img/blue_2bandit_b.png","70","img/blue_2bandit_b.png","70","test","","","","","","","","","","","3","","","","","","","","",""
"null","185057","SARL_v6","SARL_v61ymvgvxp","5eb32b8adc8fc511560fca82","fixation","","","img/fixation.png","null","","","test","","","","","","","","","","","","","","","","","","","",""
"313.19999999552965","185374","SARL_v6","SARL_v61ymvgvxp","5eb32b8adc8fc511560fca82","freq","","","img/blue_2bandit_b2.png","70","","70","test","1","","56","","","","circle","square","54","11","3","0.9444444444444444","","","","","","","",""
"null","185874","SARL_v6","SARL_v61ymvgvxp","5eb32b8adc8fc511560fca82","freq_resp","","","img/blue_2bandit_b.png","70","img/blue_2bandit_b.png","70","test","","","","","","","","","","","3","","","","","","","","",""
"null","186030","SARL_v6","SARL_v61ymvgvxp","5eb32b8adc8fc511560fca82","fixation","","","img/fixation.png","null","","","test","","","","","","","","","","","","","","","","","","","",""
"327.6000000014901","186362","SARL_v6","SARL_v61ymvgvxp","5eb32b8adc8fc511560fca82","freq","","","img/blue_2bandit_b2.png","70","","70","test","1","","57","","","","circle","square","55","12","3","0.9454545454545454","","","","","","","",""
"null","186845","SARL_v6","SARL_v61ymvgvxp","5eb32b8adc8fc511560fca82","freq_resp","","","img/blue_2bandit_b.png","70","img/blue_2bandit_b.png","70","test","","","","","","","","","","","3","","","","","","","","",""
"null","187001","SARL_v6","SARL_v61ymvgvxp","5eb32b8adc8fc511560fca82","fixation","","","img/fixation.png","null","","","test","","","","","","","","","","","","","","","","","","","",""
"351","187356","SARL_v6","SARL_v61ymvgvxp","5eb32b8adc8fc511560fca82","freq","","","img/blue_2bandit_b2.png","70","","70","test","1","","58","","","","circle","square","56","13","3","0.9464285714285714","","","","","","","",""
"null","187812","SARL_v6","SARL_v61ymvgvxp","5eb32b8adc8fc511560fca82","freq_resp","","","img/blue_2bandit_b.png","70","img/blue_2bandit_b.png","70","test","","","","","","","","","","","3","","","","","","","","",""
"null","187972","SARL_v6","SARL_v61ymvgvxp","5eb32b8adc8fc511560fca82","fixation","","","img/fixation.png","null","","","test","","","","","","","","","","","","","","","","","","","",""
"333.8999999985099","188311","SARL_v6","SARL_v61ymvgvxp","5eb32b8adc8fc511560fca82","freq","","","img/blue_2bandit_b2.png","70","","70","test","1","","59","","","","circle","square","57","14","3","0.9473684210526315","","","","","","","",""
"null","188784","SARL_v6","SARL_v61ymvgvxp","5eb32b8adc8fc511560fca82","freq_resp","","","img/blue_2bandit_b.png","70","img/blue_2bandit_b.png","70","test","","","","","","","","","","","3","","","","","","","","",""
"null","188939","SARL_v6","SARL_v61ymvgvxp","5eb32b8adc8fc511560fca82","fixation","","","img/fixation.png","null","","","test","","","","","","","","","","","","","","","","","","","",""
"362.8999999985099","189307","SARL_v6","SARL_v61ymvgvxp","5eb32b8adc8fc511560fca82","freq","","","img/blue_2bandit_b2.png","70","","70","test","1","","60","","","","circle","square","58","15","3","0.9482758620689655","","","","","","","",""
"null","189751","SARL_v6","SARL_v61ymvgvxp","5eb32b8adc8fc511560fca82","freq_resp","","","img/blue_2bandit_b.png","70","img/blue_2bandit_b.png","70","test","","","","","","","","","","","3","","","","","","","","",""
"null","189911","SARL_v6","SARL_v61ymvgvxp","5eb32b8adc8fc511560fca82","fixation","","","img/fixation.png","null","","","test","","","","","","","","","","","","","","","","","","","",""
"357.79999999701977","190273","SARL_v6","SARL_v61ymvgvxp","5eb32b8adc8fc511560fca82","freq","","","img/blue_2bandit_b2.png","70","","70","test","1","","61","","","","circle","square","59","16","3","0.9491525423728814","","","","","","","",""
"null","190730","SARL_v6","SARL_v61ymvgvxp","5eb32b8adc8fc511560fca82","freq_resp","","","img/blue_2bandit_b.png","70","img/blue_2bandit_b.png","70","test","","","","","","","","","","","3","","","","","","","","",""
"null","190889","SARL_v6","SARL_v61ymvgvxp","5eb32b8adc8fc511560fca82","fixation","","","img/fixation.png","null","","","test","","","","","","","","","","","","","","","","","","","",""
"426.3999999985099","191320","SARL_v6","SARL_v61ymvgvxp","5eb32b8adc8fc511560fca82","freq","","","img/blue_2bandit_b2.png","70","","70","test","1","","62","","","","circle","square","60","17","3","0.95","","","","","","","",""
"null","191711","SARL_v6","SARL_v61ymvgvxp","5eb32b8adc8fc511560fca82","freq_resp","","","img/blue_2bandit_b.png","70","img/blue_2bandit_b.png","70","test","","","","","","","","","","","3","","","","","","","","",""
"null","191870","SARL_v6","SARL_v61ymvgvxp","5eb32b8adc8fc511560fca82","fixation","","","img/fixation.png","null","","","test","","","","","","","","","","","","","","","","","","","",""
"398","192273","SARL_v6","SARL_v61ymvgvxp","5eb32b8adc8fc511560fca82","freq","","","img/blue_2bandit_b2.png","70","","70","test","1","","63","","","","circle","square","61","18","3","0.9508196721311475","","","","","","","",""
"null","192686","SARL_v6","SARL_v61ymvgvxp","5eb32b8adc8fc511560fca82","freq_resp","","","img/blue_2bandit_b.png","70","img/blue_2bandit_b.png","70","test","","","","","","","","","","","3","","","","","","","","",""
"null","192845","SARL_v6","SARL_v61ymvgvxp","5eb32b8adc8fc511560fca82","fixation","","","img/fixation.png","null","","","test","","","","","","","","","","","","","","","","","","","",""
"389","193239","SARL_v6","SARL_v61ymvgvxp","5eb32b8adc8fc511560fca82","freq","","","img/blue_2bandit_b2.png","70","","70","test","1","","64","","","","circle","square","62","19","3","0.9516129032258065","","","","","","","",""
"null","193656","SARL_v6","SARL_v61ymvgvxp","5eb32b8adc8fc511560fca82","freq_resp","","","img/blue_2bandit_b.png","70","img/blue_2bandit_b.png","70","test","","","","","","","","","","","3","","","","","","","","",""
"null","193816","SARL_v6","SARL_v61ymvgvxp","5eb32b8adc8fc511560fca82","fixation","","","img/fixation.png","null","","","test","","","","","","","","","","","","","","","","","","","",""
"435.29999999701977","194256","SARL_v6","SARL_v61ymvgvxp","5eb32b8adc8fc511560fca82","freq","","","img/blue_2bandit_b2.png","70","","70","test","1","","65","","","","circle","square","63","20","3","0.9523809523809523","","","","","","","",""
"null","194630","SARL_v6","SARL_v61ymvgvxp","5eb32b8adc8fc511560fca82","freq_resp","","","img/blue_2bandit_b.png","70","img/blue_2bandit_b.png","70","test","","","","","","","","","","","3","","","","","","","","",""
"null","194791","SARL_v6","SARL_v61ymvgvxp","5eb32b8adc8fc511560fca82","fixation","","","img/fixation.png","null","","","test","","","","","","","","","","","","","","","","","","","",""
"396.40000000596046","195192","SARL_v6","SARL_v61ymvgvxp","5eb32b8adc8fc511560fca82","freq","","","img/blue_2bandit_b2.png","70","","70","test","1","","66","","","","circle","square","64","21","3","0.953125","","","","","","","",""
"null","195614","SARL_v6","SARL_v61ymvgvxp","5eb32b8adc8fc511560fca82","freq_resp","","","img/blue_2bandit_b.png","70","img/blue_2bandit_b.png","70","test","","","","","","","","","","","3","","","","","","","","",""
"null","195774","SARL_v6","SARL_v61ymvgvxp","5eb32b8adc8fc511560fca82","fixation","","","img/fixation.png","null","","","test","","","","","","","","","","","","","","","","","","","",""
"400.5","196179","SARL_v6","SARL_v61ymvgvxp","5eb32b8adc8fc511560fca82","freq","","","img/blue_2bandit_b2.png","70","","70","test","1","","67","","","","circle","square","65","22","3","0.9538461538461539","","","","","","","",""
"null","196585","SARL_v6","SARL_v61ymvgvxp","5eb32b8adc8fc511560fca82","freq_resp","","","img/blue_2bandit_b.png","70","img/blue_2bandit_b.png","70","test","","","","","","","","","","","3","","","","","","","","",""
"null","196747","SARL_v6","SARL_v61ymvgvxp","5eb32b8adc8fc511560fca82","fixation","","","img/fixation.png","null","","","test","","","","","","","","","","","","","","","","","","","",""
"428.6000000014901","197181","SARL_v6","SARL_v61ymvgvxp","5eb32b8adc8fc511560fca82","freq","","","img/blue_2bandit_b2.png","70","","70","test","1","","68","","","","circle","square","66","23","3","0.9545454545454546","","","","","","","",""
"null","197571","SARL_v6","SARL_v61ymvgvxp","5eb32b8adc8fc511560fca82","freq_resp","","","img/blue_2bandit_b.png","70","img/blue_2bandit_b.png","70","test","","","","","","","","","","","3","","","","","","","","",""
"null","197731","SARL_v6","SARL_v61ymvgvxp","5eb32b8adc8fc511560fca82","fixation","","","img/fixation.png","null","","","test","","","","","","","","","","","","","","","","","","","",""
"509.79999999701977","198245","SARL_v6","SARL_v61ymvgvxp","5eb32b8adc8fc511560fca82","infreq","","","img/orange_2bandit_b2.png","68","","68","test","1","","69","","","","circle","square","67","24","3","0.9552238805970149","","","","","","","",""
"null","198542","SARL_v6","SARL_v61ymvgvxp","5eb32b8adc8fc511560fca82","infreq_resp","","","img/orange_2bandit_b.png","68","img/orange_2bandit_b.png","68","test","","","","","","","","","","","3","","","","","","","","",""
"null","198701","SARL_v6","SARL_v61ymvgvxp","5eb32b8adc8fc511560fca82","fixation","","","img/fixation.png","null","","","test","","","","","","","","","","","","","","","","","","","",""
"485.8999999985099","199192","SARL_v6","SARL_v61ymvgvxp","5eb32b8adc8fc511560fca82","freq","","","img/blue_2bandit_b2.png","70","","70","test","1","","70","","","","circle","square","68","25","3","0.9558823529411765","","","","","","","",""
"null","199524","SARL_v6","SARL_v61ymvgvxp","5eb32b8adc8fc511560fca82","freq_resp","","","img/blue_2bandit_b.png","70","img/blue_2bandit_b.png","70","test","","","","","","","","","","","3","","","","","","","","",""
"null","199688","SARL_v6","SARL_v61ymvgvxp","5eb32b8adc8fc511560fca82","fixation","","","img/fixation.png","null","","","test","","","","","","","","","","","","","","","","","","","",""
"373","200065","SARL_v6","SARL_v61ymvgvxp","5eb32b8adc8fc511560fca82","freq","","","img/blue_2bandit_b2.png","70","","70","test","1","","71","","","","circle","square","69","26","3","0.9565217391304348","","","","","","","",""
"null","200503","SARL_v6","SARL_v61ymvgvxp","5eb32b8adc8fc511560fca82","freq_resp","","","img/blue_2bandit_b.png","70","img/blue_2bandit_b.png","70","test","","","","","","","","","","","3","","","","","","","","",""
"null","200666","SARL_v6","SARL_v61ymvgvxp","5eb32b8adc8fc511560fca82","fixation","","","img/fixation.png","null","","","test","","","","","","","","","","","","","","","","","","","",""
"571.7999999970198","201243","SARL_v6","SARL_v61ymvgvxp","5eb32b8adc8fc511560fca82","rl","","","img/black_2bandit_b2.png","75","","0","test","","","72","","","-8","circle","square","","0","3","","75","-4","-8","-4","-8","square","3","0"
"null","202009","SARL_v6","SARL_v61ymvgvxp","5eb32b8adc8fc511560fca82","feedback","","","<div class=""verylowPoints_sq""> -8 </div>","null","","na","test","","","NaN","","","","","","","","3","","75","","","","","","3",""
"419.5","202433","SARL_v6","SARL_v61ymvgvxp","5eb32b8adc8fc511560fca82","freq","","","img/blue_2bandit_b2.png","70","","70","test","1","","73","","","","circle","square","70","1","4","0.9571428571428572","","","","","","","",""
"null","202828","SARL_v6","SARL_v61ymvgvxp","5eb32b8adc8fc511560fca82","freq_resp","","","img/blue_2bandit_b.png","70","img/blue_2bandit_b.png","70","test","","","","","","","","","","","4","","","","","","","","",""
"null","202988","SARL_v6","SARL_v61ymvgvxp","5eb32b8adc8fc511560fca82","fixation","","","img/fixation.png","null","","","test","","","","","","","","","","","","","","","","","","","",""
"444","203436","SARL_v6","SARL_v61ymvgvxp","5eb32b8adc8fc511560fca82","infreq","","","img/orange_2bandit_b2.png","68","","68","test","1","","74","","","","circle","square","71","2","4","0.9577464788732394","","","","","","","",""
"null","203799","SARL_v6","SARL_v61ymvgvxp","5eb32b8adc8fc511560fca82","infreq_resp","","","img/orange_2bandit_b.png","68","img/orange_2bandit_b.png","68","test","","","","","","","","","","","4","","","","","","","","",""
"null","203958","SARL_v6","SARL_v61ymvgvxp","5eb32b8adc8fc511560fca82","fixation","","","img/fixation.png","null","","","test","","","","","","","","","","","","","","","","","","","",""
"298.8999999985099","204261","SARL_v6","SARL_v61ymvgvxp","5eb32b8adc8fc511560fca82","freq","","","img/blue_2bandit_b2.png","70","","70","test","1","","75","","","","circle","square","72","3","4","0.9583333333333334","","","","","","","",""
"null","204773","SARL_v6","SARL_v61ymvgvxp","5eb32b8adc8fc511560fca82","freq_resp","","","img/blue_2bandit_b.png","70","img/blue_2bandit_b.png","70","test","","","","","","","","","","","4","","","","","","","","",""
"null","204930","SARL_v6","SARL_v61ymvgvxp","5eb32b8adc8fc511560fca82","fixation","","","img/fixation.png","null","","","test","","","","","","","","","","","","","","","","","","","",""
"275.29999999701977","205209","SARL_v6","SARL_v61ymvgvxp","5eb32b8adc8fc511560fca82","freq","","","img/blue_2bandit_b2.png","70","","70","test","1","","76","","","","circle","square","73","4","4","0.958904109589041","","","","","","","",""
"null","205745","SARL_v6","SARL_v61ymvgvxp","5eb32b8adc8fc511560fca82","freq_resp","","","img/blue_2bandit_b.png","70","img/blue_2bandit_b.png","70","test","","","","","","","","","","","4","","","","","","","","",""
"null","205901","SARL_v6","SARL_v61ymvgvxp","5eb32b8adc8fc511560fca82","fixation","","","img/fixation.png","null","","","test","","","","","","","","","","","","","","","","","","","",""
"226.09999999403954","206131","SARL_v6","SARL_v61ymvgvxp","5eb32b8adc8fc511560fca82","freq","","","img/blue_2bandit_b2.png","70","","70","test","1","","77","","","","circle","square","74","5","4","0.9594594594594594","","","","","","","",""
"null","206716","SARL_v6","SARL_v61ymvgvxp","5eb32b8adc8fc511560fca82","freq_resp","","","img/blue_2bandit_b.png","70","img/blue_2bandit_b.png","70","test","","","","","","","","","","","4","","","","","","","","",""
"null","206871","SARL_v6","SARL_v61ymvgvxp","5eb32b8adc8fc511560fca82","fixation","","","img/fixation.png","null","","","test","","","","","","","","","","","","","","","","","","","",""
"292.5","207168","SARL_v6","SARL_v61ymvgvxp","5eb32b8adc8fc511560fca82","freq","","","img/blue_2bandit_b2.png","70","","70","test","1","","78","","","","circle","square","75","6","4","0.96","","","","","","","",""
"null","207690","SARL_v6","SARL_v61ymvgvxp","5eb32b8adc8fc511560fca82","freq_resp","","","img/blue_2bandit_b.png","70","img/blue_2bandit_b.png","70","test","","","","","","","","","","","4","","","","","","","","",""
"null","207846","SARL_v6","SARL_v61ymvgvxp","5eb32b8adc8fc511560fca82","fixation","","","img/fixation.png","null","","","test","","","","","","","","","","","","","","","","","","","",""
"290.80000000447035","208141","SARL_v6","SARL_v61ymvgvxp","5eb32b8adc8fc511560fca82","freq","","","img/blue_2bandit_b2.png","70","","70","test","1","","79","","","","circle","square","76","7","4","0.9605263157894737","","","","","","","",""
"null","208661","SARL_v6","SARL_v61ymvgvxp","5eb32b8adc8fc511560fca82","freq_resp","","","img/blue_2bandit_b.png","70","img/blue_2bandit_b.png","70","test","","","","","","","","","","","4","","","","","","","","",""
"null","208817","SARL_v6","SARL_v61ymvgvxp","5eb32b8adc8fc511560fca82","fixation","","","img/fixation.png","null","","","test","","","","","","","","","","","","","","","","","","","",""
"266.8999999985099","209088","SARL_v6","SARL_v61ymvgvxp","5eb32b8adc8fc511560fca82","freq","","","img/blue_2bandit_b2.png","70","","70","test","1","","80","","","","circle","square","77","8","4","0.961038961038961","","","","","","","",""
"null","209632","SARL_v6","SARL_v61ymvgvxp","5eb32b8adc8fc511560fca82","freq_resp","","","img/blue_2bandit_b.png","70","img/blue_2bandit_b.png","70","test","","","","","","","","","","","4","","","","","","","","",""
"null","209787","SARL_v6","SARL_v61ymvgvxp","5eb32b8adc8fc511560fca82","fixation","","","img/fixation.png","null","","","test","","","","","","","","","","","","","","","","","","","",""
"312.30000000447035","210104","SARL_v6","SARL_v61ymvgvxp","5eb32b8adc8fc511560fca82","freq","","","img/blue_2bandit_b2.png","70","","70","test","1","","81","","","","circle","square","78","9","4","0.9615384615384616","","","","","","","",""
"null","210611","SARL_v6","SARL_v61ymvgvxp","5eb32b8adc8fc511560fca82","freq_resp","","","img/blue_2bandit_b.png","70","img/blue_2bandit_b.png","70","test","","","","","","","","","","","4","","","","","","","","",""
"null","210770","SARL_v6","SARL_v61ymvgvxp","5eb32b8adc8fc511560fca82","fixation","","","img/fixation.png","null","","","test","","","","","","","","","","","","","","","","","","","",""
"293.80000000447035","211068","SARL_v6","SARL_v61ymvgvxp","5eb32b8adc8fc511560fca82","freq","","","img/blue_2bandit_b2.png","70","","70","test","1","","82","","","","circle","square","79","10","4","0.9620253164556962","","","","","","","",""
"null","211592","SARL_v6","SARL_v61ymvgvxp","5eb32b8adc8fc511560fca82","freq_resp","","","img/blue_2bandit_b.png","70","img/blue_2bandit_b.png","70","test","","","","","","","","","","","4","","","","","","","","",""
"null","211749","SARL_v6","SARL_v61ymvgvxp","5eb32b8adc8fc511560fca82","fixation","","","img/fixation.png","null","","","test","","","","","","","","","","","","","","","","","","","",""
"325.80000000447035","212079","SARL_v6","SARL_v61ymvgvxp","5eb32b8adc8fc511560fca82","freq","","","img/blue_2bandit_b2.png","70","","70","test","1","","83","","","","circle","square","80","11","4","0.9625","","","","","","","",""
"null","212564","SARL_v6","SARL_v61ymvgvxp","5eb32b8adc8fc511560fca82","freq_resp","","","img/blue_2bandit_b.png","70","img/blue_2bandit_b.png","70","test","","","","","","","","","","","4","","","","","","","","",""
"null","212720","SARL_v6","SARL_v61ymvgvxp","5eb32b8adc8fc511560fca82","fixation","","","img/fixation.png","null","","","test","","","","","","","","","","","","","","","","","","","",""
"311.5","213036","SARL_v6","SARL_v61ymvgvxp","5eb32b8adc8fc511560fca82","freq","","","img/blue_2bandit_b2.png","70","","70","test","1","","84","","","","circle","square","81","12","4","0.9629629629629629","","","","","","","",""
"null","213530","SARL_v6","SARL_v61ymvgvxp","5eb32b8adc8fc511560fca82","freq_resp","","","img/blue_2bandit_b.png","70","img/blue_2bandit_b.png","70","test","","","","","","","","","","","4","","","","","","","","",""
"null","213687","SARL_v6","SARL_v61ymvgvxp","5eb32b8adc8fc511560fca82","fixation","","","img/fixation.png","null","","","test","","","","","","","","","","","","","","","","","","","",""
"285.5","213977","SARL_v6","SARL_v61ymvgvxp","5eb32b8adc8fc511560fca82","freq","","","img/blue_2bandit_b2.png","70","","70","test","1","","85","","","","circle","square","82","13","4","0.9634146341463414","","","","","","","",""
"null","214498","SARL_v6","SARL_v61ymvgvxp","5eb32b8adc8fc511560fca82","freq_resp","","","img/blue_2bandit_b.png","70","img/blue_2bandit_b.png","70","test","","","","","","","","","","","4","","","","","","","","",""
"null","214654","SARL_v6","SARL_v61ymvgvxp","5eb32b8adc8fc511560fca82","fixation","","","img/fixation.png","null","","","test","","","","","","","","","","","","","","","","","","","",""
"426.70000000298023","215085","SARL_v6","SARL_v61ymvgvxp","5eb32b8adc8fc511560fca82","infreq","","","img/orange_2bandit_b2.png","68","","68","test","1","","86","","","","circle","square","83","14","4","0.963855421686747","","","","","","","",""
"null","215465","SARL_v6","SARL_v61ymvgvxp","5eb32b8adc8fc511560fca82","infreq_resp","","","img/orange_2bandit_b.png","68","img/orange_2bandit_b.png","68","test","","","","","","","","","","","4","","","","","","","","",""
"null","215620","SARL_v6","SARL_v61ymvgvxp","5eb32b8adc8fc511560fca82","fixation","","","img/fixation.png","null","","","test","","","","","","","","","","","","","","","","","","","",""
"607.1999999955297","216232","SARL_v6","SARL_v61ymvgvxp","5eb32b8adc8fc511560fca82","freq","","","img/blue_2bandit_b2.png","70","","70","test","1","","87","","","","circle","square","84","15","4","0.9642857142857143","","","","","","","",""
"null","216439","SARL_v6","SARL_v61ymvgvxp","5eb32b8adc8fc511560fca82","freq_resp","","","img/blue_2bandit_b.png","70","img/blue_2bandit_b.png","70","test","","","","","","","","","","","4","","","","","","","","",""
"null","216598","SARL_v6","SARL_v61ymvgvxp","5eb32b8adc8fc511560fca82","fixation","","","img/fixation.png","null","","","test","","","","","","","","","","","","","","","","","","","",""
"479.1000000014901","217082","SARL_v6","SARL_v61ymvgvxp","5eb32b8adc8fc511560fca82","freq","","","img/blue_2bandit_b2.png","70","","70","test","1","","88","","","","circle","square","85","16","4","0.9647058823529412","","","","","","","",""
"null","217414","SARL_v6","SARL_v61ymvgvxp","5eb32b8adc8fc511560fca82","freq_resp","","","img/blue_2bandit_b.png","70","img/blue_2bandit_b.png","70","test","","","","","","","","","","","4","","","","","","","","",""
"null","217570","SARL_v6","SARL_v61ymvgvxp","5eb32b8adc8fc511560fca82","fixation","","","img/fixation.png","null","","","test","","","","","","","","","","","","","","","","","","","",""
"335.90000000596046","217909","SARL_v6","SARL_v61ymvgvxp","5eb32b8adc8fc511560fca82","freq","","","img/blue_2bandit_b2.png","70","","70","test","1","","89","","","","circle","square","86","17","4","0.9651162790697675","","","","","","","",""
"null","218400","SARL_v6","SARL_v61ymvgvxp","5eb32b8adc8fc511560fca82","freq_resp","","","img/blue_2bandit_b.png","70","img/blue_2bandit_b.png","70","test","","","","","","","","","","","4","","","","","","","","",""
"null","218561","SARL_v6","SARL_v61ymvgvxp","5eb32b8adc8fc511560fca82","fixation","","","img/fixation.png","null","","","test","","","","","","","","","","","","","","","","","","","",""
"214.5","218779","SARL_v6","SARL_v61ymvgvxp","5eb32b8adc8fc511560fca82","freq","","","img/blue_2bandit_b2.png","70","","70","test","1","","90","","","","circle","square","87","18","4","0.9655172413793104","","","","","","","",""
"null","219372","SARL_v6","SARL_v61ymvgvxp","5eb32b8adc8fc511560fca82","freq_resp","","","img/blue_2bandit_b.png","70","img/blue_2bandit_b.png","70","test","","","","","","","","","","","4","","","","","","","","",""
"null","219532","SARL_v6","SARL_v61ymvgvxp","5eb32b8adc8fc511560fca82","fixation","","","img/fixation.png","null","","","test","","","","","","","","","","","","","","","","","","","",""
"274.80000000447035","219811","SARL_v6","SARL_v61ymvgvxp","5eb32b8adc8fc511560fca82","freq","","","img/blue_2bandit_b2.png","70","","70","test","1","","91","","","","circle","square","88","19","4","0.9659090909090909","","","","","","","",""
"null","220347","SARL_v6","SARL_v61ymvgvxp","5eb32b8adc8fc511560fca82","freq_resp","","","img/blue_2bandit_b.png","70","img/blue_2bandit_b.png","70","test","","","","","","","","","","","4","","","","","","","","",""
"null","220503","SARL_v6","SARL_v61ymvgvxp","5eb32b8adc8fc511560fca82","fixation","","","img/fixation.png","null","","","test","","","","","","","","","","","","","","","","","","","",""
"305.6000000014901","220813","SARL_v6","SARL_v61ymvgvxp","5eb32b8adc8fc511560fca82","freq","","","img/blue_2bandit_b2.png","70","","70","test","1","","92","","","","circle","square","89","20","4","0.9662921348314607","","","","","","","",""
"null","221318","SARL_v6","SARL_v61ymvgvxp","5eb32b8adc8fc511560fca82","freq_resp","","","img/blue_2bandit_b.png","70","img/blue_2bandit_b.png","70","test","","","","","","","","","","","4","","","","","","","","",""
"null","221478","SARL_v6","SARL_v61ymvgvxp","5eb32b8adc8fc511560fca82","fixation","","","img/fixation.png","null","","","test","","","","","","","","","","","","","","","","","","","",""
"549","222031","SARL_v6","SARL_v61ymvgvxp","5eb32b8adc8fc511560fca82","rl","","","img/black_2bandit_b2.png","75","","0","test","","","93","","","-12","circle","square","","0","4","","75","0","-12","0","-12","square","4","0"
"null","222792","SARL_v6","SARL_v61ymvgvxp","5eb32b8adc8fc511560fca82","feedback","","","<div class=""verylowPoints_sq""> -12 </div>","null","","na","test","","","NaN","","","","","","","","4","","75","","","","","","4",""
"397.6000000014901","223194","SARL_v6","SARL_v61ymvgvxp","5eb32b8adc8fc511560fca82","freq","","","img/blue_2bandit_b2.png","70","","70","test","1","","94","","","","circle","square","90","1","5","0.9666666666666667","","","","","","","",""
"null","223603","SARL_v6","SARL_v61ymvgvxp","5eb32b8adc8fc511560fca82","freq_resp","","","img/blue_2bandit_b.png","70","img/blue_2bandit_b.png","70","test","","","","","","","","","","","5","","","","","","","","",""
"null","223770","SARL_v6","SARL_v61ymvgvxp","5eb32b8adc8fc511560fca82","fixation","","","img/fixation.png","null","","","test","","","","","","","","","","","","","","","","","","","",""
"463.20000000298023","224237","SARL_v6","SARL_v61ymvgvxp","5eb32b8adc8fc511560fca82","freq","","","img/blue_2bandit_b2.png","70","","70","test","1","","95","","","","circle","square","91","2","5","0.967032967032967","","","","","","","",""
"null","224579","SARL_v6","SARL_v61ymvgvxp","5eb32b8adc8fc511560fca82","freq_resp","","","img/blue_2bandit_b.png","70","img/blue_2bandit_b.png","70","test","","","","","","","","","","","5","","","","","","","","",""
"null","224735","SARL_v6","SARL_v61ymvgvxp","5eb32b8adc8fc511560fca82","fixation","","","img/fixation.png","null","","","test","","","","","","","","","","","","","","","","","","","",""
"571.5","225310","SARL_v6","SARL_v61ymvgvxp","5eb32b8adc8fc511560fca82","freq","","","img/blue_2bandit_b2.png","70","","70","test","1","","96","","","","circle","square","92","3","5","0.967391304347826","","","","","","","",""
"null","225553","SARL_v6","SARL_v61ymvgvxp","5eb32b8adc8fc511560fca82","freq_resp","","","img/blue_2bandit_b.png","70","img/blue_2bandit_b.png","70","test","","","","","","","","","","","5","","","","","","","","",""
"null","225713","SARL_v6","SARL_v61ymvgvxp","5eb32b8adc8fc511560fca82","fixation","","","img/fixation.png","null","","","test","","","","","","","","","","","","","","","","","","","",""
"369.30000000447035","226087","SARL_v6","SARL_v61ymvgvxp","5eb32b8adc8fc511560fca82","freq","","","img/blue_2bandit_b2.png","70","","70","test","1","","97","","","","circle","square","93","4","5","0.967741935483871","","","","","","","",""
"null","226525","SARL_v6","SARL_v61ymvgvxp","5eb32b8adc8fc511560fca82","freq_resp","","","img/blue_2bandit_b.png","70","img/blue_2bandit_b.png","70","test","","","","","","","","","","","5","","","","","","","","",""
"null","226679","SARL_v6","SARL_v61ymvgvxp","5eb32b8adc8fc511560fca82","fixation","","","img/fixation.png","null","","","test","","","","","","","","","","","","","","","","","","","",""
"262.6000000014901","226946","SARL_v6","SARL_v61ymvgvxp","5eb32b8adc8fc511560fca82","freq","","","img/blue_2bandit_b2.png","70","","70","test","1","","98","","","","circle","square","94","5","5","0.9680851063829787","","","","","","","",""
"null","227495","SARL_v6","SARL_v61ymvgvxp","5eb32b8adc8fc511560fca82","freq_resp","","","img/blue_2bandit_b.png","70","img/blue_2bandit_b.png","70","test","","","","","","","","","","","5","","","","","","","","",""
"null","227655","SARL_v6","SARL_v61ymvgvxp","5eb32b8adc8fc511560fca82","fixation","","","img/fixation.png","null","","","test","","","","","","","","","","","","","","","","","","","",""
"159.10000000149012","227818","SARL_v6","SARL_v61ymvgvxp","5eb32b8adc8fc511560fca82","infreq","","","img/orange_2bandit_b2.png","70","","68","test","0","","99","","","","circle","square","95","6","5","0.9578947368421052","","","","","","","",""
"null","228474","SARL_v6","SARL_v61ymvgvxp","5eb32b8adc8fc511560fca82","infreq_resp","","","img/orange_2bandit_b.png","70","img/orange_2bandit_b.png","68","test","","","","","","","","","","","5","","","","","","","","",""
"null","228630","SARL_v6","SARL_v61ymvgvxp","5eb32b8adc8fc511560fca82","fixation","","","img/fixation.png","null","","","test","","","","","","","","","","","","","","","","","","","",""
"127.20000000298023","228761","SARL_v6","SARL_v61ymvgvxp","5eb32b8adc8fc511560fca82","freq","","","img/blue_2bandit_b2.png","70","","70","test","1","","100","","","","circle","square","96","7","5","0.9583333333333334","","","","","","","",""
"null","229441","SARL_v6","SARL_v61ymvgvxp","5eb32b8adc8fc511560fca82","freq_resp","","","img/blue_2bandit_b.png","70","img/blue_2bandit_b.png","70","test","","","","","","","","","","","5","","","","","","","","",""
"null","229600","SARL_v6","SARL_v61ymvgvxp","5eb32b8adc8fc511560fca82","fixation","","","img/fixation.png","null","","","test","","","","","","","","","","","","","","","","","","","",""
"1.8000000044703484","229605","SARL_v6","SARL_v61ymvgvxp","5eb32b8adc8fc511560fca82","freq","","","img/blue_2bandit_b2.png","70","","70","test","1","","101","","","","circle","square","97","8","5","0.9587628865979382","","","","","","","",""
"null","230416","SARL_v6","SARL_v61ymvgvxp","5eb32b8adc8fc511560fca82","freq_resp","","","img/blue_2bandit_b.png","70","img/blue_2bandit_b.png","70","test","","","","","","","","","","","5","","","","","","","","",""
"null","230571","SARL_v6","SARL_v61ymvgvxp","5eb32b8adc8fc511560fca82","fixation","","","img/fixation.png","null","","","test","","","","","","","","","","","","","","","","","","","",""
"167.60000000149012","230743","SARL_v6","SARL_v61ymvgvxp","5eb32b8adc8fc511560fca82","freq","","","img/blue_2bandit_b2.png","70","","70","test","1","","102","","","","circle","square","98","9","5","0.9591836734693877","","","","","","","",""
"null","231382","SARL_v6","SARL_v61ymvgvxp","5eb32b8adc8fc511560fca82","freq_resp","","","img/blue_2bandit_b.png","70","img/blue_2bandit_b.png","70","test","","","","","","","","","","","5","","","","","","","","",""
"null","231542","SARL_v6","SARL_v61ymvgvxp","5eb32b8adc8fc511560fca82","fixation","","","img/fixation.png","null","","","test","","","","","","","","","","","","","","","","","","","",""
"222.89999999850988","231769","SARL_v6","SARL_v61ymvgvxp","5eb32b8adc8fc511560fca82","infreq","","","img/orange_2bandit_b2.png","70","","68","test","0","","103","","","","circle","square","99","10","5","0.9494949494949495","","","","","","","",""
"null","232357","SARL_v6","SARL_v61ymvgvxp","5eb32b8adc8fc511560fca82","infreq_resp","","","img/orange_2bandit_b.png","70","img/orange_2bandit_b.png","68","test","","","","","","","","","","","5","","","","","","","","",""
"null","232517","SARL_v6","SARL_v61ymvgvxp","5eb32b8adc8fc511560fca82","fixation","","","img/fixation.png","null","","","test","","","","","","","","","","","","","","","","","","","",""
"186.79999999701977","232708","SARL_v6","SARL_v61ymvgvxp","5eb32b8adc8fc511560fca82","freq","","","img/blue_2bandit_b2.png","70","","70","test","1","","104","","","","circle","square","100","11","5","0.95","","","","","","","",""
"null","233328","SARL_v6","SARL_v61ymvgvxp","5eb32b8adc8fc511560fca82","freq_resp","","","img/blue_2bandit_b.png","70","img/blue_2bandit_b.png","70","test","","","","","","","","","","","5","","","","","","","","",""
"null","233484","SARL_v6","SARL_v61ymvgvxp","5eb32b8adc8fc511560fca82","fixation","","","img/fixation.png","null","","","test","","","","","","","","","","","","","","","","","","","",""
"244.5","233733","SARL_v6","SARL_v61ymvgvxp","5eb32b8adc8fc511560fca82","freq","","","img/blue_2bandit_b2.png","70","","70","test","1","","105","","","","circle","square","101","12","5","0.9504950495049505","","","","","","","",""
"null","234295","SARL_v6","SARL_v61ymvgvxp","5eb32b8adc8fc511560fca82","freq_resp","","","img/blue_2bandit_b.png","70","img/blue_2bandit_b.png","70","test","","","","","","","","","","","5","","","","","","","","",""
"null","234451","SARL_v6","SARL_v61ymvgvxp","5eb32b8adc8fc511560fca82","fixation","","","img/fixation.png","null","","","test","","","","","","","","","","","","","","","","","","","",""
"215.80000000447035","234671","SARL_v6","SARL_v61ymvgvxp","5eb32b8adc8fc511560fca82","freq","","","img/blue_2bandit_b2.png","70","","70","test","1","","106","","","","circle","square","102","13","5","0.9509803921568627","","","","","","","",""
"null","235264","SARL_v6","SARL_v61ymvgvxp","5eb32b8adc8fc511560fca82","freq_resp","","","img/blue_2bandit_b.png","70","img/blue_2bandit_b.png","70","test","","","","","","","","","","","5","","","","","","","","",""
"null","235420","SARL_v6","SARL_v61ymvgvxp","5eb32b8adc8fc511560fca82","fixation","","","img/fixation.png","null","","","test","","","","","","","","","","","","","","","","","","","",""
"269.5","235694","SARL_v6","SARL_v61ymvgvxp","5eb32b8adc8fc511560fca82","freq","","","img/blue_2bandit_b2.png","70","","70","test","1","","107","","","","circle","square","103","14","5","0.9514563106796117","","","","","","","",""
"null","236236","SARL_v6","SARL_v61ymvgvxp","5eb32b8adc8fc511560fca82","freq_resp","","","img/blue_2bandit_b.png","70","img/blue_2bandit_b.png","70","test","","","","","","","","","","","5","","","","","","","","",""
"null","236395","SARL_v6","SARL_v61ymvgvxp","5eb32b8adc8fc511560fca82","fixation","","","img/fixation.png","null","","","test","","","","","","","","","","","","","","","","","","","",""
"304.30000000447035","236703","SARL_v6","SARL_v61ymvgvxp","5eb32b8adc8fc511560fca82","freq","","","img/blue_2bandit_b2.png","70","","70","test","1","","108","","","","circle","square","104","15","5","0.9519230769230769","","","","","","","",""
"null","237206","SARL_v6","SARL_v61ymvgvxp","5eb32b8adc8fc511560fca82","freq_resp","","","img/blue_2bandit_b.png","70","img/blue_2bandit_b.png","70","test","","","","","","","","","","","5","","","","","","","","",""
"null","237366","SARL_v6","SARL_v61ymvgvxp","5eb32b8adc8fc511560fca82","fixation","","","img/fixation.png","null","","","test","","","","","","","","","","","","","","","","","","","",""
"333.30000000447035","237704","SARL_v6","SARL_v61ymvgvxp","5eb32b8adc8fc511560fca82","freq","","","img/blue_2bandit_b2.png","70","","70","test","1","","109","","","","circle","square","105","16","5","0.9523809523809523","","","","","","","",""
"null","238186","SARL_v6","SARL_v61ymvgvxp","5eb32b8adc8fc511560fca82","freq_resp","","","img/blue_2bandit_b.png","70","img/blue_2bandit_b.png","70","test","","","","","","","","","","","5","","","","","","","","",""
"null","238341","SARL_v6","SARL_v61ymvgvxp","5eb32b8adc8fc511560fca82","fixation","","","img/fixation.png","null","","","test","","","","","","","","","","","","","","","","","","","",""
"302","238647","SARL_v6","SARL_v61ymvgvxp","5eb32b8adc8fc511560fca82","freq","","","img/blue_2bandit_b2.png","70","","70","test","1","","110","","","","circle","square","106","17","5","0.9528301886792453","","","","","","","",""
"null","239157","SARL_v6","SARL_v61ymvgvxp","5eb32b8adc8fc511560fca82","freq_resp","","","img/blue_2bandit_b.png","70","img/blue_2bandit_b.png","70","test","","","","","","","","","","","5","","","","","","","","",""
"null","239320","SARL_v6","SARL_v61ymvgvxp","5eb32b8adc8fc511560fca82","fixation","","","img/fixation.png","null","","","test","","","","","","","","","","","","","","","","","","","",""
"430.40000000596046","239755","SARL_v6","SARL_v61ymvgvxp","5eb32b8adc8fc511560fca82","infreq","","","img/orange_2bandit_b2.png","68","","68","test","1","","111","","","","circle","square","107","18","5","0.9532710280373832","","","","","","","",""
"null","240143","SARL_v6","SARL_v61ymvgvxp","5eb32b8adc8fc511560fca82","infreq_resp","","","img/orange_2bandit_b.png","68","img/orange_2bandit_b.png","68","test","","","","","","","","","","","5","","","","","","","","",""
"null","240307","SARL_v6","SARL_v61ymvgvxp","5eb32b8adc8fc511560fca82","fixation","","","img/fixation.png","null","","","test","","","","","","","","","","","","","","","","","","","",""
"296.90000000596046","240608","SARL_v6","SARL_v61ymvgvxp","5eb32b8adc8fc511560fca82","freq","","","img/blue_2bandit_b2.png","70","","70","test","1","","112","","","","circle","square","108","19","5","0.9537037037037037","","","","","","","",""
"null","241125","SARL_v6","SARL_v61ymvgvxp","5eb32b8adc8fc511560fca82","freq_resp","","","img/blue_2bandit_b.png","70","img/blue_2bandit_b.png","70","test","","","","","","","","","","","5","","","","","","","","",""
"null","241290","SARL_v6","SARL_v61ymvgvxp","5eb32b8adc8fc511560fca82","fixation","","","img/fixation.png","null","","","test","","","","","","","","","","","","","","","","","","","",""
"257.6000000014901","241552","SARL_v6","SARL_v61ymvgvxp","5eb32b8adc8fc511560fca82","freq","","","img/blue_2bandit_b2.png","70","","70","test","1","","113","","","","circle","square","109","20","5","0.9541284403669725","","","","","","","",""
"null","242105","SARL_v6","SARL_v61ymvgvxp","5eb32b8adc8fc511560fca82","freq_resp","","","img/blue_2bandit_b.png","70","img/blue_2bandit_b.png","70","test","","","","","","","","","","","5","","","","","","","","",""
"null","242273","SARL_v6","SARL_v61ymvgvxp","5eb32b8adc8fc511560fca82","fixation","","","img/fixation.png","null","","","test","","","","","","","","","","","","","","","","","","","",""
"81.5","242359","SARL_v6","SARL_v61ymvgvxp","5eb32b8adc8fc511560fca82","freq","","","img/blue_2bandit_b2.png","70","","70","test","1","","114","","","","circle","square","110","21","5","0.9545454545454546","","","","","","","",""
"null","243084","SARL_v6","SARL_v61ymvgvxp","5eb32b8adc8fc511560fca82","freq_resp","","","img/blue_2bandit_b.png","70","img/blue_2bandit_b.png","70","test","","","","","","","","","","","5","","","","","","","","",""
"null","243240","SARL_v6","SARL_v61ymvgvxp","5eb32b8adc8fc511560fca82","fixation","","","img/fixation.png","null","","","test","","","","","","","","","","","","","","","","","","","",""
"79.69999999552965","243323","SARL_v6","SARL_v61ymvgvxp","5eb32b8adc8fc511560fca82","freq","","","img/blue_2bandit_b2.png","70","","70","test","1","","115","","","","circle","square","111","22","5","0.954954954954955","","","","","","","",""
"null","244051","SARL_v6","SARL_v61ymvgvxp","5eb32b8adc8fc511560fca82","freq_resp","","","img/blue_2bandit_b.png","70","img/blue_2bandit_b.png","70","test","","","","","","","","","","","5","","","","","","","","",""
"null","244206","SARL_v6","SARL_v61ymvgvxp","5eb32b8adc8fc511560fca82","fixation","","","img/fixation.png","null","","","test","","","","","","","","","","","","","","","","","","","",""
"38.69999999552965","244249","SARL_v6","SARL_v61ymvgvxp","5eb32b8adc8fc511560fca82","freq","","","img/blue_2bandit_b2.png","70","","70","test","1","","116","","","","circle","square","112","23","5","0.9553571428571429","","","","","","","",""
"null","245022","SARL_v6","SARL_v61ymvgvxp","5eb32b8adc8fc511560fca82","freq_resp","","","img/blue_2bandit_b.png","70","img/blue_2bandit_b.png","70","test","","","","","","","","","","","5","","","","","","","","",""
"null","245178","SARL_v6","SARL_v61ymvgvxp","5eb32b8adc8fc511560fca82","fixation","","","img/fixation.png","null","","","test","","","","","","","","","","","","","","","","","","","",""
"550.1000000014901","245732","SARL_v6","SARL_v61ymvgvxp","5eb32b8adc8fc511560fca82","rl","","","img/black_2bandit_b2.png","75","","0","test","","","117","","","-7","circle","square","","0","5","","75","4","-7","4","-7","square","5","0"
"null","246488","SARL_v6","SARL_v61ymvgvxp","5eb32b8adc8fc511560fca82","feedback","","","<div class=""verylowPoints_sq""> -7 </div>","null","","na","test","","","NaN","","","","","","","","5","","75","","","","","","5",""
"113.10000000149012","246606","SARL_v6","SARL_v61ymvgvxp","5eb32b8adc8fc511560fca82","freq","","","img/blue_2bandit_b2.png","70","","70","test","1","","118","","","","circle","square","113","1","6","0.9557522123893806","","","","","","","",""
"null","247299","SARL_v6","SARL_v61ymvgvxp","5eb32b8adc8fc511560fca82","freq_resp","","","img/blue_2bandit_b.png","70","img/blue_2bandit_b.png","70","test","","","","","","","","","","","6","","","","","","","","",""
"null","247459","SARL_v6","SARL_v61ymvgvxp","5eb32b8adc8fc511560fca82","fixation","","","img/fixation.png","null","","","test","","","","","","","","","","","","","","","","","","","",""
"53.69999999552965","247517","SARL_v6","SARL_v61ymvgvxp","5eb32b8adc8fc511560fca82","freq","","","img/blue_2bandit_b2.png","70","","70","test","1","","119","","","","circle","square","114","2","6","0.956140350877193","","","","","","","",""
"null","248273","SARL_v6","SARL_v61ymvgvxp","5eb32b8adc8fc511560fca82","freq_resp","","","img/blue_2bandit_b.png","70","img/blue_2bandit_b.png","70","test","","","","","","","","","","","6","","","","","","","","",""
"null","248434","SARL_v6","SARL_v61ymvgvxp","5eb32b8adc8fc511560fca82","fixation","","","img/fixation.png","null","","","test","","","","","","","","","","","","","","","","","","","",""
"145.39999999850988","248583","SARL_v6","SARL_v61ymvgvxp","5eb32b8adc8fc511560fca82","freq","","","img/blue_2bandit_b2.png","70","","70","test","1","","120","","","","circle","square","115","3","6","0.9565217391304348","","","","","","","",""
"null","249245","SARL_v6","SARL_v61ymvgvxp","5eb32b8adc8fc511560fca82","freq_resp","","","img/blue_2bandit_b.png","70","img/blue_2bandit_b.png","70","test","","","","","","","","","","","6","","","","","","","","",""
"null","249400","SARL_v6","SARL_v61ymvgvxp","5eb32b8adc8fc511560fca82","fixation","","","img/fixation.png","null","","","test","","","","","","","","","","","","","","","","","","","",""
"49","249453","SARL_v6","SARL_v61ymvgvxp","5eb32b8adc8fc511560fca82","freq","","","img/blue_2bandit_b2.png","70","","70","test","1","","121","","","","circle","square","116","4","6","0.9568965517241379","","","","","","","",""
"null","250212","SARL_v6","SARL_v61ymvgvxp","5eb32b8adc8fc511560fca82","freq_resp","","","img/blue_2bandit_b.png","70","img/blue_2bandit_b.png","70","test","","","","","","","","","","","6","","","","","","","","",""
"null","250371","SARL_v6","SARL_v61ymvgvxp","5eb32b8adc8fc511560fca82","fixation","","","img/fixation.png","null","","","test","","","","","","","","","","","","","","","","","","","",""
"371.09999999403954","250746","SARL_v6","SARL_v61ymvgvxp","5eb32b8adc8fc511560fca82","infreq","","","img/orange_2bandit_b2.png","68","","68","test","1","","122","","","","circle","square","117","5","6","0.9572649572649573","","","","","","","",""
"null","251186","SARL_v6","SARL_v61ymvgvxp","5eb32b8adc8fc511560fca82","infreq_resp","","","img/orange_2bandit_b.png","68","img/orange_2bandit_b.png","68","test","","","","","","","","","","","6","","","","","","","","",""
"null","251346","SARL_v6","SARL_v61ymvgvxp","5eb32b8adc8fc511560fca82","fixation","","","img/fixation.png","null","","","test","","","","","","","","","","","","","","","","","","","",""
"259","251609","SARL_v6","SARL_v61ymvgvxp","5eb32b8adc8fc511560fca82","infreq","","","img/orange_2bandit_b2.png","70","","68","test","0","","123","","","","circle","square","118","6","6","0.9491525423728814","","","","","","","",""
"null","252161","SARL_v6","SARL_v61ymvgvxp","5eb32b8adc8fc511560fca82","infreq_resp","","","img/orange_2bandit_b.png","70","img/orange_2bandit_b.png","68","test","","","","","","","","","","","6","","","","","","","","",""
"null","252325","SARL_v6","SARL_v61ymvgvxp","5eb32b8adc8fc511560fca82","fixation","","","img/fixation.png","null","","","test","","","","","","","","","","","","","","","","","","","",""
"334.3999999985099","252664","SARL_v6","SARL_v61ymvgvxp","5eb32b8adc8fc511560fca82","freq","","","img/blue_2bandit_b2.png","68","","70","test","0","","124","","","","circle","square","119","7","6","0.9411764705882353","","","","","","","",""
"null","253144","SARL_v6","SARL_v61ymvgvxp","5eb32b8adc8fc511560fca82","freq_resp","","","img/blue_2bandit_b.png","68","img/blue_2bandit_b.png","70","test","","","","","","","","","","","6","","","","","","","","",""
"null","253304","SARL_v6","SARL_v61ymvgvxp","5eb32b8adc8fc511560fca82","fixation","","","img/fixation.png","null","","","test","","","","","","","","","","","","","","","","","","","",""
"268.1000000014901","253577","SARL_v6","SARL_v61ymvgvxp","5eb32b8adc8fc511560fca82","freq","","","img/blue_2bandit_b2.png","70","","70","test","1","","125","","","","circle","square","120","8","6","0.9416666666666667","","","","","","","",""
"null","254115","SARL_v6","SARL_v61ymvgvxp","5eb32b8adc8fc511560fca82","freq_resp","","","img/blue_2bandit_b.png","70","img/blue_2bandit_b.png","70","test","","","","","","","","","","","6","","","","","","","","",""
"null","254283","SARL_v6","SARL_v61ymvgvxp","5eb32b8adc8fc511560fca82","fixation","","","img/fixation.png","null","","","test","","","","","","","","","","","","","","","","","","","",""
"199.40000000596046","254486","SARL_v6","SARL_v61ymvgvxp","5eb32b8adc8fc511560fca82","freq","","","img/blue_2bandit_b2.png","70","","70","test","1","","126","","","","circle","square","121","9","6","0.9421487603305785","","","","","","","",""
"null","255094","SARL_v6","SARL_v61ymvgvxp","5eb32b8adc8fc511560fca82","freq_resp","","","img/blue_2bandit_b.png","70","img/blue_2bandit_b.png","70","test","","","","","","","","","","","6","","","","","","","","",""
"null","255258","SARL_v6","SARL_v61ymvgvxp","5eb32b8adc8fc511560fca82","fixation","","","img/fixation.png","null","","","test","","","","","","","","","","","","","","","","","","","",""
"192.60000000149012","255455","SARL_v6","SARL_v61ymvgvxp","5eb32b8adc8fc511560fca82","freq","","","img/blue_2bandit_b2.png","70","","70","test","1","","127","","","","circle","square","122","10","6","0.9426229508196722","","","","","","","",""
"null","256070","SARL_v6","SARL_v61ymvgvxp","5eb32b8adc8fc511560fca82","freq_resp","","","img/blue_2bandit_b.png","70","img/blue_2bandit_b.png","70","test","","","","","","","","","","","6","","","","","","","","",""
"null","256229","SARL_v6","SARL_v61ymvgvxp","5eb32b8adc8fc511560fca82","fixation","","","img/fixation.png","null","","","test","","","","","","","","","","","","","","","","","","","",""
"146.19999999552965","256380","SARL_v6","SARL_v61ymvgvxp","5eb32b8adc8fc511560fca82","freq","","","img/blue_2bandit_b2.png","70","","70","test","1","","128","","","","circle","square","123","11","6","0.943089430894309","","","","","","","",""
"null","257045","SARL_v6","SARL_v61ymvgvxp","5eb32b8adc8fc511560fca82","freq_resp","","","img/blue_2bandit_b.png","70","img/blue_2bandit_b.png","70","test","","","","","","","","","","","6","","","","","","","","",""
"null","257205","SARL_v6","SARL_v61ymvgvxp","5eb32b8adc8fc511560fca82","fixation","","","img/fixation.png","null","","","test","","","","","","","","","","","","","","","","","","","",""
"101.79999999701977","257311","SARL_v6","SARL_v61ymvgvxp","5eb32b8adc8fc511560fca82","freq","","","img/blue_2bandit_b2.png","70","","70","test","1","","129","","","","circle","square","124","12","6","0.9435483870967742","","","","","","","",""
"null","258024","SARL_v6","SARL_v61ymvgvxp","5eb32b8adc8fc511560fca82","freq_resp","","","img/blue_2bandit_b.png","70","img/blue_2bandit_b.png","70","test","","","","","","","","","","","6","","","","","","","","",""
