"rt","time_elapsed","expId","subject","prolificID","trialType","rlType","attType","stimulus","key_press","stim","corrresp","phase","corr","pracCounter","trialNum","rewardOne","rewardTwo","reward","bandOne","bandTwo","attentionNum","attentionRunNum","blockNum","performance","bandChosen","circleVal","squareVal","bandOneVal","bandTwoVal","shapeChosen","rlNum","badFlag"
"15031","15033","SARL_v6","SARL_v6fxtj8en1","63f78d9a7a3d118594efff74","","","","","","","","","","","","","","","","","","","","","","","","","","","",""
"","17088","SARL_v6","SARL_v6fxtj8en1","63f78d9a7a3d118594efff74","fullscreen","fullscreen","fullscreen","","","","","","","","","","","","","","","","","","","","","","","","",""
"166591.29999999702","183682","SARL_v6","SARL_v6fxtj8en1","63f78d9a7a3d118594efff74","","","","","","","","","","","","","","","","","","","","","","","","","","","",""
"775.4000000059605","184464","SARL_v6","SARL_v6fxtj8en1","63f78d9a7a3d118594efff74","freqPrac","","","img/orange_2bandit_b2.png","70","img/orange_2bandit_b2.png","70","prac","1","0","","","","","","","","","","","","","","","","","",""
"775.4000000059605","184493","SARL_v6","SARL_v6fxtj8en1","63f78d9a7a3d118594efff74","freqPrac_resp","","","img/orange_2bandit_b.png","70","img/orange_2bandit_b.png","70","prac","","","","","","","","","","","","","","","","","","","",""
"null","184661","SARL_v6","SARL_v6fxtj8en1","63f78d9a7a3d118594efff74","fixation","","","img/fixation.png","null","","","prac","","","","","","","","","","","","","","","","","","","",""
"756.2999999970198","185422","SARL_v6","SARL_v6fxtj8en1","63f78d9a7a3d118594efff74","infreqPrac","","","img/blue_2bandit_b2.png","68","img/blue_2bandit_b2.png","68","prac","1","0","","","","","","","","","","","","","","","","","",""
"756.2999999970198","185485","SARL_v6","SARL_v6fxtj8en1","63f78d9a7a3d118594efff74","infreqPrac_resp","","","img/blue_2bandit_b.png","68","img/blue_2bandit_b.png","68","prac","","","","","","","","","","","","","","","","","","","",""
"null","185643","SARL_v6","SARL_v6fxtj8en1","63f78d9a7a3d118594efff74","fixation","","","img/fixation.png","null","","","prac","","","","","","","","","","","","","","","","","","","",""
"473.3999999910593","186121","SARL_v6","SARL_v6fxtj8en1","63f78d9a7a3d118594efff74","freqPrac","","","img/orange_2bandit_b2.png","70","img/orange_2bandit_b2.png","70","prac","1","0","","","","","","","","","","","","","","","","","",""
"473.3999999910593","186464","SARL_v6","SARL_v6fxtj8en1","63f78d9a7a3d118594efff74","freqPrac_resp","","","img/orange_2bandit_b.png","70","img/orange_2bandit_b.png","70","prac","","","","","","","","","","","","","","","","","","","",""
"null","186620","SARL_v6","SARL_v6fxtj8en1","63f78d9a7a3d118594efff74","fixation","","","img/fixation.png","null","","","prac","","","","","","","","","","","","","","","","","","","",""
"729.0999999940395","187354","SARL_v6","SARL_v6fxtj8en1","63f78d9a7a3d118594efff74","infreqPrac","","","img/blue_2bandit_b2.png","68","img/blue_2bandit_b2.png","68","prac","1","0","","","","","","","","","","","","","","","","","",""
"729.0999999940395","187429","SARL_v6","SARL_v6fxtj8en1","63f78d9a7a3d118594efff74","infreqPrac_resp","","","img/blue_2bandit_b.png","68","img/blue_2bandit_b.png","68","prac","","","","","","","","","","","","","","","","","","","",""
"null","187590","SARL_v6","SARL_v6fxtj8en1","63f78d9a7a3d118594efff74","fixation","","","img/fixation.png","null","","","prac","","","","","","","","","","","","","","","","","","","",""
"456.09999999403954","188051","SARL_v6","SARL_v6fxtj8en1","63f78d9a7a3d118594efff74","infreqPrac","","","img/blue_2bandit_b2.png","68","img/blue_2bandit_b2.png","68","prac","1","0","","","","","","","","","","","","","","","","","",""
"456.09999999403954","188408","SARL_v6","SARL_v6fxtj8en1","63f78d9a7a3d118594efff74","infreqPrac_resp","","","img/blue_2bandit_b.png","68","img/blue_2bandit_b.png","68","prac","","","","","","","","","","","","","","","","","","","",""
"null","188577","SARL_v6","SARL_v6fxtj8en1","63f78d9a7a3d118594efff74","fixation","","","img/fixation.png","null","","","prac","","","","","","","","","","","","","","","","","","","",""
"384","188965","SARL_v6","SARL_v6fxtj8en1","63f78d9a7a3d118594efff74","infreqPrac","","","img/blue_2bandit_b2.png","68","img/blue_2bandit_b2.png","68","prac","1","0","","","","","","","","","","","","","","","","","",""
"384","189396","SARL_v6","SARL_v6fxtj8en1","63f78d9a7a3d118594efff74","infreqPrac_resp","","","img/blue_2bandit_b.png","68","img/blue_2bandit_b.png","68","prac","","","","","","","","","","","","","","","","","","","",""
"null","189566","SARL_v6","SARL_v6fxtj8en1","63f78d9a7a3d118594efff74","fixation","","","img/fixation.png","null","","","prac","","","","","","","","","","","","","","","","","","","",""
"473.90000000596046","190045","SARL_v6","SARL_v6fxtj8en1","63f78d9a7a3d118594efff74","freqPrac","","","img/orange_2bandit_b2.png","70","img/orange_2bandit_b2.png","70","prac","1","0","","","","","","","","","","","","","","","","","",""
"473.90000000596046","190389","SARL_v6","SARL_v6fxtj8en1","63f78d9a7a3d118594efff74","freqPrac_resp","","","img/orange_2bandit_b.png","70","img/orange_2bandit_b.png","70","prac","","","","","","","","","","","","","","","","","","","",""
"null","190544","SARL_v6","SARL_v6fxtj8en1","63f78d9a7a3d118594efff74","fixation","","","img/fixation.png","null","","","prac","","","","","","","","","","","","","","","","","","","",""
"350.8999999910593","190900","SARL_v6","SARL_v6fxtj8en1","63f78d9a7a3d118594efff74","infreqPrac","","","img/blue_2bandit_b2.png","70","img/blue_2bandit_b2.png","68","prac","0","1","","","","","","","","","","","","","","","","","",""
"350.8999999910593","191367","SARL_v6","SARL_v6fxtj8en1","63f78d9a7a3d118594efff74","infreqPrac_resp","","","img/blue_2bandit_b.png","70","img/blue_2bandit_b.png","68","prac","","","","","","","","","","","","","","","","","","","",""
"null","192374","SARL_v6","SARL_v6fxtj8en1","63f78d9a7a3d118594efff74","feedback","","","img/wrongKey.png","null","","na","prac","","","","","","","","","","","","","","","","","","","",""
"null","192531","SARL_v6","SARL_v6fxtj8en1","63f78d9a7a3d118594efff74","fixation","","","img/fixation.png","null","","","prac","","","","","","","","","","","","","","","","","","","",""
"null","193336","SARL_v6","SARL_v6fxtj8en1","63f78d9a7a3d118594efff74","freqPrac","","","img/orange_2bandit_b2.png","null","img/orange_2bandit_b2.png","70","prac","0","2","","","","","","","","","","","","","","","","","",""
"null","194344","SARL_v6","SARL_v6fxtj8en1","63f78d9a7a3d118594efff74","feedback","","","img/tooSlow.png","null","","na","prac","","","","","","","","","","","","","","","","","","","",""
"null","194500","SARL_v6","SARL_v6fxtj8en1","63f78d9a7a3d118594efff74","fixation","","","img/fixation.png","null","","","prac","","","","","","","","","","","","","","","","","","","",""
"375.5","194881","SARL_v6","SARL_v6fxtj8en1","63f78d9a7a3d118594efff74","freqPrac","","","img/orange_2bandit_b2.png","70","img/orange_2bandit_b2.png","70","prac","1","2","","","","","","","","","","","","","","","","","",""
"375.5","195320","SARL_v6","SARL_v6fxtj8en1","63f78d9a7a3d118594efff74","freqPrac_resp","","","img/orange_2bandit_b.png","70","img/orange_2bandit_b.png","70","prac","","","","","","","","","","","","","","","","","","","",""
"null","195491","SARL_v6","SARL_v6fxtj8en1","63f78d9a7a3d118594efff74","fixation","","","img/fixation.png","null","","","prac","","","","","","","","","","","","","","","","","","","",""
"186950.90000000596","382444","SARL_v6","SARL_v6fxtj8en1","63f78d9a7a3d118594efff74","","","","","","","","prac","","","","","","","","","","","","","","","","","","","",""
"947.3999999910593","383396","SARL_v6","SARL_v6fxtj8en1","63f78d9a7a3d118594efff74","rlPractice","","","img/black_2bandit_b2.png","74","img/black_2bandit_b2.png","","prac","","","0","","","","","","","","","","","","","","","","",""
"null","384167","SARL_v6","SARL_v6fxtj8en1","63f78d9a7a3d118594efff74","feedback","","","<div class=""veryhighPoints""> 10 </div>","null","","na","prac","","","1","10","-14","10","","","","","","","","","","","","","",""
"null","384335","SARL_v6","SARL_v6fxtj8en1","63f78d9a7a3d118594efff74","fixation","","","img/fixation.png","null","","","prac","","","","","","","","","","","","","","","","","","","",""
"650.8000000119209","384991","SARL_v6","SARL_v6fxtj8en1","63f78d9a7a3d118594efff74","rlPractice","","","img/black_2bandit_b2.png","74","img/black_2bandit_b2.png","","prac","","","1","","","","","","","","","","","","","","","","",""
"null","385759","SARL_v6","SARL_v6fxtj8en1","63f78d9a7a3d118594efff74","feedback","","","<div class=""veryhighPoints""> 5 </div>","null","","na","prac","","","2","5","-5","5","","","","","","","","","","","","","",""
"null","385915","SARL_v6","SARL_v6fxtj8en1","63f78d9a7a3d118594efff74","fixation","","","img/fixation.png","null","","","prac","","","","","","","","","","","","","","","","","","","",""
"469.8999999910593","386389","SARL_v6","SARL_v6fxtj8en1","63f78d9a7a3d118594efff74","rlPractice","","","img/black_2bandit_b2.png","74","img/black_2bandit_b2.png","","prac","","","2","","","","","","","","","","","","","","","","",""
"null","387154","SARL_v6","SARL_v6fxtj8en1","63f78d9a7a3d118594efff74","feedback","","","<div class=""veryhighPoints""> 30 </div>","null","","na","prac","","","3","30","2","30","","","","","","","","","","","","","",""
"null","387323","SARL_v6","SARL_v6fxtj8en1","63f78d9a7a3d118594efff74","fixation","","","img/fixation.png","null","","","prac","","","","","","","","","","","","","","","","","","","",""
"388.5","387716","SARL_v6","SARL_v6fxtj8en1","63f78d9a7a3d118594efff74","rlPractice","","","img/black_2bandit_b2.png","75","img/black_2bandit_b2.png","","prac","","","3","","","","","","","","","","","","","","","","",""
"null","388473","SARL_v6","SARL_v6fxtj8en1","63f78d9a7a3d118594efff74","feedback","","","<div class=""veryhighPoints_sq""> 20 </div>","null","","na","prac","","","4","-2","20","-2","","","","","","","","","","","","","",""
"null","388640","SARL_v6","SARL_v6fxtj8en1","63f78d9a7a3d118594efff74","fixation","","","img/fixation.png","null","","","prac","","","","","","","","","","","","","","","","","","","",""
"16596.70000000298","405240","SARL_v6","SARL_v6fxtj8en1","63f78d9a7a3d118594efff74","","","","","","","","prac","","","","","","","","","","","","","","","","","","","",""
"null","406049","SARL_v6","SARL_v6fxtj8en1","63f78d9a7a3d118594efff74","mixAttFreqPrac","","","img/orange_2bandit_b2.png","null","img/orange_2bandit_b2.png","70","prac","","","1","","","","","","","","","","","","","","","","",""
"105.80000001192093","406218","SARL_v6","SARL_v6fxtj8en1","63f78d9a7a3d118594efff74","fixation","","","img/fixation.png","70","","","prac","","","","","","","","","","","","","","","","","","","",""
"null","407029","SARL_v6","SARL_v6fxtj8en1","63f78d9a7a3d118594efff74","mixAttInfreqPrac","","","img/blue_2bandit_b2.png","null","img/blue_2bandit_b2.png","68","prac","","","2","","","","","","","","","","","","","","","","",""
"39.20000000298023","407200","SARL_v6","SARL_v6fxtj8en1","63f78d9a7a3d118594efff74","fixation","","","img/fixation.png","68","","","prac","","","","","","","","","","","","","","","","","","","",""
"637.7000000029802","407842","SARL_v6","SARL_v6fxtj8en1","63f78d9a7a3d118594efff74","mixAttInfreqPrac","","","img/blue_2bandit_b2.png","68","img/blue_2bandit_b2.png","68","prac","","","3","","","","","","","","","","","","","","","","",""
"637.7000000029802","408022","SARL_v6","SARL_v6fxtj8en1","63f78d9a7a3d118594efff74","infreqPrac_resp","","","img/blue_2bandit_b.png","68","img/orange_2bandit_b.png","68","prac","","","3","","","","","","","","","","","","","","","","",""
"null","408190","SARL_v6","SARL_v6fxtj8en1","63f78d9a7a3d118594efff74","fixation","","","img/fixation.png","null","","","prac","","","","","","","","","","","","","","","","","","","",""
"449.09999999403954","408643","SARL_v6","SARL_v6fxtj8en1","63f78d9a7a3d118594efff74","mixAttInfreqPrac","","","img/blue_2bandit_b2.png","68","img/blue_2bandit_b2.png","68","prac","","","4","","","","","","","","","","","","","","","","",""
"449.09999999403954","408997","SARL_v6","SARL_v6fxtj8en1","63f78d9a7a3d118594efff74","infreqPrac_resp","","","img/blue_2bandit_b.png","68","img/orange_2bandit_b.png","68","prac","","","4","","","","","","","","","","","","","","","","",""
"null","409153","SARL_v6","SARL_v6fxtj8en1","63f78d9a7a3d118594efff74","fixation","","","img/fixation.png","null","","","prac","","","","","","","","","","","","","","","","","","","",""
"533.3000000119209","409691","SARL_v6","SARL_v6fxtj8en1","63f78d9a7a3d118594efff74","mixAttFreqPrac","","","img/orange_2bandit_b2.png","70","img/orange_2bandit_b2.png","70","prac","","","5","","","","","","","","","","","","","","","","",""
"533.3000000119209","409976","SARL_v6","SARL_v6fxtj8en1","63f78d9a7a3d118594efff74","freqPrac_resp","","","img/orange_2bandit_b.png","70","img/orange_2bandit_b.png","70","prac","","","5","","","","","","","","","","","","","","","","",""
"null","410131","SARL_v6","SARL_v6fxtj8en1","63f78d9a7a3d118594efff74","fixation","","","img/fixation.png","null","","","prac","","","","","","","","","","","","","","","","","","","",""
"668.4000000059605","410803","SARL_v6","SARL_v6fxtj8en1","63f78d9a7a3d118594efff74","mixRLPractice","","","img/black_2bandit_b2.png","74","img/black_2bandit_b2.png","","prac","","","5","","","","","","","","","","","","","","","","",""
"null","411559","SARL_v6","SARL_v6fxtj8en1","63f78d9a7a3d118594efff74","feedback","","","<div class=""verylowPoints""> -14 </div>","null","","na","prac","","","6","-14","10","-14","","","","","","","","","","","","","",""
"null","411714","SARL_v6","SARL_v6fxtj8en1","63f78d9a7a3d118594efff74","fixation","","","img/fixation.png","null","","","prac","","","","","","","","","","","","","","","","","","","",""
"795.0999999940395","412514","SARL_v6","SARL_v6fxtj8en1","63f78d9a7a3d118594efff74","mixAttFreqPrac","","","img/orange_2bandit_b2.png","68","img/orange_2bandit_b2.png","70","prac","","","7","","","","","","","","","","","","","","","","",""
"795.0999999940395","412522","SARL_v6","SARL_v6fxtj8en1","63f78d9a7a3d118594efff74","freqPrac_resp","","","img/orange_2bandit_b.png","68","img/orange_2bandit_b.png","70","prac","","","7","","","","","","","","","","","","","","","","",""
"null","412678","SARL_v6","SARL_v6fxtj8en1","63f78d9a7a3d118594efff74","fixation","","","img/fixation.png","null","","","prac","","","","","","","","","","","","","","","","","","","",""
"null","413487","SARL_v6","SARL_v6fxtj8en1","63f78d9a7a3d118594efff74","mixAttInfreqPrac","","","img/blue_2bandit_b2.png","null","img/blue_2bandit_b2.png","68","prac","","","8","","","","","","","","","","","","","","","","",""
"46.400000005960464","413641","SARL_v6","SARL_v6fxtj8en1","63f78d9a7a3d118594efff74","fixation","","","img/fixation.png","68","","","prac","","","","","","","","","","","","","","","","","","","",""
"697.3999999910593","414342","SARL_v6","SARL_v6fxtj8en1","63f78d9a7a3d118594efff74","mixAttFreqPrac","","","img/orange_2bandit_b2.png","70","img/orange_2bandit_b2.png","70","prac","","","9","","","","","","","","","","","","","","","","",""
"697.3999999910593","414450","SARL_v6","SARL_v6fxtj8en1","63f78d9a7a3d118594efff74","freqPrac_resp","","","img/orange_2bandit_b.png","70","img/orange_2bandit_b.png","70","prac","","","9","","","","","","","","","","","","","","","","",""
"null","414619","SARL_v6","SARL_v6fxtj8en1","63f78d9a7a3d118594efff74","fixation","","","img/fixation.png","null","","","prac","","","","","","","","","","","","","","","","","","","",""
"631.2999999970198","415256","SARL_v6","SARL_v6fxtj8en1","63f78d9a7a3d118594efff74","mixAttFreqPrac","","","img/orange_2bandit_b2.png","70","img/orange_2bandit_b2.png","70","prac","","","10","","","","","","","","","","","","","","","","",""
"631.2999999970198","415441","SARL_v6","SARL_v6fxtj8en1","63f78d9a7a3d118594efff74","freqPrac_resp","","","img/orange_2bandit_b.png","70","img/orange_2bandit_b.png","70","prac","","","10","","","","","","","","","","","","","","","","",""
"null","415611","SARL_v6","SARL_v6fxtj8en1","63f78d9a7a3d118594efff74","fixation","","","img/fixation.png","null","","","prac","","","","","","","","","","","","","","","","","","","",""
"564.5999999940395","416180","SARL_v6","SARL_v6fxtj8en1","63f78d9a7a3d118594efff74","mixAttInfreqPrac","","","img/blue_2bandit_b2.png","68","img/blue_2bandit_b2.png","68","prac","","","11","","","","","","","","","","","","","","","","",""
"564.5999999940395","416422","SARL_v6","SARL_v6fxtj8en1","63f78d9a7a3d118594efff74","infreqPrac_resp","","","img/blue_2bandit_b.png","68","img/orange_2bandit_b.png","68","prac","","","11","","","","","","","","","","","","","","","","",""
"null","416591","SARL_v6","SARL_v6fxtj8en1","63f78d9a7a3d118594efff74","fixation","","","img/fixation.png","null","","","prac","","","","","","","","","","","","","","","","","","","",""
"1021.2999999970198","417616","SARL_v6","SARL_v6fxtj8en1","63f78d9a7a3d118594efff74","mixRLPractice","","","img/black_2bandit_b2.png","75","img/black_2bandit_b2.png","","prac","","","11","","","","","","","","","","","","","","","","",""
"null","418376","SARL_v6","SARL_v6fxtj8en1","63f78d9a7a3d118594efff74","feedback","","","<div class=""verylowPoints_sq""> -5 </div>","null","","na","prac","","","12","5","-5","5","","","","","","","","","","","","","",""
"null","418532","SARL_v6","SARL_v6fxtj8en1","63f78d9a7a3d118594efff74","fixation","","","img/fixation.png","null","","","prac","","","","","","","","","","","","","","","","","","","",""
"7291.20000000298","425826","SARL_v6","SARL_v6fxtj8en1","63f78d9a7a3d118594efff74","","","","","","","","prac","","","","","","","","","","","","","","","","","","","",""
"786","426616","SARL_v6","SARL_v6fxtj8en1","63f78d9a7a3d118594efff74","freq","","","img/orange_2bandit_b2.png","70","","70","test","1","","1","","","","circle","square","1","1","1","1","","","","","","","",""
"null","426632","SARL_v6","SARL_v6fxtj8en1","63f78d9a7a3d118594efff74","freq_resp","","","img/orange_2bandit_b.png","70","img/orange_2bandit_b.png","70","test","","","","","","","","","","","1","","","","","","","","",""
"null","426793","SARL_v6","SARL_v6fxtj8en1","63f78d9a7a3d118594efff74","fixation","","","img/fixation.png","null","","","test","","","","","","","","","","","","","","","","","","","",""
"450.29999999701977","427248","SARL_v6","SARL_v6fxtj8en1","63f78d9a7a3d118594efff74","freq","","","img/orange_2bandit_b2.png","70","","70","test","1","","2","","","","circle","square","2","2","1","1","","","","","","","",""
"null","427613","SARL_v6","SARL_v6fxtj8en1","63f78d9a7a3d118594efff74","freq_resp","","","img/orange_2bandit_b.png","70","img/orange_2bandit_b.png","70","test","","","","","","","","","","","1","","","","","","","","",""
"null","427769","SARL_v6","SARL_v6fxtj8en1","63f78d9a7a3d118594efff74","fixation","","","img/fixation.png","null","","","test","","","","","","","","","","","","","","","","","","","",""
"394.59999999403954","428168","SARL_v6","SARL_v6fxtj8en1","63f78d9a7a3d118594efff74","freq","","","img/orange_2bandit_b2.png","70","","70","test","1","","3","","","","circle","square","3","3","1","1","","","","","","","",""
"null","428580","SARL_v6","SARL_v6fxtj8en1","63f78d9a7a3d118594efff74","freq_resp","","","img/orange_2bandit_b.png","70","img/orange_2bandit_b.png","70","test","","","","","","","","","","","1","","","","","","","","",""
"null","428735","SARL_v6","SARL_v6fxtj8en1","63f78d9a7a3d118594efff74","fixation","","","img/fixation.png","null","","","test","","","","","","","","","","","","","","","","","","","",""
"337.90000000596046","429078","SARL_v6","SARL_v6fxtj8en1","63f78d9a7a3d118594efff74","freq","","","img/orange_2bandit_b2.png","70","","70","test","1","","4","","","","circle","square","4","4","1","1","","","","","","","",""
"null","429557","SARL_v6","SARL_v6fxtj8en1","63f78d9a7a3d118594efff74","freq_resp","","","img/orange_2bandit_b.png","70","img/orange_2bandit_b.png","70","test","","","","","","","","","","","1","","","","","","","","",""
"null","429712","SARL_v6","SARL_v6fxtj8en1","63f78d9a7a3d118594efff74","fixation","","","img/fixation.png","null","","","test","","","","","","","","","","","","","","","","","","","",""
"383.3999999910593","430100","SARL_v6","SARL_v6fxtj8en1","63f78d9a7a3d118594efff74","freq","","","img/orange_2bandit_b2.png","70","","70","test","1","","5","","","","circle","square","5","5","1","1","","","","","","","",""
"null","430533","SARL_v6","SARL_v6fxtj8en1","63f78d9a7a3d118594efff74","freq_resp","","","img/orange_2bandit_b.png","70","img/orange_2bandit_b.png","70","test","","","","","","","","","","","1","","","","","","","","",""
"null","430690","SARL_v6","SARL_v6fxtj8en1","63f78d9a7a3d118594efff74","fixation","","","img/fixation.png","null","","","test","","","","","","","","","","","","","","","","","","","",""
"345.29999999701977","431040","SARL_v6","SARL_v6fxtj8en1","63f78d9a7a3d118594efff74","freq","","","img/orange_2bandit_b2.png","70","","70","test","1","","6","","","","circle","square","6","6","1","1","","","","","","","",""
"null","431511","SARL_v6","SARL_v6fxtj8en1","63f78d9a7a3d118594efff74","freq_resp","","","img/orange_2bandit_b.png","70","img/orange_2bandit_b.png","70","test","","","","","","","","","","","1","","","","","","","","",""
"null","431667","SARL_v6","SARL_v6fxtj8en1","63f78d9a7a3d118594efff74","fixation","","","img/fixation.png","null","","","test","","","","","","","","","","","","","","","","","","","",""
"301.40000000596046","431974","SARL_v6","SARL_v6fxtj8en1","63f78d9a7a3d118594efff74","freq","","","img/orange_2bandit_b2.png","70","","70","test","1","","7","","","","circle","square","7","7","1","1","","","","","","","",""
"null","432485","SARL_v6","SARL_v6fxtj8en1","63f78d9a7a3d118594efff74","freq_resp","","","img/orange_2bandit_b.png","70","img/orange_2bandit_b.png","70","test","","","","","","","","","","","1","","","","","","","","",""
"null","432638","SARL_v6","SARL_v6fxtj8en1","63f78d9a7a3d118594efff74","fixation","","","img/fixation.png","null","","","test","","","","","","","","","","","","","","","","","","","",""
"293.80000001192093","432936","SARL_v6","SARL_v6fxtj8en1","63f78d9a7a3d118594efff74","freq","","","img/orange_2bandit_b2.png","70","","70","test","1","","8","","","","circle","square","8","8","1","1","","","","","","","",""
"null","433449","SARL_v6","SARL_v6fxtj8en1","63f78d9a7a3d118594efff74","freq_resp","","","img/orange_2bandit_b.png","70","img/orange_2bandit_b.png","70","test","","","","","","","","","","","1","","","","","","","","",""
"null","433604","SARL_v6","SARL_v6fxtj8en1","63f78d9a7a3d118594efff74","fixation","","","img/fixation.png","null","","","test","","","","","","","","","","","","","","","","","","","",""
"253.09999999403954","433862","SARL_v6","SARL_v6fxtj8en1","63f78d9a7a3d118594efff74","freq","","","img/orange_2bandit_b2.png","70","","70","test","1","","9","","","","circle","square","9","9","1","1","","","","","","","",""
"null","434421","SARL_v6","SARL_v6fxtj8en1","63f78d9a7a3d118594efff74","freq_resp","","","img/orange_2bandit_b.png","70","img/orange_2bandit_b.png","70","test","","","","","","","","","","","1","","","","","","","","",""
"null","434576","SARL_v6","SARL_v6fxtj8en1","63f78d9a7a3d118594efff74","fixation","","","img/fixation.png","null","","","test","","","","","","","","","","","","","","","","","","","",""
"266","434846","SARL_v6","SARL_v6fxtj8en1","63f78d9a7a3d118594efff74","freq","","","img/orange_2bandit_b2.png","70","","70","test","1","","10","","","","circle","square","10","10","1","1","","","","","","","",""
"null","435388","SARL_v6","SARL_v6fxtj8en1","63f78d9a7a3d118594efff74","freq_resp","","","img/orange_2bandit_b.png","70","img/orange_2bandit_b.png","70","test","","","","","","","","","","","1","","","","","","","","",""
"null","435543","SARL_v6","SARL_v6fxtj8en1","63f78d9a7a3d118594efff74","fixation","","","img/fixation.png","null","","","test","","","","","","","","","","","","","","","","","","","",""
"245","435792","SARL_v6","SARL_v6fxtj8en1","63f78d9a7a3d118594efff74","freq","","","img/orange_2bandit_b2.png","70","","70","test","1","","11","","","","circle","square","11","11","1","1","","","","","","","",""
"null","436363","SARL_v6","SARL_v6fxtj8en1","63f78d9a7a3d118594efff74","freq_resp","","","img/orange_2bandit_b.png","70","img/orange_2bandit_b.png","70","test","","","","","","","","","","","1","","","","","","","","",""
"null","436518","SARL_v6","SARL_v6fxtj8en1","63f78d9a7a3d118594efff74","fixation","","","img/fixation.png","null","","","test","","","","","","","","","","","","","","","","","","","",""
"573.7999999970198","437096","SARL_v6","SARL_v6fxtj8en1","63f78d9a7a3d118594efff74","infreq","","","img/blue_2bandit_b2.png","68","","68","test","1","","12","","","","circle","square","12","12","1","1","","","","","","","",""
"null","437335","SARL_v6","SARL_v6fxtj8en1","63f78d9a7a3d118594efff74","infreq_resp","","","img/blue_2bandit_b.png","68","img/blue_2bandit_b.png","68","test","","","","","","","","","","","1","","","","","","","","",""
"null","437506","SARL_v6","SARL_v6fxtj8en1","63f78d9a7a3d118594efff74","fixation","","","img/fixation.png","null","","","test","","","","","","","","","","","","","","","","","","","",""
"419","437930","SARL_v6","SARL_v6fxtj8en1","63f78d9a7a3d118594efff74","freq","","","img/orange_2bandit_b2.png","70","","70","test","1","","13","","","","circle","square","13","13","1","1","","","","","","","",""
"null","438327","SARL_v6","SARL_v6fxtj8en1","63f78d9a7a3d118594efff74","freq_resp","","","img/orange_2bandit_b.png","70","img/orange_2bandit_b.png","70","test","","","","","","","","","","","1","","","","","","","","",""
"null","438496","SARL_v6","SARL_v6fxtj8en1","63f78d9a7a3d118594efff74","fixation","","","img/fixation.png","null","","","test","","","","","","","","","","","","","","","","","","","",""
"324.70000000298023","438826","SARL_v6","SARL_v6fxtj8en1","63f78d9a7a3d118594efff74","freq","","","img/orange_2bandit_b2.png","70","","70","test","1","","14","","","","circle","square","14","14","1","1","","","","","","","",""
"null","439320","SARL_v6","SARL_v6fxtj8en1","63f78d9a7a3d118594efff74","freq_resp","","","img/orange_2bandit_b.png","70","img/orange_2bandit_b.png","70","test","","","","","","","","","","","1","","","","","","","","",""
"null","439475","SARL_v6","SARL_v6fxtj8en1","63f78d9a7a3d118594efff74","fixation","","","img/fixation.png","null","","","test","","","","","","","","","","","","","","","","","","","",""
"309","439789","SARL_v6","SARL_v6fxtj8en1","63f78d9a7a3d118594efff74","freq","","","img/orange_2bandit_b2.png","70","","70","test","1","","15","","","","circle","square","15","15","1","1","","","","","","","",""
"null","440300","SARL_v6","SARL_v6fxtj8en1","63f78d9a7a3d118594efff74","freq_resp","","","img/orange_2bandit_b.png","70","img/orange_2bandit_b.png","70","test","","","","","","","","","","","1","","","","","","","","",""
"null","440455","SARL_v6","SARL_v6fxtj8en1","63f78d9a7a3d118594efff74","fixation","","","img/fixation.png","null","","","test","","","","","","","","","","","","","","","","","","","",""
"267.20000000298023","440727","SARL_v6","SARL_v6fxtj8en1","63f78d9a7a3d118594efff74","freq","","","img/orange_2bandit_b2.png","70","","70","test","1","","16","","","","circle","square","16","16","1","1","","","","","","","",""
"null","441276","SARL_v6","SARL_v6fxtj8en1","63f78d9a7a3d118594efff74","freq_resp","","","img/orange_2bandit_b.png","70","img/orange_2bandit_b.png","70","test","","","","","","","","","","","1","","","","","","","","",""
"null","441446","SARL_v6","SARL_v6fxtj8en1","63f78d9a7a3d118594efff74","fixation","","","img/fixation.png","null","","","test","","","","","","","","","","","","","","","","","","","",""
"269.40000000596046","441721","SARL_v6","SARL_v6fxtj8en1","63f78d9a7a3d118594efff74","freq","","","img/orange_2bandit_b2.png","70","","70","test","1","","17","","","","circle","square","17","17","1","1","","","","","","","",""
"null","442269","SARL_v6","SARL_v6fxtj8en1","63f78d9a7a3d118594efff74","freq_resp","","","img/orange_2bandit_b.png","70","img/orange_2bandit_b.png","70","test","","","","","","","","","","","1","","","","","","","","",""
"null","442424","SARL_v6","SARL_v6fxtj8en1","63f78d9a7a3d118594efff74","fixation","","","img/fixation.png","null","","","test","","","","","","","","","","","","","","","","","","","",""
"274.3999999910593","442704","SARL_v6","SARL_v6fxtj8en1","63f78d9a7a3d118594efff74","freq","","","img/orange_2bandit_b2.png","70","","70","test","1","","18","","","","circle","square","18","18","1","1","","","","","","","",""
"null","443246","SARL_v6","SARL_v6fxtj8en1","63f78d9a7a3d118594efff74","freq_resp","","","img/orange_2bandit_b.png","70","img/orange_2bandit_b.png","70","test","","","","","","","","","","","1","","","","","","","","",""
"null","443416","SARL_v6","SARL_v6fxtj8en1","63f78d9a7a3d118594efff74","fixation","","","img/fixation.png","null","","","test","","","","","","","","","","","","","","","","","","","",""
"259","443679","SARL_v6","SARL_v6fxtj8en1","63f78d9a7a3d118594efff74","freq","","","img/orange_2bandit_b2.png","70","","70","test","1","","19","","","","circle","square","19","19","1","1","","","","","","","",""
"null","444225","SARL_v6","SARL_v6fxtj8en1","63f78d9a7a3d118594efff74","freq_resp","","","img/orange_2bandit_b.png","70","img/orange_2bandit_b.png","70","test","","","","","","","","","","","1","","","","","","","","",""
"null","444380","SARL_v6","SARL_v6fxtj8en1","63f78d9a7a3d118594efff74","fixation","","","img/fixation.png","null","","","test","","","","","","","","","","","","","","","","","","","",""
"275.70000000298023","444660","SARL_v6","SARL_v6fxtj8en1","63f78d9a7a3d118594efff74","freq","","","img/orange_2bandit_b2.png","70","","70","test","1","","20","","","","circle","square","20","20","1","1","","","","","","","",""
"null","445198","SARL_v6","SARL_v6fxtj8en1","63f78d9a7a3d118594efff74","freq_resp","","","img/orange_2bandit_b.png","70","img/orange_2bandit_b.png","70","test","","","","","","","","","","","1","","","","","","","","",""
"null","445353","SARL_v6","SARL_v6fxtj8en1","63f78d9a7a3d118594efff74","fixation","","","img/fixation.png","null","","","test","","","","","","","","","","","","","","","","","","","",""
"282.69999998807907","445639","SARL_v6","SARL_v6fxtj8en1","63f78d9a7a3d118594efff74","freq","","","img/orange_2bandit_b2.png","70","","70","test","1","","21","","","","circle","square","21","21","1","1","","","","","","","",""
"null","446171","SARL_v6","SARL_v6fxtj8en1","63f78d9a7a3d118594efff74","freq_resp","","","img/orange_2bandit_b.png","70","img/orange_2bandit_b.png","70","test","","","","","","","","","","","1","","","","","","","","",""
"null","446325","SARL_v6","SARL_v6fxtj8en1","63f78d9a7a3d118594efff74","fixation","","","img/fixation.png","null","","","test","","","","","","","","","","","","","","","","","","","",""
"379.29999999701977","446710","SARL_v6","SARL_v6fxtj8en1","63f78d9a7a3d118594efff74","infreq","","","img/blue_2bandit_b2.png","68","","68","test","1","","22","","","","circle","square","22","22","1","1","","","","","","","",""
"null","447134","SARL_v6","SARL_v6fxtj8en1","63f78d9a7a3d118594efff74","infreq_resp","","","img/blue_2bandit_b.png","68","img/blue_2bandit_b.png","68","test","","","","","","","","","","","1","","","","","","","","",""
"null","447287","SARL_v6","SARL_v6fxtj8en1","63f78d9a7a3d118594efff74","fixation","","","img/fixation.png","null","","","test","","","","","","","","","","","","","","","","","","","",""
"500","447792","SARL_v6","SARL_v6fxtj8en1","63f78d9a7a3d118594efff74","freq","","","img/orange_2bandit_b2.png","70","","70","test","1","","23","","","","circle","square","23","23","1","1","","","","","","","",""
"null","448102","SARL_v6","SARL_v6fxtj8en1","63f78d9a7a3d118594efff74","freq_resp","","","img/orange_2bandit_b.png","70","img/orange_2bandit_b.png","70","test","","","","","","","","","","","1","","","","","","","","",""
"null","448256","SARL_v6","SARL_v6fxtj8en1","63f78d9a7a3d118594efff74","fixation","","","img/fixation.png","null","","","test","","","","","","","","","","","","","","","","","","","",""
"446.59999999403954","448708","SARL_v6","SARL_v6fxtj8en1","63f78d9a7a3d118594efff74","freq","","","img/orange_2bandit_b2.png","70","","70","test","1","","24","","","","circle","square","24","24","1","1","","","","","","","",""
"null","449080","SARL_v6","SARL_v6fxtj8en1","63f78d9a7a3d118594efff74","freq_resp","","","img/orange_2bandit_b.png","70","img/orange_2bandit_b.png","70","test","","","","","","","","","","","1","","","","","","","","",""
"null","449250","SARL_v6","SARL_v6fxtj8en1","63f78d9a7a3d118594efff74","fixation","","","img/fixation.png","null","","","test","","","","","","","","","","","","","","","","","","","",""
"308.20000000298023","449563","SARL_v6","SARL_v6fxtj8en1","63f78d9a7a3d118594efff74","freq","","","img/orange_2bandit_b2.png","70","","70","test","1","","25","","","","circle","square","25","25","1","1","","","","","","","",""
"null","450074","SARL_v6","SARL_v6fxtj8en1","63f78d9a7a3d118594efff74","freq_resp","","","img/orange_2bandit_b.png","70","img/orange_2bandit_b.png","70","test","","","","","","","","","","","1","","","","","","","","",""
"null","450229","SARL_v6","SARL_v6fxtj8en1","63f78d9a7a3d118594efff74","fixation","","","img/fixation.png","null","","","test","","","","","","","","","","","","","","","","","","","",""
"291.8999999910593","450526","SARL_v6","SARL_v6fxtj8en1","63f78d9a7a3d118594efff74","freq","","","img/orange_2bandit_b2.png","70","","70","test","1","","26","","","","circle","square","26","26","1","1","","","","","","","",""
"null","451054","SARL_v6","SARL_v6fxtj8en1","63f78d9a7a3d118594efff74","freq_resp","","","img/orange_2bandit_b.png","70","img/orange_2bandit_b.png","70","test","","","","","","","","","","","1","","","","","","","","",""
"null","451208","SARL_v6","SARL_v6fxtj8en1","63f78d9a7a3d118594efff74","fixation","","","img/fixation.png","null","","","test","","","","","","","","","","","","","","","","","","","",""
"621.1999999880791","451834","SARL_v6","SARL_v6fxtj8en1","63f78d9a7a3d118594efff74","rl","","","img/black_2bandit_b2.png","74","","0","test","","","27","","","-3","circle","square","","0","1","","74","-3","-3","-3","-3","circle","1","0"
"null","452591","SARL_v6","SARL_v6fxtj8en1","63f78d9a7a3d118594efff74","feedback","","","<div class=""verylowPoints""> -3 </div>","null","","na","test","","","NaN","","","","","","","","1","","74","","","","","","1",""
"697.7999999970198","453295","SARL_v6","SARL_v6fxtj8en1","63f78d9a7a3d118594efff74","freq","","","img/orange_2bandit_b2.png","70","","70","test","1","","28","","","","circle","square","27","1","2","1","","","","","","","",""
"null","453413","SARL_v6","SARL_v6fxtj8en1","63f78d9a7a3d118594efff74","freq_resp","","","img/orange_2bandit_b.png","70","img/orange_2bandit_b.png","70","test","","","","","","","","","","","2","","","","","","","","",""
"null","453568","SARL_v6","SARL_v6fxtj8en1","63f78d9a7a3d118594efff74","fixation","","","img/fixation.png","null","","","test","","","","","","","","","","","","","","","","","","","",""
"366.70000000298023","453940","SARL_v6","SARL_v6fxtj8en1","63f78d9a7a3d118594efff74","freq","","","img/orange_2bandit_b2.png","70","","70","test","1","","29","","","","circle","square","28","2","2","1","","","","","","","",""
"null","454391","SARL_v6","SARL_v6fxtj8en1","63f78d9a7a3d118594efff74","freq_resp","","","img/orange_2bandit_b.png","70","img/orange_2bandit_b.png","70","test","","","","","","","","","","","2","","","","","","","","",""
"null","454546","SARL_v6","SARL_v6fxtj8en1","63f78d9a7a3d118594efff74","fixation","","","img/fixation.png","null","","","test","","","","","","","","","","","","","","","","","","","",""
"270.79999999701977","454822","SARL_v6","SARL_v6fxtj8en1","63f78d9a7a3d118594efff74","freq","","","img/orange_2bandit_b2.png","70","","70","test","1","","30","","","","circle","square","29","3","2","1","","","","","","","",""
"null","455369","SARL_v6","SARL_v6fxtj8en1","63f78d9a7a3d118594efff74","freq_resp","","","img/orange_2bandit_b.png","70","img/orange_2bandit_b.png","70","test","","","","","","","","","","","2","","","","","","","","",""
"null","455539","SARL_v6","SARL_v6fxtj8en1","63f78d9a7a3d118594efff74","fixation","","","img/fixation.png","null","","","test","","","","","","","","","","","","","","","","","","","",""
"292.09999999403954","455836","SARL_v6","SARL_v6fxtj8en1","63f78d9a7a3d118594efff74","freq","","","img/orange_2bandit_b2.png","70","","70","test","1","","31","","","","circle","square","30","4","2","1","","","","","","","",""
"null","456362","SARL_v6","SARL_v6fxtj8en1","63f78d9a7a3d118594efff74","freq_resp","","","img/orange_2bandit_b.png","70","img/orange_2bandit_b.png","70","test","","","","","","","","","","","2","","","","","","","","",""
"null","456532","SARL_v6","SARL_v6fxtj8en1","63f78d9a7a3d118594efff74","fixation","","","img/fixation.png","null","","","test","","","","","","","","","","","","","","","","","","","",""
"304.29999999701977","456840","SARL_v6","SARL_v6fxtj8en1","63f78d9a7a3d118594efff74","freq","","","img/orange_2bandit_b2.png","70","","70","test","1","","32","","","","circle","square","31","5","2","1","","","","","","","",""
"null","457350","SARL_v6","SARL_v6fxtj8en1","63f78d9a7a3d118594efff74","freq_resp","","","img/orange_2bandit_b.png","70","img/orange_2bandit_b.png","70","test","","","","","","","","","","","2","","","","","","","","",""
"null","457520","SARL_v6","SARL_v6fxtj8en1","63f78d9a7a3d118594efff74","fixation","","","img/fixation.png","null","","","test","","","","","","","","","","","","","","","","","","","",""
"282.19999998807907","457807","SARL_v6","SARL_v6fxtj8en1","63f78d9a7a3d118594efff74","freq","","","img/orange_2bandit_b2.png","70","","70","test","1","","33","","","","circle","square","32","6","2","1","","","","","","","",""
"null","458344","SARL_v6","SARL_v6fxtj8en1","63f78d9a7a3d118594efff74","freq_resp","","","img/orange_2bandit_b.png","70","img/orange_2bandit_b.png","70","test","","","","","","","","","","","2","","","","","","","","",""
"null","458499","SARL_v6","SARL_v6fxtj8en1","63f78d9a7a3d118594efff74","fixation","","","img/fixation.png","null","","","test","","","","","","","","","","","","","","","","","","","",""
"289.90000000596046","458794","SARL_v6","SARL_v6fxtj8en1","63f78d9a7a3d118594efff74","freq","","","img/orange_2bandit_b2.png","70","","70","test","1","","34","","","","circle","square","33","7","2","1","","","","","","","",""
"null","459321","SARL_v6","SARL_v6fxtj8en1","63f78d9a7a3d118594efff74","freq_resp","","","img/orange_2bandit_b.png","70","img/orange_2bandit_b.png","70","test","","","","","","","","","","","2","","","","","","","","",""
"null","459490","SARL_v6","SARL_v6fxtj8en1","63f78d9a7a3d118594efff74","fixation","","","img/fixation.png","null","","","test","","","","","","","","","","","","","","","","","","","",""
"408.29999999701977","459904","SARL_v6","SARL_v6fxtj8en1","63f78d9a7a3d118594efff74","infreq","","","img/blue_2bandit_b2.png","68","","68","test","1","","35","","","","circle","square","34","8","2","1","","","","","","","",""
"null","460310","SARL_v6","SARL_v6fxtj8en1","63f78d9a7a3d118594efff74","infreq_resp","","","img/blue_2bandit_b.png","68","img/blue_2bandit_b.png","68","test","","","","","","","","","","","2","","","","","","","","",""
"null","460479","SARL_v6","SARL_v6fxtj8en1","63f78d9a7a3d118594efff74","fixation","","","img/fixation.png","null","","","test","","","","","","","","","","","","","","","","","","","",""
"498.09999999403954","460983","SARL_v6","SARL_v6fxtj8en1","63f78d9a7a3d118594efff74","freq","","","img/orange_2bandit_b2.png","70","","70","test","1","","36","","","","circle","square","35","9","2","1","","","","","","","",""
"null","461304","SARL_v6","SARL_v6fxtj8en1","63f78d9a7a3d118594efff74","freq_resp","","","img/orange_2bandit_b.png","70","img/orange_2bandit_b.png","70","test","","","","","","","","","","","2","","","","","","","","",""
"null","461474","SARL_v6","SARL_v6fxtj8en1","63f78d9a7a3d118594efff74","fixation","","","img/fixation.png","null","","","test","","","","","","","","","","","","","","","","","","","",""
"744.2000000029802","462223","SARL_v6","SARL_v6fxtj8en1","63f78d9a7a3d118594efff74","freq","","","img/orange_2bandit_b2.png","70","","70","test","1","","37","","","","circle","square","36","10","2","1","","","","","","","",""
"null","462283","SARL_v6","SARL_v6fxtj8en1","63f78d9a7a3d118594efff74","freq_resp","","","img/orange_2bandit_b.png","70","img/orange_2bandit_b.png","70","test","","","","","","","","","","","2","","","","","","","","",""
"null","462440","SARL_v6","SARL_v6fxtj8en1","63f78d9a7a3d118594efff74","fixation","","","img/fixation.png","null","","","test","","","","","","","","","","","","","","","","","","","",""
"517.7999999970198","462963","SARL_v6","SARL_v6fxtj8en1","63f78d9a7a3d118594efff74","freq","","","img/orange_2bandit_b2.png","70","","70","test","1","","38","","","","circle","square","37","11","2","1","","","","","","","",""
"null","463264","SARL_v6","SARL_v6fxtj8en1","63f78d9a7a3d118594efff74","freq_resp","","","img/orange_2bandit_b.png","70","img/orange_2bandit_b.png","70","test","","","","","","","","","","","2","","","","","","","","",""
"null","463419","SARL_v6","SARL_v6fxtj8en1","63f78d9a7a3d118594efff74","fixation","","","img/fixation.png","null","","","test","","","","","","","","","","","","","","","","","","","",""
"283.29999999701977","463707","SARL_v6","SARL_v6fxtj8en1","63f78d9a7a3d118594efff74","freq","","","img/orange_2bandit_b2.png","70","","70","test","1","","39","","","","circle","square","38","12","2","1","","","","","","","",""
"null","464240","SARL_v6","SARL_v6fxtj8en1","63f78d9a7a3d118594efff74","freq_resp","","","img/orange_2bandit_b.png","70","img/orange_2bandit_b.png","70","test","","","","","","","","","","","2","","","","","","","","",""
"null","464395","SARL_v6","SARL_v6fxtj8en1","63f78d9a7a3d118594efff74","fixation","","","img/fixation.png","null","","","test","","","","","","","","","","","","","","","","","","","",""
"263.29999999701977","464663","SARL_v6","SARL_v6fxtj8en1","63f78d9a7a3d118594efff74","freq","","","img/orange_2bandit_b2.png","70","","70","test","1","","40","","","","circle","square","39","13","2","1","","","","","","","",""
"null","465205","SARL_v6","SARL_v6fxtj8en1","63f78d9a7a3d118594efff74","freq_resp","","","img/orange_2bandit_b.png","70","img/orange_2bandit_b.png","70","test","","","","","","","","","","","2","","","","","","","","",""
"null","465360","SARL_v6","SARL_v6fxtj8en1","63f78d9a7a3d118594efff74","fixation","","","img/fixation.png","null","","","test","","","","","","","","","","","","","","","","","","","",""
"279.8999999910593","465643","SARL_v6","SARL_v6fxtj8en1","63f78d9a7a3d118594efff74","freq","","","img/orange_2bandit_b2.png","70","","70","test","1","","41","","","","circle","square","40","14","2","1","","","","","","","",""
"null","466170","SARL_v6","SARL_v6fxtj8en1","63f78d9a7a3d118594efff74","freq_resp","","","img/orange_2bandit_b.png","70","img/orange_2bandit_b.png","70","test","","","","","","","","","","","2","","","","","","","","",""
"null","466325","SARL_v6","SARL_v6fxtj8en1","63f78d9a7a3d118594efff74","fixation","","","img/fixation.png","null","","","test","","","","","","","","","","","","","","","","","","","",""
"480.90000000596046","466811","SARL_v6","SARL_v6fxtj8en1","63f78d9a7a3d118594efff74","infreq","","","img/blue_2bandit_b2.png","68","","68","test","1","","42","","","","circle","square","41","15","2","1","","","","","","","",""
"null","467136","SARL_v6","SARL_v6fxtj8en1","63f78d9a7a3d118594efff74","infreq_resp","","","img/blue_2bandit_b.png","68","img/blue_2bandit_b.png","68","test","","","","","","","","","","","2","","","","","","","","",""
"null","467290","SARL_v6","SARL_v6fxtj8en1","63f78d9a7a3d118594efff74","fixation","","","img/fixation.png","null","","","test","","","","","","","","","","","","","","","","","","","",""
"368.3999999910593","467663","SARL_v6","SARL_v6fxtj8en1","63f78d9a7a3d118594efff74","freq","","","img/orange_2bandit_b2.png","70","","70","test","1","","43","","","","circle","square","42","16","2","1","","","","","","","",""
"null","468105","SARL_v6","SARL_v6fxtj8en1","63f78d9a7a3d118594efff74","freq_resp","","","img/orange_2bandit_b.png","70","img/orange_2bandit_b.png","70","test","","","","","","","","","","","2","","","","","","","","",""
"null","468259","SARL_v6","SARL_v6fxtj8en1","63f78d9a7a3d118594efff74","fixation","","","img/fixation.png","null","","","test","","","","","","","","","","","","","","","","","","","",""
"278.29999999701977","468542","SARL_v6","SARL_v6fxtj8en1","63f78d9a7a3d118594efff74","freq","","","img/orange_2bandit_b2.png","70","","70","test","1","","44","","","","circle","square","43","17","2","1","","","","","","","",""
"null","469082","SARL_v6","SARL_v6fxtj8en1","63f78d9a7a3d118594efff74","freq_resp","","","img/orange_2bandit_b.png","70","img/orange_2bandit_b.png","70","test","","","","","","","","","","","2","","","","","","","","",""
"null","469250","SARL_v6","SARL_v6fxtj8en1","63f78d9a7a3d118594efff74","fixation","","","img/fixation.png","null","","","test","","","","","","","","","","","","","","","","","","","",""
"289.30000001192093","469544","SARL_v6","SARL_v6fxtj8en1","63f78d9a7a3d118594efff74","freq","","","img/orange_2bandit_b2.png","70","","70","test","1","","45","","","","circle","square","44","18","2","1","","","","","","","",""
"null","470059","SARL_v6","SARL_v6fxtj8en1","63f78d9a7a3d118594efff74","freq_resp","","","img/orange_2bandit_b.png","70","img/orange_2bandit_b.png","70","test","","","","","","","","","","","2","","","","","","","","",""
"null","470214","SARL_v6","SARL_v6fxtj8en1","63f78d9a7a3d118594efff74","fixation","","","img/fixation.png","null","","","test","","","","","","","","","","","","","","","","","","","",""
"266.5","470485","SARL_v6","SARL_v6fxtj8en1","63f78d9a7a3d118594efff74","freq","","","img/orange_2bandit_b2.png","70","","70","test","1","","46","","","","circle","square","45","19","2","1","","","","","","","",""
"null","471034","SARL_v6","SARL_v6fxtj8en1","63f78d9a7a3d118594efff74","freq_resp","","","img/orange_2bandit_b.png","70","img/orange_2bandit_b.png","70","test","","","","","","","","","","","2","","","","","","","","",""
"null","471204","SARL_v6","SARL_v6fxtj8en1","63f78d9a7a3d118594efff74","fixation","","","img/fixation.png","null","","","test","","","","","","","","","","","","","","","","","","","",""
"282.5","471492","SARL_v6","SARL_v6fxtj8en1","63f78d9a7a3d118594efff74","freq","","","img/orange_2bandit_b2.png","70","","70","test","1","","47","","","","circle","square","46","20","2","1","","","","","","","",""
"null","472025","SARL_v6","SARL_v6fxtj8en1","63f78d9a7a3d118594efff74","freq_resp","","","img/orange_2bandit_b.png","70","img/orange_2bandit_b.png","70","test","","","","","","","","","","","2","","","","","","","","",""
"null","472195","SARL_v6","SARL_v6fxtj8en1","63f78d9a7a3d118594efff74","fixation","","","img/fixation.png","null","","","test","","","","","","","","","","","","","","","","","","","",""
"294.30000001192093","472493","SARL_v6","SARL_v6fxtj8en1","63f78d9a7a3d118594efff74","freq","","","img/orange_2bandit_b2.png","70","","70","test","1","","48","","","","circle","square","47","21","2","1","","","","","","","",""
"null","473005","SARL_v6","SARL_v6fxtj8en1","63f78d9a7a3d118594efff74","freq_resp","","","img/orange_2bandit_b.png","70","img/orange_2bandit_b.png","70","test","","","","","","","","","","","2","","","","","","","","",""
"null","473174","SARL_v6","SARL_v6fxtj8en1","63f78d9a7a3d118594efff74","fixation","","","img/fixation.png","null","","","test","","","","","","","","","","","","","","","","","","","",""
"265.5","473444","SARL_v6","SARL_v6fxtj8en1","63f78d9a7a3d118594efff74","freq","","","img/orange_2bandit_b2.png","70","","70","test","1","","49","","","","circle","square","48","22","2","1","","","","","","","",""
"null","473996","SARL_v6","SARL_v6fxtj8en1","63f78d9a7a3d118594efff74","freq_resp","","","img/orange_2bandit_b.png","70","img/orange_2bandit_b.png","70","test","","","","","","","","","","","2","","","","","","","","",""
"null","474165","SARL_v6","SARL_v6fxtj8en1","63f78d9a7a3d118594efff74","fixation","","","img/fixation.png","null","","","test","","","","","","","","","","","","","","","","","","","",""
"257.69999998807907","474428","SARL_v6","SARL_v6fxtj8en1","63f78d9a7a3d118594efff74","freq","","","img/orange_2bandit_b2.png","70","","70","test","1","","50","","","","circle","square","49","23","2","1","","","","","","","",""
"null","474985","SARL_v6","SARL_v6fxtj8en1","63f78d9a7a3d118594efff74","freq_resp","","","img/orange_2bandit_b.png","70","img/orange_2bandit_b.png","70","test","","","","","","","","","","","2","","","","","","","","",""
"null","475156","SARL_v6","SARL_v6fxtj8en1","63f78d9a7a3d118594efff74","fixation","","","img/fixation.png","null","","","test","","","","","","","","","","","","","","","","","","","",""
"274.79999999701977","475435","SARL_v6","SARL_v6fxtj8en1","63f78d9a7a3d118594efff74","freq","","","img/orange_2bandit_b2.png","70","","70","test","1","","51","","","","circle","square","50","24","2","1","","","","","","","",""
"null","475974","SARL_v6","SARL_v6fxtj8en1","63f78d9a7a3d118594efff74","freq_resp","","","img/orange_2bandit_b.png","70","img/orange_2bandit_b.png","70","test","","","","","","","","","","","2","","","","","","","","",""
"null","476130","SARL_v6","SARL_v6fxtj8en1","63f78d9a7a3d118594efff74","fixation","","","img/fixation.png","null","","","test","","","","","","","","","","","","","","","","","","","",""
"576.8000000119209","476713","SARL_v6","SARL_v6fxtj8en1","63f78d9a7a3d118594efff74","rl","","","img/black_2bandit_b2.png","75","","0","test","","","52","","","-8","circle","square","","0","2","","75","-5","-8","-5","-8","square","2","0"
"null","477478","SARL_v6","SARL_v6fxtj8en1","63f78d9a7a3d118594efff74","feedback","","","<div class=""verylowPoints_sq""> -8 </div>","null","","na","test","","","NaN","","","","","","","","2","","75","","","","","","2",""
"708","478191","SARL_v6","SARL_v6fxtj8en1","63f78d9a7a3d118594efff74","freq","","","img/orange_2bandit_b2.png","70","","70","test","1","","53","","","","circle","square","51","1","3","1","","","","","","","",""
"null","478298","SARL_v6","SARL_v6fxtj8en1","63f78d9a7a3d118594efff74","freq_resp","","","img/orange_2bandit_b.png","70","img/orange_2bandit_b.png","70","test","","","","","","","","","","","3","","","","","","","","",""
"null","478453","SARL_v6","SARL_v6fxtj8en1","63f78d9a7a3d118594efff74","fixation","","","img/fixation.png","null","","","test","","","","","","","","","","","","","","","","","","","",""
"471.30000001192093","478929","SARL_v6","SARL_v6fxtj8en1","63f78d9a7a3d118594efff74","freq","","","img/orange_2bandit_b2.png","70","","70","test","1","","54","","","","circle","square","52","2","3","1","","","","","","","",""
"null","479275","SARL_v6","SARL_v6fxtj8en1","63f78d9a7a3d118594efff74","freq_resp","","","img/orange_2bandit_b.png","70","img/orange_2bandit_b.png","70","test","","","","","","","","","","","3","","","","","","","","",""
"null","479429","SARL_v6","SARL_v6fxtj8en1","63f78d9a7a3d118594efff74","fixation","","","img/fixation.png","null","","","test","","","","","","","","","","","","","","","","","","","",""
"289.09999999403954","479723","SARL_v6","SARL_v6fxtj8en1","63f78d9a7a3d118594efff74","freq","","","img/orange_2bandit_b2.png","70","","70","test","1","","55","","","","circle","square","53","3","3","1","","","","","","","",""
"null","480252","SARL_v6","SARL_v6fxtj8en1","63f78d9a7a3d118594efff74","freq_resp","","","img/orange_2bandit_b.png","70","img/orange_2bandit_b.png","70","test","","","","","","","","","","","3","","","","","","","","",""
"null","480422","SARL_v6","SARL_v6fxtj8en1","63f78d9a7a3d118594efff74","fixation","","","img/fixation.png","null","","","test","","","","","","","","","","","","","","","","","","","",""
"243.79999999701977","480669","SARL_v6","SARL_v6fxtj8en1","63f78d9a7a3d118594efff74","freq","","","img/orange_2bandit_b2.png","70","","70","test","1","","56","","","","circle","square","54","4","3","1","","","","","","","",""
"null","481242","SARL_v6","SARL_v6fxtj8en1","63f78d9a7a3d118594efff74","freq_resp","","","img/orange_2bandit_b.png","70","img/orange_2bandit_b.png","70","test","","","","","","","","","","","3","","","","","","","","",""
"null","481412","SARL_v6","SARL_v6fxtj8en1","63f78d9a7a3d118594efff74","fixation","","","img/fixation.png","null","","","test","","","","","","","","","","","","","","","","","","","",""
"246.29999999701977","481662","SARL_v6","SARL_v6fxtj8en1","63f78d9a7a3d118594efff74","freq","","","img/orange_2bandit_b2.png","70","","70","test","1","","57","","","","circle","square","55","5","3","1","","","","","","","",""
"null","482234","SARL_v6","SARL_v6fxtj8en1","63f78d9a7a3d118594efff74","freq_resp","","","img/orange_2bandit_b.png","70","img/orange_2bandit_b.png","70","test","","","","","","","","","","","3","","","","","","","","",""
"null","482390","SARL_v6","SARL_v6fxtj8en1","63f78d9a7a3d118594efff74","fixation","","","img/fixation.png","null","","","test","","","","","","","","","","","","","","","","","","","",""
"367.90000000596046","482762","SARL_v6","SARL_v6fxtj8en1","63f78d9a7a3d118594efff74","freq","","","img/orange_2bandit_b2.png","70","","70","test","1","","58","","","","circle","square","56","6","3","1","","","","","","","",""
"null","483214","SARL_v6","SARL_v6fxtj8en1","63f78d9a7a3d118594efff74","freq_resp","","","img/orange_2bandit_b.png","70","img/orange_2bandit_b.png","70","test","","","","","","","","","","","3","","","","","","","","",""
"null","483383","SARL_v6","SARL_v6fxtj8en1","63f78d9a7a3d118594efff74","fixation","","","img/fixation.png","null","","","test","","","","","","","","","","","","","","","","","","","",""
"310.29999999701977","483699","SARL_v6","SARL_v6fxtj8en1","63f78d9a7a3d118594efff74","freq","","","img/orange_2bandit_b2.png","70","","70","test","1","","59","","","","circle","square","57","7","3","1","","","","","","","",""
"null","484204","SARL_v6","SARL_v6fxtj8en1","63f78d9a7a3d118594efff74","freq_resp","","","img/orange_2bandit_b.png","70","img/orange_2bandit_b.png","70","test","","","","","","","","","","","3","","","","","","","","",""
"null","484359","SARL_v6","SARL_v6fxtj8en1","63f78d9a7a3d118594efff74","fixation","","","img/fixation.png","null","","","test","","","","","","","","","","","","","","","","","","","",""
"427","484790","SARL_v6","SARL_v6fxtj8en1","63f78d9a7a3d118594efff74","infreq","","","img/blue_2bandit_b2.png","68","","68","test","1","","60","","","","circle","square","58","8","3","1","","","","","","","",""
"null","485180","SARL_v6","SARL_v6fxtj8en1","63f78d9a7a3d118594efff74","infreq_resp","","","img/blue_2bandit_b.png","68","img/blue_2bandit_b.png","68","test","","","","","","","","","","","3","","","","","","","","",""
"null","485337","SARL_v6","SARL_v6fxtj8en1","63f78d9a7a3d118594efff74","fixation","","","img/fixation.png","null","","","test","","","","","","","","","","","","","","","","","","","",""
"472.20000000298023","485814","SARL_v6","SARL_v6fxtj8en1","63f78d9a7a3d118594efff74","infreq","","","img/blue_2bandit_b2.png","68","","68","test","1","","61","","","","circle","square","59","9","3","1","","","","","","","",""
"null","486159","SARL_v6","SARL_v6fxtj8en1","63f78d9a7a3d118594efff74","infreq_resp","","","img/blue_2bandit_b.png","68","img/blue_2bandit_b.png","68","test","","","","","","","","","","","3","","","","","","","","",""
"null","486315","SARL_v6","SARL_v6fxtj8en1","63f78d9a7a3d118594efff74","fixation","","","img/fixation.png","null","","","test","","","","","","","","","","","","","","","","","","","",""
"423.69999998807907","486744","SARL_v6","SARL_v6fxtj8en1","63f78d9a7a3d118594efff74","freq","","","img/orange_2bandit_b2.png","70","","70","test","1","","62","","","","circle","square","60","10","3","1","","","","","","","",""
"null","487135","SARL_v6","SARL_v6fxtj8en1","63f78d9a7a3d118594efff74","freq_resp","","","img/orange_2bandit_b.png","70","img/orange_2bandit_b.png","70","test","","","","","","","","","","","3","","","","","","","","",""
"null","487290","SARL_v6","SARL_v6fxtj8en1","63f78d9a7a3d118594efff74","fixation","","","img/fixation.png","null","","","test","","","","","","","","","","","","","","","","","","","",""
"259","487554","SARL_v6","SARL_v6fxtj8en1","63f78d9a7a3d118594efff74","freq","","","img/orange_2bandit_b2.png","70","","70","test","1","","63","","","","circle","square","61","11","3","1","","","","","","","",""
"null","488113","SARL_v6","SARL_v6fxtj8en1","63f78d9a7a3d118594efff74","freq_resp","","","img/orange_2bandit_b.png","70","img/orange_2bandit_b.png","70","test","","","","","","","","","","","3","","","","","","","","",""
"null","488267","SARL_v6","SARL_v6fxtj8en1","63f78d9a7a3d118594efff74","fixation","","","img/fixation.png","null","","","test","","","","","","","","","","","","","","","","","","","",""
"309.90000000596046","488582","SARL_v6","SARL_v6fxtj8en1","63f78d9a7a3d118594efff74","freq","","","img/orange_2bandit_b2.png","70","","70","test","1","","64","","","","circle","square","62","12","3","1","","","","","","","",""
"null","489089","SARL_v6","SARL_v6fxtj8en1","63f78d9a7a3d118594efff74","freq_resp","","","img/orange_2bandit_b.png","70","img/orange_2bandit_b.png","70","test","","","","","","","","","","","3","","","","","","","","",""
"null","489243","SARL_v6","SARL_v6fxtj8en1","63f78d9a7a3d118594efff74","fixation","","","img/fixation.png","null","","","test","","","","","","","","","","","","","","","","","","","",""
"253.1000000089407","489502","SARL_v6","SARL_v6fxtj8en1","63f78d9a7a3d118594efff74","freq","","","img/orange_2bandit_b2.png","70","","70","test","1","","65","","","","circle","square","63","13","3","1","","","","","","","",""
"null","490067","SARL_v6","SARL_v6fxtj8en1","63f78d9a7a3d118594efff74","freq_resp","","","img/orange_2bandit_b.png","70","img/orange_2bandit_b.png","70","test","","","","","","","","","","","3","","","","","","","","",""
"null","490238","SARL_v6","SARL_v6fxtj8en1","63f78d9a7a3d118594efff74","fixation","","","img/fixation.png","null","","","test","","","","","","","","","","","","","","","","","","","",""
"242","490485","SARL_v6","SARL_v6fxtj8en1","63f78d9a7a3d118594efff74","freq","","","img/orange_2bandit_b2.png","70","","70","test","1","","66","","","","circle","square","64","14","3","1","","","","","","","",""
"null","491062","SARL_v6","SARL_v6fxtj8en1","63f78d9a7a3d118594efff74","freq_resp","","","img/orange_2bandit_b.png","70","img/orange_2bandit_b.png","70","test","","","","","","","","","","","3","","","","","","","","",""
"null","491231","SARL_v6","SARL_v6fxtj8en1","63f78d9a7a3d118594efff74","fixation","","","img/fixation.png","null","","","test","","","","","","","","","","","","","","","","","","","",""
"256.5","491493","SARL_v6","SARL_v6fxtj8en1","63f78d9a7a3d118594efff74","freq","","","img/orange_2bandit_b2.png","70","","70","test","1","","67","","","","circle","square","65","15","3","1","","","","","","","",""
"null","492054","SARL_v6","SARL_v6fxtj8en1","63f78d9a7a3d118594efff74","freq_resp","","","img/orange_2bandit_b.png","70","img/orange_2bandit_b.png","70","test","","","","","","","","","","","3","","","","","","","","",""
"null","492224","SARL_v6","SARL_v6fxtj8en1","63f78d9a7a3d118594efff74","fixation","","","img/fixation.png","null","","","test","","","","","","","","","","","","","","","","","","","",""
"292.5","492522","SARL_v6","SARL_v6fxtj8en1","63f78d9a7a3d118594efff74","freq","","","img/orange_2bandit_b2.png","70","","70","test","1","","68","","","","circle","square","66","16","3","1","","","","","","","",""
"null","493043","SARL_v6","SARL_v6fxtj8en1","63f78d9a7a3d118594efff74","freq_resp","","","img/orange_2bandit_b.png","70","img/orange_2bandit_b.png","70","test","","","","","","","","","","","3","","","","","","","","",""
"null","493198","SARL_v6","SARL_v6fxtj8en1","63f78d9a7a3d118594efff74","fixation","","","img/fixation.png","null","","","test","","","","","","","","","","","","","","","","","","","",""
"295.79999999701977","493498","SARL_v6","SARL_v6fxtj8en1","63f78d9a7a3d118594efff74","freq","","","img/orange_2bandit_b2.png","70","","70","test","1","","69","","","","circle","square","67","17","3","1","","","","","","","",""
"null","494020","SARL_v6","SARL_v6fxtj8en1","63f78d9a7a3d118594efff74","freq_resp","","","img/orange_2bandit_b.png","70","img/orange_2bandit_b.png","70","test","","","","","","","","","","","3","","","","","","","","",""
"null","494175","SARL_v6","SARL_v6fxtj8en1","63f78d9a7a3d118594efff74","fixation","","","img/fixation.png","null","","","test","","","","","","","","","","","","","","","","","","","",""
"292.70000000298023","494473","SARL_v6","SARL_v6fxtj8en1","63f78d9a7a3d118594efff74","freq","","","img/orange_2bandit_b2.png","70","","70","test","1","","70","","","","circle","square","68","18","3","1","","","","","","","",""
"null","494997","SARL_v6","SARL_v6fxtj8en1","63f78d9a7a3d118594efff74","freq_resp","","","img/orange_2bandit_b.png","70","img/orange_2bandit_b.png","70","test","","","","","","","","","","","3","","","","","","","","",""
"null","495166","SARL_v6","SARL_v6fxtj8en1","63f78d9a7a3d118594efff74","fixation","","","img/fixation.png","null","","","test","","","","","","","","","","","","","","","","","","","",""
"623.5","495795","SARL_v6","SARL_v6fxtj8en1","63f78d9a7a3d118594efff74","freq","","","img/orange_2bandit_b2.png","70","","70","test","1","","71","","","","circle","square","69","19","3","1","","","","","","","",""
"null","495990","SARL_v6","SARL_v6fxtj8en1","63f78d9a7a3d118594efff74","freq_resp","","","img/orange_2bandit_b.png","70","img/orange_2bandit_b.png","70","test","","","","","","","","","","","3","","","","","","","","",""
"null","496149","SARL_v6","SARL_v6fxtj8en1","63f78d9a7a3d118594efff74","fixation","","","img/fixation.png","null","","","test","","","","","","","","","","","","","","","","","","","",""
"388.19999998807907","496542","SARL_v6","SARL_v6fxtj8en1","63f78d9a7a3d118594efff74","freq","","","img/orange_2bandit_b2.png","70","","70","test","1","","72","","","","circle","square","70","20","3","1","","","","","","","",""
"null","496958","SARL_v6","SARL_v6fxtj8en1","63f78d9a7a3d118594efff74","freq_resp","","","img/orange_2bandit_b.png","70","img/orange_2bandit_b.png","70","test","","","","","","","","","","","3","","","","","","","","",""
"null","497127","SARL_v6","SARL_v6fxtj8en1","63f78d9a7a3d118594efff74","fixation","","","img/fixation.png","null","","","test","","","","","","","","","","","","","","","","","","","",""
"289","497420","SARL_v6","SARL_v6fxtj8en1","63f78d9a7a3d118594efff74","freq","","","img/orange_2bandit_b2.png","70","","70","test","1","","73","","","","circle","square","71","21","3","1","","","","","","","",""
"null","497948","SARL_v6","SARL_v6fxtj8en1","63f78d9a7a3d118594efff74","freq_resp","","","img/orange_2bandit_b.png","70","img/orange_2bandit_b.png","70","test","","","","","","","","","","","3","","","","","","","","",""
"null","498104","SARL_v6","SARL_v6fxtj8en1","63f78d9a7a3d118594efff74","fixation","","","img/fixation.png","null","","","test","","","","","","","","","","","","","","","","","","","",""
"426.29999999701977","498535","SARL_v6","SARL_v6fxtj8en1","63f78d9a7a3d118594efff74","freq","","","img/orange_2bandit_b2.png","70","","70","test","1","","74","","","","circle","square","72","22","3","1","","","","","","","",""
"null","498922","SARL_v6","SARL_v6fxtj8en1","63f78d9a7a3d118594efff74","freq_resp","","","img/orange_2bandit_b.png","70","img/orange_2bandit_b.png","70","test","","","","","","","","","","","3","","","","","","","","",""
"null","499079","SARL_v6","SARL_v6fxtj8en1","63f78d9a7a3d118594efff74","fixation","","","img/fixation.png","null","","","test","","","","","","","","","","","","","","","","","","","",""
"728.0999999940395","499812","SARL_v6","SARL_v6fxtj8en1","63f78d9a7a3d118594efff74","rl","","","img/black_2bandit_b2.png","74","","0","test","","","75","","","-4","circle","square","","0","3","","74","-4","-8","-4","-8","circle","3","0"
"null","500582","SARL_v6","SARL_v6fxtj8en1","63f78d9a7a3d118594efff74","feedback","","","<div class=""verylowPoints""> -4 </div>","null","","na","test","","","NaN","","","","","","","","3","","74","","","","","","3",""
"504.69999998807907","501092","SARL_v6","SARL_v6fxtj8en1","63f78d9a7a3d118594efff74","freq","","","img/orange_2bandit_b2.png","70","","70","test","1","","76","","","","circle","square","73","1","4","1","","","","","","","",""
"null","501405","SARL_v6","SARL_v6fxtj8en1","63f78d9a7a3d118594efff74","freq_resp","","","img/orange_2bandit_b.png","70","img/orange_2bandit_b.png","70","test","","","","","","","","","","","4","","","","","","","","",""
"null","501559","SARL_v6","SARL_v6fxtj8en1","63f78d9a7a3d118594efff74","fixation","","","img/fixation.png","null","","","test","","","","","","","","","","","","","","","","","","","",""
"340.70000000298023","501904","SARL_v6","SARL_v6fxtj8en1","63f78d9a7a3d118594efff74","freq","","","img/orange_2bandit_b2.png","70","","70","test","1","","77","","","","circle","square","74","2","4","1","","","","","","","",""
"null","502379","SARL_v6","SARL_v6fxtj8en1","63f78d9a7a3d118594efff74","freq_resp","","","img/orange_2bandit_b.png","70","img/orange_2bandit_b.png","70","test","","","","","","","","","","","4","","","","","","","","",""
"null","502549","SARL_v6","SARL_v6fxtj8en1","63f78d9a7a3d118594efff74","fixation","","","img/fixation.png","null","","","test","","","","","","","","","","","","","","","","","","","",""
"592","503146","SARL_v6","SARL_v6fxtj8en1","63f78d9a7a3d118594efff74","freq","","","img/orange_2bandit_b2.png","70","","70","test","1","","78","","","","circle","square","75","3","4","1","","","","","","","",""
"null","503371","SARL_v6","SARL_v6fxtj8en1","63f78d9a7a3d118594efff74","freq_resp","","","img/orange_2bandit_b.png","70","img/orange_2bandit_b.png","70","test","","","","","","","","","","","4","","","","","","","","",""
"null","503542","SARL_v6","SARL_v6fxtj8en1","63f78d9a7a3d118594efff74","fixation","","","img/fixation.png","null","","","test","","","","","","","","","","","","","","","","","","","",""
"435","503982","SARL_v6","SARL_v6fxtj8en1","63f78d9a7a3d118594efff74","freq","","","img/orange_2bandit_b2.png","70","","70","test","1","","79","","","","circle","square","76","4","4","1","","","","","","","",""
"null","504363","SARL_v6","SARL_v6fxtj8en1","63f78d9a7a3d118594efff74","freq_resp","","","img/orange_2bandit_b.png","70","img/orange_2bandit_b.png","70","test","","","","","","","","","","","4","","","","","","","","",""
"null","504519","SARL_v6","SARL_v6fxtj8en1","63f78d9a7a3d118594efff74","fixation","","","img/fixation.png","null","","","test","","","","","","","","","","","","","","","","","","","",""
"282.40000000596046","504806","SARL_v6","SARL_v6fxtj8en1","63f78d9a7a3d118594efff74","freq","","","img/orange_2bandit_b2.png","70","","70","test","1","","80","","","","circle","square","77","5","4","1","","","","","","","",""
"null","505344","SARL_v6","SARL_v6fxtj8en1","63f78d9a7a3d118594efff74","freq_resp","","","img/orange_2bandit_b.png","70","img/orange_2bandit_b.png","70","test","","","","","","","","","","","4","","","","","","","","",""
"null","505514","SARL_v6","SARL_v6fxtj8en1","63f78d9a7a3d118594efff74","fixation","","","img/fixation.png","null","","","test","","","","","","","","","","","","","","","","","","","",""
"238.79999999701977","505757","SARL_v6","SARL_v6fxtj8en1","63f78d9a7a3d118594efff74","infreq","","","img/blue_2bandit_b2.png","70","","68","test","0","","81","","","","circle","square","78","6","4","0.9871794871794872","","","","","","","",""
"null","506335","SARL_v6","SARL_v6fxtj8en1","63f78d9a7a3d118594efff74","infreq_resp","","","img/blue_2bandit_b.png","70","img/blue_2bandit_b.png","68","test","","","","","","","","","","","4","","","","","","","","",""
"null","506505","SARL_v6","SARL_v6fxtj8en1","63f78d9a7a3d118594efff74","fixation","","","img/fixation.png","null","","","test","","","","","","","","","","","","","","","","","","","",""
"384.6000000089407","506894","SARL_v6","SARL_v6fxtj8en1","63f78d9a7a3d118594efff74","freq","","","img/orange_2bandit_b2.png","70","","70","test","1","","82","","","","circle","square","79","7","4","0.9873417721518988","","","","","","","",""
"null","507327","SARL_v6","SARL_v6fxtj8en1","63f78d9a7a3d118594efff74","freq_resp","","","img/orange_2bandit_b.png","70","img/orange_2bandit_b.png","70","test","","","","","","","","","","","4","","","","","","","","",""
"null","507497","SARL_v6","SARL_v6fxtj8en1","63f78d9a7a3d118594efff74","fixation","","","img/fixation.png","null","","","test","","","","","","","","","","","","","","","","","","","",""
"280.6000000089407","507783","SARL_v6","SARL_v6fxtj8en1","63f78d9a7a3d118594efff74","freq","","","img/orange_2bandit_b2.png","70","","70","test","1","","83","","","","circle","square","80","8","4","0.9875","","","","","","","",""
"null","508317","SARL_v6","SARL_v6fxtj8en1","63f78d9a7a3d118594efff74","freq_resp","","","img/orange_2bandit_b.png","70","img/orange_2bandit_b.png","70","test","","","","","","","","","","","4","","","","","","","","",""
"null","508472","SARL_v6","SARL_v6fxtj8en1","63f78d9a7a3d118594efff74","fixation","","","img/fixation.png","null","","","test","","","","","","","","","","","","","","","","","","","",""
"278.6000000089407","508756","SARL_v6","SARL_v6fxtj8en1","63f78d9a7a3d118594efff74","freq","","","img/orange_2bandit_b2.png","70","","70","test","1","","84","","","","circle","square","81","9","4","0.9876543209876543","","","","","","","",""
"null","509296","SARL_v6","SARL_v6fxtj8en1","63f78d9a7a3d118594efff74","freq_resp","","","img/orange_2bandit_b.png","70","img/orange_2bandit_b.png","70","test","","","","","","","","","","","4","","","","","","","","",""
"null","509452","SARL_v6","SARL_v6fxtj8en1","63f78d9a7a3d118594efff74","fixation","","","img/fixation.png","null","","","test","","","","","","","","","","","","","","","","","","","",""
"295.69999998807907","509753","SARL_v6","SARL_v6fxtj8en1","63f78d9a7a3d118594efff74","freq","","","img/orange_2bandit_b2.png","70","","70","test","1","","85","","","","circle","square","82","10","4","0.9878048780487805","","","","","","","",""
"null","510274","SARL_v6","SARL_v6fxtj8en1","63f78d9a7a3d118594efff74","freq_resp","","","img/orange_2bandit_b.png","70","img/orange_2bandit_b.png","70","test","","","","","","","","","","","4","","","","","","","","",""
"null","510443","SARL_v6","SARL_v6fxtj8en1","63f78d9a7a3d118594efff74","fixation","","","img/fixation.png","null","","","test","","","","","","","","","","","","","","","","","","","",""
"273.29999999701977","510721","SARL_v6","SARL_v6fxtj8en1","63f78d9a7a3d118594efff74","freq","","","img/orange_2bandit_b2.png","70","","70","test","1","","86","","","","circle","square","83","11","4","0.9879518072289156","","","","","","","",""
"null","511267","SARL_v6","SARL_v6fxtj8en1","63f78d9a7a3d118594efff74","freq_resp","","","img/orange_2bandit_b.png","70","img/orange_2bandit_b.png","70","test","","","","","","","","","","","4","","","","","","","","",""
"null","511437","SARL_v6","SARL_v6fxtj8en1","63f78d9a7a3d118594efff74","fixation","","","img/fixation.png","null","","","test","","","","","","","","","","","","","","","","","","","",""
"311.5","511753","SARL_v6","SARL_v6fxtj8en1","63f78d9a7a3d118594efff74","freq","","","img/orange_2bandit_b2.png","70","","70","test","1","","87","","","","circle","square","84","12","4","0.9880952380952381","","","","","","","",""
"null","512259","SARL_v6","SARL_v6fxtj8en1","63f78d9a7a3d118594efff74","freq_resp","","","img/orange_2bandit_b.png","70","img/orange_2bandit_b.png","70","test","","","","","","","","","","","4","","","","","","","","",""
"null","512417","SARL_v6","SARL_v6fxtj8en1","63f78d9a7a3d118594efff74","fixation","","","img/fixation.png","null","","","test","","","","","","","","","","","","","","","","","","","",""
"396.5","512818","SARL_v6","SARL_v6fxtj8en1","63f78d9a7a3d118594efff74","infreq","","","img/blue_2bandit_b2.png","68","","68","test","1","","88","","","","circle","square","85","13","4","0.9882352941176471","","","","","","","",""
"null","513239","SARL_v6","SARL_v6fxtj8en1","63f78d9a7a3d118594efff74","infreq_resp","","","img/blue_2bandit_b.png","68","img/blue_2bandit_b.png","68","test","","","","","","","","","","","4","","","","","","","","",""
"null","513409","SARL_v6","SARL_v6fxtj8en1","63f78d9a7a3d118594efff74","fixation","","","img/fixation.png","null","","","test","","","","","","","","","","","","","","","","","","","",""
"301.79999999701977","513715","SARL_v6","SARL_v6fxtj8en1","63f78d9a7a3d118594efff74","freq","","","img/orange_2bandit_b2.png","70","","70","test","1","","89","","","","circle","square","86","14","4","0.9883720930232558","","","","","","","",""
"null","514230","SARL_v6","SARL_v6fxtj8en1","63f78d9a7a3d118594efff74","freq_resp","","","img/orange_2bandit_b.png","70","img/orange_2bandit_b.png","70","test","","","","","","","","","","","4","","","","","","","","",""
"null","514384","SARL_v6","SARL_v6fxtj8en1","63f78d9a7a3d118594efff74","fixation","","","img/fixation.png","null","","","test","","","","","","","","","","","","","","","","","","","",""
"258.3999999910593","514647","SARL_v6","SARL_v6fxtj8en1","63f78d9a7a3d118594efff74","freq","","","img/orange_2bandit_b2.png","70","","70","test","1","","90","","","","circle","square","87","15","4","0.9885057471264368","","","","","","","",""
"null","515206","SARL_v6","SARL_v6fxtj8en1","63f78d9a7a3d118594efff74","freq_resp","","","img/orange_2bandit_b.png","70","img/orange_2bandit_b.png","70","test","","","","","","","","","","","4","","","","","","","","",""
"null","515360","SARL_v6","SARL_v6fxtj8en1","63f78d9a7a3d118594efff74","fixation","","","img/fixation.png","null","","","test","","","","","","","","","","","","","","","","","","","",""
"287.79999999701977","515653","SARL_v6","SARL_v6fxtj8en1","63f78d9a7a3d118594efff74","freq","","","img/orange_2bandit_b2.png","70","","70","test","1","","91","","","","circle","square","88","16","4","0.9886363636363636","","","","","","","",""
"null","516183","SARL_v6","SARL_v6fxtj8en1","63f78d9a7a3d118594efff74","freq_resp","","","img/orange_2bandit_b.png","70","img/orange_2bandit_b.png","70","test","","","","","","","","","","","4","","","","","","","","",""
"null","516352","SARL_v6","SARL_v6fxtj8en1","63f78d9a7a3d118594efff74","fixation","","","img/fixation.png","null","","","test","","","","","","","","","","","","","","","","","","","",""
"239","516596","SARL_v6","SARL_v6fxtj8en1","63f78d9a7a3d118594efff74","freq","","","img/orange_2bandit_b2.png","70","","70","test","1","","92","","","","circle","square","89","17","4","0.9887640449438202","","","","","","","",""
"null","517171","SARL_v6","SARL_v6fxtj8en1","63f78d9a7a3d118594efff74","freq_resp","","","img/orange_2bandit_b.png","70","img/orange_2bandit_b.png","70","test","","","","","","","","","","","4","","","","","","","","",""
"null","517341","SARL_v6","SARL_v6fxtj8en1","63f78d9a7a3d118594efff74","fixation","","","img/fixation.png","null","","","test","","","","","","","","","","","","","","","","","","","",""
"240.29999999701977","517586","SARL_v6","SARL_v6fxtj8en1","63f78d9a7a3d118594efff74","freq","","","img/orange_2bandit_b2.png","70","","70","test","1","","93","","","","circle","square","90","18","4","0.9888888888888889","","","","","","","",""
"null","518164","SARL_v6","SARL_v6fxtj8en1","63f78d9a7a3d118594efff74","freq_resp","","","img/orange_2bandit_b.png","70","img/orange_2bandit_b.png","70","test","","","","","","","","","","","4","","","","","","","","",""
"null","518319","SARL_v6","SARL_v6fxtj8en1","63f78d9a7a3d118594efff74","fixation","","","img/fixation.png","null","","","test","","","","","","","","","","","","","","","","","","","",""
"276.5","518599","SARL_v6","SARL_v6fxtj8en1","63f78d9a7a3d118594efff74","freq","","","img/orange_2bandit_b2.png","70","","70","test","1","","94","","","","circle","square","91","19","4","0.989010989010989","","","","","","","",""
"null","519140","SARL_v6","SARL_v6fxtj8en1","63f78d9a7a3d118594efff74","freq_resp","","","img/orange_2bandit_b.png","70","img/orange_2bandit_b.png","70","test","","","","","","","","","","","4","","","","","","","","",""
"null","519296","SARL_v6","SARL_v6fxtj8en1","63f78d9a7a3d118594efff74","fixation","","","img/fixation.png","null","","","test","","","","","","","","","","","","","","","","","","","",""
"633.2000000029802","519935","SARL_v6","SARL_v6fxtj8en1","63f78d9a7a3d118594efff74","rl","","","img/black_2bandit_b2.png","74","","0","test","","","95","","","0","circle","square","","0","4","","74","0","-12","0","-12","circle","4","0"
"null","520701","SARL_v6","SARL_v6fxtj8en1","63f78d9a7a3d118594efff74","feedback","","","<div class=""verylowPoints""> 0 </div>","null","","na","test","","","NaN","","","","","","","","4","","74","","","","","","4",""
"565.5","521271","SARL_v6","SARL_v6fxtj8en1","63f78d9a7a3d118594efff74","freq","","","img/orange_2bandit_b2.png","70","","70","test","1","","96","","","","circle","square","92","1","5","0.9891304347826086","","","","","","","",""
"null","521522","SARL_v6","SARL_v6fxtj8en1","63f78d9a7a3d118594efff74","freq_resp","","","img/orange_2bandit_b.png","70","img/orange_2bandit_b.png","70","test","","","","","","","","","","","5","","","","","","","","",""
"null","521677","SARL_v6","SARL_v6fxtj8en1","63f78d9a7a3d118594efff74","fixation","","","img/fixation.png","null","","","test","","","","","","","","","","","","","","","","","","","",""
"436.59999999403954","522118","SARL_v6","SARL_v6fxtj8en1","63f78d9a7a3d118594efff74","freq","","","img/orange_2bandit_b2.png","70","","70","test","1","","97","","","","circle","square","93","2","5","0.989247311827957","","","","","","","",""
"null","522496","SARL_v6","SARL_v6fxtj8en1","63f78d9a7a3d118594efff74","freq_resp","","","img/orange_2bandit_b.png","70","img/orange_2bandit_b.png","70","test","","","","","","","","","","","5","","","","","","","","",""
"null","522652","SARL_v6","SARL_v6fxtj8en1","63f78d9a7a3d118594efff74","fixation","","","img/fixation.png","null","","","test","","","","","","","","","","","","","","","","","","","",""
"258.40000000596046","522914","SARL_v6","SARL_v6fxtj8en1","63f78d9a7a3d118594efff74","freq","","","img/orange_2bandit_b2.png","70","","70","test","1","","98","","","","circle","square","94","3","5","0.9893617021276596","","","","","","","",""
"null","523474","SARL_v6","SARL_v6fxtj8en1","63f78d9a7a3d118594efff74","freq_resp","","","img/orange_2bandit_b.png","70","img/orange_2bandit_b.png","70","test","","","","","","","","","","","5","","","","","","","","",""
"null","523630","SARL_v6","SARL_v6fxtj8en1","63f78d9a7a3d118594efff74","fixation","","","img/fixation.png","null","","","test","","","","","","","","","","","","","","","","","","","",""
"295.09999999403954","523930","SARL_v6","SARL_v6fxtj8en1","63f78d9a7a3d118594efff74","freq","","","img/orange_2bandit_b2.png","70","","70","test","1","","99","","","","circle","square","95","4","5","0.9894736842105263","","","","","","","",""
"null","524451","SARL_v6","SARL_v6fxtj8en1","63f78d9a7a3d118594efff74","freq_resp","","","img/orange_2bandit_b.png","70","img/orange_2bandit_b.png","70","test","","","","","","","","","","","5","","","","","","","","",""
"null","524621","SARL_v6","SARL_v6fxtj8en1","63f78d9a7a3d118594efff74","fixation","","","img/fixation.png","null","","","test","","","","","","","","","","","","","","","","","","","",""
"255.09999999403954","524881","SARL_v6","SARL_v6fxtj8en1","63f78d9a7a3d118594efff74","freq","","","img/orange_2bandit_b2.png","70","","70","test","1","","100","","","","circle","square","96","5","5","0.9895833333333334","","","","","","","",""
"null","525444","SARL_v6","SARL_v6fxtj8en1","63f78d9a7a3d118594efff74","freq_resp","","","img/orange_2bandit_b.png","70","img/orange_2bandit_b.png","70","test","","","","","","","","","","","5","","","","","","","","",""
"null","525615","SARL_v6","SARL_v6fxtj8en1","63f78d9a7a3d118594efff74","fixation","","","img/fixation.png","null","","","test","","","","","","","","","","","","","","","","","","","",""
"297.8999999910593","525918","SARL_v6","SARL_v6fxtj8en1","63f78d9a7a3d118594efff74","freq","","","img/orange_2bandit_b2.png","70","","70","test","1","","101","","","","circle","square","97","6","5","0.9896907216494846","","","","","","","",""
"null","526436","SARL_v6","SARL_v6fxtj8en1","63f78d9a7a3d118594efff74","freq_resp","","","img/orange_2bandit_b.png","70","img/orange_2bandit_b.png","70","test","","","","","","","","","","","5","","","","","","","","",""
"null","526607","SARL_v6","SARL_v6fxtj8en1","63f78d9a7a3d118594efff74","fixation","","","img/fixation.png","null","","","test","","","","","","","","","","","","","","","","","","","",""
"274.20000000298023","526886","SARL_v6","SARL_v6fxtj8en1","63f78d9a7a3d118594efff74","freq","","","img/orange_2bandit_b2.png","70","","70","test","1","","102","","","","circle","square","98","7","5","0.9897959183673469","","","","","","","",""
"null","527418","SARL_v6","SARL_v6fxtj8en1","63f78d9a7a3d118594efff74","freq_resp","","","img/orange_2bandit_b.png","70","img/orange_2bandit_b.png","70","test","","","","","","","","","","","5","","","","","","","","",""
"null","527574","SARL_v6","SARL_v6fxtj8en1","63f78d9a7a3d118594efff74","fixation","","","img/fixation.png","null","","","test","","","","","","","","","","","","","","","","","","","",""
"279.29999999701977","527856","SARL_v6","SARL_v6fxtj8en1","63f78d9a7a3d118594efff74","freq","","","img/orange_2bandit_b2.png","70","","70","test","1","","103","","","","circle","square","99","8","5","0.98989898989899","","","","","","","",""
"null","528394","SARL_v6","SARL_v6fxtj8en1","63f78d9a7a3d118594efff74","freq_resp","","","img/orange_2bandit_b.png","70","img/orange_2bandit_b.png","70","test","","","","","","","","","","","5","","","","","","","","",""
"null","528563","SARL_v6","SARL_v6fxtj8en1","63f78d9a7a3d118594efff74","fixation","","","img/fixation.png","null","","","test","","","","","","","","","","","","","","","","","","","",""
"255.30000001192093","528824","SARL_v6","SARL_v6fxtj8en1","63f78d9a7a3d118594efff74","freq","","","img/orange_2bandit_b2.png","70","","70","test","1","","104","","","","circle","square","100","9","5","0.99","","","","","","","",""
"null","529384","SARL_v6","SARL_v6fxtj8en1","63f78d9a7a3d118594efff74","freq_resp","","","img/orange_2bandit_b.png","70","img/orange_2bandit_b.png","70","test","","","","","","","","","","","5","","","","","","","","",""
"null","529554","SARL_v6","SARL_v6fxtj8en1","63f78d9a7a3d118594efff74","fixation","","","img/fixation.png","null","","","test","","","","","","","","","","","","","","","","","","","",""
"257.59999999403954","529816","SARL_v6","SARL_v6fxtj8en1","63f78d9a7a3d118594efff74","freq","","","img/orange_2bandit_b2.png","70","","70","test","1","","105","","","","circle","square","101","10","5","0.9900990099009901","","","","","","","",""
"null","530378","SARL_v6","SARL_v6fxtj8en1","63f78d9a7a3d118594efff74","freq_resp","","","img/orange_2bandit_b.png","70","img/orange_2bandit_b.png","70","test","","","","","","","","","","","5","","","","","","","","",""
"null","530547","SARL_v6","SARL_v6fxtj8en1","63f78d9a7a3d118594efff74","fixation","","","img/fixation.png","null","","","test","","","","","","","","","","","","","","","","","","","",""
"427.09999999403954","530979","SARL_v6","SARL_v6fxtj8en1","63f78d9a7a3d118594efff74","infreq","","","img/blue_2bandit_b2.png","68","","68","test","1","","106","","","","circle","square","102","11","5","0.9901960784313726","","","","","","","",""
"null","531369","SARL_v6","SARL_v6fxtj8en1","63f78d9a7a3d118594efff74","infreq_resp","","","img/blue_2bandit_b.png","68","img/blue_2bandit_b.png","68","test","","","","","","","","","","","5","","","","","","","","",""
"null","531538","SARL_v6","SARL_v6fxtj8en1","63f78d9a7a3d118594efff74","fixation","","","img/fixation.png","null","","","test","","","","","","","","","","","","","","","","","","","",""
"401.6000000089407","531944","SARL_v6","SARL_v6fxtj8en1","63f78d9a7a3d118594efff74","freq","","","img/orange_2bandit_b2.png","70","","70","test","1","","107","","","","circle","square","103","12","5","0.9902912621359223","","","","","","","",""
"null","532361","SARL_v6","SARL_v6fxtj8en1","63f78d9a7a3d118594efff74","freq_resp","","","img/orange_2bandit_b.png","70","img/orange_2bandit_b.png","70","test","","","","","","","","","","","5","","","","","","","","",""
"null","532516","SARL_v6","SARL_v6fxtj8en1","63f78d9a7a3d118594efff74","fixation","","","img/fixation.png","null","","","test","","","","","","","","","","","","","","","","","","","",""
"184","532705","SARL_v6","SARL_v6fxtj8en1","63f78d9a7a3d118594efff74","freq","","","img/orange_2bandit_b2.png","70","","70","test","1","","108","","","","circle","square","104","13","5","0.9903846153846154","","","","","","","",""
"null","533329","SARL_v6","SARL_v6fxtj8en1","63f78d9a7a3d118594efff74","freq_resp","","","img/orange_2bandit_b.png","70","img/orange_2bandit_b.png","70","test","","","","","","","","","","","5","","","","","","","","",""
"null","533498","SARL_v6","SARL_v6fxtj8en1","63f78d9a7a3d118594efff74","fixation","","","img/fixation.png","null","","","test","","","","","","","","","","","","","","","","","","","",""
"226.1000000089407","533729","SARL_v6","SARL_v6fxtj8en1","63f78d9a7a3d118594efff74","freq","","","img/orange_2bandit_b2.png","70","","70","test","1","","109","","","","circle","square","105","14","5","0.9904761904761905","","","","","","","",""
"null","534318","SARL_v6","SARL_v6fxtj8en1","63f78d9a7a3d118594efff74","freq_resp","","","img/orange_2bandit_b.png","70","img/orange_2bandit_b.png","70","test","","","","","","","","","","","5","","","","","","","","",""
"null","534487","SARL_v6","SARL_v6fxtj8en1","63f78d9a7a3d118594efff74","fixation","","","img/fixation.png","null","","","test","","","","","","","","","","","","","","","","","","","",""
"232.20000000298023","534724","SARL_v6","SARL_v6fxtj8en1","63f78d9a7a3d118594efff74","freq","","","img/orange_2bandit_b2.png","70","","70","test","1","","110","","","","circle","square","106","15","5","0.9905660377358491","","","","","","","",""
"null","535312","SARL_v6","SARL_v6fxtj8en1","63f78d9a7a3d118594efff74","freq_resp","","","img/orange_2bandit_b.png","70","img/orange_2bandit_b.png","70","test","","","","","","","","","","","5","","","","","","","","",""
"null","535481","SARL_v6","SARL_v6fxtj8en1","63f78d9a7a3d118594efff74","fixation","","","img/fixation.png","null","","","test","","","","","","","","","","","","","","","","","","","",""
"586.7000000029802","536073","SARL_v6","SARL_v6fxtj8en1","63f78d9a7a3d118594efff74","infreq","","","img/blue_2bandit_b2.png","68","","68","test","1","","111","","","","circle","square","107","16","5","0.9906542056074766","","","","","","","",""
"null","536305","SARL_v6","SARL_v6fxtj8en1","63f78d9a7a3d118594efff74","infreq_resp","","","img/blue_2bandit_b.png","68","img/blue_2bandit_b.png","68","test","","","","","","","","","","","5","","","","","","","","",""
"null","536474","SARL_v6","SARL_v6fxtj8en1","63f78d9a7a3d118594efff74","fixation","","","img/fixation.png","null","","","test","","","","","","","","","","","","","","","","","","","",""
"294.79999999701977","536774","SARL_v6","SARL_v6fxtj8en1","63f78d9a7a3d118594efff74","freq","","","img/orange_2bandit_b2.png","70","","70","test","1","","112","","","","circle","square","108","17","5","0.9907407407407407","","","","","","","",""
"null","537296","SARL_v6","SARL_v6fxtj8en1","63f78d9a7a3d118594efff74","freq_resp","","","img/orange_2bandit_b.png","70","img/orange_2bandit_b.png","70","test","","","","","","","","","","","5","","","","","","","","",""
"null","537451","SARL_v6","SARL_v6fxtj8en1","63f78d9a7a3d118594efff74","fixation","","","img/fixation.png","null","","","test","","","","","","","","","","","","","","","","","","","",""
"262.19999998807907","537718","SARL_v6","SARL_v6fxtj8en1","63f78d9a7a3d118594efff74","freq","","","img/orange_2bandit_b2.png","70","","70","test","1","","113","","","","circle","square","109","18","5","0.9908256880733946","","","","","","","",""
"null","538272","SARL_v6","SARL_v6fxtj8en1","63f78d9a7a3d118594efff74","freq_resp","","","img/orange_2bandit_b.png","70","img/orange_2bandit_b.png","70","test","","","","","","","","","","","5","","","","","","","","",""
"null","538427","SARL_v6","SARL_v6fxtj8en1","63f78d9a7a3d118594efff74","fixation","","","img/fixation.png","null","","","test","","","","","","","","","","","","","","","","","","","",""
"270.20000000298023","538702","SARL_v6","SARL_v6fxtj8en1","63f78d9a7a3d118594efff74","freq","","","img/orange_2bandit_b2.png","70","","70","test","1","","114","","","","circle","square","110","19","5","0.990909090909091","","","","","","","",""
"null","539246","SARL_v6","SARL_v6fxtj8en1","63f78d9a7a3d118594efff74","freq_resp","","","img/orange_2bandit_b.png","70","img/orange_2bandit_b.png","70","test","","","","","","","","","","","5","","","","","","","","",""
"null","539402","SARL_v6","SARL_v6fxtj8en1","63f78d9a7a3d118594efff74","fixation","","","img/fixation.png","null","","","test","","","","","","","","","","","","","","","","","","","",""
"242.29999999701977","539649","SARL_v6","SARL_v6fxtj8en1","63f78d9a7a3d118594efff74","freq","","","img/orange_2bandit_b2.png","70","","70","test","1","","115","","","","circle","square","111","20","5","0.990990990990991","","","","","","","",""
"null","540221","SARL_v6","SARL_v6fxtj8en1","63f78d9a7a3d118594efff74","freq_resp","","","img/orange_2bandit_b.png","70","img/orange_2bandit_b.png","70","test","","","","","","","","","","","5","","","","","","","","",""
"null","540390","SARL_v6","SARL_v6fxtj8en1","63f78d9a7a3d118594efff74","fixation","","","img/fixation.png","null","","","test","","","","","","","","","","","","","","","","","","","",""
"260.1000000089407","540655","SARL_v6","SARL_v6fxtj8en1","63f78d9a7a3d118594efff74","freq","","","img/orange_2bandit_b2.png","70","","70","test","1","","116","","","","circle","square","112","21","5","0.9910714285714286","","","","","","","",""
"null","541205","SARL_v6","SARL_v6fxtj8en1","63f78d9a7a3d118594efff74","freq_resp","","","img/orange_2bandit_b.png","70","img/orange_2bandit_b.png","70","test","","","","","","","","","","","5","","","","","","","","",""
"null","541374","SARL_v6","SARL_v6fxtj8en1","63f78d9a7a3d118594efff74","fixation","","","img/fixation.png","null","","","test","","","","","","","","","","","","","","","","","","","",""
"279.59999999403954","541658","SARL_v6","SARL_v6fxtj8en1","63f78d9a7a3d118594efff74","freq","","","img/orange_2bandit_b2.png","70","","70","test","1","","117","","","","circle","square","113","22","5","0.9911504424778761","","","","","","","",""
"null","542196","SARL_v6","SARL_v6fxtj8en1","63f78d9a7a3d118594efff74","freq_resp","","","img/orange_2bandit_b.png","70","img/orange_2bandit_b.png","70","test","","","","","","","","","","","5","","","","","","","","",""
"null","542351","SARL_v6","SARL_v6fxtj8en1","63f78d9a7a3d118594efff74","fixation","","","img/fixation.png","null","","","test","","","","","","","","","","","","","","","","","","","",""
"314","542669","SARL_v6","SARL_v6fxtj8en1","63f78d9a7a3d118594efff74","freq","","","img/orange_2bandit_b2.png","70","","70","test","1","","118","","","","circle","square","114","23","5","0.9912280701754386","","","","","","","",""
"null","543175","SARL_v6","SARL_v6fxtj8en1","63f78d9a7a3d118594efff74","freq_resp","","","img/orange_2bandit_b.png","70","img/orange_2bandit_b.png","70","test","","","","","","","","","","","5","","","","","","","","",""
"null","543345","SARL_v6","SARL_v6fxtj8en1","63f78d9a7a3d118594efff74","fixation","","","img/fixation.png","null","","","test","","","","","","","","","","","","","","","","","","","",""
"598.7000000029802","543949","SARL_v6","SARL_v6fxtj8en1","63f78d9a7a3d118594efff74","rl","","","img/black_2bandit_b2.png","74","","0","test","","","119","","","4","circle","square","","0","5","","74","4","-7","4","-7","circle","5","0"
"null","544709","SARL_v6","SARL_v6fxtj8en1","63f78d9a7a3d118594efff74","feedback","","","<div class=""veryhighPoints""> 4 </div>","null","","na","test","","","NaN","","","","","","","","5","","74","","","","","","5",""
"676.3999999910593","545390","SARL_v6","SARL_v6fxtj8en1","63f78d9a7a3d118594efff74","freq","","","img/orange_2bandit_b2.png","70","","70","test","1","","120","","","","circle","square","115","1","6","0.991304347826087","","","","","","","",""
"null","545529","SARL_v6","SARL_v6fxtj8en1","63f78d9a7a3d118594efff74","freq_resp","","","img/orange_2bandit_b.png","70","img/orange_2bandit_b.png","70","test","","","","","","","","","","","6","","","","","","","","",""
"null","545686","SARL_v6","SARL_v6fxtj8en1","63f78d9a7a3d118594efff74","fixation","","","img/fixation.png","null","","","test","","","","","","","","","","","","","","","","","","","",""
"370.5","546061","SARL_v6","SARL_v6fxtj8en1","63f78d9a7a3d118594efff74","freq","","","img/orange_2bandit_b2.png","70","","70","test","1","","121","","","","circle","square","116","2","6","0.9913793103448276","","","","","","","",""
"null","546509","SARL_v6","SARL_v6fxtj8en1","63f78d9a7a3d118594efff74","freq_resp","","","img/orange_2bandit_b.png","70","img/orange_2bandit_b.png","70","test","","","","","","","","","","","6","","","","","","","","",""
"null","546664","SARL_v6","SARL_v6fxtj8en1","63f78d9a7a3d118594efff74","fixation","","","img/fixation.png","null","","","test","","","","","","","","","","","","","","","","","","","",""
"235.3999999910593","546904","SARL_v6","SARL_v6fxtj8en1","63f78d9a7a3d118594efff74","freq","","","img/orange_2bandit_b2.png","70","","70","test","1","","122","","","","circle","square","117","3","6","0.9914529914529915","","","","","","","",""
"null","547488","SARL_v6","SARL_v6fxtj8en1","63f78d9a7a3d118594efff74","freq_resp","","","img/orange_2bandit_b.png","70","img/orange_2bandit_b.png","70","test","","","","","","","","","","","6","","","","","","","","",""
"null","547657","SARL_v6","SARL_v6fxtj8en1","63f78d9a7a3d118594efff74","fixation","","","img/fixation.png","null","","","test","","","","","","","","","","","","","","","","","","","",""
"245.59999999403954","547907","SARL_v6","SARL_v6fxtj8en1","63f78d9a7a3d118594efff74","freq","","","img/orange_2bandit_b2.png","70","","70","test","1","","123","","","","circle","square","118","4","6","0.9915254237288136","","","","","","","",""
"null","548474","SARL_v6","SARL_v6fxtj8en1","63f78d9a7a3d118594efff74","freq_resp","","","img/orange_2bandit_b.png","70","img/orange_2bandit_b.png","70","test","","","","","","","","","","","6","","","","","","","","",""
"null","548629","SARL_v6","SARL_v6fxtj8en1","63f78d9a7a3d118594efff74","fixation","","","img/fixation.png","null","","","test","","","","","","","","","","","","","","","","","","","",""
"207.59999999403954","548842","SARL_v6","SARL_v6fxtj8en1","63f78d9a7a3d118594efff74","freq","","","img/orange_2bandit_b2.png","70","","70","test","1","","124","","","","circle","square","119","5","6","0.9915966386554622","","","","","","","",""
"null","549453","SARL_v6","SARL_v6fxtj8en1","63f78d9a7a3d118594efff74","freq_resp","","","img/orange_2bandit_b.png","70","img/orange_2bandit_b.png","70","test","","","","","","","","","","","6","","","","","","","","",""
"null","549623","SARL_v6","SARL_v6fxtj8en1","63f78d9a7a3d118594efff74","fixation","","","img/fixation.png","null","","","test","","","","","","","","","","","","","","","","","","","",""
"220.6000000089407","549849","SARL_v6","SARL_v6fxtj8en1","63f78d9a7a3d118594efff74","freq","","","img/orange_2bandit_b2.png","70","","70","test","1","","125","","","","circle","square","120","6","6","0.9916666666666667","","","","","","","",""
"null","550443","SARL_v6","SARL_v6fxtj8en1","63f78d9a7a3d118594efff74","freq_resp","","","img/orange_2bandit_b.png","70","img/orange_2bandit_b.png","70","test","","","","","","","","","","","6","","","","","","","","",""
"null","550612","SARL_v6","SARL_v6fxtj8en1","63f78d9a7a3d118594efff74","fixation","","","img/fixation.png","null","","","test","","","","","","","","","","","","","","","","","","","",""
"268.1000000089407","550885","SARL_v6","SARL_v6fxtj8en1","63f78d9a7a3d118594efff74","freq","","","img/orange_2bandit_b2.png","70","","70","test","1","","126","","","","circle","square","121","7","6","0.9917355371900827","","","","","","","",""
"null","551431","SARL_v6","SARL_v6fxtj8en1","63f78d9a7a3d118594efff74","freq_resp","","","img/orange_2bandit_b.png","70","img/orange_2bandit_b.png","70","test","","","","","","","","","","","6","","","","","","","","",""
"null","551588","SARL_v6","SARL_v6fxtj8en1","63f78d9a7a3d118594efff74","fixation","","","img/fixation.png","null","","","test","","","","","","","","","","","","","","","","","","","",""
"241","551831","SARL_v6","SARL_v6fxtj8en1","63f78d9a7a3d118594efff74","freq","","","img/orange_2bandit_b2.png","70","","70","test","1","","127","","","","circle","square","122","8","6","0.9918032786885246","","","","","","","",""
"null","552406","SARL_v6","SARL_v6fxtj8en1","63f78d9a7a3d118594efff74","freq_resp","","","img/orange_2bandit_b.png","70","img/orange_2bandit_b.png","70","test","","","","","","","","","","","6","","","","","","","","",""
"null","552562","SARL_v6","SARL_v6fxtj8en1","63f78d9a7a3d118594efff74","fixation","","","img/fixation.png","null","","","test","","","","","","","","","","","","","","","","","","","",""
"273","552840","SARL_v6","SARL_v6fxtj8en1","63f78d9a7a3d118594efff74","freq","","","img/orange_2bandit_b2.png","70","","70","test","1","","128","","","","circle","square","123","9","6","0.991869918699187","","","","","","","",""
"null","553382","SARL_v6","SARL_v6fxtj8en1","63f78d9a7a3d118594efff74","freq_resp","","","img/orange_2bandit_b.png","70","img/orange_2bandit_b.png","70","test","","","","","","","","","","","6","","","","","","","","",""
"null","553537","SARL_v6","SARL_v6fxtj8en1","63f78d9a7a3d118594efff74","fixation","","","img/fixation.png","null","","","test","","","","","","","","","","","","","","","","","","","",""
"520.3999999910593","554063","SARL_v6","SARL_v6fxtj8en1","63f78d9a7a3d118594efff74","infreq","","","img/blue_2bandit_b2.png","68","","68","test","1","","129","","","","circle","square","124","10","6","0.9919354838709677","","","","","","","",""
"null","554356","SARL_v6","SARL_v6fxtj8en1","63f78d9a7a3d118594efff74","infreq_resp","","","img/blue_2bandit_b.png","68","img/blue_2bandit_b.png","68","test","","","","","","","","","","","6","","","","","","","","",""
"null","554511","SARL_v6","SARL_v6fxtj8en1","63f78d9a7a3d118594efff74","fixation","","","img/fixation.png","null","","","test","","","","","","","","","","","","","","","","","","","",""
"280.59999999403954","554796","SARL_v6","SARL_v6fxtj8en1","63f78d9a7a3d118594efff74","freq","","","img/orange_2bandit_b2.png","70","","70","test","1","","130","","","","circle","square","125","11","6","0.992","","","","","","","",""
"null","555332","SARL_v6","SARL_v6fxtj8en1","63f78d9a7a3d118594efff74","freq_resp","","","img/orange_2bandit_b.png","70","img/orange_2bandit_b.png","70","test","","","","","","","","","","","6","","","","","","","","",""
"null","555502","SARL_v6","SARL_v6fxtj8en1","63f78d9a7a3d118594efff74","fixation","","","img/fixation.png","null","","","test","","","","","","","","","","","","","","","","","","","",""
"83.5","555591","SARL_v6","SARL_v6fxtj8en1","63f78d9a7a3d118594efff74","freq","","","img/orange_2bandit_b2.png","70","","70","test","1","","131","","","","circle","square","126","12","6","0.9920634920634921","","","","","","","",""
