"rt","time_elapsed","expId","subject","prolificID","trialType","rlType","attType","stimulus","key_press","stim","corrresp","phase","corr","pracCounter","trialNum","rewardOne","rewardTwo","reward","bandOne","bandTwo","attentionNum","attentionRunNum","blockNum","performance","bandChosen","circleVal","squareVal","bandOneVal","bandTwoVal","shapeChosen","rlNum","badFlag"
"86549","86557","SARL_v6","SARL_v6oa5lzrpz","5ea89d0c5a0a9c12978f8263","","","","","","","","","","","","","","","","","","","","","","","","","","","",""
"","89448","SARL_v6","SARL_v6oa5lzrpz","5ea89d0c5a0a9c12978f8263","fullscreen","fullscreen","fullscreen","","","","","","","","","","","","","","","","","","","","","","","","",""
"128662.20000001788","218112","SARL_v6","SARL_v6oa5lzrpz","5ea89d0c5a0a9c12978f8263","","","","","","","","","","","","","","","","","","","","","","","","","","","",""
"null","218923","SARL_v6","SARL_v6oa5lzrpz","5ea89d0c5a0a9c12978f8263","freqPrac","","","img/blue_2bandit_b2.png","null","img/blue_2bandit_b2.png","70","prac","0","1","","","","","","","","","","","","","","","","","",""
"null","219930","SARL_v6","SARL_v6oa5lzrpz","5ea89d0c5a0a9c12978f8263","feedback","","","img/tooSlow.png","null","","na","prac","","","","","","","","","","","","","","","","","","","",""
"null","220090","SARL_v6","SARL_v6oa5lzrpz","5ea89d0c5a0a9c12978f8263","fixation","","","img/fixation.png","null","","","prac","","","","","","","","","","","","","","","","","","","",""
"403.39999997615814","220498","SARL_v6","SARL_v6oa5lzrpz","5ea89d0c5a0a9c12978f8263","infreqPrac","","","img/orange_2bandit_b2.png","68","img/orange_2bandit_b2.png","68","prac","1","1","","","","","","","","","","","","","","","","","",""
"403.39999997615814","220906","SARL_v6","SARL_v6oa5lzrpz","5ea89d0c5a0a9c12978f8263","infreqPrac_resp","","","img/orange_2bandit_b.png","68","img/orange_2bandit_b.png","68","prac","","","","","","","","","","","","","","","","","","","",""
"null","221066","SARL_v6","SARL_v6oa5lzrpz","5ea89d0c5a0a9c12978f8263","fixation","","","img/fixation.png","null","","","prac","","","","","","","","","","","","","","","","","","","",""
"418.19999998807907","221488","SARL_v6","SARL_v6oa5lzrpz","5ea89d0c5a0a9c12978f8263","freqPrac","","","img/blue_2bandit_b2.png","70","img/blue_2bandit_b2.png","70","prac","1","1","","","","","","","","","","","","","","","","","",""
"418.19999998807907","221881","SARL_v6","SARL_v6oa5lzrpz","5ea89d0c5a0a9c12978f8263","freqPrac_resp","","","img/blue_2bandit_b.png","70","img/blue_2bandit_b.png","70","prac","","","","","","","","","","","","","","","","","","","",""
"null","222042","SARL_v6","SARL_v6oa5lzrpz","5ea89d0c5a0a9c12978f8263","fixation","","","img/fixation.png","null","","","prac","","","","","","","","","","","","","","","","","","","",""
"425.5","222472","SARL_v6","SARL_v6oa5lzrpz","5ea89d0c5a0a9c12978f8263","infreqPrac","","","img/orange_2bandit_b2.png","68","img/orange_2bandit_b2.png","68","prac","1","1","","","","","","","","","","","","","","","","","",""
"425.5","222856","SARL_v6","SARL_v6oa5lzrpz","5ea89d0c5a0a9c12978f8263","infreqPrac_resp","","","img/orange_2bandit_b.png","68","img/orange_2bandit_b.png","68","prac","","","","","","","","","","","","","","","","","","","",""
"null","223017","SARL_v6","SARL_v6oa5lzrpz","5ea89d0c5a0a9c12978f8263","fixation","","","img/fixation.png","null","","","prac","","","","","","","","","","","","","","","","","","","",""
"405.89999997615814","223426","SARL_v6","SARL_v6oa5lzrpz","5ea89d0c5a0a9c12978f8263","infreqPrac","","","img/orange_2bandit_b2.png","70","img/orange_2bandit_b2.png","68","prac","0","2","","","","","","","","","","","","","","","","","",""
"405.89999997615814","223824","SARL_v6","SARL_v6oa5lzrpz","5ea89d0c5a0a9c12978f8263","infreqPrac_resp","","","img/orange_2bandit_b.png","70","img/orange_2bandit_b.png","68","prac","","","","","","","","","","","","","","","","","","","",""
"null","224833","SARL_v6","SARL_v6oa5lzrpz","5ea89d0c5a0a9c12978f8263","feedback","","","img/wrongKey.png","null","","na","prac","","","","","","","","","","","","","","","","","","","",""
"null","224992","SARL_v6","SARL_v6oa5lzrpz","5ea89d0c5a0a9c12978f8263","fixation","","","img/fixation.png","null","","","prac","","","","","","","","","","","","","","","","","","","",""
"573.1999999880791","225567","SARL_v6","SARL_v6oa5lzrpz","5ea89d0c5a0a9c12978f8263","infreqPrac","","","img/orange_2bandit_b2.png","68","img/orange_2bandit_b2.png","68","prac","1","2","","","","","","","","","","","","","","","","","",""
"573.1999999880791","225801","SARL_v6","SARL_v6oa5lzrpz","5ea89d0c5a0a9c12978f8263","infreqPrac_resp","","","img/orange_2bandit_b.png","68","img/orange_2bandit_b.png","68","prac","","","","","","","","","","","","","","","","","","","",""
"null","225960","SARL_v6","SARL_v6oa5lzrpz","5ea89d0c5a0a9c12978f8263","fixation","","","img/fixation.png","null","","","prac","","","","","","","","","","","","","","","","","","","",""
"545.0999999940395","226508","SARL_v6","SARL_v6oa5lzrpz","5ea89d0c5a0a9c12978f8263","freqPrac","","","img/blue_2bandit_b2.png","70","img/blue_2bandit_b2.png","70","prac","1","2","","","","","","","","","","","","","","","","","",""
"545.0999999940395","226769","SARL_v6","SARL_v6oa5lzrpz","5ea89d0c5a0a9c12978f8263","freqPrac_resp","","","img/blue_2bandit_b.png","70","img/blue_2bandit_b.png","70","prac","","","","","","","","","","","","","","","","","","","",""
"null","226930","SARL_v6","SARL_v6oa5lzrpz","5ea89d0c5a0a9c12978f8263","fixation","","","img/fixation.png","null","","","prac","","","","","","","","","","","","","","","","","","","",""
"485.39999997615814","227418","SARL_v6","SARL_v6oa5lzrpz","5ea89d0c5a0a9c12978f8263","infreqPrac","","","img/orange_2bandit_b2.png","68","img/orange_2bandit_b2.png","68","prac","1","2","","","","","","","","","","","","","","","","","",""
"485.39999997615814","227736","SARL_v6","SARL_v6oa5lzrpz","5ea89d0c5a0a9c12978f8263","infreqPrac_resp","","","img/orange_2bandit_b.png","68","img/orange_2bandit_b.png","68","prac","","","","","","","","","","","","","","","","","","","",""
"null","227888","SARL_v6","SARL_v6oa5lzrpz","5ea89d0c5a0a9c12978f8263","fixation","","","img/fixation.png","null","","","prac","","","","","","","","","","","","","","","","","","","",""
"500.60000002384186","228390","SARL_v6","SARL_v6oa5lzrpz","5ea89d0c5a0a9c12978f8263","freqPrac","","","img/blue_2bandit_b2.png","70","img/blue_2bandit_b2.png","70","prac","1","2","","","","","","","","","","","","","","","","","",""
"500.60000002384186","228697","SARL_v6","SARL_v6oa5lzrpz","5ea89d0c5a0a9c12978f8263","freqPrac_resp","","","img/blue_2bandit_b.png","70","img/blue_2bandit_b.png","70","prac","","","","","","","","","","","","","","","","","","","",""
"null","228856","SARL_v6","SARL_v6oa5lzrpz","5ea89d0c5a0a9c12978f8263","fixation","","","img/fixation.png","null","","","prac","","","","","","","","","","","","","","","","","","","",""
"510.90000000596046","229368","SARL_v6","SARL_v6oa5lzrpz","5ea89d0c5a0a9c12978f8263","freqPrac","","","img/blue_2bandit_b2.png","70","img/blue_2bandit_b2.png","70","prac","1","2","","","","","","","","","","","","","","","","","",""
"510.90000000596046","229665","SARL_v6","SARL_v6oa5lzrpz","5ea89d0c5a0a9c12978f8263","freqPrac_resp","","","img/blue_2bandit_b.png","70","img/blue_2bandit_b.png","70","prac","","","","","","","","","","","","","","","","","","","",""
"null","229826","SARL_v6","SARL_v6oa5lzrpz","5ea89d0c5a0a9c12978f8263","fixation","","","img/fixation.png","null","","","prac","","","","","","","","","","","","","","","","","","","",""
"39032.60000002384","268861","SARL_v6","SARL_v6oa5lzrpz","5ea89d0c5a0a9c12978f8263","","","","","","","","prac","","","","","","","","","","","","","","","","","","","",""
"839","269704","SARL_v6","SARL_v6oa5lzrpz","5ea89d0c5a0a9c12978f8263","rlPractice","","","img/black_2bandit_b2.png","74","img/black_2bandit_b2.png","","prac","","","0","","","","","","","","","","","","","","","","",""
"null","270456","SARL_v6","SARL_v6oa5lzrpz","5ea89d0c5a0a9c12978f8263","feedback","","","<div class=""veryhighPoints""> 10 </div>","null","","na","prac","","","1","10","-14","10","","","","","","","","","","","","","",""
"null","270608","SARL_v6","SARL_v6oa5lzrpz","5ea89d0c5a0a9c12978f8263","fixation","","","img/fixation.png","null","","","prac","","","","","","","","","","","","","","","","","","","",""
"469.60000002384186","271079","SARL_v6","SARL_v6oa5lzrpz","5ea89d0c5a0a9c12978f8263","rlPractice","","","img/black_2bandit_b2.png","75","img/black_2bandit_b2.png","","prac","","","1","","","","","","","","","","","","","","","","",""
"null","271833","SARL_v6","SARL_v6oa5lzrpz","5ea89d0c5a0a9c12978f8263","feedback","","","<div class=""verylowPoints_sq""> -5 </div>","null","","na","prac","","","2","5","-5","5","","","","","","","","","","","","","",""
"null","271992","SARL_v6","SARL_v6oa5lzrpz","5ea89d0c5a0a9c12978f8263","fixation","","","img/fixation.png","null","","","prac","","","","","","","","","","","","","","","","","","","",""
"313.5","272307","SARL_v6","SARL_v6oa5lzrpz","5ea89d0c5a0a9c12978f8263","rlPractice","","","img/black_2bandit_b2.png","74","img/black_2bandit_b2.png","","prac","","","2","","","","","","","","","","","","","","","","",""
"null","273065","SARL_v6","SARL_v6oa5lzrpz","5ea89d0c5a0a9c12978f8263","feedback","","","<div class=""veryhighPoints""> 30 </div>","null","","na","prac","","","3","30","2","30","","","","","","","","","","","","","",""
"null","273225","SARL_v6","SARL_v6oa5lzrpz","5ea89d0c5a0a9c12978f8263","fixation","","","img/fixation.png","null","","","prac","","","","","","","","","","","","","","","","","","","",""
"386.5","273617","SARL_v6","SARL_v6oa5lzrpz","5ea89d0c5a0a9c12978f8263","rlPractice","","","img/black_2bandit_b2.png","74","img/black_2bandit_b2.png","","prac","","","3","","","","","","","","","","","","","","","","",""
"null","274376","SARL_v6","SARL_v6oa5lzrpz","5ea89d0c5a0a9c12978f8263","feedback","","","<div class=""verylowPoints""> -2 </div>","null","","na","prac","","","4","-2","20","-2","","","","","","","","","","","","","",""
"null","274528","SARL_v6","SARL_v6oa5lzrpz","5ea89d0c5a0a9c12978f8263","fixation","","","img/fixation.png","null","","","prac","","","","","","","","","","","","","","","","","","","",""
"14000.699999988079","288530","SARL_v6","SARL_v6oa5lzrpz","5ea89d0c5a0a9c12978f8263","","","","","","","","prac","","","","","","","","","","","","","","","","","","","",""
"679.2999999821186","289211","SARL_v6","SARL_v6oa5lzrpz","5ea89d0c5a0a9c12978f8263","mixAttFreqPrac","","","img/blue_2bandit_b2.png","70","img/blue_2bandit_b2.png","70","prac","","","1","","","","","","","","","","","","","","","","",""
"679.2999999821186","289336","SARL_v6","SARL_v6oa5lzrpz","5ea89d0c5a0a9c12978f8263","freqPrac_resp","","","img/blue_2bandit_b.png","70","img/blue_2bandit_b.png","70","prac","","","1","","","","","","","","","","","","","","","","",""
"null","289488","SARL_v6","SARL_v6oa5lzrpz","5ea89d0c5a0a9c12978f8263","fixation","","","img/fixation.png","null","","","prac","","","","","","","","","","","","","","","","","","","",""
"544","290033","SARL_v6","SARL_v6oa5lzrpz","5ea89d0c5a0a9c12978f8263","mixAttInfreqPrac","","","img/orange_2bandit_b2.png","68","img/orange_2bandit_b2.png","68","prac","","","2","","","","","","","","","","","","","","","","",""
"544","290296","SARL_v6","SARL_v6oa5lzrpz","5ea89d0c5a0a9c12978f8263","infreqPrac_resp","","","img/orange_2bandit_b.png","68","img/blue_2bandit_b.png","68","prac","","","2","","","","","","","","","","","","","","","","",""
"null","290450","SARL_v6","SARL_v6oa5lzrpz","5ea89d0c5a0a9c12978f8263","fixation","","","img/fixation.png","null","","","prac","","","","","","","","","","","","","","","","","","","",""
"656.3999999761581","291110","SARL_v6","SARL_v6oa5lzrpz","5ea89d0c5a0a9c12978f8263","mixAttInfreqPrac","","","img/orange_2bandit_b2.png","70","img/orange_2bandit_b2.png","68","prac","","","3","","","","","","","","","","","","","","","","",""
"656.3999999761581","291256","SARL_v6","SARL_v6oa5lzrpz","5ea89d0c5a0a9c12978f8263","infreqPrac_resp","","","img/orange_2bandit_b.png","70","img/blue_2bandit_b.png","68","prac","","","3","","","","","","","","","","","","","","","","",""
"null","291408","SARL_v6","SARL_v6oa5lzrpz","5ea89d0c5a0a9c12978f8263","fixation","","","img/fixation.png","null","","","prac","","","","","","","","","","","","","","","","","","","",""
"650.3000000119209","292061","SARL_v6","SARL_v6oa5lzrpz","5ea89d0c5a0a9c12978f8263","mixAttInfreqPrac","","","img/orange_2bandit_b2.png","68","img/orange_2bandit_b2.png","68","prac","","","4","","","","","","","","","","","","","","","","",""
"650.3000000119209","292218","SARL_v6","SARL_v6oa5lzrpz","5ea89d0c5a0a9c12978f8263","infreqPrac_resp","","","img/orange_2bandit_b.png","68","img/blue_2bandit_b.png","68","prac","","","4","","","","","","","","","","","","","","","","",""
"null","292377","SARL_v6","SARL_v6oa5lzrpz","5ea89d0c5a0a9c12978f8263","fixation","","","img/fixation.png","null","","","prac","","","","","","","","","","","","","","","","","","","",""
"536.8999999761581","292918","SARL_v6","SARL_v6oa5lzrpz","5ea89d0c5a0a9c12978f8263","mixAttFreqPrac","","","img/blue_2bandit_b2.png","70","img/blue_2bandit_b2.png","70","prac","","","5","","","","","","","","","","","","","","","","",""
"536.8999999761581","293192","SARL_v6","SARL_v6oa5lzrpz","5ea89d0c5a0a9c12978f8263","freqPrac_resp","","","img/blue_2bandit_b.png","70","img/blue_2bandit_b.png","70","prac","","","5","","","","","","","","","","","","","","","","",""
"null","293344","SARL_v6","SARL_v6oa5lzrpz","5ea89d0c5a0a9c12978f8263","fixation","","","img/fixation.png","null","","","prac","","","","","","","","","","","","","","","","","","","",""
"902.2999999821186","294249","SARL_v6","SARL_v6oa5lzrpz","5ea89d0c5a0a9c12978f8263","mixRLPractice","","","img/black_2bandit_b2.png","74","img/black_2bandit_b2.png","","prac","","","5","","","","","","","","","","","","","","","","",""
"null","295008","SARL_v6","SARL_v6oa5lzrpz","5ea89d0c5a0a9c12978f8263","feedback","","","<div class=""verylowPoints""> -14 </div>","null","","na","prac","","","6","-14","10","-14","","","","","","","","","","","","","",""
"null","295160","SARL_v6","SARL_v6oa5lzrpz","5ea89d0c5a0a9c12978f8263","fixation","","","img/fixation.png","null","","","prac","","","","","","","","","","","","","","","","","","","",""
"623.7999999821186","295788","SARL_v6","SARL_v6oa5lzrpz","5ea89d0c5a0a9c12978f8263","mixAttFreqPrac","","","img/blue_2bandit_b2.png","70","img/blue_2bandit_b2.png","70","prac","","","7","","","","","","","","","","","","","","","","",""
"623.7999999821186","295968","SARL_v6","SARL_v6oa5lzrpz","5ea89d0c5a0a9c12978f8263","freqPrac_resp","","","img/blue_2bandit_b.png","70","img/blue_2bandit_b.png","70","prac","","","7","","","","","","","","","","","","","","","","",""
"null","296120","SARL_v6","SARL_v6oa5lzrpz","5ea89d0c5a0a9c12978f8263","fixation","","","img/fixation.png","null","","","prac","","","","","","","","","","","","","","","","","","","",""
"688.5","296812","SARL_v6","SARL_v6oa5lzrpz","5ea89d0c5a0a9c12978f8263","mixAttInfreqPrac","","","img/orange_2bandit_b2.png","68","img/orange_2bandit_b2.png","68","prac","","","8","","","","","","","","","","","","","","","","",""
"688.5","296927","SARL_v6","SARL_v6oa5lzrpz","5ea89d0c5a0a9c12978f8263","infreqPrac_resp","","","img/orange_2bandit_b.png","68","img/blue_2bandit_b.png","68","prac","","","8","","","","","","","","","","","","","","","","",""
"null","297080","SARL_v6","SARL_v6oa5lzrpz","5ea89d0c5a0a9c12978f8263","fixation","","","img/fixation.png","null","","","prac","","","","","","","","","","","","","","","","","","","",""
"null","297888","SARL_v6","SARL_v6oa5lzrpz","5ea89d0c5a0a9c12978f8263","mixAttFreqPrac","","","img/blue_2bandit_b2.png","null","img/blue_2bandit_b2.png","70","prac","","","9","","","","","","","","","","","","","","","","",""
"148.2000000178814","298040","SARL_v6","SARL_v6oa5lzrpz","5ea89d0c5a0a9c12978f8263","fixation","","","img/fixation.png","70","","","prac","","","","","","","","","","","","","","","","","","","",""
"531.3999999761581","298573","SARL_v6","SARL_v6oa5lzrpz","5ea89d0c5a0a9c12978f8263","mixAttFreqPrac","","","img/blue_2bandit_b2.png","70","img/blue_2bandit_b2.png","70","prac","","","10","","","","","","","","","","","","","","","","",""
"531.3999999761581","298848","SARL_v6","SARL_v6oa5lzrpz","5ea89d0c5a0a9c12978f8263","freqPrac_resp","","","img/blue_2bandit_b.png","70","img/blue_2bandit_b.png","70","prac","","","10","","","","","","","","","","","","","","","","",""
"null","299000","SARL_v6","SARL_v6oa5lzrpz","5ea89d0c5a0a9c12978f8263","fixation","","","img/fixation.png","null","","","prac","","","","","","","","","","","","","","","","","","","",""
"436.90000000596046","299440","SARL_v6","SARL_v6oa5lzrpz","5ea89d0c5a0a9c12978f8263","mixAttInfreqPrac","","","img/orange_2bandit_b2.png","68","img/orange_2bandit_b2.png","68","prac","","","11","","","","","","","","","","","","","","","","",""
"436.90000000596046","299808","SARL_v6","SARL_v6oa5lzrpz","5ea89d0c5a0a9c12978f8263","infreqPrac_resp","","","img/orange_2bandit_b.png","68","img/blue_2bandit_b.png","68","prac","","","11","","","","","","","","","","","","","","","","",""
"null","299960","SARL_v6","SARL_v6oa5lzrpz","5ea89d0c5a0a9c12978f8263","fixation","","","img/fixation.png","null","","","prac","","","","","","","","","","","","","","","","","","","",""
"632.0999999940395","300593","SARL_v6","SARL_v6oa5lzrpz","5ea89d0c5a0a9c12978f8263","mixRLPractice","","","img/black_2bandit_b2.png","74","img/black_2bandit_b2.png","","prac","","","11","","","","","","","","","","","","","","","","",""
"null","301352","SARL_v6","SARL_v6oa5lzrpz","5ea89d0c5a0a9c12978f8263","feedback","","","<div class=""veryhighPoints""> 5 </div>","null","","na","prac","","","12","5","-5","5","","","","","","","","","","","","","",""
"null","301504","SARL_v6","SARL_v6oa5lzrpz","5ea89d0c5a0a9c12978f8263","fixation","","","img/fixation.png","null","","","prac","","","","","","","","","","","","","","","","","","","",""
"8441.90000000596","309949","SARL_v6","SARL_v6oa5lzrpz","5ea89d0c5a0a9c12978f8263","","","","","","","","prac","","","","","","","","","","","","","","","","","","","",""
"507.7000000178814","310462","SARL_v6","SARL_v6oa5lzrpz","5ea89d0c5a0a9c12978f8263","freq","","","img/blue_2bandit_b2.png","70","","70","test","1","","1","","","","circle","square","1","1","1","1","","","","","","","",""
"null","310760","SARL_v6","SARL_v6oa5lzrpz","5ea89d0c5a0a9c12978f8263","freq_resp","","","img/blue_2bandit_b.png","70","img/blue_2bandit_b.png","70","test","","","","","","","","","","","1","","","","","","","","",""
"null","310912","SARL_v6","SARL_v6oa5lzrpz","5ea89d0c5a0a9c12978f8263","fixation","","","img/fixation.png","null","","","test","","","","","","","","","","","","","","","","","","","",""
"474.7000000178814","311390","SARL_v6","SARL_v6oa5lzrpz","5ea89d0c5a0a9c12978f8263","freq","","","img/blue_2bandit_b2.png","70","","70","test","1","","2","","","","circle","square","2","2","1","1","","","","","","","",""
"null","311722","SARL_v6","SARL_v6oa5lzrpz","5ea89d0c5a0a9c12978f8263","freq_resp","","","img/blue_2bandit_b.png","70","img/blue_2bandit_b.png","70","test","","","","","","","","","","","1","","","","","","","","",""
"null","311880","SARL_v6","SARL_v6oa5lzrpz","5ea89d0c5a0a9c12978f8263","fixation","","","img/fixation.png","null","","","test","","","","","","","","","","","","","","","","","","","",""
"474.40000000596046","312356","SARL_v6","SARL_v6oa5lzrpz","5ea89d0c5a0a9c12978f8263","freq","","","img/blue_2bandit_b2.png","70","","70","test","1","","3","","","","circle","square","3","3","1","1","","","","","","","",""
"null","312688","SARL_v6","SARL_v6oa5lzrpz","5ea89d0c5a0a9c12978f8263","freq_resp","","","img/blue_2bandit_b.png","70","img/blue_2bandit_b.png","70","test","","","","","","","","","","","1","","","","","","","","",""
"null","312840","SARL_v6","SARL_v6oa5lzrpz","5ea89d0c5a0a9c12978f8263","fixation","","","img/fixation.png","null","","","test","","","","","","","","","","","","","","","","","","","",""
"567","313409","SARL_v6","SARL_v6oa5lzrpz","5ea89d0c5a0a9c12978f8263","freq","","","img/blue_2bandit_b2.png","70","","70","test","1","","4","","","","circle","square","4","4","1","1","","","","","","","",""
"null","313648","SARL_v6","SARL_v6oa5lzrpz","5ea89d0c5a0a9c12978f8263","freq_resp","","","img/blue_2bandit_b.png","70","img/blue_2bandit_b.png","70","test","","","","","","","","","","","1","","","","","","","","",""
"null","313800","SARL_v6","SARL_v6oa5lzrpz","5ea89d0c5a0a9c12978f8263","fixation","","","img/fixation.png","null","","","test","","","","","","","","","","","","","","","","","","","",""
"460.80000001192093","314264","SARL_v6","SARL_v6oa5lzrpz","5ea89d0c5a0a9c12978f8263","freq","","","img/blue_2bandit_b2.png","70","","70","test","1","","5","","","","circle","square","5","5","1","1","","","","","","","",""
"null","314608","SARL_v6","SARL_v6oa5lzrpz","5ea89d0c5a0a9c12978f8263","freq_resp","","","img/blue_2bandit_b.png","70","img/blue_2bandit_b.png","70","test","","","","","","","","","","","1","","","","","","","","",""
"null","314760","SARL_v6","SARL_v6oa5lzrpz","5ea89d0c5a0a9c12978f8263","fixation","","","img/fixation.png","null","","","test","","","","","","","","","","","","","","","","","","","",""
"448.40000000596046","315210","SARL_v6","SARL_v6oa5lzrpz","5ea89d0c5a0a9c12978f8263","infreq","","","img/orange_2bandit_b2.png","68","","68","test","1","","6","","","","circle","square","6","6","1","1","","","","","","","",""
"null","315570","SARL_v6","SARL_v6oa5lzrpz","5ea89d0c5a0a9c12978f8263","infreq_resp","","","img/orange_2bandit_b.png","68","img/orange_2bandit_b.png","68","test","","","","","","","","","","","1","","","","","","","","",""
"null","315730","SARL_v6","SARL_v6oa5lzrpz","5ea89d0c5a0a9c12978f8263","fixation","","","img/fixation.png","null","","","test","","","","","","","","","","","","","","","","","","","",""
"525.3000000119209","316258","SARL_v6","SARL_v6oa5lzrpz","5ea89d0c5a0a9c12978f8263","freq","","","img/blue_2bandit_b2.png","70","","70","test","1","","7","","","","circle","square","7","7","1","1","","","","","","","",""
"null","316536","SARL_v6","SARL_v6oa5lzrpz","5ea89d0c5a0a9c12978f8263","freq_resp","","","img/blue_2bandit_b.png","70","img/blue_2bandit_b.png","70","test","","","","","","","","","","","1","","","","","","","","",""
"null","316688","SARL_v6","SARL_v6oa5lzrpz","5ea89d0c5a0a9c12978f8263","fixation","","","img/fixation.png","null","","","test","","","","","","","","","","","","","","","","","","","",""
"570.5","317260","SARL_v6","SARL_v6oa5lzrpz","5ea89d0c5a0a9c12978f8263","freq","","","img/blue_2bandit_b2.png","70","","70","test","1","","8","","","","circle","square","8","8","1","1","","","","","","","",""
"null","317496","SARL_v6","SARL_v6oa5lzrpz","5ea89d0c5a0a9c12978f8263","freq_resp","","","img/blue_2bandit_b.png","70","img/blue_2bandit_b.png","70","test","","","","","","","","","","","1","","","","","","","","",""
"null","317649","SARL_v6","SARL_v6oa5lzrpz","5ea89d0c5a0a9c12978f8263","fixation","","","img/fixation.png","null","","","test","","","","","","","","","","","","","","","","","","","",""
"492.59999999403954","318146","SARL_v6","SARL_v6oa5lzrpz","5ea89d0c5a0a9c12978f8263","freq","","","img/blue_2bandit_b2.png","70","","70","test","1","","9","","","","circle","square","9","9","1","1","","","","","","","",""
"null","318456","SARL_v6","SARL_v6oa5lzrpz","5ea89d0c5a0a9c12978f8263","freq_resp","","","img/blue_2bandit_b.png","70","img/blue_2bandit_b.png","70","test","","","","","","","","","","","1","","","","","","","","",""
"null","318609","SARL_v6","SARL_v6oa5lzrpz","5ea89d0c5a0a9c12978f8263","fixation","","","img/fixation.png","null","","","test","","","","","","","","","","","","","","","","","","","",""
"419.2999999821186","319030","SARL_v6","SARL_v6oa5lzrpz","5ea89d0c5a0a9c12978f8263","freq","","","img/blue_2bandit_b2.png","70","","70","test","1","","10","","","","circle","square","10","10","1","1","","","","","","","",""
"null","319416","SARL_v6","SARL_v6oa5lzrpz","5ea89d0c5a0a9c12978f8263","freq_resp","","","img/blue_2bandit_b.png","70","img/blue_2bandit_b.png","70","test","","","","","","","","","","","1","","","","","","","","",""
"null","319569","SARL_v6","SARL_v6oa5lzrpz","5ea89d0c5a0a9c12978f8263","fixation","","","img/fixation.png","null","","","test","","","","","","","","","","","","","","","","","","","",""
"394.19999998807907","319968","SARL_v6","SARL_v6oa5lzrpz","5ea89d0c5a0a9c12978f8263","freq","","","img/blue_2bandit_b2.png","70","","70","test","1","","11","","","","circle","square","11","11","1","1","","","","","","","",""
"null","320384","SARL_v6","SARL_v6oa5lzrpz","5ea89d0c5a0a9c12978f8263","freq_resp","","","img/blue_2bandit_b.png","70","img/blue_2bandit_b.png","70","test","","","","","","","","","","","1","","","","","","","","",""
"null","320544","SARL_v6","SARL_v6oa5lzrpz","5ea89d0c5a0a9c12978f8263","fixation","","","img/fixation.png","null","","","test","","","","","","","","","","","","","","","","","","","",""
"446.40000000596046","320992","SARL_v6","SARL_v6oa5lzrpz","5ea89d0c5a0a9c12978f8263","freq","","","img/blue_2bandit_b2.png","70","","70","test","1","","12","","","","circle","square","12","12","1","1","","","","","","","",""
"null","321352","SARL_v6","SARL_v6oa5lzrpz","5ea89d0c5a0a9c12978f8263","freq_resp","","","img/blue_2bandit_b.png","70","img/blue_2bandit_b.png","70","test","","","","","","","","","","","1","","","","","","","","",""
"null","321512","SARL_v6","SARL_v6oa5lzrpz","5ea89d0c5a0a9c12978f8263","fixation","","","img/fixation.png","null","","","test","","","","","","","","","","","","","","","","","","","",""
"488.30000001192093","322002","SARL_v6","SARL_v6oa5lzrpz","5ea89d0c5a0a9c12978f8263","freq","","","img/blue_2bandit_b2.png","70","","70","test","1","","13","","","","circle","square","13","13","1","1","","","","","","","",""
"null","322320","SARL_v6","SARL_v6oa5lzrpz","5ea89d0c5a0a9c12978f8263","freq_resp","","","img/blue_2bandit_b.png","70","img/blue_2bandit_b.png","70","test","","","","","","","","","","","1","","","","","","","","",""
"null","322474","SARL_v6","SARL_v6oa5lzrpz","5ea89d0c5a0a9c12978f8263","fixation","","","img/fixation.png","null","","","test","","","","","","","","","","","","","","","","","","","",""
"498.5","322975","SARL_v6","SARL_v6oa5lzrpz","5ea89d0c5a0a9c12978f8263","freq","","","img/blue_2bandit_b2.png","70","","70","test","1","","14","","","","circle","square","14","14","1","1","","","","","","","",""
"null","323282","SARL_v6","SARL_v6oa5lzrpz","5ea89d0c5a0a9c12978f8263","freq_resp","","","img/blue_2bandit_b.png","70","img/blue_2bandit_b.png","70","test","","","","","","","","","","","1","","","","","","","","",""
"null","323441","SARL_v6","SARL_v6oa5lzrpz","5ea89d0c5a0a9c12978f8263","fixation","","","img/fixation.png","null","","","test","","","","","","","","","","","","","","","","","","","",""
"697.4000000059605","324142","SARL_v6","SARL_v6oa5lzrpz","5ea89d0c5a0a9c12978f8263","freq","","","img/blue_2bandit_b2.png","70","","70","test","1","","15","","","","circle","square","15","15","1","1","","","","","","","",""
"null","324250","SARL_v6","SARL_v6oa5lzrpz","5ea89d0c5a0a9c12978f8263","freq_resp","","","img/blue_2bandit_b.png","70","img/blue_2bandit_b.png","70","test","","","","","","","","","","","1","","","","","","","","",""
"null","324409","SARL_v6","SARL_v6oa5lzrpz","5ea89d0c5a0a9c12978f8263","fixation","","","img/fixation.png","null","","","test","","","","","","","","","","","","","","","","","","","",""
"768.2000000178814","325180","SARL_v6","SARL_v6oa5lzrpz","5ea89d0c5a0a9c12978f8263","freq","","","img/blue_2bandit_b2.png","70","","70","test","1","","16","","","","circle","square","16","16","1","1","","","","","","","",""
"null","325216","SARL_v6","SARL_v6oa5lzrpz","5ea89d0c5a0a9c12978f8263","freq_resp","","","img/blue_2bandit_b.png","70","img/blue_2bandit_b.png","70","test","","","","","","","","","","","1","","","","","","","","",""
"null","325368","SARL_v6","SARL_v6oa5lzrpz","5ea89d0c5a0a9c12978f8263","fixation","","","img/fixation.png","null","","","test","","","","","","","","","","","","","","","","","","","",""
"706.4000000059605","326076","SARL_v6","SARL_v6oa5lzrpz","5ea89d0c5a0a9c12978f8263","freq","","","img/blue_2bandit_b2.png","70","","70","test","1","","17","","","","circle","square","17","17","1","1","","","","","","","",""
"null","326176","SARL_v6","SARL_v6oa5lzrpz","5ea89d0c5a0a9c12978f8263","freq_resp","","","img/blue_2bandit_b.png","70","img/blue_2bandit_b.png","70","test","","","","","","","","","","","1","","","","","","","","",""
"null","326329","SARL_v6","SARL_v6oa5lzrpz","5ea89d0c5a0a9c12978f8263","fixation","","","img/fixation.png","null","","","test","","","","","","","","","","","","","","","","","","","",""
"555.6000000238419","326889","SARL_v6","SARL_v6oa5lzrpz","5ea89d0c5a0a9c12978f8263","freq","","","img/blue_2bandit_b2.png","70","","70","test","1","","18","","","","circle","square","18","18","1","1","","","","","","","",""
"null","327136","SARL_v6","SARL_v6oa5lzrpz","5ea89d0c5a0a9c12978f8263","freq_resp","","","img/blue_2bandit_b.png","70","img/blue_2bandit_b.png","70","test","","","","","","","","","","","1","","","","","","","","",""
"null","327288","SARL_v6","SARL_v6oa5lzrpz","5ea89d0c5a0a9c12978f8263","fixation","","","img/fixation.png","null","","","test","","","","","","","","","","","","","","","","","","","",""
"393.59999999403954","327685","SARL_v6","SARL_v6oa5lzrpz","5ea89d0c5a0a9c12978f8263","infreq","","","img/orange_2bandit_b2.png","68","","68","test","1","","19","","","","circle","square","19","19","1","1","","","","","","","",""
"null","328096","SARL_v6","SARL_v6oa5lzrpz","5ea89d0c5a0a9c12978f8263","infreq_resp","","","img/orange_2bandit_b.png","68","img/orange_2bandit_b.png","68","test","","","","","","","","","","","1","","","","","","","","",""
"null","328248","SARL_v6","SARL_v6oa5lzrpz","5ea89d0c5a0a9c12978f8263","fixation","","","img/fixation.png","null","","","test","","","","","","","","","","","","","","","","","","","",""
"436.90000000596046","328689","SARL_v6","SARL_v6oa5lzrpz","5ea89d0c5a0a9c12978f8263","freq","","","img/blue_2bandit_b2.png","70","","70","test","1","","20","","","","circle","square","20","20","1","1","","","","","","","",""
"null","329056","SARL_v6","SARL_v6oa5lzrpz","5ea89d0c5a0a9c12978f8263","freq_resp","","","img/blue_2bandit_b.png","70","img/blue_2bandit_b.png","70","test","","","","","","","","","","","1","","","","","","","","",""
"null","329208","SARL_v6","SARL_v6oa5lzrpz","5ea89d0c5a0a9c12978f8263","fixation","","","img/fixation.png","null","","","test","","","","","","","","","","","","","","","","","","","",""
"412.90000000596046","329623","SARL_v6","SARL_v6oa5lzrpz","5ea89d0c5a0a9c12978f8263","freq","","","img/blue_2bandit_b2.png","70","","70","test","1","","21","","","","circle","square","21","21","1","1","","","","","","","",""
"null","330016","SARL_v6","SARL_v6oa5lzrpz","5ea89d0c5a0a9c12978f8263","freq_resp","","","img/blue_2bandit_b.png","70","img/blue_2bandit_b.png","70","test","","","","","","","","","","","1","","","","","","","","",""
"null","330169","SARL_v6","SARL_v6oa5lzrpz","5ea89d0c5a0a9c12978f8263","fixation","","","img/fixation.png","null","","","test","","","","","","","","","","","","","","","","","","","",""
"420.19999998807907","330592","SARL_v6","SARL_v6oa5lzrpz","5ea89d0c5a0a9c12978f8263","freq","","","img/blue_2bandit_b2.png","70","","70","test","1","","22","","","","circle","square","22","22","1","1","","","","","","","",""
"null","330976","SARL_v6","SARL_v6oa5lzrpz","5ea89d0c5a0a9c12978f8263","freq_resp","","","img/blue_2bandit_b.png","70","img/blue_2bandit_b.png","70","test","","","","","","","","","","","1","","","","","","","","",""
"null","331137","SARL_v6","SARL_v6oa5lzrpz","5ea89d0c5a0a9c12978f8263","fixation","","","img/fixation.png","null","","","test","","","","","","","","","","","","","","","","","","","",""
"440","331580","SARL_v6","SARL_v6oa5lzrpz","5ea89d0c5a0a9c12978f8263","freq","","","img/blue_2bandit_b2.png","70","","70","test","1","","23","","","","circle","square","23","23","1","1","","","","","","","",""
"null","331944","SARL_v6","SARL_v6oa5lzrpz","5ea89d0c5a0a9c12978f8263","freq_resp","","","img/blue_2bandit_b.png","70","img/blue_2bandit_b.png","70","test","","","","","","","","","","","1","","","","","","","","",""
"null","332096","SARL_v6","SARL_v6oa5lzrpz","5ea89d0c5a0a9c12978f8263","fixation","","","img/fixation.png","null","","","test","","","","","","","","","","","","","","","","","","","",""
"384.7000000178814","332482","SARL_v6","SARL_v6oa5lzrpz","5ea89d0c5a0a9c12978f8263","freq","","","img/blue_2bandit_b2.png","70","","70","test","1","","24","","","","circle","square","24","24","1","1","","","","","","","",""
"null","332906","SARL_v6","SARL_v6oa5lzrpz","5ea89d0c5a0a9c12978f8263","freq_resp","","","img/blue_2bandit_b.png","70","img/blue_2bandit_b.png","70","test","","","","","","","","","","","1","","","","","","","","",""
"null","333064","SARL_v6","SARL_v6oa5lzrpz","5ea89d0c5a0a9c12978f8263","fixation","","","img/fixation.png","null","","","test","","","","","","","","","","","","","","","","","","","",""
"385.30000001192093","333452","SARL_v6","SARL_v6oa5lzrpz","5ea89d0c5a0a9c12978f8263","freq","","","img/blue_2bandit_b2.png","70","","70","test","1","","25","","","","circle","square","25","25","1","1","","","","","","","",""
"null","333872","SARL_v6","SARL_v6oa5lzrpz","5ea89d0c5a0a9c12978f8263","freq_resp","","","img/blue_2bandit_b.png","70","img/blue_2bandit_b.png","70","test","","","","","","","","","","","1","","","","","","","","",""
"null","334024","SARL_v6","SARL_v6oa5lzrpz","5ea89d0c5a0a9c12978f8263","fixation","","","img/fixation.png","null","","","test","","","","","","","","","","","","","","","","","","","",""
"389","334416","SARL_v6","SARL_v6oa5lzrpz","5ea89d0c5a0a9c12978f8263","freq","","","img/blue_2bandit_b2.png","70","","70","test","1","","26","","","","circle","square","26","26","1","1","","","","","","","",""
"null","334833","SARL_v6","SARL_v6oa5lzrpz","5ea89d0c5a0a9c12978f8263","freq_resp","","","img/blue_2bandit_b.png","70","img/blue_2bandit_b.png","70","test","","","","","","","","","","","1","","","","","","","","",""
"null","334993","SARL_v6","SARL_v6oa5lzrpz","5ea89d0c5a0a9c12978f8263","fixation","","","img/fixation.png","null","","","test","","","","","","","","","","","","","","","","","","","",""
"1459.1000000238419","336455","SARL_v6","SARL_v6oa5lzrpz","5ea89d0c5a0a9c12978f8263","rl","","","img/black_2bandit_b2.png","74","","0","test","","","27","","","-3","circle","square","","0","1","","74","-3","-3","-3","-3","circle","1","0"
"null","337209","SARL_v6","SARL_v6oa5lzrpz","5ea89d0c5a0a9c12978f8263","feedback","","","<div class=""verylowPoints""> -3 </div>","null","","na","test","","","NaN","","","","","","","","1","","74","","","","","","1",""
"593.3000000119209","337806","SARL_v6","SARL_v6oa5lzrpz","5ea89d0c5a0a9c12978f8263","freq","","","img/blue_2bandit_b2.png","70","","70","test","1","","28","","","","circle","square","27","1","2","1","","","","","","","",""
"null","338016","SARL_v6","SARL_v6oa5lzrpz","5ea89d0c5a0a9c12978f8263","freq_resp","","","img/blue_2bandit_b.png","70","img/blue_2bandit_b.png","70","test","","","","","","","","","","","2","","","","","","","","",""
"null","338170","SARL_v6","SARL_v6oa5lzrpz","5ea89d0c5a0a9c12978f8263","fixation","","","img/fixation.png","null","","","test","","","","","","","","","","","","","","","","","","","",""
"518.9000000059605","338693","SARL_v6","SARL_v6oa5lzrpz","5ea89d0c5a0a9c12978f8263","freq","","","img/blue_2bandit_b2.png","70","","70","test","1","","29","","","","circle","square","28","2","2","1","","","","","","","",""
"null","338977","SARL_v6","SARL_v6oa5lzrpz","5ea89d0c5a0a9c12978f8263","freq_resp","","","img/blue_2bandit_b.png","70","img/blue_2bandit_b.png","70","test","","","","","","","","","","","2","","","","","","","","",""
"null","339136","SARL_v6","SARL_v6oa5lzrpz","5ea89d0c5a0a9c12978f8263","fixation","","","img/fixation.png","null","","","test","","","","","","","","","","","","","","","","","","","",""
"517","339655","SARL_v6","SARL_v6oa5lzrpz","5ea89d0c5a0a9c12978f8263","freq","","","img/blue_2bandit_b2.png","70","","70","test","1","","30","","","","circle","square","29","3","2","1","","","","","","","",""
"null","339944","SARL_v6","SARL_v6oa5lzrpz","5ea89d0c5a0a9c12978f8263","freq_resp","","","img/blue_2bandit_b.png","70","img/blue_2bandit_b.png","70","test","","","","","","","","","","","2","","","","","","","","",""
"null","340096","SARL_v6","SARL_v6oa5lzrpz","5ea89d0c5a0a9c12978f8263","fixation","","","img/fixation.png","null","","","test","","","","","","","","","","","","","","","","","","","",""
"525.2000000178814","340624","SARL_v6","SARL_v6oa5lzrpz","5ea89d0c5a0a9c12978f8263","freq","","","img/blue_2bandit_b2.png","70","","70","test","1","","31","","","","circle","square","30","4","2","1","","","","","","","",""
"null","340906","SARL_v6","SARL_v6oa5lzrpz","5ea89d0c5a0a9c12978f8263","freq_resp","","","img/blue_2bandit_b.png","70","img/blue_2bandit_b.png","70","test","","","","","","","","","","","2","","","","","","","","",""
"null","341064","SARL_v6","SARL_v6oa5lzrpz","5ea89d0c5a0a9c12978f8263","fixation","","","img/fixation.png","null","","","test","","","","","","","","","","","","","","","","","","","",""
"764.4000000059605","341830","SARL_v6","SARL_v6oa5lzrpz","5ea89d0c5a0a9c12978f8263","freq","","","img/blue_2bandit_b2.png","70","","70","test","1","","32","","","","circle","square","31","5","2","1","","","","","","","",""
"null","341872","SARL_v6","SARL_v6oa5lzrpz","5ea89d0c5a0a9c12978f8263","freq_resp","","","img/blue_2bandit_b.png","70","img/blue_2bandit_b.png","70","test","","","","","","","","","","","2","","","","","","","","",""
"null","342024","SARL_v6","SARL_v6oa5lzrpz","5ea89d0c5a0a9c12978f8263","fixation","","","img/fixation.png","null","","","test","","","","","","","","","","","","","","","","","","","",""
"502.09999999403954","342529","SARL_v6","SARL_v6oa5lzrpz","5ea89d0c5a0a9c12978f8263","freq","","","img/blue_2bandit_b2.png","70","","70","test","1","","33","","","","circle","square","32","6","2","1","","","","","","","",""
"null","342832","SARL_v6","SARL_v6oa5lzrpz","5ea89d0c5a0a9c12978f8263","freq_resp","","","img/blue_2bandit_b.png","70","img/blue_2bandit_b.png","70","test","","","","","","","","","","","2","","","","","","","","",""
"null","342992","SARL_v6","SARL_v6oa5lzrpz","5ea89d0c5a0a9c12978f8263","fixation","","","img/fixation.png","null","","","test","","","","","","","","","","","","","","","","","","","",""
"357.10000002384186","343352","SARL_v6","SARL_v6oa5lzrpz","5ea89d0c5a0a9c12978f8263","freq","","","img/blue_2bandit_b2.png","70","","70","test","1","","34","","","","circle","square","33","7","2","1","","","","","","","",""
"null","343800","SARL_v6","SARL_v6oa5lzrpz","5ea89d0c5a0a9c12978f8263","freq_resp","","","img/blue_2bandit_b.png","70","img/blue_2bandit_b.png","70","test","","","","","","","","","","","2","","","","","","","","",""
"null","343952","SARL_v6","SARL_v6oa5lzrpz","5ea89d0c5a0a9c12978f8263","fixation","","","img/fixation.png","null","","","test","","","","","","","","","","","","","","","","","","","",""
"387","344340","SARL_v6","SARL_v6oa5lzrpz","5ea89d0c5a0a9c12978f8263","freq","","","img/blue_2bandit_b2.png","70","","70","test","1","","35","","","","circle","square","34","8","2","1","","","","","","","",""
"null","344760","SARL_v6","SARL_v6oa5lzrpz","5ea89d0c5a0a9c12978f8263","freq_resp","","","img/blue_2bandit_b.png","70","img/blue_2bandit_b.png","70","test","","","","","","","","","","","2","","","","","","","","",""
"null","344912","SARL_v6","SARL_v6oa5lzrpz","5ea89d0c5a0a9c12978f8263","fixation","","","img/fixation.png","null","","","test","","","","","","","","","","","","","","","","","","","",""
"455.60000002384186","345371","SARL_v6","SARL_v6oa5lzrpz","5ea89d0c5a0a9c12978f8263","infreq","","","img/orange_2bandit_b2.png","68","","68","test","1","","36","","","","circle","square","35","9","2","1","","","","","","","",""
"null","345720","SARL_v6","SARL_v6oa5lzrpz","5ea89d0c5a0a9c12978f8263","infreq_resp","","","img/orange_2bandit_b.png","68","img/orange_2bandit_b.png","68","test","","","","","","","","","","","2","","","","","","","","",""
"null","345873","SARL_v6","SARL_v6oa5lzrpz","5ea89d0c5a0a9c12978f8263","fixation","","","img/fixation.png","null","","","test","","","","","","","","","","","","","","","","","","","",""
"346.5","346224","SARL_v6","SARL_v6oa5lzrpz","5ea89d0c5a0a9c12978f8263","freq","","","img/blue_2bandit_b2.png","70","","70","test","1","","37","","","","circle","square","36","10","2","1","","","","","","","",""
"null","346688","SARL_v6","SARL_v6oa5lzrpz","5ea89d0c5a0a9c12978f8263","freq_resp","","","img/blue_2bandit_b.png","70","img/blue_2bandit_b.png","70","test","","","","","","","","","","","2","","","","","","","","",""
"null","346840","SARL_v6","SARL_v6oa5lzrpz","5ea89d0c5a0a9c12978f8263","fixation","","","img/fixation.png","null","","","test","","","","","","","","","","","","","","","","","","","",""
"335.90000000596046","347178","SARL_v6","SARL_v6oa5lzrpz","5ea89d0c5a0a9c12978f8263","freq","","","img/blue_2bandit_b2.png","70","","70","test","1","","38","","","","circle","square","37","11","2","1","","","","","","","",""
"null","347648","SARL_v6","SARL_v6oa5lzrpz","5ea89d0c5a0a9c12978f8263","freq_resp","","","img/blue_2bandit_b.png","70","img/blue_2bandit_b.png","70","test","","","","","","","","","","","2","","","","","","","","",""
"null","347800","SARL_v6","SARL_v6oa5lzrpz","5ea89d0c5a0a9c12978f8263","fixation","","","img/fixation.png","null","","","test","","","","","","","","","","","","","","","","","","","",""
"398.7000000178814","348201","SARL_v6","SARL_v6oa5lzrpz","5ea89d0c5a0a9c12978f8263","freq","","","img/blue_2bandit_b2.png","70","","70","test","1","","39","","","","circle","square","38","12","2","1","","","","","","","",""
"null","348608","SARL_v6","SARL_v6oa5lzrpz","5ea89d0c5a0a9c12978f8263","freq_resp","","","img/blue_2bandit_b.png","70","img/blue_2bandit_b.png","70","test","","","","","","","","","","","2","","","","","","","","",""
"null","348760","SARL_v6","SARL_v6oa5lzrpz","5ea89d0c5a0a9c12978f8263","fixation","","","img/fixation.png","null","","","test","","","","","","","","","","","","","","","","","","","",""
"562.2000000178814","349326","SARL_v6","SARL_v6oa5lzrpz","5ea89d0c5a0a9c12978f8263","freq","","","img/blue_2bandit_b2.png","70","","70","test","1","","40","","","","circle","square","39","13","2","1","","","","","","","",""
"null","349570","SARL_v6","SARL_v6oa5lzrpz","5ea89d0c5a0a9c12978f8263","freq_resp","","","img/blue_2bandit_b.png","70","img/blue_2bandit_b.png","70","test","","","","","","","","","","","2","","","","","","","","",""
"null","349728","SARL_v6","SARL_v6oa5lzrpz","5ea89d0c5a0a9c12978f8263","fixation","","","img/fixation.png","null","","","test","","","","","","","","","","","","","","","","","","","",""
"473.10000002384186","350202","SARL_v6","SARL_v6oa5lzrpz","5ea89d0c5a0a9c12978f8263","freq","","","img/blue_2bandit_b2.png","70","","70","test","1","","41","","","","circle","square","40","14","2","1","","","","","","","",""
"null","350537","SARL_v6","SARL_v6oa5lzrpz","5ea89d0c5a0a9c12978f8263","freq_resp","","","img/blue_2bandit_b.png","70","img/blue_2bandit_b.png","70","test","","","","","","","","","","","2","","","","","","","","",""
"null","350696","SARL_v6","SARL_v6oa5lzrpz","5ea89d0c5a0a9c12978f8263","fixation","","","img/fixation.png","null","","","test","","","","","","","","","","","","","","","","","","","",""
"441.19999998807907","351139","SARL_v6","SARL_v6oa5lzrpz","5ea89d0c5a0a9c12978f8263","freq","","","img/blue_2bandit_b2.png","70","","70","test","1","","42","","","","circle","square","41","15","2","1","","","","","","","",""
"null","351506","SARL_v6","SARL_v6oa5lzrpz","5ea89d0c5a0a9c12978f8263","freq_resp","","","img/blue_2bandit_b.png","70","img/blue_2bandit_b.png","70","test","","","","","","","","","","","2","","","","","","","","",""
"null","351664","SARL_v6","SARL_v6oa5lzrpz","5ea89d0c5a0a9c12978f8263","fixation","","","img/fixation.png","null","","","test","","","","","","","","","","","","","","","","","","","",""
"411.90000000596046","352078","SARL_v6","SARL_v6oa5lzrpz","5ea89d0c5a0a9c12978f8263","freq","","","img/blue_2bandit_b2.png","70","","70","test","1","","43","","","","circle","square","42","16","2","1","","","","","","","",""
"null","352473","SARL_v6","SARL_v6oa5lzrpz","5ea89d0c5a0a9c12978f8263","freq_resp","","","img/blue_2bandit_b.png","70","img/blue_2bandit_b.png","70","test","","","","","","","","","","","2","","","","","","","","",""
"null","352632","SARL_v6","SARL_v6oa5lzrpz","5ea89d0c5a0a9c12978f8263","fixation","","","img/fixation.png","null","","","test","","","","","","","","","","","","","","","","","","","",""
"454.2000000178814","353089","SARL_v6","SARL_v6oa5lzrpz","5ea89d0c5a0a9c12978f8263","infreq","","","img/orange_2bandit_b2.png","68","","68","test","1","","44","","","","circle","square","43","17","2","1","","","","","","","",""
"null","353440","SARL_v6","SARL_v6oa5lzrpz","5ea89d0c5a0a9c12978f8263","infreq_resp","","","img/orange_2bandit_b.png","68","img/orange_2bandit_b.png","68","test","","","","","","","","","","","2","","","","","","","","",""
"null","353592","SARL_v6","SARL_v6oa5lzrpz","5ea89d0c5a0a9c12978f8263","fixation","","","img/fixation.png","null","","","test","","","","","","","","","","","","","","","","","","","",""
"456.90000000596046","354051","SARL_v6","SARL_v6oa5lzrpz","5ea89d0c5a0a9c12978f8263","infreq","","","img/orange_2bandit_b2.png","68","","68","test","1","","45","","","","circle","square","44","18","2","1","","","","","","","",""
"null","354400","SARL_v6","SARL_v6oa5lzrpz","5ea89d0c5a0a9c12978f8263","infreq_resp","","","img/orange_2bandit_b.png","68","img/orange_2bandit_b.png","68","test","","","","","","","","","","","2","","","","","","","","",""
"null","354552","SARL_v6","SARL_v6oa5lzrpz","5ea89d0c5a0a9c12978f8263","fixation","","","img/fixation.png","null","","","test","","","","","","","","","","","","","","","","","","","",""
"443.10000002384186","354996","SARL_v6","SARL_v6oa5lzrpz","5ea89d0c5a0a9c12978f8263","freq","","","img/blue_2bandit_b2.png","70","","70","test","1","","46","","","","circle","square","45","19","2","1","","","","","","","",""
"null","355361","SARL_v6","SARL_v6oa5lzrpz","5ea89d0c5a0a9c12978f8263","freq_resp","","","img/blue_2bandit_b.png","70","img/blue_2bandit_b.png","70","test","","","","","","","","","","","2","","","","","","","","",""
"null","355522","SARL_v6","SARL_v6oa5lzrpz","5ea89d0c5a0a9c12978f8263","fixation","","","img/fixation.png","null","","","test","","","","","","","","","","","","","","","","","","","",""
"397.7000000178814","355922","SARL_v6","SARL_v6oa5lzrpz","5ea89d0c5a0a9c12978f8263","freq","","","img/blue_2bandit_b2.png","70","","70","test","1","","47","","","","circle","square","46","20","2","1","","","","","","","",""
"null","356328","SARL_v6","SARL_v6oa5lzrpz","5ea89d0c5a0a9c12978f8263","freq_resp","","","img/blue_2bandit_b.png","70","img/blue_2bandit_b.png","70","test","","","","","","","","","","","2","","","","","","","","",""
"null","356482","SARL_v6","SARL_v6oa5lzrpz","5ea89d0c5a0a9c12978f8263","fixation","","","img/fixation.png","null","","","test","","","","","","","","","","","","","","","","","","","",""
"370.40000000596046","356856","SARL_v6","SARL_v6oa5lzrpz","5ea89d0c5a0a9c12978f8263","freq","","","img/blue_2bandit_b2.png","70","","70","test","1","","48","","","","circle","square","47","21","2","1","","","","","","","",""
"null","357288","SARL_v6","SARL_v6oa5lzrpz","5ea89d0c5a0a9c12978f8263","freq_resp","","","img/blue_2bandit_b.png","70","img/blue_2bandit_b.png","70","test","","","","","","","","","","","2","","","","","","","","",""
"null","357442","SARL_v6","SARL_v6oa5lzrpz","5ea89d0c5a0a9c12978f8263","fixation","","","img/fixation.png","null","","","test","","","","","","","","","","","","","","","","","","","",""
"962.4000000059605","358406","SARL_v6","SARL_v6oa5lzrpz","5ea89d0c5a0a9c12978f8263","rl","","","img/black_2bandit_b2.png","75","","0","test","","","49","","","-8","circle","square","","0","2","","75","-5","-8","-5","-8","square","2","0"
"null","359160","SARL_v6","SARL_v6oa5lzrpz","5ea89d0c5a0a9c12978f8263","feedback","","","<div class=""verylowPoints_sq""> -8 </div>","null","","na","test","","","NaN","","","","","","","","2","","75","","","","","","2",""
"381.90000000596046","359545","SARL_v6","SARL_v6oa5lzrpz","5ea89d0c5a0a9c12978f8263","freq","","","img/blue_2bandit_b2.png","70","","70","test","1","","50","","","","circle","square","48","1","3","1","","","","","","","",""
"null","359970","SARL_v6","SARL_v6oa5lzrpz","5ea89d0c5a0a9c12978f8263","freq_resp","","","img/blue_2bandit_b.png","70","img/blue_2bandit_b.png","70","test","","","","","","","","","","","3","","","","","","","","",""
"null","360128","SARL_v6","SARL_v6oa5lzrpz","5ea89d0c5a0a9c12978f8263","fixation","","","img/fixation.png","null","","","test","","","","","","","","","","","","","","","","","","","",""
"441.10000002384186","360573","SARL_v6","SARL_v6oa5lzrpz","5ea89d0c5a0a9c12978f8263","freq","","","img/blue_2bandit_b2.png","70","","70","test","1","","51","","","","circle","square","49","2","3","1","","","","","","","",""
"null","360936","SARL_v6","SARL_v6oa5lzrpz","5ea89d0c5a0a9c12978f8263","freq_resp","","","img/blue_2bandit_b.png","70","img/blue_2bandit_b.png","70","test","","","","","","","","","","","3","","","","","","","","",""
"null","361088","SARL_v6","SARL_v6oa5lzrpz","5ea89d0c5a0a9c12978f8263","fixation","","","img/fixation.png","null","","","test","","","","","","","","","","","","","","","","","","","",""
"390","361479","SARL_v6","SARL_v6oa5lzrpz","5ea89d0c5a0a9c12978f8263","freq","","","img/blue_2bandit_b2.png","70","","70","test","1","","52","","","","circle","square","50","3","3","1","","","","","","","",""
"null","361896","SARL_v6","SARL_v6oa5lzrpz","5ea89d0c5a0a9c12978f8263","freq_resp","","","img/blue_2bandit_b.png","70","img/blue_2bandit_b.png","70","test","","","","","","","","","","","3","","","","","","","","",""
"null","362048","SARL_v6","SARL_v6oa5lzrpz","5ea89d0c5a0a9c12978f8263","fixation","","","img/fixation.png","null","","","test","","","","","","","","","","","","","","","","","","","",""
"331.40000000596046","362381","SARL_v6","SARL_v6oa5lzrpz","5ea89d0c5a0a9c12978f8263","freq","","","img/blue_2bandit_b2.png","70","","70","test","1","","53","","","","circle","square","51","4","3","1","","","","","","","",""
"null","362856","SARL_v6","SARL_v6oa5lzrpz","5ea89d0c5a0a9c12978f8263","freq_resp","","","img/blue_2bandit_b.png","70","img/blue_2bandit_b.png","70","test","","","","","","","","","","","3","","","","","","","","",""
"null","363008","SARL_v6","SARL_v6oa5lzrpz","5ea89d0c5a0a9c12978f8263","fixation","","","img/fixation.png","null","","","test","","","","","","","","","","","","","","","","","","","",""
"349.2999999821186","363361","SARL_v6","SARL_v6oa5lzrpz","5ea89d0c5a0a9c12978f8263","freq","","","img/blue_2bandit_b2.png","70","","70","test","1","","54","","","","circle","square","52","5","3","1","","","","","","","",""
"null","363817","SARL_v6","SARL_v6oa5lzrpz","5ea89d0c5a0a9c12978f8263","freq_resp","","","img/blue_2bandit_b.png","70","img/blue_2bandit_b.png","70","test","","","","","","","","","","","3","","","","","","","","",""
"null","363976","SARL_v6","SARL_v6oa5lzrpz","5ea89d0c5a0a9c12978f8263","fixation","","","img/fixation.png","null","","","test","","","","","","","","","","","","","","","","","","","",""
"347.09999999403954","364327","SARL_v6","SARL_v6oa5lzrpz","5ea89d0c5a0a9c12978f8263","freq","","","img/blue_2bandit_b2.png","70","","70","test","1","","55","","","","circle","square","53","6","3","1","","","","","","","",""
"null","364784","SARL_v6","SARL_v6oa5lzrpz","5ea89d0c5a0a9c12978f8263","freq_resp","","","img/blue_2bandit_b.png","70","img/blue_2bandit_b.png","70","test","","","","","","","","","","","3","","","","","","","","",""
"null","364936","SARL_v6","SARL_v6oa5lzrpz","5ea89d0c5a0a9c12978f8263","fixation","","","img/fixation.png","null","","","test","","","","","","","","","","","","","","","","","","","",""
"345.40000000596046","365283","SARL_v6","SARL_v6oa5lzrpz","5ea89d0c5a0a9c12978f8263","freq","","","img/blue_2bandit_b2.png","70","","70","test","1","","56","","","","circle","square","54","7","3","1","","","","","","","",""
"null","365745","SARL_v6","SARL_v6oa5lzrpz","5ea89d0c5a0a9c12978f8263","freq_resp","","","img/blue_2bandit_b.png","70","img/blue_2bandit_b.png","70","test","","","","","","","","","","","3","","","","","","","","",""
"null","365904","SARL_v6","SARL_v6oa5lzrpz","5ea89d0c5a0a9c12978f8263","fixation","","","img/fixation.png","null","","","test","","","","","","","","","","","","","","","","","","","",""
"373.5","366279","SARL_v6","SARL_v6oa5lzrpz","5ea89d0c5a0a9c12978f8263","freq","","","img/blue_2bandit_b2.png","70","","70","test","1","","57","","","","circle","square","55","8","3","1","","","","","","","",""
"null","366712","SARL_v6","SARL_v6oa5lzrpz","5ea89d0c5a0a9c12978f8263","freq_resp","","","img/blue_2bandit_b.png","70","img/blue_2bandit_b.png","70","test","","","","","","","","","","","3","","","","","","","","",""
"null","366864","SARL_v6","SARL_v6oa5lzrpz","5ea89d0c5a0a9c12978f8263","fixation","","","img/fixation.png","null","","","test","","","","","","","","","","","","","","","","","","","",""
"325.7000000178814","367193","SARL_v6","SARL_v6oa5lzrpz","5ea89d0c5a0a9c12978f8263","freq","","","img/blue_2bandit_b2.png","70","","70","test","1","","58","","","","circle","square","56","9","3","1","","","","","","","",""
"null","367672","SARL_v6","SARL_v6oa5lzrpz","5ea89d0c5a0a9c12978f8263","freq_resp","","","img/blue_2bandit_b.png","70","img/blue_2bandit_b.png","70","test","","","","","","","","","","","3","","","","","","","","",""
"null","367824","SARL_v6","SARL_v6oa5lzrpz","5ea89d0c5a0a9c12978f8263","fixation","","","img/fixation.png","null","","","test","","","","","","","","","","","","","","","","","","","",""
"466.5","368294","SARL_v6","SARL_v6oa5lzrpz","5ea89d0c5a0a9c12978f8263","infreq","","","img/orange_2bandit_b2.png","68","","68","test","1","","59","","","","circle","square","57","10","3","1","","","","","","","",""
"null","368634","SARL_v6","SARL_v6oa5lzrpz","5ea89d0c5a0a9c12978f8263","infreq_resp","","","img/orange_2bandit_b.png","68","img/orange_2bandit_b.png","68","test","","","","","","","","","","","3","","","","","","","","",""
"null","368794","SARL_v6","SARL_v6oa5lzrpz","5ea89d0c5a0a9c12978f8263","fixation","","","img/fixation.png","null","","","test","","","","","","","","","","","","","","","","","","","",""
"440.59999999403954","369238","SARL_v6","SARL_v6oa5lzrpz","5ea89d0c5a0a9c12978f8263","infreq","","","img/orange_2bandit_b2.png","68","","68","test","1","","60","","","","circle","square","58","11","3","1","","","","","","","",""
"null","369608","SARL_v6","SARL_v6oa5lzrpz","5ea89d0c5a0a9c12978f8263","infreq_resp","","","img/orange_2bandit_b.png","68","img/orange_2bandit_b.png","68","test","","","","","","","","","","","3","","","","","","","","",""
"null","369762","SARL_v6","SARL_v6oa5lzrpz","5ea89d0c5a0a9c12978f8263","fixation","","","img/fixation.png","null","","","test","","","","","","","","","","","","","","","","","","","",""
"459.40000000596046","370225","SARL_v6","SARL_v6oa5lzrpz","5ea89d0c5a0a9c12978f8263","freq","","","img/blue_2bandit_b2.png","70","","70","test","1","","61","","","","circle","square","59","12","3","1","","","","","","","",""
"null","370568","SARL_v6","SARL_v6oa5lzrpz","5ea89d0c5a0a9c12978f8263","freq_resp","","","img/blue_2bandit_b.png","70","img/blue_2bandit_b.png","70","test","","","","","","","","","","","3","","","","","","","","",""
"null","370722","SARL_v6","SARL_v6oa5lzrpz","5ea89d0c5a0a9c12978f8263","fixation","","","img/fixation.png","null","","","test","","","","","","","","","","","","","","","","","","","",""
"491.89999997615814","371219","SARL_v6","SARL_v6oa5lzrpz","5ea89d0c5a0a9c12978f8263","freq","","","img/blue_2bandit_b2.png","70","","70","test","1","","62","","","","circle","square","60","13","3","1","","","","","","","",""
"null","371537","SARL_v6","SARL_v6oa5lzrpz","5ea89d0c5a0a9c12978f8263","freq_resp","","","img/blue_2bandit_b.png","70","img/blue_2bandit_b.png","70","test","","","","","","","","","","","3","","","","","","","","",""
"null","371696","SARL_v6","SARL_v6oa5lzrpz","5ea89d0c5a0a9c12978f8263","fixation","","","img/fixation.png","null","","","test","","","","","","","","","","","","","","","","","","","",""
"475","372173","SARL_v6","SARL_v6oa5lzrpz","5ea89d0c5a0a9c12978f8263","freq","","","img/blue_2bandit_b2.png","70","","70","test","1","","63","","","","circle","square","61","14","3","1","","","","","","","",""
"null","372505","SARL_v6","SARL_v6oa5lzrpz","5ea89d0c5a0a9c12978f8263","freq_resp","","","img/blue_2bandit_b.png","70","img/blue_2bandit_b.png","70","test","","","","","","","","","","","3","","","","","","","","",""
"null","372664","SARL_v6","SARL_v6oa5lzrpz","5ea89d0c5a0a9c12978f8263","fixation","","","img/fixation.png","null","","","test","","","","","","","","","","","","","","","","","","","",""
"439.90000000596046","373107","SARL_v6","SARL_v6oa5lzrpz","5ea89d0c5a0a9c12978f8263","freq","","","img/blue_2bandit_b2.png","70","","70","test","1","","64","","","","circle","square","62","15","3","1","","","","","","","",""
"null","373473","SARL_v6","SARL_v6oa5lzrpz","5ea89d0c5a0a9c12978f8263","freq_resp","","","img/blue_2bandit_b.png","70","img/blue_2bandit_b.png","70","test","","","","","","","","","","","3","","","","","","","","",""
"null","373635","SARL_v6","SARL_v6oa5lzrpz","5ea89d0c5a0a9c12978f8263","fixation","","","img/fixation.png","null","","","test","","","","","","","","","","","","","","","","","","","",""
"744.5999999940395","374383","SARL_v6","SARL_v6oa5lzrpz","5ea89d0c5a0a9c12978f8263","freq","","","img/blue_2bandit_b2.png","70","","70","test","1","","65","","","","circle","square","63","16","3","1","","","","","","","",""
"null","374448","SARL_v6","SARL_v6oa5lzrpz","5ea89d0c5a0a9c12978f8263","freq_resp","","","img/blue_2bandit_b.png","70","img/blue_2bandit_b.png","70","test","","","","","","","","","","","3","","","","","","","","",""
"null","374600","SARL_v6","SARL_v6oa5lzrpz","5ea89d0c5a0a9c12978f8263","fixation","","","img/fixation.png","null","","","test","","","","","","","","","","","","","","","","","","","",""
"695.4000000059605","375297","SARL_v6","SARL_v6oa5lzrpz","5ea89d0c5a0a9c12978f8263","freq","","","img/blue_2bandit_b2.png","70","","70","test","1","","66","","","","circle","square","64","17","3","1","","","","","","","",""
"null","375409","SARL_v6","SARL_v6oa5lzrpz","5ea89d0c5a0a9c12978f8263","freq_resp","","","img/blue_2bandit_b.png","70","img/blue_2bandit_b.png","70","test","","","","","","","","","","","3","","","","","","","","",""
"null","375568","SARL_v6","SARL_v6oa5lzrpz","5ea89d0c5a0a9c12978f8263","fixation","","","img/fixation.png","null","","","test","","","","","","","","","","","","","","","","","","","",""
"651.6999999880791","376223","SARL_v6","SARL_v6oa5lzrpz","5ea89d0c5a0a9c12978f8263","freq","","","img/blue_2bandit_b2.png","70","","70","test","1","","67","","","","circle","square","65","18","3","1","","","","","","","",""
"null","376378","SARL_v6","SARL_v6oa5lzrpz","5ea89d0c5a0a9c12978f8263","freq_resp","","","img/blue_2bandit_b.png","70","img/blue_2bandit_b.png","70","test","","","","","","","","","","","3","","","","","","","","",""
"null","376537","SARL_v6","SARL_v6oa5lzrpz","5ea89d0c5a0a9c12978f8263","fixation","","","img/fixation.png","null","","","test","","","","","","","","","","","","","","","","","","","",""
"704.9000000059605","377246","SARL_v6","SARL_v6oa5lzrpz","5ea89d0c5a0a9c12978f8263","freq","","","img/blue_2bandit_b2.png","70","","70","test","1","","68","","","","circle","square","66","19","3","1","","","","","","","",""
"null","377346","SARL_v6","SARL_v6oa5lzrpz","5ea89d0c5a0a9c12978f8263","freq_resp","","","img/blue_2bandit_b.png","70","img/blue_2bandit_b.png","70","test","","","","","","","","","","","3","","","","","","","","",""
"null","377506","SARL_v6","SARL_v6oa5lzrpz","5ea89d0c5a0a9c12978f8263","fixation","","","img/fixation.png","null","","","test","","","","","","","","","","","","","","","","","","","",""
"661","378171","SARL_v6","SARL_v6oa5lzrpz","5ea89d0c5a0a9c12978f8263","freq","","","img/blue_2bandit_b2.png","70","","70","test","1","","69","","","","circle","square","67","20","3","1","","","","","","","",""
"null","378322","SARL_v6","SARL_v6oa5lzrpz","5ea89d0c5a0a9c12978f8263","freq_resp","","","img/blue_2bandit_b.png","70","img/blue_2bandit_b.png","70","test","","","","","","","","","","","3","","","","","","","","",""
"null","378482","SARL_v6","SARL_v6oa5lzrpz","5ea89d0c5a0a9c12978f8263","fixation","","","img/fixation.png","null","","","test","","","","","","","","","","","","","","","","","","","",""
"524.5","379011","SARL_v6","SARL_v6oa5lzrpz","5ea89d0c5a0a9c12978f8263","freq","","","img/blue_2bandit_b2.png","70","","70","test","1","","70","","","","circle","square","68","21","3","1","","","","","","","",""
"null","379297","SARL_v6","SARL_v6oa5lzrpz","5ea89d0c5a0a9c12978f8263","freq_resp","","","img/blue_2bandit_b.png","70","img/blue_2bandit_b.png","70","test","","","","","","","","","","","3","","","","","","","","",""
"null","379456","SARL_v6","SARL_v6oa5lzrpz","5ea89d0c5a0a9c12978f8263","fixation","","","img/fixation.png","null","","","test","","","","","","","","","","","","","","","","","","","",""
"672","380130","SARL_v6","SARL_v6oa5lzrpz","5ea89d0c5a0a9c12978f8263","rl","","","img/black_2bandit_b2.png","74","","0","test","","","71","","","-4","circle","square","","0","3","","74","-4","-8","-4","-8","circle","3","0"
"null","380888","SARL_v6","SARL_v6oa5lzrpz","5ea89d0c5a0a9c12978f8263","feedback","","","<div class=""verylowPoints""> -4 </div>","null","","na","test","","","NaN","","","","","","","","3","","74","","","","","","3",""
"416.7999999821186","381307","SARL_v6","SARL_v6oa5lzrpz","5ea89d0c5a0a9c12978f8263","freq","","","img/blue_2bandit_b2.png","70","","70","test","1","","72","","","","circle","square","69","1","4","1","","","","","","","",""
"null","381696","SARL_v6","SARL_v6oa5lzrpz","5ea89d0c5a0a9c12978f8263","freq_resp","","","img/blue_2bandit_b.png","70","img/blue_2bandit_b.png","70","test","","","","","","","","","","","4","","","","","","","","",""
"null","381848","SARL_v6","SARL_v6oa5lzrpz","5ea89d0c5a0a9c12978f8263","fixation","","","img/fixation.png","null","","","test","","","","","","","","","","","","","","","","","","","",""
"344.40000000596046","382196","SARL_v6","SARL_v6oa5lzrpz","5ea89d0c5a0a9c12978f8263","freq","","","img/blue_2bandit_b2.png","70","","70","test","1","","73","","","","circle","square","70","2","4","1","","","","","","","",""
"null","382656","SARL_v6","SARL_v6oa5lzrpz","5ea89d0c5a0a9c12978f8263","freq_resp","","","img/blue_2bandit_b.png","70","img/blue_2bandit_b.png","70","test","","","","","","","","","","","4","","","","","","","","",""
"null","382810","SARL_v6","SARL_v6oa5lzrpz","5ea89d0c5a0a9c12978f8263","fixation","","","img/fixation.png","null","","","test","","","","","","","","","","","","","","","","","","","",""
"476.7000000178814","383289","SARL_v6","SARL_v6oa5lzrpz","5ea89d0c5a0a9c12978f8263","freq","","","img/blue_2bandit_b2.png","70","","70","test","1","","74","","","","circle","square","71","3","4","1","","","","","","","",""
"null","383616","SARL_v6","SARL_v6oa5lzrpz","5ea89d0c5a0a9c12978f8263","freq_resp","","","img/blue_2bandit_b.png","70","img/blue_2bandit_b.png","70","test","","","","","","","","","","","4","","","","","","","","",""
"null","383768","SARL_v6","SARL_v6oa5lzrpz","5ea89d0c5a0a9c12978f8263","fixation","","","img/fixation.png","null","","","test","","","","","","","","","","","","","","","","","","","",""
"309.7000000178814","384079","SARL_v6","SARL_v6oa5lzrpz","5ea89d0c5a0a9c12978f8263","freq","","","img/blue_2bandit_b2.png","70","","70","test","1","","75","","","","circle","square","72","4","4","1","","","","","","","",""
"null","384576","SARL_v6","SARL_v6oa5lzrpz","5ea89d0c5a0a9c12978f8263","freq_resp","","","img/blue_2bandit_b.png","70","img/blue_2bandit_b.png","70","test","","","","","","","","","","","4","","","","","","","","",""
"null","384728","SARL_v6","SARL_v6oa5lzrpz","5ea89d0c5a0a9c12978f8263","fixation","","","img/fixation.png","null","","","test","","","","","","","","","","","","","","","","","","","",""
"292.40000000596046","385024","SARL_v6","SARL_v6oa5lzrpz","5ea89d0c5a0a9c12978f8263","freq","","","img/blue_2bandit_b2.png","70","","70","test","1","","76","","","","circle","square","73","5","4","1","","","","","","","",""
"null","385536","SARL_v6","SARL_v6oa5lzrpz","5ea89d0c5a0a9c12978f8263","freq_resp","","","img/blue_2bandit_b.png","70","img/blue_2bandit_b.png","70","test","","","","","","","","","","","4","","","","","","","","",""
"null","385688","SARL_v6","SARL_v6oa5lzrpz","5ea89d0c5a0a9c12978f8263","fixation","","","img/fixation.png","null","","","test","","","","","","","","","","","","","","","","","","","",""
"301.7000000178814","385993","SARL_v6","SARL_v6oa5lzrpz","5ea89d0c5a0a9c12978f8263","freq","","","img/blue_2bandit_b2.png","70","","70","test","1","","77","","","","circle","square","74","6","4","1","","","","","","","",""
"null","386496","SARL_v6","SARL_v6oa5lzrpz","5ea89d0c5a0a9c12978f8263","freq_resp","","","img/blue_2bandit_b.png","70","img/blue_2bandit_b.png","70","test","","","","","","","","","","","4","","","","","","","","",""
"null","386648","SARL_v6","SARL_v6oa5lzrpz","5ea89d0c5a0a9c12978f8263","fixation","","","img/fixation.png","null","","","test","","","","","","","","","","","","","","","","","","","",""
"236.40000000596046","386888","SARL_v6","SARL_v6oa5lzrpz","5ea89d0c5a0a9c12978f8263","infreq","","","img/orange_2bandit_b2.png","70","","68","test","0","","78","","","","circle","square","75","7","4","0.9866666666666667","","","","","","","",""
"null","387456","SARL_v6","SARL_v6oa5lzrpz","5ea89d0c5a0a9c12978f8263","infreq_resp","","","img/orange_2bandit_b.png","70","img/orange_2bandit_b.png","68","test","","","","","","","","","","","4","","","","","","","","",""
"null","387616","SARL_v6","SARL_v6oa5lzrpz","5ea89d0c5a0a9c12978f8263","fixation","","","img/fixation.png","null","","","test","","","","","","","","","","","","","","","","","","","",""
"489.40000000596046","388107","SARL_v6","SARL_v6oa5lzrpz","5ea89d0c5a0a9c12978f8263","freq","","","img/blue_2bandit_b2.png","70","","70","test","1","","79","","","","circle","square","76","8","4","0.9868421052631579","","","","","","","",""
"null","388425","SARL_v6","SARL_v6oa5lzrpz","5ea89d0c5a0a9c12978f8263","freq_resp","","","img/blue_2bandit_b.png","70","img/blue_2bandit_b.png","70","test","","","","","","","","","","","4","","","","","","","","",""
"null","388584","SARL_v6","SARL_v6oa5lzrpz","5ea89d0c5a0a9c12978f8263","fixation","","","img/fixation.png","null","","","test","","","","","","","","","","","","","","","","","","","",""
"419.10000002384186","389006","SARL_v6","SARL_v6oa5lzrpz","5ea89d0c5a0a9c12978f8263","freq","","","img/blue_2bandit_b2.png","70","","70","test","1","","80","","","","circle","square","77","9","4","0.987012987012987","","","","","","","",""
"null","389394","SARL_v6","SARL_v6oa5lzrpz","5ea89d0c5a0a9c12978f8263","freq_resp","","","img/blue_2bandit_b.png","70","img/blue_2bandit_b.png","70","test","","","","","","","","","","","4","","","","","","","","",""
"null","389552","SARL_v6","SARL_v6oa5lzrpz","5ea89d0c5a0a9c12978f8263","fixation","","","img/fixation.png","null","","","test","","","","","","","","","","","","","","","","","","","",""
"380.39999997615814","389934","SARL_v6","SARL_v6oa5lzrpz","5ea89d0c5a0a9c12978f8263","freq","","","img/blue_2bandit_b2.png","70","","70","test","1","","81","","","","circle","square","78","10","4","0.9871794871794872","","","","","","","",""
"null","390360","SARL_v6","SARL_v6oa5lzrpz","5ea89d0c5a0a9c12978f8263","freq_resp","","","img/blue_2bandit_b.png","70","img/blue_2bandit_b.png","70","test","","","","","","","","","","","4","","","","","","","","",""
"null","390520","SARL_v6","SARL_v6oa5lzrpz","5ea89d0c5a0a9c12978f8263","fixation","","","img/fixation.png","null","","","test","","","","","","","","","","","","","","","","","","","",""
"297.7999999821186","390821","SARL_v6","SARL_v6oa5lzrpz","5ea89d0c5a0a9c12978f8263","freq","","","img/blue_2bandit_b2.png","70","","70","test","1","","82","","","","circle","square","79","11","4","0.9873417721518988","","","","","","","",""
"null","391328","SARL_v6","SARL_v6oa5lzrpz","5ea89d0c5a0a9c12978f8263","freq_resp","","","img/blue_2bandit_b.png","70","img/blue_2bandit_b.png","70","test","","","","","","","","","","","4","","","","","","","","",""
"null","391480","SARL_v6","SARL_v6oa5lzrpz","5ea89d0c5a0a9c12978f8263","fixation","","","img/fixation.png","null","","","test","","","","","","","","","","","","","","","","","","","",""
"273.90000000596046","391755","SARL_v6","SARL_v6oa5lzrpz","5ea89d0c5a0a9c12978f8263","freq","","","img/blue_2bandit_b2.png","70","","70","test","1","","83","","","","circle","square","80","12","4","0.9875","","","","","","","",""
"null","392288","SARL_v6","SARL_v6oa5lzrpz","5ea89d0c5a0a9c12978f8263","freq_resp","","","img/blue_2bandit_b.png","70","img/blue_2bandit_b.png","70","test","","","","","","","","","","","4","","","","","","","","",""
"null","392440","SARL_v6","SARL_v6oa5lzrpz","5ea89d0c5a0a9c12978f8263","fixation","","","img/fixation.png","null","","","test","","","","","","","","","","","","","","","","","","","",""
"174.09999999403954","392615","SARL_v6","SARL_v6oa5lzrpz","5ea89d0c5a0a9c12978f8263","freq","","","img/blue_2bandit_b2.png","70","","70","test","1","","84","","","","circle","square","81","13","4","0.9876543209876543","","","","","","","",""
"null","393248","SARL_v6","SARL_v6oa5lzrpz","5ea89d0c5a0a9c12978f8263","freq_resp","","","img/blue_2bandit_b.png","70","img/blue_2bandit_b.png","70","test","","","","","","","","","","","4","","","","","","","","",""
"null","393400","SARL_v6","SARL_v6oa5lzrpz","5ea89d0c5a0a9c12978f8263","fixation","","","img/fixation.png","null","","","test","","","","","","","","","","","","","","","","","","","",""
"213.2000000178814","393615","SARL_v6","SARL_v6oa5lzrpz","5ea89d0c5a0a9c12978f8263","infreq","","","img/orange_2bandit_b2.png","70","","68","test","0","","85","","","","circle","square","82","14","4","0.975609756097561","","","","","","","",""
"null","394209","SARL_v6","SARL_v6oa5lzrpz","5ea89d0c5a0a9c12978f8263","infreq_resp","","","img/orange_2bandit_b.png","70","img/orange_2bandit_b.png","68","test","","","","","","","","","","","4","","","","","","","","",""
"null","394368","SARL_v6","SARL_v6oa5lzrpz","5ea89d0c5a0a9c12978f8263","fixation","","","img/fixation.png","null","","","test","","","","","","","","","","","","","","","","","","","",""
"432.10000002384186","394803","SARL_v6","SARL_v6oa5lzrpz","5ea89d0c5a0a9c12978f8263","freq","","","img/blue_2bandit_b2.png","70","","70","test","1","","86","","","","circle","square","83","15","4","0.9759036144578314","","","","","","","",""
"null","395176","SARL_v6","SARL_v6oa5lzrpz","5ea89d0c5a0a9c12978f8263","freq_resp","","","img/blue_2bandit_b.png","70","img/blue_2bandit_b.png","70","test","","","","","","","","","","","4","","","","","","","","",""
"null","395330","SARL_v6","SARL_v6oa5lzrpz","5ea89d0c5a0a9c12978f8263","fixation","","","img/fixation.png","null","","","test","","","","","","","","","","","","","","","","","","","",""
"346.2999999821186","395680","SARL_v6","SARL_v6oa5lzrpz","5ea89d0c5a0a9c12978f8263","freq","","","img/blue_2bandit_b2.png","70","","70","test","1","","87","","","","circle","square","84","16","4","0.9761904761904762","","","","","","","",""
"null","396136","SARL_v6","SARL_v6oa5lzrpz","5ea89d0c5a0a9c12978f8263","freq_resp","","","img/blue_2bandit_b.png","70","img/blue_2bandit_b.png","70","test","","","","","","","","","","","4","","","","","","","","",""
"null","396288","SARL_v6","SARL_v6oa5lzrpz","5ea89d0c5a0a9c12978f8263","fixation","","","img/fixation.png","null","","","test","","","","","","","","","","","","","","","","","","","",""
"304.10000002384186","396594","SARL_v6","SARL_v6oa5lzrpz","5ea89d0c5a0a9c12978f8263","freq","","","img/blue_2bandit_b2.png","70","","70","test","1","","88","","","","circle","square","85","17","4","0.9764705882352941","","","","","","","",""
"null","397096","SARL_v6","SARL_v6oa5lzrpz","5ea89d0c5a0a9c12978f8263","freq_resp","","","img/blue_2bandit_b.png","70","img/blue_2bandit_b.png","70","test","","","","","","","","","","","4","","","","","","","","",""
"null","397256","SARL_v6","SARL_v6oa5lzrpz","5ea89d0c5a0a9c12978f8263","fixation","","","img/fixation.png","null","","","test","","","","","","","","","","","","","","","","","","","",""
"296.7999999821186","397557","SARL_v6","SARL_v6oa5lzrpz","5ea89d0c5a0a9c12978f8263","freq","","","img/blue_2bandit_b2.png","70","","70","test","1","","89","","","","circle","square","86","18","4","0.9767441860465116","","","","","","","",""
"null","398064","SARL_v6","SARL_v6oa5lzrpz","5ea89d0c5a0a9c12978f8263","freq_resp","","","img/blue_2bandit_b.png","70","img/blue_2bandit_b.png","70","test","","","","","","","","","","","4","","","","","","","","",""
"null","398216","SARL_v6","SARL_v6oa5lzrpz","5ea89d0c5a0a9c12978f8263","fixation","","","img/fixation.png","null","","","test","","","","","","","","","","","","","","","","","","","",""
"193.90000000596046","398413","SARL_v6","SARL_v6oa5lzrpz","5ea89d0c5a0a9c12978f8263","freq","","","img/blue_2bandit_b2.png","70","","70","test","1","","90","","","","circle","square","87","19","4","0.9770114942528736","","","","","","","",""
"null","399024","SARL_v6","SARL_v6oa5lzrpz","5ea89d0c5a0a9c12978f8263","freq_resp","","","img/blue_2bandit_b.png","70","img/blue_2bandit_b.png","70","test","","","","","","","","","","","4","","","","","","","","",""
"null","399176","SARL_v6","SARL_v6oa5lzrpz","5ea89d0c5a0a9c12978f8263","fixation","","","img/fixation.png","null","","","test","","","","","","","","","","","","","","","","","","","",""
"312.40000000596046","399491","SARL_v6","SARL_v6oa5lzrpz","5ea89d0c5a0a9c12978f8263","freq","","","img/blue_2bandit_b2.png","70","","70","test","1","","91","","","","circle","square","88","20","4","0.9772727272727273","","","","","","","",""
"null","399984","SARL_v6","SARL_v6oa5lzrpz","5ea89d0c5a0a9c12978f8263","freq_resp","","","img/blue_2bandit_b.png","70","img/blue_2bandit_b.png","70","test","","","","","","","","","","","4","","","","","","","","",""
"null","400136","SARL_v6","SARL_v6oa5lzrpz","5ea89d0c5a0a9c12978f8263","fixation","","","img/fixation.png","null","","","test","","","","","","","","","","","","","","","","","","","",""
"348","400486","SARL_v6","SARL_v6oa5lzrpz","5ea89d0c5a0a9c12978f8263","freq","","","img/blue_2bandit_b2.png","70","","70","test","1","","92","","","","circle","square","89","21","4","0.9775280898876404","","","","","","","",""
"null","400944","SARL_v6","SARL_v6oa5lzrpz","5ea89d0c5a0a9c12978f8263","freq_resp","","","img/blue_2bandit_b.png","70","img/blue_2bandit_b.png","70","test","","","","","","","","","","","4","","","","","","","","",""
"null","401096","SARL_v6","SARL_v6oa5lzrpz","5ea89d0c5a0a9c12978f8263","fixation","","","img/fixation.png","null","","","test","","","","","","","","","","","","","","","","","","","",""
"756.0999999940395","401855","SARL_v6","SARL_v6oa5lzrpz","5ea89d0c5a0a9c12978f8263","rl","","","img/black_2bandit_b2.png","74","","0","test","","","93","","","0","circle","square","","0","4","","74","0","-12","0","-12","circle","4","0"
"null","402616","SARL_v6","SARL_v6oa5lzrpz","5ea89d0c5a0a9c12978f8263","feedback","","","<div class=""verylowPoints""> 0 </div>","null","","na","test","","","NaN","","","","","","","","4","","74","","","","","","4",""
"370.39999997615814","402990","SARL_v6","SARL_v6oa5lzrpz","5ea89d0c5a0a9c12978f8263","freq","","","img/blue_2bandit_b2.png","70","","70","test","1","","94","","","","circle","square","90","1","5","0.9777777777777777","","","","","","","",""
"null","403424","SARL_v6","SARL_v6oa5lzrpz","5ea89d0c5a0a9c12978f8263","freq_resp","","","img/blue_2bandit_b.png","70","img/blue_2bandit_b.png","70","test","","","","","","","","","","","5","","","","","","","","",""
"null","403576","SARL_v6","SARL_v6oa5lzrpz","5ea89d0c5a0a9c12978f8263","fixation","","","img/fixation.png","null","","","test","","","","","","","","","","","","","","","","","","","",""
"358","403936","SARL_v6","SARL_v6oa5lzrpz","5ea89d0c5a0a9c12978f8263","freq","","","img/blue_2bandit_b2.png","70","","70","test","1","","95","","","","circle","square","91","2","5","0.978021978021978","","","","","","","",""
"null","404384","SARL_v6","SARL_v6oa5lzrpz","5ea89d0c5a0a9c12978f8263","freq_resp","","","img/blue_2bandit_b.png","70","img/blue_2bandit_b.png","70","test","","","","","","","","","","","5","","","","","","","","",""
"null","404536","SARL_v6","SARL_v6oa5lzrpz","5ea89d0c5a0a9c12978f8263","fixation","","","img/fixation.png","null","","","test","","","","","","","","","","","","","","","","","","","",""
"392.80000001192093","404932","SARL_v6","SARL_v6oa5lzrpz","5ea89d0c5a0a9c12978f8263","freq","","","img/blue_2bandit_b2.png","70","","70","test","1","","96","","","","circle","square","92","3","5","0.9782608695652174","","","","","","","",""
"null","405347","SARL_v6","SARL_v6oa5lzrpz","5ea89d0c5a0a9c12978f8263","freq_resp","","","img/blue_2bandit_b.png","70","img/blue_2bandit_b.png","70","test","","","","","","","","","","","5","","","","","","","","",""
"null","405504","SARL_v6","SARL_v6oa5lzrpz","5ea89d0c5a0a9c12978f8263","fixation","","","img/fixation.png","null","","","test","","","","","","","","","","","","","","","","","","","",""
"386","405894","SARL_v6","SARL_v6oa5lzrpz","5ea89d0c5a0a9c12978f8263","freq","","","img/blue_2bandit_b2.png","70","","70","test","1","","97","","","","circle","square","93","4","5","0.978494623655914","","","","","","","",""
"null","406314","SARL_v6","SARL_v6oa5lzrpz","5ea89d0c5a0a9c12978f8263","freq_resp","","","img/blue_2bandit_b.png","70","img/blue_2bandit_b.png","70","test","","","","","","","","","","","5","","","","","","","","",""
"null","406472","SARL_v6","SARL_v6oa5lzrpz","5ea89d0c5a0a9c12978f8263","fixation","","","img/fixation.png","null","","","test","","","","","","","","","","","","","","","","","","","",""
"428.5","406904","SARL_v6","SARL_v6oa5lzrpz","5ea89d0c5a0a9c12978f8263","infreq","","","img/orange_2bandit_b2.png","68","","68","test","1","","98","","","","circle","square","94","5","5","0.9787234042553191","","","","","","","",""
"null","407281","SARL_v6","SARL_v6oa5lzrpz","5ea89d0c5a0a9c12978f8263","infreq_resp","","","img/orange_2bandit_b.png","68","img/orange_2bandit_b.png","68","test","","","","","","","","","","","5","","","","","","","","",""
"null","407440","SARL_v6","SARL_v6oa5lzrpz","5ea89d0c5a0a9c12978f8263","fixation","","","img/fixation.png","null","","","test","","","","","","","","","","","","","","","","","","","",""
"391.5","407833","SARL_v6","SARL_v6oa5lzrpz","5ea89d0c5a0a9c12978f8263","infreq","","","img/orange_2bandit_b2.png","68","","68","test","1","","99","","","","circle","square","95","6","5","0.9789473684210527","","","","","","","",""
"null","408248","SARL_v6","SARL_v6oa5lzrpz","5ea89d0c5a0a9c12978f8263","infreq_resp","","","img/orange_2bandit_b.png","68","img/orange_2bandit_b.png","68","test","","","","","","","","","","","5","","","","","","","","",""
"null","408400","SARL_v6","SARL_v6oa5lzrpz","5ea89d0c5a0a9c12978f8263","fixation","","","img/fixation.png","null","","","test","","","","","","","","","","","","","","","","","","","",""
"450.10000002384186","408851","SARL_v6","SARL_v6oa5lzrpz","5ea89d0c5a0a9c12978f8263","freq","","","img/blue_2bandit_b2.png","70","","70","test","1","","100","","","","circle","square","96","7","5","0.9791666666666666","","","","","","","",""
"null","409208","SARL_v6","SARL_v6oa5lzrpz","5ea89d0c5a0a9c12978f8263","freq_resp","","","img/blue_2bandit_b.png","70","img/blue_2bandit_b.png","70","test","","","","","","","","","","","5","","","","","","","","",""
"null","409361","SARL_v6","SARL_v6oa5lzrpz","5ea89d0c5a0a9c12978f8263","fixation","","","img/fixation.png","null","","","test","","","","","","","","","","","","","","","","","","","",""
"350.7999999821186","409716","SARL_v6","SARL_v6oa5lzrpz","5ea89d0c5a0a9c12978f8263","freq","","","img/blue_2bandit_b2.png","70","","70","test","1","","101","","","","circle","square","97","8","5","0.979381443298969","","","","","","","",""
"null","410168","SARL_v6","SARL_v6oa5lzrpz","5ea89d0c5a0a9c12978f8263","freq_resp","","","img/blue_2bandit_b.png","70","img/blue_2bandit_b.png","70","test","","","","","","","","","","","5","","","","","","","","",""
"null","410328","SARL_v6","SARL_v6oa5lzrpz","5ea89d0c5a0a9c12978f8263","fixation","","","img/fixation.png","null","","","test","","","","","","","","","","","","","","","","","","","",""
"343","410674","SARL_v6","SARL_v6oa5lzrpz","5ea89d0c5a0a9c12978f8263","freq","","","img/blue_2bandit_b2.png","70","","70","test","1","","102","","","","circle","square","98","9","5","0.9795918367346939","","","","","","","",""
"null","411136","SARL_v6","SARL_v6oa5lzrpz","5ea89d0c5a0a9c12978f8263","freq_resp","","","img/blue_2bandit_b.png","70","img/blue_2bandit_b.png","70","test","","","","","","","","","","","5","","","","","","","","",""
"null","411288","SARL_v6","SARL_v6oa5lzrpz","5ea89d0c5a0a9c12978f8263","fixation","","","img/fixation.png","null","","","test","","","","","","","","","","","","","","","","","","","",""
"254","411545","SARL_v6","SARL_v6oa5lzrpz","5ea89d0c5a0a9c12978f8263","freq","","","img/blue_2bandit_b2.png","70","","70","test","1","","103","","","","circle","square","99","10","5","0.9797979797979798","","","","","","","",""
"null","412096","SARL_v6","SARL_v6oa5lzrpz","5ea89d0c5a0a9c12978f8263","freq_resp","","","img/blue_2bandit_b.png","70","img/blue_2bandit_b.png","70","test","","","","","","","","","","","5","","","","","","","","",""
"null","412249","SARL_v6","SARL_v6oa5lzrpz","5ea89d0c5a0a9c12978f8263","fixation","","","img/fixation.png","null","","","test","","","","","","","","","","","","","","","","","","","",""
"298.90000000596046","412550","SARL_v6","SARL_v6oa5lzrpz","5ea89d0c5a0a9c12978f8263","freq","","","img/blue_2bandit_b2.png","70","","70","test","1","","104","","","","circle","square","100","11","5","0.98","","","","","","","",""
"null","413056","SARL_v6","SARL_v6oa5lzrpz","5ea89d0c5a0a9c12978f8263","freq_resp","","","img/blue_2bandit_b.png","70","img/blue_2bandit_b.png","70","test","","","","","","","","","","","5","","","","","","","","",""
"null","413216","SARL_v6","SARL_v6oa5lzrpz","5ea89d0c5a0a9c12978f8263","fixation","","","img/fixation.png","null","","","test","","","","","","","","","","","","","","","","","","","",""
"338.69999998807907","413557","SARL_v6","SARL_v6oa5lzrpz","5ea89d0c5a0a9c12978f8263","freq","","","img/blue_2bandit_b2.png","70","","70","test","1","","105","","","","circle","square","101","12","5","0.9801980198019802","","","","","","","",""
"null","414026","SARL_v6","SARL_v6oa5lzrpz","5ea89d0c5a0a9c12978f8263","freq_resp","","","img/blue_2bandit_b.png","70","img/blue_2bandit_b.png","70","test","","","","","","","","","","","5","","","","","","","","",""
"null","414185","SARL_v6","SARL_v6oa5lzrpz","5ea89d0c5a0a9c12978f8263","fixation","","","img/fixation.png","null","","","test","","","","","","","","","","","","","","","","","","","",""
"401.89999997615814","414590","SARL_v6","SARL_v6oa5lzrpz","5ea89d0c5a0a9c12978f8263","freq","","","img/blue_2bandit_b2.png","70","","70","test","1","","106","","","","circle","square","102","13","5","0.9803921568627451","","","","","","","",""
"null","414993","SARL_v6","SARL_v6oa5lzrpz","5ea89d0c5a0a9c12978f8263","freq_resp","","","img/blue_2bandit_b.png","70","img/blue_2bandit_b.png","70","test","","","","","","","","","","","5","","","","","","","","",""
"null","415154","SARL_v6","SARL_v6oa5lzrpz","5ea89d0c5a0a9c12978f8263","fixation","","","img/fixation.png","null","","","test","","","","","","","","","","","","","","","","","","","",""
"460.30000001192093","415617","SARL_v6","SARL_v6oa5lzrpz","5ea89d0c5a0a9c12978f8263","freq","","","img/blue_2bandit_b2.png","70","","70","test","1","","107","","","","circle","square","103","14","5","0.9805825242718447","","","","","","","",""
"null","415960","SARL_v6","SARL_v6oa5lzrpz","5ea89d0c5a0a9c12978f8263","freq_resp","","","img/blue_2bandit_b.png","70","img/blue_2bandit_b.png","70","test","","","","","","","","","","","5","","","","","","","","",""
"null","416112","SARL_v6","SARL_v6oa5lzrpz","5ea89d0c5a0a9c12978f8263","fixation","","","img/fixation.png","null","","","test","","","","","","","","","","","","","","","","","","","",""
"424.2999999821186","416540","SARL_v6","SARL_v6oa5lzrpz","5ea89d0c5a0a9c12978f8263","freq","","","img/blue_2bandit_b2.png","70","","70","test","1","","108","","","","circle","square","104","15","5","0.9807692307692307","","","","","","","",""
"null","416920","SARL_v6","SARL_v6oa5lzrpz","5ea89d0c5a0a9c12978f8263","freq_resp","","","img/blue_2bandit_b.png","70","img/blue_2bandit_b.png","70","test","","","","","","","","","","","5","","","","","","","","",""
"null","417072","SARL_v6","SARL_v6oa5lzrpz","5ea89d0c5a0a9c12978f8263","fixation","","","img/fixation.png","null","","","test","","","","","","","","","","","","","","","","","","","",""
"363.30000001192093","417439","SARL_v6","SARL_v6oa5lzrpz","5ea89d0c5a0a9c12978f8263","freq","","","img/blue_2bandit_b2.png","70","","70","test","1","","109","","","","circle","square","105","16","5","0.9809523809523809","","","","","","","",""
"null","417880","SARL_v6","SARL_v6oa5lzrpz","5ea89d0c5a0a9c12978f8263","freq_resp","","","img/blue_2bandit_b.png","70","img/blue_2bandit_b.png","70","test","","","","","","","","","","","5","","","","","","","","",""
"null","418033","SARL_v6","SARL_v6oa5lzrpz","5ea89d0c5a0a9c12978f8263","fixation","","","img/fixation.png","null","","","test","","","","","","","","","","","","","","","","","","","",""
"364.10000002384186","418400","SARL_v6","SARL_v6oa5lzrpz","5ea89d0c5a0a9c12978f8263","freq","","","img/blue_2bandit_b2.png","70","","70","test","1","","110","","","","circle","square","106","17","5","0.9811320754716981","","","","","","","",""
"null","418840","SARL_v6","SARL_v6oa5lzrpz","5ea89d0c5a0a9c12978f8263","freq_resp","","","img/blue_2bandit_b.png","70","img/blue_2bandit_b.png","70","test","","","","","","","","","","","5","","","","","","","","",""
"null","418992","SARL_v6","SARL_v6oa5lzrpz","5ea89d0c5a0a9c12978f8263","fixation","","","img/fixation.png","null","","","test","","","","","","","","","","","","","","","","","","","",""
"350.09999999403954","419346","SARL_v6","SARL_v6oa5lzrpz","5ea89d0c5a0a9c12978f8263","freq","","","img/blue_2bandit_b2.png","70","","70","test","1","","111","","","","circle","square","107","18","5","0.9813084112149533","","","","","","","",""
"null","419800","SARL_v6","SARL_v6oa5lzrpz","5ea89d0c5a0a9c12978f8263","freq_resp","","","img/blue_2bandit_b.png","70","img/blue_2bandit_b.png","70","test","","","","","","","","","","","5","","","","","","","","",""
"null","419960","SARL_v6","SARL_v6oa5lzrpz","5ea89d0c5a0a9c12978f8263","fixation","","","img/fixation.png","null","","","test","","","","","","","","","","","","","","","","","","","",""
"368","420330","SARL_v6","SARL_v6oa5lzrpz","5ea89d0c5a0a9c12978f8263","freq","","","img/blue_2bandit_b2.png","70","","70","test","1","","112","","","","circle","square","108","19","5","0.9814814814814815","","","","","","","",""
"null","420768","SARL_v6","SARL_v6oa5lzrpz","5ea89d0c5a0a9c12978f8263","freq_resp","","","img/blue_2bandit_b.png","70","img/blue_2bandit_b.png","70","test","","","","","","","","","","","5","","","","","","","","",""
"null","420920","SARL_v6","SARL_v6oa5lzrpz","5ea89d0c5a0a9c12978f8263","fixation","","","img/fixation.png","null","","","test","","","","","","","","","","","","","","","","","","","",""
"418.7000000178814","421342","SARL_v6","SARL_v6oa5lzrpz","5ea89d0c5a0a9c12978f8263","freq","","","img/blue_2bandit_b2.png","70","","70","test","1","","113","","","","circle","square","109","20","5","0.981651376146789","","","","","","","",""
"null","421728","SARL_v6","SARL_v6oa5lzrpz","5ea89d0c5a0a9c12978f8263","freq_resp","","","img/blue_2bandit_b.png","70","img/blue_2bandit_b.png","70","test","","","","","","","","","","","5","","","","","","","","",""
"null","421880","SARL_v6","SARL_v6oa5lzrpz","5ea89d0c5a0a9c12978f8263","fixation","","","img/fixation.png","null","","","test","","","","","","","","","","","","","","","","","","","",""
"398.59999999403954","422282","SARL_v6","SARL_v6oa5lzrpz","5ea89d0c5a0a9c12978f8263","freq","","","img/blue_2bandit_b2.png","70","","70","test","1","","114","","","","circle","square","110","21","5","0.9818181818181818","","","","","","","",""
"null","422688","SARL_v6","SARL_v6oa5lzrpz","5ea89d0c5a0a9c12978f8263","freq_resp","","","img/blue_2bandit_b.png","70","img/blue_2bandit_b.png","70","test","","","","","","","","","","","5","","","","","","","","",""
"null","422840","SARL_v6","SARL_v6oa5lzrpz","5ea89d0c5a0a9c12978f8263","fixation","","","img/fixation.png","null","","","test","","","","","","","","","","","","","","","","","","","",""
"468.40000000596046","423310","SARL_v6","SARL_v6oa5lzrpz","5ea89d0c5a0a9c12978f8263","freq","","","img/blue_2bandit_b2.png","70","","70","test","1","","115","","","","circle","square","111","22","5","0.9819819819819819","","","","","","","",""
"null","423650","SARL_v6","SARL_v6oa5lzrpz","5ea89d0c5a0a9c12978f8263","freq_resp","","","img/blue_2bandit_b.png","70","img/blue_2bandit_b.png","70","test","","","","","","","","","","","5","","","","","","","","",""
"null","423810","SARL_v6","SARL_v6oa5lzrpz","5ea89d0c5a0a9c12978f8263","fixation","","","img/fixation.png","null","","","test","","","","","","","","","","","","","","","","","","","",""
"485.10000002384186","424300","SARL_v6","SARL_v6oa5lzrpz","5ea89d0c5a0a9c12978f8263","freq","","","img/blue_2bandit_b2.png","70","","70","test","1","","116","","","","circle","square","112","23","5","0.9821428571428571","","","","","","","",""
"null","424616","SARL_v6","SARL_v6oa5lzrpz","5ea89d0c5a0a9c12978f8263","freq_resp","","","img/blue_2bandit_b.png","70","img/blue_2bandit_b.png","70","test","","","","","","","","","","","5","","","","","","","","",""
"null","424768","SARL_v6","SARL_v6oa5lzrpz","5ea89d0c5a0a9c12978f8263","fixation","","","img/fixation.png","null","","","test","","","","","","","","","","","","","","","","","","","",""
"582.8000000119209","425354","SARL_v6","SARL_v6oa5lzrpz","5ea89d0c5a0a9c12978f8263","infreq","","","img/orange_2bandit_b2.png","68","","68","test","1","","117","","","","circle","square","113","24","5","0.9823008849557522","","","","","","","",""
"null","425577","SARL_v6","SARL_v6oa5lzrpz","5ea89d0c5a0a9c12978f8263","infreq_resp","","","img/orange_2bandit_b.png","68","img/orange_2bandit_b.png","68","test","","","","","","","","","","","5","","","","","","","","",""
"null","425736","SARL_v6","SARL_v6oa5lzrpz","5ea89d0c5a0a9c12978f8263","fixation","","","img/fixation.png","null","","","test","","","","","","","","","","","","","","","","","","","",""
"537.4000000059605","426277","SARL_v6","SARL_v6oa5lzrpz","5ea89d0c5a0a9c12978f8263","freq","","","img/blue_2bandit_b2.png","70","","70","test","1","","118","","","","circle","square","114","25","5","0.9824561403508771","","","","","","","",""
"null","426544","SARL_v6","SARL_v6oa5lzrpz","5ea89d0c5a0a9c12978f8263","freq_resp","","","img/blue_2bandit_b.png","70","img/blue_2bandit_b.png","70","test","","","","","","","","","","","5","","","","","","","","",""
"null","426696","SARL_v6","SARL_v6oa5lzrpz","5ea89d0c5a0a9c12978f8263","fixation","","","img/fixation.png","null","","","test","","","","","","","","","","","","","","","","","","","",""
"1180","427880","SARL_v6","SARL_v6oa5lzrpz","5ea89d0c5a0a9c12978f8263","rl","","","img/black_2bandit_b2.png","75","","0","test","","","119","","","-7","circle","square","","0","5","","75","4","-7","4","-7","square","5","0"
"null","428642","SARL_v6","SARL_v6oa5lzrpz","5ea89d0c5a0a9c12978f8263","feedback","","","<div class=""verylowPoints_sq""> -7 </div>","null","","na","test","","","NaN","","","","","","","","5","","75","","","","","","5",""
"644.5","429290","SARL_v6","SARL_v6oa5lzrpz","5ea89d0c5a0a9c12978f8263","freq","","","img/blue_2bandit_b2.png","70","","70","test","1","","120","","","","circle","square","115","1","6","0.9826086956521739","","","","","","","",""
"null","429449","SARL_v6","SARL_v6oa5lzrpz","5ea89d0c5a0a9c12978f8263","freq_resp","","","img/blue_2bandit_b.png","70","img/blue_2bandit_b.png","70","test","","","","","","","","","","","6","","","","","","","","",""
"null","429608","SARL_v6","SARL_v6oa5lzrpz","5ea89d0c5a0a9c12978f8263","fixation","","","img/fixation.png","null","","","test","","","","","","","","","","","","","","","","","","","",""
"381.59999999403954","429992","SARL_v6","SARL_v6oa5lzrpz","5ea89d0c5a0a9c12978f8263","freq","","","img/blue_2bandit_b2.png","70","","70","test","1","","121","","","","circle","square","116","2","6","0.9827586206896551","","","","","","","",""
"null","430417","SARL_v6","SARL_v6oa5lzrpz","5ea89d0c5a0a9c12978f8263","freq_resp","","","img/blue_2bandit_b.png","70","img/blue_2bandit_b.png","70","test","","","","","","","","","","","6","","","","","","","","",""
"null","430576","SARL_v6","SARL_v6oa5lzrpz","5ea89d0c5a0a9c12978f8263","fixation","","","img/fixation.png","null","","","test","","","","","","","","","","","","","","","","","","","",""
"355.09999999403954","430934","SARL_v6","SARL_v6oa5lzrpz","5ea89d0c5a0a9c12978f8263","freq","","","img/blue_2bandit_b2.png","70","","70","test","1","","122","","","","circle","square","117","3","6","0.9829059829059829","","","","","","","",""
"null","431385","SARL_v6","SARL_v6oa5lzrpz","5ea89d0c5a0a9c12978f8263","freq_resp","","","img/blue_2bandit_b.png","70","img/blue_2bandit_b.png","70","test","","","","","","","","","","","6","","","","","","","","",""
"null","431545","SARL_v6","SARL_v6oa5lzrpz","5ea89d0c5a0a9c12978f8263","fixation","","","img/fixation.png","null","","","test","","","","","","","","","","","","","","","","","","","",""
"370.5","431918","SARL_v6","SARL_v6oa5lzrpz","5ea89d0c5a0a9c12978f8263","freq","","","img/blue_2bandit_b2.png","70","","70","test","1","","123","","","","circle","square","118","4","6","0.9830508474576272","","","","","","","",""
"null","432353","SARL_v6","SARL_v6oa5lzrpz","5ea89d0c5a0a9c12978f8263","freq_resp","","","img/blue_2bandit_b.png","70","img/blue_2bandit_b.png","70","test","","","","","","","","","","","6","","","","","","","","",""
"null","432512","SARL_v6","SARL_v6oa5lzrpz","5ea89d0c5a0a9c12978f8263","fixation","","","img/fixation.png","null","","","test","","","","","","","","","","","","","","","","","","","",""
"335.5","432851","SARL_v6","SARL_v6oa5lzrpz","5ea89d0c5a0a9c12978f8263","freq","","","img/blue_2bandit_b2.png","70","","70","test","1","","124","","","","circle","square","119","5","6","0.9831932773109243","","","","","","","",""
"null","433320","SARL_v6","SARL_v6oa5lzrpz","5ea89d0c5a0a9c12978f8263","freq_resp","","","img/blue_2bandit_b.png","70","img/blue_2bandit_b.png","70","test","","","","","","","","","","","6","","","","","","","","",""
"null","433472","SARL_v6","SARL_v6oa5lzrpz","5ea89d0c5a0a9c12978f8263","fixation","","","img/fixation.png","null","","","test","","","","","","","","","","","","","","","","","","","",""
"734.4000000059605","434210","SARL_v6","SARL_v6oa5lzrpz","5ea89d0c5a0a9c12978f8263","freq","","","img/blue_2bandit_b2.png","70","","70","test","1","","125","","","","circle","square","120","6","6","0.9833333333333333","","","","","","","",""
"null","434280","SARL_v6","SARL_v6oa5lzrpz","5ea89d0c5a0a9c12978f8263","freq_resp","","","img/blue_2bandit_b.png","70","img/blue_2bandit_b.png","70","test","","","","","","","","","","","6","","","","","","","","",""
"null","434433","SARL_v6","SARL_v6oa5lzrpz","5ea89d0c5a0a9c12978f8263","fixation","","","img/fixation.png","null","","","test","","","","","","","","","","","","","","","","","","","",""
"570.4000000059605","435007","SARL_v6","SARL_v6oa5lzrpz","5ea89d0c5a0a9c12978f8263","freq","","","img/blue_2bandit_b2.png","70","","70","test","1","","126","","","","circle","square","121","7","6","0.9834710743801653","","","","","","","",""
"null","435240","SARL_v6","SARL_v6oa5lzrpz","5ea89d0c5a0a9c12978f8263","freq_resp","","","img/blue_2bandit_b.png","70","img/blue_2bandit_b.png","70","test","","","","","","","","","","","6","","","","","","","","",""
"null","435392","SARL_v6","SARL_v6oa5lzrpz","5ea89d0c5a0a9c12978f8263","fixation","","","img/fixation.png","null","","","test","","","","","","","","","","","","","","","","","","","",""
"464.60000002384186","435858","SARL_v6","SARL_v6oa5lzrpz","5ea89d0c5a0a9c12978f8263","freq","","","img/blue_2bandit_b2.png","70","","70","test","1","","127","","","","circle","square","122","8","6","0.9836065573770492","","","","","","","",""
"null","436200","SARL_v6","SARL_v6oa5lzrpz","5ea89d0c5a0a9c12978f8263","freq_resp","","","img/blue_2bandit_b.png","70","img/blue_2bandit_b.png","70","test","","","","","","","","","","","6","","","","","","","","",""
"null","436352","SARL_v6","SARL_v6oa5lzrpz","5ea89d0c5a0a9c12978f8263","fixation","","","img/fixation.png","null","","","test","","","","","","","","","","","","","","","","","","","",""
"338.59999999403954","436692","SARL_v6","SARL_v6oa5lzrpz","5ea89d0c5a0a9c12978f8263","infreq","","","img/orange_2bandit_b2.png","68","","68","test","1","","128","","","","circle","square","123","9","6","0.983739837398374","","","","","","","",""
"null","437160","SARL_v6","SARL_v6oa5lzrpz","5ea89d0c5a0a9c12978f8263","infreq_resp","","","img/orange_2bandit_b.png","68","img/orange_2bandit_b.png","68","test","","","","","","","","","","","6","","","","","","","","",""
"null","437312","SARL_v6","SARL_v6oa5lzrpz","5ea89d0c5a0a9c12978f8263","fixation","","","img/fixation.png","null","","","test","","","","","","","","","","","","","","","","","","","",""
"468.90000000596046","437784","SARL_v6","SARL_v6oa5lzrpz","5ea89d0c5a0a9c12978f8263","freq","","","img/blue_2bandit_b2.png","70","","70","test","1","","129","","","","circle","square","124","10","6","0.9838709677419355","","","","","","","",""
"null","438120","SARL_v6","SARL_v6oa5lzrpz","5ea89d0c5a0a9c12978f8263","freq_resp","","","img/blue_2bandit_b.png","70","img/blue_2bandit_b.png","70","test","","","","","","","","","","","6","","","","","","","","",""
"null","438274","SARL_v6","SARL_v6oa5lzrpz","5ea89d0c5a0a9c12978f8263","fixation","","","img/fixation.png","null","","","test","","","","","","","","","","","","","","","","","","","",""
"414.09999999403954","438692","SARL_v6","SARL_v6oa5lzrpz","5ea89d0c5a0a9c12978f8263","freq","","","img/blue_2bandit_b2.png","70","","70","test","1","","130","","","","circle","square","125","11","6","0.984","","","","","","","",""
"null","439080","SARL_v6","SARL_v6oa5lzrpz","5ea89d0c5a0a9c12978f8263","freq_resp","","","img/blue_2bandit_b.png","70","img/blue_2bandit_b.png","70","test","","","","","","","","","","","6","","","","","","","","",""
"null","439233","SARL_v6","SARL_v6oa5lzrpz","5ea89d0c5a0a9c12978f8263","fixation","","","img/fixation.png","null","","","test","","","","","","","","","","","","","","","","","","","",""
"365","439601","SARL_v6","SARL_v6oa5lzrpz","5ea89d0c5a0a9c12978f8263","freq","","","img/blue_2bandit_b2.png","70","","70","test","1","","131","","","","circle","square","126","12","6","0.9841269841269841","","","","","","","",""
