"rt","time_elapsed","expId","subject","prolificID","trialType","rlType","attType","stimulus","key_press","stim","corrresp","phase","corr","pracCounter","trialNum","rewardOne","rewardTwo","reward","bandOne","bandTwo","attentionNum","attentionRunNum","blockNum","performance","bandChosen","circleVal","squareVal","bandOneVal","bandTwoVal","shapeChosen","rlNum","badFlag"
"584678.4000000001","584680","SARL_v6","SARL_v6cx1f1k03","58935d5d4d77be0001689f14","","","","","","","","","","","","","","","","","","","","","","","","","","","",""
"","587814","SARL_v6","SARL_v6cx1f1k03","58935d5d4d77be0001689f14","fullscreen","fullscreen","fullscreen","","","","","","","","","","","","","","","","","","","","","","","","",""
"33561.799999999814","621377","SARL_v6","SARL_v6cx1f1k03","58935d5d4d77be0001689f14","","","","","","","","","","","","","","","","","","","","","","","","","","","",""
"null","622182","SARL_v6","SARL_v6cx1f1k03","58935d5d4d77be0001689f14","freqPrac","","","img/orange_2bandit_b2.png","null","img/orange_2bandit_b2.png","70","prac","0","1","","","","","","","","","","","","","","","","","",""
"null","623186","SARL_v6","SARL_v6cx1f1k03","58935d5d4d77be0001689f14","feedback","","","img/tooSlow.png","null","","na","prac","","","","","","","","","","","","","","","","","","","",""
"null","623350","SARL_v6","SARL_v6cx1f1k03","58935d5d4d77be0001689f14","fixation","","","img/fixation.png","null","","","prac","","","","","","","","","","","","","","","","","","","",""
"457.5","623809","SARL_v6","SARL_v6cx1f1k03","58935d5d4d77be0001689f14","infreqPrac","","","img/blue_2bandit_b2.png","68","img/blue_2bandit_b2.png","68","prac","1","1","","","","","","","","","","","","","","","","","",""
"457.5","624157","SARL_v6","SARL_v6cx1f1k03","58935d5d4d77be0001689f14","infreqPrac_resp","","","img/blue_2bandit_b.png","68","img/blue_2bandit_b.png","68","prac","","","","","","","","","","","","","","","","","","","",""
"null","624310","SARL_v6","SARL_v6cx1f1k03","58935d5d4d77be0001689f14","fixation","","","img/fixation.png","null","","","prac","","","","","","","","","","","","","","","","","","","",""
"697.6000000000931","625011","SARL_v6","SARL_v6cx1f1k03","58935d5d4d77be0001689f14","freqPrac","","","img/orange_2bandit_b2.png","70","img/orange_2bandit_b2.png","70","prac","1","1","","","","","","","","","","","","","","","","","",""
"697.6000000000931","625120","SARL_v6","SARL_v6cx1f1k03","58935d5d4d77be0001689f14","freqPrac_resp","","","img/orange_2bandit_b.png","70","img/orange_2bandit_b.png","70","prac","","","","","","","","","","","","","","","","","","","",""
"null","625276","SARL_v6","SARL_v6cx1f1k03","58935d5d4d77be0001689f14","fixation","","","img/fixation.png","null","","","prac","","","","","","","","","","","","","","","","","","","",""
"389.89999999990687","625668","SARL_v6","SARL_v6cx1f1k03","58935d5d4d77be0001689f14","infreqPrac","","","img/blue_2bandit_b2.png","68","img/blue_2bandit_b2.png","68","prac","1","1","","","","","","","","","","","","","","","","","",""
"389.89999999990687","626097","SARL_v6","SARL_v6cx1f1k03","58935d5d4d77be0001689f14","infreqPrac_resp","","","img/blue_2bandit_b.png","68","img/blue_2bandit_b.png","68","prac","","","","","","","","","","","","","","","","","","","",""
"null","626255","SARL_v6","SARL_v6cx1f1k03","58935d5d4d77be0001689f14","fixation","","","img/fixation.png","null","","","prac","","","","","","","","","","","","","","","","","","","",""
"412","626671","SARL_v6","SARL_v6cx1f1k03","58935d5d4d77be0001689f14","infreqPrac","","","img/blue_2bandit_b2.png","68","img/blue_2bandit_b2.png","68","prac","1","1","","","","","","","","","","","","","","","","","",""
"412","627075","SARL_v6","SARL_v6cx1f1k03","58935d5d4d77be0001689f14","infreqPrac_resp","","","img/blue_2bandit_b.png","68","img/blue_2bandit_b.png","68","prac","","","","","","","","","","","","","","","","","","","",""
"null","627232","SARL_v6","SARL_v6cx1f1k03","58935d5d4d77be0001689f14","fixation","","","img/fixation.png","null","","","prac","","","","","","","","","","","","","","","","","","","",""
"346","627581","SARL_v6","SARL_v6cx1f1k03","58935d5d4d77be0001689f14","infreqPrac","","","img/blue_2bandit_b2.png","70","img/blue_2bandit_b2.png","68","prac","0","2","","","","","","","","","","","","","","","","","",""
"346","628041","SARL_v6","SARL_v6cx1f1k03","58935d5d4d77be0001689f14","infreqPrac_resp","","","img/blue_2bandit_b.png","70","img/blue_2bandit_b.png","68","prac","","","","","","","","","","","","","","","","","","","",""
"null","629050","SARL_v6","SARL_v6cx1f1k03","58935d5d4d77be0001689f14","feedback","","","img/wrongKey.png","null","","na","prac","","","","","","","","","","","","","","","","","","","",""
"null","629206","SARL_v6","SARL_v6cx1f1k03","58935d5d4d77be0001689f14","fixation","","","img/fixation.png","null","","","prac","","","","","","","","","","","","","","","","","","","",""
"468.10000000009313","629677","SARL_v6","SARL_v6cx1f1k03","58935d5d4d77be0001689f14","freqPrac","","","img/orange_2bandit_b2.png","70","img/orange_2bandit_b2.png","70","prac","1","2","","","","","","","","","","","","","","","","","",""
"468.10000000009313","630011","SARL_v6","SARL_v6cx1f1k03","58935d5d4d77be0001689f14","freqPrac_resp","","","img/orange_2bandit_b.png","70","img/orange_2bandit_b.png","70","prac","","","","","","","","","","","","","","","","","","","",""
"null","630164","SARL_v6","SARL_v6cx1f1k03","58935d5d4d77be0001689f14","fixation","","","img/fixation.png","null","","","prac","","","","","","","","","","","","","","","","","","","",""
"373.5","630540","SARL_v6","SARL_v6cx1f1k03","58935d5d4d77be0001689f14","infreqPrac","","","img/blue_2bandit_b2.png","68","img/blue_2bandit_b2.png","68","prac","1","2","","","","","","","","","","","","","","","","","",""
"373.5","630968","SARL_v6","SARL_v6cx1f1k03","58935d5d4d77be0001689f14","infreqPrac_resp","","","img/blue_2bandit_b.png","68","img/blue_2bandit_b.png","68","prac","","","","","","","","","","","","","","","","","","","",""
"null","631128","SARL_v6","SARL_v6cx1f1k03","58935d5d4d77be0001689f14","fixation","","","img/fixation.png","null","","","prac","","","","","","","","","","","","","","","","","","","",""
"437","631568","SARL_v6","SARL_v6cx1f1k03","58935d5d4d77be0001689f14","freqPrac","","","img/orange_2bandit_b2.png","70","img/orange_2bandit_b2.png","70","prac","1","2","","","","","","","","","","","","","","","","","",""
"437","631938","SARL_v6","SARL_v6cx1f1k03","58935d5d4d77be0001689f14","freqPrac_resp","","","img/orange_2bandit_b.png","70","img/orange_2bandit_b.png","70","prac","","","","","","","","","","","","","","","","","","","",""
"null","632092","SARL_v6","SARL_v6cx1f1k03","58935d5d4d77be0001689f14","fixation","","","img/fixation.png","null","","","prac","","","","","","","","","","","","","","","","","","","",""
"345.89999999990687","632439","SARL_v6","SARL_v6cx1f1k03","58935d5d4d77be0001689f14","freqPrac","","","img/orange_2bandit_b2.png","70","img/orange_2bandit_b2.png","70","prac","1","2","","","","","","","","","","","","","","","","","",""
"345.89999999990687","632903","SARL_v6","SARL_v6cx1f1k03","58935d5d4d77be0001689f14","freqPrac_resp","","","img/orange_2bandit_b.png","70","img/orange_2bandit_b.png","70","prac","","","","","","","","","","","","","","","","","","","",""
"null","633060","SARL_v6","SARL_v6cx1f1k03","58935d5d4d77be0001689f14","fixation","","","img/fixation.png","null","","","prac","","","","","","","","","","","","","","","","","","","",""
"14586","647648","SARL_v6","SARL_v6cx1f1k03","58935d5d4d77be0001689f14","","","","","","","","prac","","","","","","","","","","","","","","","","","","","",""
"877.6999999997206","648528","SARL_v6","SARL_v6cx1f1k03","58935d5d4d77be0001689f14","rlPractice","","","img/black_2bandit_b2.png","74","img/black_2bandit_b2.png","","prac","","","0","","","","","","","","","","","","","","","","",""
"null","649282","SARL_v6","SARL_v6cx1f1k03","58935d5d4d77be0001689f14","feedback","","","<div class=""veryhighPoints""> 10 </div>","null","","na","prac","","","1","10","-14","10","","","","","","","","","","","","","",""
"null","649438","SARL_v6","SARL_v6cx1f1k03","58935d5d4d77be0001689f14","fixation","","","img/fixation.png","null","","","prac","","","","","","","","","","","","","","","","","","","",""
"725.2999999998137","650166","SARL_v6","SARL_v6cx1f1k03","58935d5d4d77be0001689f14","rlPractice","","","img/black_2bandit_b2.png","75","img/black_2bandit_b2.png","","prac","","","1","","","","","","","","","","","","","","","","",""
"null","650925","SARL_v6","SARL_v6cx1f1k03","58935d5d4d77be0001689f14","feedback","","","<div class=""verylowPoints_sq""> -5 </div>","null","","na","prac","","","2","5","-5","5","","","","","","","","","","","","","",""
"null","651081","SARL_v6","SARL_v6cx1f1k03","58935d5d4d77be0001689f14","fixation","","","img/fixation.png","null","","","prac","","","","","","","","","","","","","","","","","","","",""
"516.2000000001863","651600","SARL_v6","SARL_v6cx1f1k03","58935d5d4d77be0001689f14","rlPractice","","","img/black_2bandit_b2.png","74","img/black_2bandit_b2.png","","prac","","","2","","","","","","","","","","","","","","","","",""
"null","652353","SARL_v6","SARL_v6cx1f1k03","58935d5d4d77be0001689f14","feedback","","","<div class=""veryhighPoints""> 30 </div>","null","","na","prac","","","3","30","2","30","","","","","","","","","","","","","",""
"null","652511","SARL_v6","SARL_v6cx1f1k03","58935d5d4d77be0001689f14","fixation","","","img/fixation.png","null","","","prac","","","","","","","","","","","","","","","","","","","",""
"230.20000000018626","652743","SARL_v6","SARL_v6cx1f1k03","58935d5d4d77be0001689f14","rlPractice","","","img/black_2bandit_b2.png","74","img/black_2bandit_b2.png","","prac","","","3","","","","","","","","","","","","","","","","",""
"null","653500","SARL_v6","SARL_v6cx1f1k03","58935d5d4d77be0001689f14","feedback","","","<div class=""verylowPoints""> -2 </div>","null","","na","prac","","","4","-2","20","-2","","","","","","","","","","","","","",""
"null","653653","SARL_v6","SARL_v6cx1f1k03","58935d5d4d77be0001689f14","fixation","","","img/fixation.png","null","","","prac","","","","","","","","","","","","","","","","","","","",""
"95.3000000002794","653749","SARL_v6","SARL_v6cx1f1k03","58935d5d4d77be0001689f14","","","","","","","","prac","","","","","","","","","","","","","","","","","","","",""
"null","654557","SARL_v6","SARL_v6cx1f1k03","58935d5d4d77be0001689f14","mixAttFreqPrac","","","img/orange_2bandit_b2.png","null","img/orange_2bandit_b2.png","70","prac","","","1","","","","","","","","","","","","","","","","",""
"null","654710","SARL_v6","SARL_v6cx1f1k03","58935d5d4d77be0001689f14","fixation","","","img/fixation.png","null","","","prac","","","","","","","","","","","","","","","","","","","",""
"538.1000000000931","655249","SARL_v6","SARL_v6cx1f1k03","58935d5d4d77be0001689f14","mixAttInfreqPrac","","","img/blue_2bandit_b2.png","68","img/blue_2bandit_b2.png","68","prac","","","2","","","","","","","","","","","","","","","","",""
"538.1000000000931","655523","SARL_v6","SARL_v6cx1f1k03","58935d5d4d77be0001689f14","infreqPrac_resp","","","img/blue_2bandit_b.png","68","img/orange_2bandit_b.png","68","prac","","","2","","","","","","","","","","","","","","","","",""
"null","655676","SARL_v6","SARL_v6cx1f1k03","58935d5d4d77be0001689f14","fixation","","","img/fixation.png","null","","","prac","","","","","","","","","","","","","","","","","","","",""
"410.29999999981374","656088","SARL_v6","SARL_v6cx1f1k03","58935d5d4d77be0001689f14","mixAttInfreqPrac","","","img/blue_2bandit_b2.png","68","img/blue_2bandit_b2.png","68","prac","","","3","","","","","","","","","","","","","","","","",""
"410.29999999981374","656486","SARL_v6","SARL_v6cx1f1k03","58935d5d4d77be0001689f14","infreqPrac_resp","","","img/blue_2bandit_b.png","68","img/orange_2bandit_b.png","68","prac","","","3","","","","","","","","","","","","","","","","",""
"null","656641","SARL_v6","SARL_v6cx1f1k03","58935d5d4d77be0001689f14","fixation","","","img/fixation.png","null","","","prac","","","","","","","","","","","","","","","","","","","",""
"250.29999999981374","656894","SARL_v6","SARL_v6cx1f1k03","58935d5d4d77be0001689f14","mixAttInfreqPrac","","","img/blue_2bandit_b2.png","68","img/blue_2bandit_b2.png","68","prac","","","4","","","","","","","","","","","","","","","","",""
"250.29999999981374","657449","SARL_v6","SARL_v6cx1f1k03","58935d5d4d77be0001689f14","infreqPrac_resp","","","img/blue_2bandit_b.png","68","img/orange_2bandit_b.png","68","prac","","","4","","","","","","","","","","","","","","","","",""
"null","657602","SARL_v6","SARL_v6cx1f1k03","58935d5d4d77be0001689f14","fixation","","","img/fixation.png","null","","","prac","","","","","","","","","","","","","","","","","","","",""
"727.6000000000931","658331","SARL_v6","SARL_v6cx1f1k03","58935d5d4d77be0001689f14","mixAttFreqPrac","","","img/orange_2bandit_b2.png","70","img/orange_2bandit_b2.png","70","prac","","","5","","","","","","","","","","","","","","","","",""
"727.6000000000931","658405","SARL_v6","SARL_v6cx1f1k03","58935d5d4d77be0001689f14","freqPrac_resp","","","img/orange_2bandit_b.png","70","img/orange_2bandit_b.png","70","prac","","","5","","","","","","","","","","","","","","","","",""
"null","658564","SARL_v6","SARL_v6cx1f1k03","58935d5d4d77be0001689f14","fixation","","","img/fixation.png","null","","","prac","","","","","","","","","","","","","","","","","","","",""
"766.3000000002794","659332","SARL_v6","SARL_v6cx1f1k03","58935d5d4d77be0001689f14","mixRLPractice","","","img/black_2bandit_b2.png","75","img/black_2bandit_b2.png","","prac","","","5","","","","","","","","","","","","","","","","",""
"null","660087","SARL_v6","SARL_v6cx1f1k03","58935d5d4d77be0001689f14","feedback","","","<div class=""veryhighPoints_sq""> 10 </div>","null","","na","prac","","","6","-14","10","-14","","","","","","","","","","","","","",""
"null","660243","SARL_v6","SARL_v6cx1f1k03","58935d5d4d77be0001689f14","fixation","","","img/fixation.png","null","","","prac","","","","","","","","","","","","","","","","","","","",""
"null","661047","SARL_v6","SARL_v6cx1f1k03","58935d5d4d77be0001689f14","mixAttFreqPrac","","","img/orange_2bandit_b2.png","null","img/orange_2bandit_b2.png","70","prac","","","7","","","","","","","","","","","","","","","","",""
"77.59999999962747","661202","SARL_v6","SARL_v6cx1f1k03","58935d5d4d77be0001689f14","fixation","","","img/fixation.png","70","","","prac","","","","","","","","","","","","","","","","","","","",""
"599.7999999998137","661804","SARL_v6","SARL_v6cx1f1k03","58935d5d4d77be0001689f14","mixAttInfreqPrac","","","img/blue_2bandit_b2.png","68","img/blue_2bandit_b2.png","68","prac","","","8","","","","","","","","","","","","","","","","",""
"599.7999999998137","662007","SARL_v6","SARL_v6cx1f1k03","58935d5d4d77be0001689f14","infreqPrac_resp","","","img/blue_2bandit_b.png","68","img/orange_2bandit_b.png","68","prac","","","8","","","","","","","","","","","","","","","","",""
"null","662162","SARL_v6","SARL_v6cx1f1k03","58935d5d4d77be0001689f14","fixation","","","img/fixation.png","null","","","prac","","","","","","","","","","","","","","","","","","","",""
"421.79999999981374","662585","SARL_v6","SARL_v6cx1f1k03","58935d5d4d77be0001689f14","mixAttFreqPrac","","","img/orange_2bandit_b2.png","70","img/orange_2bandit_b2.png","70","prac","","","9","","","","","","","","","","","","","","","","",""
"421.79999999981374","662970","SARL_v6","SARL_v6cx1f1k03","58935d5d4d77be0001689f14","freqPrac_resp","","","img/orange_2bandit_b.png","70","img/orange_2bandit_b.png","70","prac","","","9","","","","","","","","","","","","","","","","",""
"null","663125","SARL_v6","SARL_v6cx1f1k03","58935d5d4d77be0001689f14","fixation","","","img/fixation.png","null","","","prac","","","","","","","","","","","","","","","","","","","",""
"495.5","663623","SARL_v6","SARL_v6cx1f1k03","58935d5d4d77be0001689f14","mixAttFreqPrac","","","img/orange_2bandit_b2.png","70","img/orange_2bandit_b2.png","70","prac","","","10","","","","","","","","","","","","","","","","",""
"495.5","663932","SARL_v6","SARL_v6cx1f1k03","58935d5d4d77be0001689f14","freqPrac_resp","","","img/orange_2bandit_b.png","70","img/orange_2bandit_b.png","70","prac","","","10","","","","","","","","","","","","","","","","",""
"null","664086","SARL_v6","SARL_v6cx1f1k03","58935d5d4d77be0001689f14","fixation","","","img/fixation.png","null","","","prac","","","","","","","","","","","","","","","","","","","",""
"379.89999999990687","664467","SARL_v6","SARL_v6cx1f1k03","58935d5d4d77be0001689f14","mixAttInfreqPrac","","","img/blue_2bandit_b2.png","68","img/blue_2bandit_b2.png","68","prac","","","11","","","","","","","","","","","","","","","","",""
"379.89999999990687","664896","SARL_v6","SARL_v6cx1f1k03","58935d5d4d77be0001689f14","infreqPrac_resp","","","img/blue_2bandit_b.png","68","img/orange_2bandit_b.png","68","prac","","","11","","","","","","","","","","","","","","","","",""
"null","665051","SARL_v6","SARL_v6cx1f1k03","58935d5d4d77be0001689f14","fixation","","","img/fixation.png","null","","","prac","","","","","","","","","","","","","","","","","","","",""
"711.4000000003725","665764","SARL_v6","SARL_v6cx1f1k03","58935d5d4d77be0001689f14","mixRLPractice","","","img/black_2bandit_b2.png","74","img/black_2bandit_b2.png","","prac","","","11","","","","","","","","","","","","","","","","",""
"null","666522","SARL_v6","SARL_v6cx1f1k03","58935d5d4d77be0001689f14","feedback","","","<div class=""veryhighPoints""> 5 </div>","null","","na","prac","","","12","5","-5","5","","","","","","","","","","","","","",""
"null","666678","SARL_v6","SARL_v6cx1f1k03","58935d5d4d77be0001689f14","fixation","","","img/fixation.png","null","","","prac","","","","","","","","","","","","","","","","","","","",""
"9747.700000000186","676427","SARL_v6","SARL_v6cx1f1k03","58935d5d4d77be0001689f14","","","","","","","","prac","","","","","","","","","","","","","","","","","","","",""
"709.7999999998137","677139","SARL_v6","SARL_v6cx1f1k03","58935d5d4d77be0001689f14","freq","","","img/orange_2bandit_b2.png","70","","70","test","1","","1","","","","circle","square","1","1","1","1","","","","","","","",""
"null","677232","SARL_v6","SARL_v6cx1f1k03","58935d5d4d77be0001689f14","freq_resp","","","img/orange_2bandit_b.png","70","img/orange_2bandit_b.png","70","test","","","","","","","","","","","1","","","","","","","","",""
"null","677384","SARL_v6","SARL_v6cx1f1k03","58935d5d4d77be0001689f14","fixation","","","img/fixation.png","null","","","test","","","","","","","","","","","","","","","","","","","",""
"362","677750","SARL_v6","SARL_v6cx1f1k03","58935d5d4d77be0001689f14","freq","","","img/orange_2bandit_b2.png","70","","70","test","1","","2","","","","circle","square","2","2","1","1","","","","","","","",""
"null","678196","SARL_v6","SARL_v6cx1f1k03","58935d5d4d77be0001689f14","freq_resp","","","img/orange_2bandit_b.png","70","img/orange_2bandit_b.png","70","test","","","","","","","","","","","1","","","","","","","","",""
"null","678351","SARL_v6","SARL_v6cx1f1k03","58935d5d4d77be0001689f14","fixation","","","img/fixation.png","null","","","test","","","","","","","","","","","","","","","","","","","",""
"319.3000000002794","678673","SARL_v6","SARL_v6cx1f1k03","58935d5d4d77be0001689f14","infreq","","","img/blue_2bandit_b2.png","68","","68","test","1","","3","","","","circle","square","3","3","1","1","","","","","","","",""
"null","679159","SARL_v6","SARL_v6cx1f1k03","58935d5d4d77be0001689f14","infreq_resp","","","img/blue_2bandit_b.png","68","img/blue_2bandit_b.png","68","test","","","","","","","","","","","1","","","","","","","","",""
"null","679314","SARL_v6","SARL_v6cx1f1k03","58935d5d4d77be0001689f14","fixation","","","img/fixation.png","null","","","test","","","","","","","","","","","","","","","","","","","",""
"406","679722","SARL_v6","SARL_v6cx1f1k03","58935d5d4d77be0001689f14","freq","","","img/orange_2bandit_b2.png","70","","70","test","1","","4","","","","circle","square","4","4","1","1","","","","","","","",""
"null","680120","SARL_v6","SARL_v6cx1f1k03","58935d5d4d77be0001689f14","freq_resp","","","img/orange_2bandit_b.png","70","img/orange_2bandit_b.png","70","test","","","","","","","","","","","1","","","","","","","","",""
"null","680275","SARL_v6","SARL_v6cx1f1k03","58935d5d4d77be0001689f14","fixation","","","img/fixation.png","null","","","test","","","","","","","","","","","","","","","","","","","",""
"374.79999999981374","680654","SARL_v6","SARL_v6cx1f1k03","58935d5d4d77be0001689f14","freq","","","img/orange_2bandit_b2.png","70","","70","test","1","","5","","","","circle","square","5","5","1","1","","","","","","","",""
"null","681094","SARL_v6","SARL_v6cx1f1k03","58935d5d4d77be0001689f14","freq_resp","","","img/orange_2bandit_b.png","70","img/orange_2bandit_b.png","70","test","","","","","","","","","","","1","","","","","","","","",""
"null","681251","SARL_v6","SARL_v6cx1f1k03","58935d5d4d77be0001689f14","fixation","","","img/fixation.png","null","","","test","","","","","","","","","","","","","","","","","","","",""
"302.10000000009313","681555","SARL_v6","SARL_v6cx1f1k03","58935d5d4d77be0001689f14","freq","","","img/orange_2bandit_b2.png","70","","70","test","1","","6","","","","circle","square","6","6","1","1","","","","","","","",""
"null","682060","SARL_v6","SARL_v6cx1f1k03","58935d5d4d77be0001689f14","freq_resp","","","img/orange_2bandit_b.png","70","img/orange_2bandit_b.png","70","test","","","","","","","","","","","1","","","","","","","","",""
"null","682214","SARL_v6","SARL_v6cx1f1k03","58935d5d4d77be0001689f14","fixation","","","img/fixation.png","null","","","test","","","","","","","","","","","","","","","","","","","",""
"497.79999999981374","682714","SARL_v6","SARL_v6cx1f1k03","58935d5d4d77be0001689f14","freq","","","img/orange_2bandit_b2.png","70","","70","test","1","","7","","","","circle","square","7","7","1","1","","","","","","","",""
"null","683026","SARL_v6","SARL_v6cx1f1k03","58935d5d4d77be0001689f14","freq_resp","","","img/orange_2bandit_b.png","70","img/orange_2bandit_b.png","70","test","","","","","","","","","","","1","","","","","","","","",""
"null","683180","SARL_v6","SARL_v6cx1f1k03","58935d5d4d77be0001689f14","fixation","","","img/fixation.png","null","","","test","","","","","","","","","","","","","","","","","","","",""
"296.5","683479","SARL_v6","SARL_v6cx1f1k03","58935d5d4d77be0001689f14","freq","","","img/orange_2bandit_b2.png","70","","70","test","1","","8","","","","circle","square","8","8","1","1","","","","","","","",""
"null","683988","SARL_v6","SARL_v6cx1f1k03","58935d5d4d77be0001689f14","freq_resp","","","img/orange_2bandit_b.png","70","img/orange_2bandit_b.png","70","test","","","","","","","","","","","1","","","","","","","","",""
"null","684142","SARL_v6","SARL_v6cx1f1k03","58935d5d4d77be0001689f14","fixation","","","img/fixation.png","null","","","test","","","","","","","","","","","","","","","","","","","",""
"279.29999999981374","684424","SARL_v6","SARL_v6cx1f1k03","58935d5d4d77be0001689f14","freq","","","img/orange_2bandit_b2.png","70","","70","test","1","","9","","","","circle","square","9","9","1","1","","","","","","","",""
"null","684960","SARL_v6","SARL_v6cx1f1k03","58935d5d4d77be0001689f14","freq_resp","","","img/orange_2bandit_b.png","70","img/orange_2bandit_b.png","70","test","","","","","","","","","","","1","","","","","","","","",""
"null","685113","SARL_v6","SARL_v6cx1f1k03","58935d5d4d77be0001689f14","fixation","","","img/fixation.png","null","","","test","","","","","","","","","","","","","","","","","","","",""
"279.10000000009313","685395","SARL_v6","SARL_v6cx1f1k03","58935d5d4d77be0001689f14","freq","","","img/orange_2bandit_b2.png","70","","70","test","1","","10","","","","circle","square","10","10","1","1","","","","","","","",""
"null","685927","SARL_v6","SARL_v6cx1f1k03","58935d5d4d77be0001689f14","freq_resp","","","img/orange_2bandit_b.png","70","img/orange_2bandit_b.png","70","test","","","","","","","","","","","1","","","","","","","","",""
"null","686082","SARL_v6","SARL_v6cx1f1k03","58935d5d4d77be0001689f14","fixation","","","img/fixation.png","null","","","test","","","","","","","","","","","","","","","","","","","",""
"293.5","686378","SARL_v6","SARL_v6cx1f1k03","58935d5d4d77be0001689f14","freq","","","img/orange_2bandit_b2.png","70","","70","test","1","","11","","","","circle","square","11","11","1","1","","","","","","","",""
"null","686889","SARL_v6","SARL_v6cx1f1k03","58935d5d4d77be0001689f14","freq_resp","","","img/orange_2bandit_b.png","70","img/orange_2bandit_b.png","70","test","","","","","","","","","","","1","","","","","","","","",""
"null","687041","SARL_v6","SARL_v6cx1f1k03","58935d5d4d77be0001689f14","fixation","","","img/fixation.png","null","","","test","","","","","","","","","","","","","","","","","","","",""
"289.39999999990687","687332","SARL_v6","SARL_v6cx1f1k03","58935d5d4d77be0001689f14","freq","","","img/orange_2bandit_b2.png","70","","70","test","1","","12","","","","circle","square","12","12","1","1","","","","","","","",""
"null","687859","SARL_v6","SARL_v6cx1f1k03","58935d5d4d77be0001689f14","freq_resp","","","img/orange_2bandit_b.png","70","img/orange_2bandit_b.png","70","test","","","","","","","","","","","1","","","","","","","","",""
"null","688012","SARL_v6","SARL_v6cx1f1k03","58935d5d4d77be0001689f14","fixation","","","img/fixation.png","null","","","test","","","","","","","","","","","","","","","","","","","",""
"265.79999999981374","688280","SARL_v6","SARL_v6cx1f1k03","58935d5d4d77be0001689f14","freq","","","img/orange_2bandit_b2.png","70","","70","test","1","","13","","","","circle","square","13","13","1","1","","","","","","","",""
"null","688818","SARL_v6","SARL_v6cx1f1k03","58935d5d4d77be0001689f14","freq_resp","","","img/orange_2bandit_b.png","70","img/orange_2bandit_b.png","70","test","","","","","","","","","","","1","","","","","","","","",""
"null","688971","SARL_v6","SARL_v6cx1f1k03","58935d5d4d77be0001689f14","fixation","","","img/fixation.png","null","","","test","","","","","","","","","","","","","","","","","","","",""
"137.6999999997206","689111","SARL_v6","SARL_v6cx1f1k03","58935d5d4d77be0001689f14","freq","","","img/orange_2bandit_b2.png","70","","70","test","1","","14","","","","circle","square","14","14","1","1","","","","","","","",""
"null","689783","SARL_v6","SARL_v6cx1f1k03","58935d5d4d77be0001689f14","freq_resp","","","img/orange_2bandit_b.png","70","img/orange_2bandit_b.png","70","test","","","","","","","","","","","1","","","","","","","","",""
"null","689939","SARL_v6","SARL_v6cx1f1k03","58935d5d4d77be0001689f14","fixation","","","img/fixation.png","null","","","test","","","","","","","","","","","","","","","","","","","",""
"102.29999999981374","690043","SARL_v6","SARL_v6cx1f1k03","58935d5d4d77be0001689f14","freq","","","img/orange_2bandit_b2.png","70","","70","test","1","","15","","","","circle","square","15","15","1","1","","","","","","","",""
"null","690748","SARL_v6","SARL_v6cx1f1k03","58935d5d4d77be0001689f14","freq_resp","","","img/orange_2bandit_b.png","70","img/orange_2bandit_b.png","70","test","","","","","","","","","","","1","","","","","","","","",""
"null","690901","SARL_v6","SARL_v6cx1f1k03","58935d5d4d77be0001689f14","fixation","","","img/fixation.png","null","","","test","","","","","","","","","","","","","","","","","","","",""
"231.39999999990687","691134","SARL_v6","SARL_v6cx1f1k03","58935d5d4d77be0001689f14","freq","","","img/orange_2bandit_b2.png","70","","70","test","1","","16","","","","circle","square","16","16","1","1","","","","","","","",""
"null","691714","SARL_v6","SARL_v6cx1f1k03","58935d5d4d77be0001689f14","freq_resp","","","img/orange_2bandit_b.png","70","img/orange_2bandit_b.png","70","test","","","","","","","","","","","1","","","","","","","","",""
"null","691868","SARL_v6","SARL_v6cx1f1k03","58935d5d4d77be0001689f14","fixation","","","img/fixation.png","null","","","test","","","","","","","","","","","","","","","","","","","",""
"304.09999999962747","692174","SARL_v6","SARL_v6cx1f1k03","58935d5d4d77be0001689f14","freq","","","img/orange_2bandit_b2.png","70","","70","test","1","","17","","","","circle","square","17","17","1","1","","","","","","","",""
"null","692687","SARL_v6","SARL_v6cx1f1k03","58935d5d4d77be0001689f14","freq_resp","","","img/orange_2bandit_b.png","70","img/orange_2bandit_b.png","70","test","","","","","","","","","","","1","","","","","","","","",""
"null","692840","SARL_v6","SARL_v6cx1f1k03","58935d5d4d77be0001689f14","fixation","","","img/fixation.png","null","","","test","","","","","","","","","","","","","","","","","","","",""
"339.5","693182","SARL_v6","SARL_v6cx1f1k03","58935d5d4d77be0001689f14","infreq","","","img/blue_2bandit_b2.png","70","","68","test","0","","18","","","","circle","square","18","18","1","0.9444444444444444","","","","","","","",""
"null","693661","SARL_v6","SARL_v6cx1f1k03","58935d5d4d77be0001689f14","infreq_resp","","","img/blue_2bandit_b.png","70","img/blue_2bandit_b.png","68","test","","","","","","","","","","","1","","","","","","","","",""
"null","693814","SARL_v6","SARL_v6cx1f1k03","58935d5d4d77be0001689f14","fixation","","","img/fixation.png","null","","","test","","","","","","","","","","","","","","","","","","","",""
"487.60000000009313","694303","SARL_v6","SARL_v6cx1f1k03","58935d5d4d77be0001689f14","freq","","","img/orange_2bandit_b2.png","70","","70","test","1","","19","","","","circle","square","19","19","1","0.9473684210526315","","","","","","","",""
"null","694629","SARL_v6","SARL_v6cx1f1k03","58935d5d4d77be0001689f14","freq_resp","","","img/orange_2bandit_b.png","70","img/orange_2bandit_b.png","70","test","","","","","","","","","","","1","","","","","","","","",""
"null","694783","SARL_v6","SARL_v6cx1f1k03","58935d5d4d77be0001689f14","fixation","","","img/fixation.png","null","","","test","","","","","","","","","","","","","","","","","","","",""
"409.79999999981374","695195","SARL_v6","SARL_v6cx1f1k03","58935d5d4d77be0001689f14","freq","","","img/orange_2bandit_b2.png","70","","70","test","1","","20","","","","circle","square","20","20","1","0.95","","","","","","","",""
"null","695589","SARL_v6","SARL_v6cx1f1k03","58935d5d4d77be0001689f14","freq_resp","","","img/orange_2bandit_b.png","70","img/orange_2bandit_b.png","70","test","","","","","","","","","","","1","","","","","","","","",""
"null","695744","SARL_v6","SARL_v6cx1f1k03","58935d5d4d77be0001689f14","fixation","","","img/fixation.png","null","","","test","","","","","","","","","","","","","","","","","","","",""
"265.89999999990687","696013","SARL_v6","SARL_v6cx1f1k03","58935d5d4d77be0001689f14","freq","","","img/orange_2bandit_b2.png","70","","70","test","1","","21","","","","circle","square","21","21","1","0.9523809523809523","","","","","","","",""
"null","696552","SARL_v6","SARL_v6cx1f1k03","58935d5d4d77be0001689f14","freq_resp","","","img/orange_2bandit_b.png","70","img/orange_2bandit_b.png","70","test","","","","","","","","","","","1","","","","","","","","",""
"null","696706","SARL_v6","SARL_v6cx1f1k03","58935d5d4d77be0001689f14","fixation","","","img/fixation.png","null","","","test","","","","","","","","","","","","","","","","","","","",""
"278","696986","SARL_v6","SARL_v6cx1f1k03","58935d5d4d77be0001689f14","freq","","","img/orange_2bandit_b2.png","70","","70","test","1","","22","","","","circle","square","22","22","1","0.9545454545454546","","","","","","","",""
"null","697512","SARL_v6","SARL_v6cx1f1k03","58935d5d4d77be0001689f14","freq_resp","","","img/orange_2bandit_b.png","70","img/orange_2bandit_b.png","70","test","","","","","","","","","","","1","","","","","","","","",""
"null","697665","SARL_v6","SARL_v6cx1f1k03","58935d5d4d77be0001689f14","fixation","","","img/fixation.png","null","","","test","","","","","","","","","","","","","","","","","","","",""
"290.79999999981374","697958","SARL_v6","SARL_v6cx1f1k03","58935d5d4d77be0001689f14","freq","","","img/orange_2bandit_b2.png","70","","70","test","1","","23","","","","circle","square","23","23","1","0.9565217391304348","","","","","","","",""
"null","698472","SARL_v6","SARL_v6cx1f1k03","58935d5d4d77be0001689f14","freq_resp","","","img/orange_2bandit_b.png","70","img/orange_2bandit_b.png","70","test","","","","","","","","","","","1","","","","","","","","",""
"null","698629","SARL_v6","SARL_v6cx1f1k03","58935d5d4d77be0001689f14","fixation","","","img/fixation.png","null","","","test","","","","","","","","","","","","","","","","","","","",""
"775.1999999997206","699407","SARL_v6","SARL_v6cx1f1k03","58935d5d4d77be0001689f14","rl","","","img/black_2bandit_b2.png","75","","0","test","","","24","","","-3","circle","square","","0","1","","75","-3","-3","-3","-3","square","1","0"
"null","700169","SARL_v6","SARL_v6cx1f1k03","58935d5d4d77be0001689f14","feedback","","","<div class=""verylowPoints_sq""> -3 </div>","null","","na","test","","","NaN","","","","","","","","1","","75","","","","","","1",""
"697.5","700869","SARL_v6","SARL_v6cx1f1k03","58935d5d4d77be0001689f14","freq","","","img/orange_2bandit_b2.png","70","","70","test","1","","25","","","","circle","square","24","1","2","0.9583333333333334","","","","","","","",""
"null","700975","SARL_v6","SARL_v6cx1f1k03","58935d5d4d77be0001689f14","freq_resp","","","img/orange_2bandit_b.png","70","img/orange_2bandit_b.png","70","test","","","","","","","","","","","2","","","","","","","","",""
"null","701142","SARL_v6","SARL_v6cx1f1k03","58935d5d4d77be0001689f14","fixation","","","img/fixation.png","null","","","test","","","","","","","","","","","","","","","","","","","",""
"310.89999999990687","701456","SARL_v6","SARL_v6cx1f1k03","58935d5d4d77be0001689f14","freq","","","img/orange_2bandit_b2.png","70","","70","test","1","","26","","","","circle","square","25","2","2","0.96","","","","","","","",""
"null","701953","SARL_v6","SARL_v6cx1f1k03","58935d5d4d77be0001689f14","freq_resp","","","img/orange_2bandit_b.png","70","img/orange_2bandit_b.png","70","test","","","","","","","","","","","2","","","","","","","","",""
"null","702107","SARL_v6","SARL_v6cx1f1k03","58935d5d4d77be0001689f14","fixation","","","img/fixation.png","null","","","test","","","","","","","","","","","","","","","","","","","",""
"276.5","702385","SARL_v6","SARL_v6cx1f1k03","58935d5d4d77be0001689f14","freq","","","img/orange_2bandit_b2.png","70","","70","test","1","","27","","","","circle","square","26","3","2","0.9615384615384616","","","","","","","",""
"null","702919","SARL_v6","SARL_v6cx1f1k03","58935d5d4d77be0001689f14","freq_resp","","","img/orange_2bandit_b.png","70","img/orange_2bandit_b.png","70","test","","","","","","","","","","","2","","","","","","","","",""
"null","703074","SARL_v6","SARL_v6cx1f1k03","58935d5d4d77be0001689f14","fixation","","","img/fixation.png","null","","","test","","","","","","","","","","","","","","","","","","","",""
"263.79999999981374","703340","SARL_v6","SARL_v6cx1f1k03","58935d5d4d77be0001689f14","freq","","","img/orange_2bandit_b2.png","70","","70","test","1","","28","","","","circle","square","27","4","2","0.9629629629629629","","","","","","","",""
"null","703883","SARL_v6","SARL_v6cx1f1k03","58935d5d4d77be0001689f14","freq_resp","","","img/orange_2bandit_b.png","70","img/orange_2bandit_b.png","70","test","","","","","","","","","","","2","","","","","","","","",""
"null","704035","SARL_v6","SARL_v6cx1f1k03","58935d5d4d77be0001689f14","fixation","","","img/fixation.png","null","","","test","","","","","","","","","","","","","","","","","","","",""
"505.1999999997206","704542","SARL_v6","SARL_v6cx1f1k03","58935d5d4d77be0001689f14","infreq","","","img/blue_2bandit_b2.png","68","","68","test","1","","29","","","","circle","square","28","5","2","0.9642857142857143","","","","","","","",""
"null","704844","SARL_v6","SARL_v6cx1f1k03","58935d5d4d77be0001689f14","infreq_resp","","","img/blue_2bandit_b.png","68","img/blue_2bandit_b.png","68","test","","","","","","","","","","","2","","","","","","","","",""
"null","705001","SARL_v6","SARL_v6cx1f1k03","58935d5d4d77be0001689f14","fixation","","","img/fixation.png","null","","","test","","","","","","","","","","","","","","","","","","","",""
"475.10000000009313","705478","SARL_v6","SARL_v6cx1f1k03","58935d5d4d77be0001689f14","freq","","","img/orange_2bandit_b2.png","70","","70","test","1","","30","","","","circle","square","29","6","2","0.9655172413793104","","","","","","","",""
"null","705809","SARL_v6","SARL_v6cx1f1k03","58935d5d4d77be0001689f14","freq_resp","","","img/orange_2bandit_b.png","70","img/orange_2bandit_b.png","70","test","","","","","","","","","","","2","","","","","","","","",""
"null","705962","SARL_v6","SARL_v6cx1f1k03","58935d5d4d77be0001689f14","fixation","","","img/fixation.png","null","","","test","","","","","","","","","","","","","","","","","","","",""
"393.09999999962747","706357","SARL_v6","SARL_v6cx1f1k03","58935d5d4d77be0001689f14","freq","","","img/orange_2bandit_b2.png","70","","70","test","1","","31","","","","circle","square","30","7","2","0.9666666666666667","","","","","","","",""
"null","706772","SARL_v6","SARL_v6cx1f1k03","58935d5d4d77be0001689f14","freq_resp","","","img/orange_2bandit_b.png","70","img/orange_2bandit_b.png","70","test","","","","","","","","","","","2","","","","","","","","",""
"null","706928","SARL_v6","SARL_v6cx1f1k03","58935d5d4d77be0001689f14","fixation","","","img/fixation.png","null","","","test","","","","","","","","","","","","","","","","","","","",""
"348.10000000009313","707278","SARL_v6","SARL_v6cx1f1k03","58935d5d4d77be0001689f14","freq","","","img/orange_2bandit_b2.png","70","","70","test","1","","32","","","","circle","square","31","8","2","0.967741935483871","","","","","","","",""
"null","707734","SARL_v6","SARL_v6cx1f1k03","58935d5d4d77be0001689f14","freq_resp","","","img/orange_2bandit_b.png","70","img/orange_2bandit_b.png","70","test","","","","","","","","","","","2","","","","","","","","",""
"null","707887","SARL_v6","SARL_v6cx1f1k03","58935d5d4d77be0001689f14","fixation","","","img/fixation.png","null","","","test","","","","","","","","","","","","","","","","","","","",""
"296.79999999981374","708186","SARL_v6","SARL_v6cx1f1k03","58935d5d4d77be0001689f14","freq","","","img/orange_2bandit_b2.png","70","","70","test","1","","33","","","","circle","square","32","9","2","0.96875","","","","","","","",""
"null","708698","SARL_v6","SARL_v6cx1f1k03","58935d5d4d77be0001689f14","freq_resp","","","img/orange_2bandit_b.png","70","img/orange_2bandit_b.png","70","test","","","","","","","","","","","2","","","","","","","","",""
"null","708850","SARL_v6","SARL_v6cx1f1k03","58935d5d4d77be0001689f14","fixation","","","img/fixation.png","null","","","test","","","","","","","","","","","","","","","","","","","",""
"292","709145","SARL_v6","SARL_v6cx1f1k03","58935d5d4d77be0001689f14","freq","","","img/orange_2bandit_b2.png","70","","70","test","1","","34","","","","circle","square","33","10","2","0.9696969696969697","","","","","","","",""
"null","709665","SARL_v6","SARL_v6cx1f1k03","58935d5d4d77be0001689f14","freq_resp","","","img/orange_2bandit_b.png","70","img/orange_2bandit_b.png","70","test","","","","","","","","","","","2","","","","","","","","",""
"null","709817","SARL_v6","SARL_v6cx1f1k03","58935d5d4d77be0001689f14","fixation","","","img/fixation.png","null","","","test","","","","","","","","","","","","","","","","","","","",""
"274.70000000018626","710094","SARL_v6","SARL_v6cx1f1k03","58935d5d4d77be0001689f14","freq","","","img/orange_2bandit_b2.png","70","","70","test","1","","35","","","","circle","square","34","11","2","0.9705882352941176","","","","","","","",""
"null","710627","SARL_v6","SARL_v6cx1f1k03","58935d5d4d77be0001689f14","freq_resp","","","img/orange_2bandit_b.png","70","img/orange_2bandit_b.png","70","test","","","","","","","","","","","2","","","","","","","","",""
"null","710781","SARL_v6","SARL_v6cx1f1k03","58935d5d4d77be0001689f14","fixation","","","img/fixation.png","null","","","test","","","","","","","","","","","","","","","","","","","",""
"241.29999999981374","711025","SARL_v6","SARL_v6cx1f1k03","58935d5d4d77be0001689f14","freq","","","img/orange_2bandit_b2.png","70","","70","test","1","","36","","","","circle","square","35","12","2","0.9714285714285714","","","","","","","",""
"null","711589","SARL_v6","SARL_v6cx1f1k03","58935d5d4d77be0001689f14","freq_resp","","","img/orange_2bandit_b.png","70","img/orange_2bandit_b.png","70","test","","","","","","","","","","","2","","","","","","","","",""
"null","711756","SARL_v6","SARL_v6cx1f1k03","58935d5d4d77be0001689f14","fixation","","","img/fixation.png","null","","","test","","","","","","","","","","","","","","","","","","","",""
"206.60000000009313","711964","SARL_v6","SARL_v6cx1f1k03","58935d5d4d77be0001689f14","freq","","","img/orange_2bandit_b2.png","70","","70","test","1","","37","","","","circle","square","36","13","2","0.9722222222222222","","","","","","","",""
"null","712566","SARL_v6","SARL_v6cx1f1k03","58935d5d4d77be0001689f14","freq_resp","","","img/orange_2bandit_b.png","70","img/orange_2bandit_b.png","70","test","","","","","","","","","","","2","","","","","","","","",""
"null","712721","SARL_v6","SARL_v6cx1f1k03","58935d5d4d77be0001689f14","fixation","","","img/fixation.png","null","","","test","","","","","","","","","","","","","","","","","","","",""
"177.20000000018626","712901","SARL_v6","SARL_v6cx1f1k03","58935d5d4d77be0001689f14","freq","","","img/orange_2bandit_b2.png","70","","70","test","1","","38","","","","circle","square","37","14","2","0.972972972972973","","","","","","","",""
"null","713532","SARL_v6","SARL_v6cx1f1k03","58935d5d4d77be0001689f14","freq_resp","","","img/orange_2bandit_b.png","70","img/orange_2bandit_b.png","70","test","","","","","","","","","","","2","","","","","","","","",""
"null","713683","SARL_v6","SARL_v6cx1f1k03","58935d5d4d77be0001689f14","fixation","","","img/fixation.png","null","","","test","","","","","","","","","","","","","","","","","","","",""
"103.5","713788","SARL_v6","SARL_v6cx1f1k03","58935d5d4d77be0001689f14","infreq","","","img/blue_2bandit_b2.png","70","","68","test","0","","39","","","","circle","square","38","15","2","0.9473684210526315","","","","","","","",""
"null","714496","SARL_v6","SARL_v6cx1f1k03","58935d5d4d77be0001689f14","infreq_resp","","","img/blue_2bandit_b.png","70","img/blue_2bandit_b.png","68","test","","","","","","","","","","","2","","","","","","","","",""
"null","714654","SARL_v6","SARL_v6cx1f1k03","58935d5d4d77be0001689f14","fixation","","","img/fixation.png","null","","","test","","","","","","","","","","","","","","","","","","","",""
"520.8999999999069","715176","SARL_v6","SARL_v6cx1f1k03","58935d5d4d77be0001689f14","freq","","","img/orange_2bandit_b2.png","70","","70","test","1","","40","","","","circle","square","39","16","2","0.9487179487179487","","","","","","","",""
"null","715462","SARL_v6","SARL_v6cx1f1k03","58935d5d4d77be0001689f14","freq_resp","","","img/orange_2bandit_b.png","70","img/orange_2bandit_b.png","70","test","","","","","","","","","","","2","","","","","","","","",""
"null","715618","SARL_v6","SARL_v6cx1f1k03","58935d5d4d77be0001689f14","fixation","","","img/fixation.png","null","","","test","","","","","","","","","","","","","","","","","","","",""
"345.5","715966","SARL_v6","SARL_v6cx1f1k03","58935d5d4d77be0001689f14","freq","","","img/orange_2bandit_b2.png","70","","70","test","1","","41","","","","circle","square","40","17","2","0.95","","","","","","","",""
"null","716429","SARL_v6","SARL_v6cx1f1k03","58935d5d4d77be0001689f14","freq_resp","","","img/orange_2bandit_b.png","70","img/orange_2bandit_b.png","70","test","","","","","","","","","","","2","","","","","","","","",""
"null","716586","SARL_v6","SARL_v6cx1f1k03","58935d5d4d77be0001689f14","fixation","","","img/fixation.png","null","","","test","","","","","","","","","","","","","","","","","","","",""
"281.20000000018626","716870","SARL_v6","SARL_v6cx1f1k03","58935d5d4d77be0001689f14","freq","","","img/orange_2bandit_b2.png","70","","70","test","1","","42","","","","circle","square","41","18","2","0.9512195121951219","","","","","","","",""
"null","717394","SARL_v6","SARL_v6cx1f1k03","58935d5d4d77be0001689f14","freq_resp","","","img/orange_2bandit_b.png","70","img/orange_2bandit_b.png","70","test","","","","","","","","","","","2","","","","","","","","",""
"null","717546","SARL_v6","SARL_v6cx1f1k03","58935d5d4d77be0001689f14","fixation","","","img/fixation.png","null","","","test","","","","","","","","","","","","","","","","","","","",""
"171","717720","SARL_v6","SARL_v6cx1f1k03","58935d5d4d77be0001689f14","freq","","","img/orange_2bandit_b2.png","70","","70","test","1","","43","","","","circle","square","42","19","2","0.9523809523809523","","","","","","","",""
"null","718358","SARL_v6","SARL_v6cx1f1k03","58935d5d4d77be0001689f14","freq_resp","","","img/orange_2bandit_b.png","70","img/orange_2bandit_b.png","70","test","","","","","","","","","","","2","","","","","","","","",""
"null","718511","SARL_v6","SARL_v6cx1f1k03","58935d5d4d77be0001689f14","fixation","","","img/fixation.png","null","","","test","","","","","","","","","","","","","","","","","","","",""
"485.10000000009313","718999","SARL_v6","SARL_v6cx1f1k03","58935d5d4d77be0001689f14","freq","","","img/orange_2bandit_b2.png","70","","70","test","1","","44","","","","circle","square","43","20","2","0.9534883720930233","","","","","","","",""
"null","719322","SARL_v6","SARL_v6cx1f1k03","58935d5d4d77be0001689f14","freq_resp","","","img/orange_2bandit_b.png","70","img/orange_2bandit_b.png","70","test","","","","","","","","","","","2","","","","","","","","",""
"null","719474","SARL_v6","SARL_v6cx1f1k03","58935d5d4d77be0001689f14","fixation","","","img/fixation.png","null","","","test","","","","","","","","","","","","","","","","","","","",""
"376.20000000018626","719852","SARL_v6","SARL_v6cx1f1k03","58935d5d4d77be0001689f14","freq","","","img/orange_2bandit_b2.png","70","","70","test","1","","45","","","","circle","square","44","21","2","0.9545454545454546","","","","","","","",""
"null","720285","SARL_v6","SARL_v6cx1f1k03","58935d5d4d77be0001689f14","freq_resp","","","img/orange_2bandit_b.png","70","img/orange_2bandit_b.png","70","test","","","","","","","","","","","2","","","","","","","","",""
"null","720441","SARL_v6","SARL_v6cx1f1k03","58935d5d4d77be0001689f14","fixation","","","img/fixation.png","null","","","test","","","","","","","","","","","","","","","","","","","",""
"397.10000000009313","720840","SARL_v6","SARL_v6cx1f1k03","58935d5d4d77be0001689f14","freq","","","img/orange_2bandit_b2.png","70","","70","test","1","","46","","","","circle","square","45","22","2","0.9555555555555556","","","","","","","",""
"null","721248","SARL_v6","SARL_v6cx1f1k03","58935d5d4d77be0001689f14","freq_resp","","","img/orange_2bandit_b.png","70","img/orange_2bandit_b.png","70","test","","","","","","","","","","","2","","","","","","","","",""
"null","721404","SARL_v6","SARL_v6cx1f1k03","58935d5d4d77be0001689f14","fixation","","","img/fixation.png","null","","","test","","","","","","","","","","","","","","","","","","","",""
"265.1999999997206","721673","SARL_v6","SARL_v6cx1f1k03","58935d5d4d77be0001689f14","freq","","","img/orange_2bandit_b2.png","70","","70","test","1","","47","","","","circle","square","46","23","2","0.9565217391304348","","","","","","","",""
"null","722213","SARL_v6","SARL_v6cx1f1k03","58935d5d4d77be0001689f14","freq_resp","","","img/orange_2bandit_b.png","70","img/orange_2bandit_b.png","70","test","","","","","","","","","","","2","","","","","","","","",""
"null","722380","SARL_v6","SARL_v6cx1f1k03","58935d5d4d77be0001689f14","fixation","","","img/fixation.png","null","","","test","","","","","","","","","","","","","","","","","","","",""
"304.1999999997206","722686","SARL_v6","SARL_v6cx1f1k03","58935d5d4d77be0001689f14","freq","","","img/orange_2bandit_b2.png","70","","70","test","1","","48","","","","circle","square","47","24","2","0.9574468085106383","","","","","","","",""
"null","723191","SARL_v6","SARL_v6cx1f1k03","58935d5d4d77be0001689f14","freq_resp","","","img/orange_2bandit_b.png","70","img/orange_2bandit_b.png","70","test","","","","","","","","","","","2","","","","","","","","",""
"null","723343","SARL_v6","SARL_v6cx1f1k03","58935d5d4d77be0001689f14","fixation","","","img/fixation.png","null","","","test","","","","","","","","","","","","","","","","","","","",""
"543.2000000001863","723889","SARL_v6","SARL_v6cx1f1k03","58935d5d4d77be0001689f14","rl","","","img/black_2bandit_b2.png","74","","0","test","","","49","","","-8","circle","square","","0","2","","74","-8","-5","-8","-5","circle","2","0"
"null","724653","SARL_v6","SARL_v6cx1f1k03","58935d5d4d77be0001689f14","feedback","","","<div class=""verylowPoints""> -8 </div>","null","","na","test","","","NaN","","","","","","","","2","","74","","","","","","2",""
"674.1000000000931","725330","SARL_v6","SARL_v6cx1f1k03","58935d5d4d77be0001689f14","freq","","","img/orange_2bandit_b2.png","70","","70","test","1","","50","","","","circle","square","48","1","3","0.9583333333333334","","","","","","","",""
"null","725459","SARL_v6","SARL_v6cx1f1k03","58935d5d4d77be0001689f14","freq_resp","","","img/orange_2bandit_b.png","70","img/orange_2bandit_b.png","70","test","","","","","","","","","","","3","","","","","","","","",""
"null","725612","SARL_v6","SARL_v6cx1f1k03","58935d5d4d77be0001689f14","fixation","","","img/fixation.png","null","","","test","","","","","","","","","","","","","","","","","","","",""
"287.8000000002794","725902","SARL_v6","SARL_v6cx1f1k03","58935d5d4d77be0001689f14","freq","","","img/orange_2bandit_b2.png","70","","70","test","1","","51","","","","circle","square","49","2","3","0.9591836734693877","","","","","","","",""
"null","726421","SARL_v6","SARL_v6cx1f1k03","58935d5d4d77be0001689f14","freq_resp","","","img/orange_2bandit_b.png","70","img/orange_2bandit_b.png","70","test","","","","","","","","","","","3","","","","","","","","",""
"null","726576","SARL_v6","SARL_v6cx1f1k03","58935d5d4d77be0001689f14","fixation","","","img/fixation.png","null","","","test","","","","","","","","","","","","","","","","","","","",""
"295.29999999981374","726874","SARL_v6","SARL_v6cx1f1k03","58935d5d4d77be0001689f14","freq","","","img/orange_2bandit_b2.png","70","","70","test","1","","52","","","","circle","square","50","3","3","0.96","","","","","","","",""
"null","727384","SARL_v6","SARL_v6cx1f1k03","58935d5d4d77be0001689f14","freq_resp","","","img/orange_2bandit_b.png","70","img/orange_2bandit_b.png","70","test","","","","","","","","","","","3","","","","","","","","",""
"null","727538","SARL_v6","SARL_v6cx1f1k03","58935d5d4d77be0001689f14","fixation","","","img/fixation.png","null","","","test","","","","","","","","","","","","","","","","","","","",""
"641.1999999997206","728183","SARL_v6","SARL_v6cx1f1k03","58935d5d4d77be0001689f14","freq","","","img/orange_2bandit_b2.png","70","","70","test","1","","53","","","","circle","square","51","4","3","0.9607843137254902","","","","","","","",""
"null","728345","SARL_v6","SARL_v6cx1f1k03","58935d5d4d77be0001689f14","freq_resp","","","img/orange_2bandit_b.png","70","img/orange_2bandit_b.png","70","test","","","","","","","","","","","3","","","","","","","","",""
"null","728498","SARL_v6","SARL_v6cx1f1k03","58935d5d4d77be0001689f14","fixation","","","img/fixation.png","null","","","test","","","","","","","","","","","","","","","","","","","",""
"278","728780","SARL_v6","SARL_v6cx1f1k03","58935d5d4d77be0001689f14","freq","","","img/orange_2bandit_b2.png","70","","70","test","1","","54","","","","circle","square","52","5","3","0.9615384615384616","","","","","","","",""
"null","729307","SARL_v6","SARL_v6cx1f1k03","58935d5d4d77be0001689f14","freq_resp","","","img/orange_2bandit_b.png","70","img/orange_2bandit_b.png","70","test","","","","","","","","","","","3","","","","","","","","",""
"null","729459","SARL_v6","SARL_v6cx1f1k03","58935d5d4d77be0001689f14","fixation","","","img/fixation.png","null","","","test","","","","","","","","","","","","","","","","","","","",""
"102.39999999990687","729563","SARL_v6","SARL_v6cx1f1k03","58935d5d4d77be0001689f14","freq","","","img/orange_2bandit_b2.png","70","","70","test","1","","55","","","","circle","square","53","6","3","0.9622641509433962","","","","","","","",""
"null","730269","SARL_v6","SARL_v6cx1f1k03","58935d5d4d77be0001689f14","freq_resp","","","img/orange_2bandit_b.png","70","img/orange_2bandit_b.png","70","test","","","","","","","","","","","3","","","","","","","","",""
"null","730422","SARL_v6","SARL_v6cx1f1k03","58935d5d4d77be0001689f14","fixation","","","img/fixation.png","null","","","test","","","","","","","","","","","","","","","","","","","",""
"148.29999999981374","730572","SARL_v6","SARL_v6cx1f1k03","58935d5d4d77be0001689f14","freq","","","img/orange_2bandit_b2.png","70","","70","test","1","","56","","","","circle","square","54","7","3","0.9629629629629629","","","","","","","",""
"null","731232","SARL_v6","SARL_v6cx1f1k03","58935d5d4d77be0001689f14","freq_resp","","","img/orange_2bandit_b.png","70","img/orange_2bandit_b.png","70","test","","","","","","","","","","","3","","","","","","","","",""
"null","731384","SARL_v6","SARL_v6cx1f1k03","58935d5d4d77be0001689f14","fixation","","","img/fixation.png","null","","","test","","","","","","","","","","","","","","","","","","","",""
"429.70000000018626","731815","SARL_v6","SARL_v6cx1f1k03","58935d5d4d77be0001689f14","freq","","","img/orange_2bandit_b2.png","70","","70","test","1","","57","","","","circle","square","55","8","3","0.9636363636363636","","","","","","","",""
"null","732196","SARL_v6","SARL_v6cx1f1k03","58935d5d4d77be0001689f14","freq_resp","","","img/orange_2bandit_b.png","70","img/orange_2bandit_b.png","70","test","","","","","","","","","","","3","","","","","","","","",""
"null","732352","SARL_v6","SARL_v6cx1f1k03","58935d5d4d77be0001689f14","fixation","","","img/fixation.png","null","","","test","","","","","","","","","","","","","","","","","","","",""
"269.10000000009313","732623","SARL_v6","SARL_v6cx1f1k03","58935d5d4d77be0001689f14","freq","","","img/orange_2bandit_b2.png","70","","70","test","1","","58","","","","circle","square","56","9","3","0.9642857142857143","","","","","","","",""
"null","733156","SARL_v6","SARL_v6cx1f1k03","58935d5d4d77be0001689f14","freq_resp","","","img/orange_2bandit_b.png","70","img/orange_2bandit_b.png","70","test","","","","","","","","","","","3","","","","","","","","",""
"null","733310","SARL_v6","SARL_v6cx1f1k03","58935d5d4d77be0001689f14","fixation","","","img/fixation.png","null","","","test","","","","","","","","","","","","","","","","","","","",""
"426","733738","SARL_v6","SARL_v6cx1f1k03","58935d5d4d77be0001689f14","freq","","","img/orange_2bandit_b2.png","70","","70","test","1","","59","","","","circle","square","57","10","3","0.9649122807017544","","","","","","","",""
"null","734120","SARL_v6","SARL_v6cx1f1k03","58935d5d4d77be0001689f14","freq_resp","","","img/orange_2bandit_b.png","70","img/orange_2bandit_b.png","70","test","","","","","","","","","","","3","","","","","","","","",""
"null","734275","SARL_v6","SARL_v6cx1f1k03","58935d5d4d77be0001689f14","fixation","","","img/fixation.png","null","","","test","","","","","","","","","","","","","","","","","","","",""
"394.29999999981374","734672","SARL_v6","SARL_v6cx1f1k03","58935d5d4d77be0001689f14","freq","","","img/orange_2bandit_b2.png","70","","70","test","1","","60","","","","circle","square","58","11","3","0.9655172413793104","","","","","","","",""
"null","735081","SARL_v6","SARL_v6cx1f1k03","58935d5d4d77be0001689f14","freq_resp","","","img/orange_2bandit_b.png","70","img/orange_2bandit_b.png","70","test","","","","","","","","","","","3","","","","","","","","",""
"null","735234","SARL_v6","SARL_v6cx1f1k03","58935d5d4d77be0001689f14","fixation","","","img/fixation.png","null","","","test","","","","","","","","","","","","","","","","","","","",""
"418.39999999990687","735654","SARL_v6","SARL_v6cx1f1k03","58935d5d4d77be0001689f14","freq","","","img/orange_2bandit_b2.png","70","","70","test","1","","61","","","","circle","square","59","12","3","0.9661016949152542","","","","","","","",""
"null","736042","SARL_v6","SARL_v6cx1f1k03","58935d5d4d77be0001689f14","freq_resp","","","img/orange_2bandit_b.png","70","img/orange_2bandit_b.png","70","test","","","","","","","","","","","3","","","","","","","","",""
"null","736210","SARL_v6","SARL_v6cx1f1k03","58935d5d4d77be0001689f14","fixation","","","img/fixation.png","null","","","test","","","","","","","","","","","","","","","","","","","",""
"324.5","736538","SARL_v6","SARL_v6cx1f1k03","58935d5d4d77be0001689f14","freq","","","img/orange_2bandit_b2.png","70","","70","test","1","","62","","","","circle","square","60","13","3","0.9666666666666667","","","","","","","",""
"null","737018","SARL_v6","SARL_v6cx1f1k03","58935d5d4d77be0001689f14","freq_resp","","","img/orange_2bandit_b.png","70","img/orange_2bandit_b.png","70","test","","","","","","","","","","","3","","","","","","","","",""
"null","737171","SARL_v6","SARL_v6cx1f1k03","58935d5d4d77be0001689f14","fixation","","","img/fixation.png","null","","","test","","","","","","","","","","","","","","","","","","","",""
"487.20000000018626","737661","SARL_v6","SARL_v6cx1f1k03","58935d5d4d77be0001689f14","freq","","","img/orange_2bandit_b2.png","70","","70","test","1","","63","","","","circle","square","61","14","3","0.9672131147540983","","","","","","","",""
"null","737980","SARL_v6","SARL_v6cx1f1k03","58935d5d4d77be0001689f14","freq_resp","","","img/orange_2bandit_b.png","70","img/orange_2bandit_b.png","70","test","","","","","","","","","","","3","","","","","","","","",""
"null","738147","SARL_v6","SARL_v6cx1f1k03","58935d5d4d77be0001689f14","fixation","","","img/fixation.png","null","","","test","","","","","","","","","","","","","","","","","","","",""
"260.5","738409","SARL_v6","SARL_v6cx1f1k03","58935d5d4d77be0001689f14","freq","","","img/orange_2bandit_b2.png","70","","70","test","1","","64","","","","circle","square","62","15","3","0.967741935483871","","","","","","","",""
"null","738956","SARL_v6","SARL_v6cx1f1k03","58935d5d4d77be0001689f14","freq_resp","","","img/orange_2bandit_b.png","70","img/orange_2bandit_b.png","70","test","","","","","","","","","","","3","","","","","","","","",""
"null","739111","SARL_v6","SARL_v6cx1f1k03","58935d5d4d77be0001689f14","fixation","","","img/fixation.png","null","","","test","","","","","","","","","","","","","","","","","","","",""
"100.79999999981374","739214","SARL_v6","SARL_v6cx1f1k03","58935d5d4d77be0001689f14","infreq","","","img/blue_2bandit_b2.png","70","","68","test","0","","65","","","","circle","square","63","16","3","0.9523809523809523","","","","","","","",""
"null","739922","SARL_v6","SARL_v6cx1f1k03","58935d5d4d77be0001689f14","infreq_resp","","","img/blue_2bandit_b.png","70","img/blue_2bandit_b.png","68","test","","","","","","","","","","","3","","","","","","","","",""
"null","740076","SARL_v6","SARL_v6cx1f1k03","58935d5d4d77be0001689f14","fixation","","","img/fixation.png","null","","","test","","","","","","","","","","","","","","","","","","","",""
"275.5","740355","SARL_v6","SARL_v6cx1f1k03","58935d5d4d77be0001689f14","freq","","","img/orange_2bandit_b2.png","70","","70","test","1","","66","","","","circle","square","64","17","3","0.953125","","","","","","","",""
"null","740884","SARL_v6","SARL_v6cx1f1k03","58935d5d4d77be0001689f14","freq_resp","","","img/orange_2bandit_b.png","70","img/orange_2bandit_b.png","70","test","","","","","","","","","","","3","","","","","","","","",""
"null","741039","SARL_v6","SARL_v6cx1f1k03","58935d5d4d77be0001689f14","fixation","","","img/fixation.png","null","","","test","","","","","","","","","","","","","","","","","","","",""
"452.10000000009313","741494","SARL_v6","SARL_v6cx1f1k03","58935d5d4d77be0001689f14","infreq","","","img/blue_2bandit_b2.png","68","","68","test","1","","67","","","","circle","square","65","18","3","0.9538461538461539","","","","","","","",""
"null","741847","SARL_v6","SARL_v6cx1f1k03","58935d5d4d77be0001689f14","infreq_resp","","","img/blue_2bandit_b.png","68","img/blue_2bandit_b.png","68","test","","","","","","","","","","","3","","","","","","","","",""
"null","742002","SARL_v6","SARL_v6cx1f1k03","58935d5d4d77be0001689f14","fixation","","","img/fixation.png","null","","","test","","","","","","","","","","","","","","","","","","","",""
"379.89999999990687","742385","SARL_v6","SARL_v6cx1f1k03","58935d5d4d77be0001689f14","freq","","","img/orange_2bandit_b2.png","70","","70","test","1","","68","","","","circle","square","66","19","3","0.9545454545454546","","","","","","","",""
"null","742808","SARL_v6","SARL_v6cx1f1k03","58935d5d4d77be0001689f14","freq_resp","","","img/orange_2bandit_b.png","70","img/orange_2bandit_b.png","70","test","","","","","","","","","","","3","","","","","","","","",""
"null","742965","SARL_v6","SARL_v6cx1f1k03","58935d5d4d77be0001689f14","fixation","","","img/fixation.png","null","","","test","","","","","","","","","","","","","","","","","","","",""
"363.29999999981374","743330","SARL_v6","SARL_v6cx1f1k03","58935d5d4d77be0001689f14","freq","","","img/orange_2bandit_b2.png","70","","70","test","1","","69","","","","circle","square","67","20","3","0.9552238805970149","","","","","","","",""
"null","743773","SARL_v6","SARL_v6cx1f1k03","58935d5d4d77be0001689f14","freq_resp","","","img/orange_2bandit_b.png","70","img/orange_2bandit_b.png","70","test","","","","","","","","","","","3","","","","","","","","",""
"null","743927","SARL_v6","SARL_v6cx1f1k03","58935d5d4d77be0001689f14","fixation","","","img/fixation.png","null","","","test","","","","","","","","","","","","","","","","","","","",""
"349.29999999981374","744278","SARL_v6","SARL_v6cx1f1k03","58935d5d4d77be0001689f14","freq","","","img/orange_2bandit_b2.png","70","","70","test","1","","70","","","","circle","square","68","21","3","0.9558823529411765","","","","","","","",""
"null","744736","SARL_v6","SARL_v6cx1f1k03","58935d5d4d77be0001689f14","freq_resp","","","img/orange_2bandit_b.png","70","img/orange_2bandit_b.png","70","test","","","","","","","","","","","3","","","","","","","","",""
"null","744891","SARL_v6","SARL_v6cx1f1k03","58935d5d4d77be0001689f14","fixation","","","img/fixation.png","null","","","test","","","","","","","","","","","","","","","","","","","",""
"554","745447","SARL_v6","SARL_v6cx1f1k03","58935d5d4d77be0001689f14","rl","","","img/black_2bandit_b2.png","74","","0","test","","","71","","","-8","circle","square","","0","3","","74","-8","-4","-8","-4","circle","3","0"
"null","746201","SARL_v6","SARL_v6cx1f1k03","58935d5d4d77be0001689f14","feedback","","","<div class=""verylowPoints""> -8 </div>","null","","na","test","","","NaN","","","","","","","","3","","74","","","","","","3",""
"641.2000000001863","746844","SARL_v6","SARL_v6cx1f1k03","58935d5d4d77be0001689f14","freq","","","img/orange_2bandit_b2.png","70","","70","test","1","","72","","","","circle","square","69","1","4","0.9565217391304348","","","","","","","",""
"null","747009","SARL_v6","SARL_v6cx1f1k03","58935d5d4d77be0001689f14","freq_resp","","","img/orange_2bandit_b.png","70","img/orange_2bandit_b.png","70","test","","","","","","","","","","","4","","","","","","","","",""
"null","747162","SARL_v6","SARL_v6cx1f1k03","58935d5d4d77be0001689f14","fixation","","","img/fixation.png","null","","","test","","","","","","","","","","","","","","","","","","","",""
"298.59999999962747","747462","SARL_v6","SARL_v6cx1f1k03","58935d5d4d77be0001689f14","freq","","","img/orange_2bandit_b2.png","70","","70","test","1","","73","","","","circle","square","70","2","4","0.9571428571428572","","","","","","","",""
"null","747974","SARL_v6","SARL_v6cx1f1k03","58935d5d4d77be0001689f14","freq_resp","","","img/orange_2bandit_b.png","70","img/orange_2bandit_b.png","70","test","","","","","","","","","","","4","","","","","","","","",""
"null","748128","SARL_v6","SARL_v6cx1f1k03","58935d5d4d77be0001689f14","fixation","","","img/fixation.png","null","","","test","","","","","","","","","","","","","","","","","","","",""
"251.79999999981374","748382","SARL_v6","SARL_v6cx1f1k03","58935d5d4d77be0001689f14","freq","","","img/orange_2bandit_b2.png","70","","70","test","1","","74","","","","circle","square","71","3","4","0.9577464788732394","","","","","","","",""
"null","748936","SARL_v6","SARL_v6cx1f1k03","58935d5d4d77be0001689f14","freq_resp","","","img/orange_2bandit_b.png","70","img/orange_2bandit_b.png","70","test","","","","","","","","","","","4","","","","","","","","",""
"null","749091","SARL_v6","SARL_v6cx1f1k03","58935d5d4d77be0001689f14","fixation","","","img/fixation.png","null","","","test","","","","","","","","","","","","","","","","","","","",""
"434.10000000009313","749529","SARL_v6","SARL_v6cx1f1k03","58935d5d4d77be0001689f14","infreq","","","img/blue_2bandit_b2.png","68","","68","test","1","","75","","","","circle","square","72","4","4","0.9583333333333334","","","","","","","",""
"null","749899","SARL_v6","SARL_v6cx1f1k03","58935d5d4d77be0001689f14","infreq_resp","","","img/blue_2bandit_b.png","68","img/blue_2bandit_b.png","68","test","","","","","","","","","","","4","","","","","","","","",""
"null","750054","SARL_v6","SARL_v6cx1f1k03","58935d5d4d77be0001689f14","fixation","","","img/fixation.png","null","","","test","","","","","","","","","","","","","","","","","","","",""
"584.1000000000931","750642","SARL_v6","SARL_v6cx1f1k03","58935d5d4d77be0001689f14","freq","","","img/orange_2bandit_b2.png","70","","70","test","1","","76","","","","circle","square","73","5","4","0.958904109589041","","","","","","","",""
"null","750862","SARL_v6","SARL_v6cx1f1k03","58935d5d4d77be0001689f14","freq_resp","","","img/orange_2bandit_b.png","70","img/orange_2bandit_b.png","70","test","","","","","","","","","","","4","","","","","","","","",""
"null","751017","SARL_v6","SARL_v6cx1f1k03","58935d5d4d77be0001689f14","fixation","","","img/fixation.png","null","","","test","","","","","","","","","","","","","","","","","","","",""
"346.79999999981374","751365","SARL_v6","SARL_v6cx1f1k03","58935d5d4d77be0001689f14","freq","","","img/orange_2bandit_b2.png","70","","70","test","1","","77","","","","circle","square","74","6","4","0.9594594594594594","","","","","","","",""
"null","751828","SARL_v6","SARL_v6cx1f1k03","58935d5d4d77be0001689f14","freq_resp","","","img/orange_2bandit_b.png","70","img/orange_2bandit_b.png","70","test","","","","","","","","","","","4","","","","","","","","",""
"null","751986","SARL_v6","SARL_v6cx1f1k03","58935d5d4d77be0001689f14","fixation","","","img/fixation.png","null","","","test","","","","","","","","","","","","","","","","","","","",""
"288.89999999990687","752277","SARL_v6","SARL_v6cx1f1k03","58935d5d4d77be0001689f14","freq","","","img/orange_2bandit_b2.png","70","","70","test","1","","78","","","","circle","square","75","7","4","0.96","","","","","","","",""
"null","752792","SARL_v6","SARL_v6cx1f1k03","58935d5d4d77be0001689f14","freq_resp","","","img/orange_2bandit_b.png","70","img/orange_2bandit_b.png","70","test","","","","","","","","","","","4","","","","","","","","",""
"null","752948","SARL_v6","SARL_v6cx1f1k03","58935d5d4d77be0001689f14","fixation","","","img/fixation.png","null","","","test","","","","","","","","","","","","","","","","","","","",""
"323.20000000018626","753274","SARL_v6","SARL_v6cx1f1k03","58935d5d4d77be0001689f14","freq","","","img/orange_2bandit_b2.png","70","","70","test","1","","79","","","","circle","square","76","8","4","0.9605263157894737","","","","","","","",""
"null","753767","SARL_v6","SARL_v6cx1f1k03","58935d5d4d77be0001689f14","freq_resp","","","img/orange_2bandit_b.png","70","img/orange_2bandit_b.png","70","test","","","","","","","","","","","4","","","","","","","","",""
"null","753925","SARL_v6","SARL_v6cx1f1k03","58935d5d4d77be0001689f14","fixation","","","img/fixation.png","null","","","test","","","","","","","","","","","","","","","","","","","",""
"419","754345","SARL_v6","SARL_v6cx1f1k03","58935d5d4d77be0001689f14","freq","","","img/orange_2bandit_b2.png","70","","70","test","1","","80","","","","circle","square","77","9","4","0.961038961038961","","","","","","","",""
"null","754729","SARL_v6","SARL_v6cx1f1k03","58935d5d4d77be0001689f14","freq_resp","","","img/orange_2bandit_b.png","70","img/orange_2bandit_b.png","70","test","","","","","","","","","","","4","","","","","","","","",""
"null","754886","SARL_v6","SARL_v6cx1f1k03","58935d5d4d77be0001689f14","fixation","","","img/fixation.png","null","","","test","","","","","","","","","","","","","","","","","","","",""
"320.29999999981374","755209","SARL_v6","SARL_v6cx1f1k03","58935d5d4d77be0001689f14","freq","","","img/orange_2bandit_b2.png","70","","70","test","1","","81","","","","circle","square","78","10","4","0.9615384615384616","","","","","","","",""
"null","755693","SARL_v6","SARL_v6cx1f1k03","58935d5d4d77be0001689f14","freq_resp","","","img/orange_2bandit_b.png","70","img/orange_2bandit_b.png","70","test","","","","","","","","","","","4","","","","","","","","",""
"null","755850","SARL_v6","SARL_v6cx1f1k03","58935d5d4d77be0001689f14","fixation","","","img/fixation.png","null","","","test","","","","","","","","","","","","","","","","","","","",""
"324.60000000009313","756177","SARL_v6","SARL_v6cx1f1k03","58935d5d4d77be0001689f14","freq","","","img/orange_2bandit_b2.png","70","","70","test","1","","82","","","","circle","square","79","11","4","0.9620253164556962","","","","","","","",""
"null","756656","SARL_v6","SARL_v6cx1f1k03","58935d5d4d77be0001689f14","freq_resp","","","img/orange_2bandit_b.png","70","img/orange_2bandit_b.png","70","test","","","","","","","","","","","4","","","","","","","","",""
"null","756808","SARL_v6","SARL_v6cx1f1k03","58935d5d4d77be0001689f14","fixation","","","img/fixation.png","null","","","test","","","","","","","","","","","","","","","","","","","",""
"577.8999999999069","757387","SARL_v6","SARL_v6cx1f1k03","58935d5d4d77be0001689f14","infreq","","","img/blue_2bandit_b2.png","68","","68","test","1","","83","","","","circle","square","80","12","4","0.9625","","","","","","","",""
"null","757621","SARL_v6","SARL_v6cx1f1k03","58935d5d4d77be0001689f14","infreq_resp","","","img/blue_2bandit_b.png","68","img/blue_2bandit_b.png","68","test","","","","","","","","","","","4","","","","","","","","",""
"null","757773","SARL_v6","SARL_v6cx1f1k03","58935d5d4d77be0001689f14","fixation","","","img/fixation.png","null","","","test","","","","","","","","","","","","","","","","","","","",""
"469.29999999981374","758244","SARL_v6","SARL_v6cx1f1k03","58935d5d4d77be0001689f14","freq","","","img/orange_2bandit_b2.png","70","","70","test","1","","84","","","","circle","square","81","13","4","0.9629629629629629","","","","","","","",""
"null","758591","SARL_v6","SARL_v6cx1f1k03","58935d5d4d77be0001689f14","freq_resp","","","img/orange_2bandit_b.png","70","img/orange_2bandit_b.png","70","test","","","","","","","","","","","4","","","","","","","","",""
"null","758760","SARL_v6","SARL_v6cx1f1k03","58935d5d4d77be0001689f14","fixation","","","img/fixation.png","null","","","test","","","","","","","","","","","","","","","","","","","",""
"588.3999999999069","759350","SARL_v6","SARL_v6cx1f1k03","58935d5d4d77be0001689f14","freq","","","img/orange_2bandit_b2.png","70","","70","test","1","","85","","","","circle","square","82","14","4","0.9634146341463414","","","","","","","",""
"null","759579","SARL_v6","SARL_v6cx1f1k03","58935d5d4d77be0001689f14","freq_resp","","","img/orange_2bandit_b.png","70","img/orange_2bandit_b.png","70","test","","","","","","","","","","","4","","","","","","","","",""
"null","759737","SARL_v6","SARL_v6cx1f1k03","58935d5d4d77be0001689f14","fixation","","","img/fixation.png","null","","","test","","","","","","","","","","","","","","","","","","","",""
"472.1999999997206","760211","SARL_v6","SARL_v6cx1f1k03","58935d5d4d77be0001689f14","freq","","","img/orange_2bandit_b2.png","70","","70","test","1","","86","","","","circle","square","83","15","4","0.963855421686747","","","","","","","",""
"null","760546","SARL_v6","SARL_v6cx1f1k03","58935d5d4d77be0001689f14","freq_resp","","","img/orange_2bandit_b.png","70","img/orange_2bandit_b.png","70","test","","","","","","","","","","","4","","","","","","","","",""
"null","760703","SARL_v6","SARL_v6cx1f1k03","58935d5d4d77be0001689f14","fixation","","","img/fixation.png","null","","","test","","","","","","","","","","","","","","","","","","","",""
"349.6999999997206","761055","SARL_v6","SARL_v6cx1f1k03","58935d5d4d77be0001689f14","freq","","","img/orange_2bandit_b2.png","70","","70","test","1","","87","","","","circle","square","84","16","4","0.9642857142857143","","","","","","","",""
"null","761510","SARL_v6","SARL_v6cx1f1k03","58935d5d4d77be0001689f14","freq_resp","","","img/orange_2bandit_b.png","70","img/orange_2bandit_b.png","70","test","","","","","","","","","","","4","","","","","","","","",""
"null","761665","SARL_v6","SARL_v6cx1f1k03","58935d5d4d77be0001689f14","fixation","","","img/fixation.png","null","","","test","","","","","","","","","","","","","","","","","","","",""
"295.60000000009313","761963","SARL_v6","SARL_v6cx1f1k03","58935d5d4d77be0001689f14","freq","","","img/orange_2bandit_b2.png","70","","70","test","1","","88","","","","circle","square","85","17","4","0.9647058823529412","","","","","","","",""
"null","762474","SARL_v6","SARL_v6cx1f1k03","58935d5d4d77be0001689f14","freq_resp","","","img/orange_2bandit_b.png","70","img/orange_2bandit_b.png","70","test","","","","","","","","","","","4","","","","","","","","",""
"null","762629","SARL_v6","SARL_v6cx1f1k03","58935d5d4d77be0001689f14","fixation","","","img/fixation.png","null","","","test","","","","","","","","","","","","","","","","","","","",""
"296.70000000018626","762927","SARL_v6","SARL_v6cx1f1k03","58935d5d4d77be0001689f14","freq","","","img/orange_2bandit_b2.png","70","","70","test","1","","89","","","","circle","square","86","18","4","0.9651162790697675","","","","","","","",""
"null","763441","SARL_v6","SARL_v6cx1f1k03","58935d5d4d77be0001689f14","freq_resp","","","img/orange_2bandit_b.png","70","img/orange_2bandit_b.png","70","test","","","","","","","","","","","4","","","","","","","","",""
"null","763593","SARL_v6","SARL_v6cx1f1k03","58935d5d4d77be0001689f14","fixation","","","img/fixation.png","null","","","test","","","","","","","","","","","","","","","","","","","",""
"282.60000000009313","763877","SARL_v6","SARL_v6cx1f1k03","58935d5d4d77be0001689f14","freq","","","img/orange_2bandit_b2.png","70","","70","test","1","","90","","","","circle","square","87","19","4","0.9655172413793104","","","","","","","",""
"null","764404","SARL_v6","SARL_v6cx1f1k03","58935d5d4d77be0001689f14","freq_resp","","","img/orange_2bandit_b.png","70","img/orange_2bandit_b.png","70","test","","","","","","","","","","","4","","","","","","","","",""
"null","764557","SARL_v6","SARL_v6cx1f1k03","58935d5d4d77be0001689f14","fixation","","","img/fixation.png","null","","","test","","","","","","","","","","","","","","","","","","","",""
"292.3000000002794","764851","SARL_v6","SARL_v6cx1f1k03","58935d5d4d77be0001689f14","freq","","","img/orange_2bandit_b2.png","70","","70","test","1","","91","","","","circle","square","88","20","4","0.9659090909090909","","","","","","","",""
"null","765368","SARL_v6","SARL_v6cx1f1k03","58935d5d4d77be0001689f14","freq_resp","","","img/orange_2bandit_b.png","70","img/orange_2bandit_b.png","70","test","","","","","","","","","","","4","","","","","","","","",""
"null","765526","SARL_v6","SARL_v6cx1f1k03","58935d5d4d77be0001689f14","fixation","","","img/fixation.png","null","","","test","","","","","","","","","","","","","","","","","","","",""
"267.79999999981374","765797","SARL_v6","SARL_v6cx1f1k03","58935d5d4d77be0001689f14","freq","","","img/orange_2bandit_b2.png","70","","70","test","1","","92","","","","circle","square","89","21","4","0.9662921348314607","","","","","","","",""
"null","766338","SARL_v6","SARL_v6cx1f1k03","58935d5d4d77be0001689f14","freq_resp","","","img/orange_2bandit_b.png","70","img/orange_2bandit_b.png","70","test","","","","","","","","","","","4","","","","","","","","",""
"null","766492","SARL_v6","SARL_v6cx1f1k03","58935d5d4d77be0001689f14","fixation","","","img/fixation.png","null","","","test","","","","","","","","","","","","","","","","","","","",""
"244.5","766738","SARL_v6","SARL_v6cx1f1k03","58935d5d4d77be0001689f14","freq","","","img/orange_2bandit_b2.png","70","","70","test","1","","93","","","","circle","square","90","22","4","0.9666666666666667","","","","","","","",""
"null","767311","SARL_v6","SARL_v6cx1f1k03","58935d5d4d77be0001689f14","freq_resp","","","img/orange_2bandit_b.png","70","img/orange_2bandit_b.png","70","test","","","","","","","","","","","4","","","","","","","","",""
"null","767464","SARL_v6","SARL_v6cx1f1k03","58935d5d4d77be0001689f14","fixation","","","img/fixation.png","null","","","test","","","","","","","","","","","","","","","","","","","",""
"197.10000000009313","767663","SARL_v6","SARL_v6cx1f1k03","58935d5d4d77be0001689f14","freq","","","img/orange_2bandit_b2.png","70","","70","test","1","","94","","","","circle","square","91","23","4","0.967032967032967","","","","","","","",""
"null","768277","SARL_v6","SARL_v6cx1f1k03","58935d5d4d77be0001689f14","freq_resp","","","img/orange_2bandit_b.png","70","img/orange_2bandit_b.png","70","test","","","","","","","","","","","4","","","","","","","","",""
"null","768431","SARL_v6","SARL_v6cx1f1k03","58935d5d4d77be0001689f14","fixation","","","img/fixation.png","null","","","test","","","","","","","","","","","","","","","","","","","",""
"279.6999999997206","768713","SARL_v6","SARL_v6cx1f1k03","58935d5d4d77be0001689f14","freq","","","img/orange_2bandit_b2.png","70","","70","test","1","","95","","","","circle","square","92","24","4","0.967391304347826","","","","","","","",""
"null","769242","SARL_v6","SARL_v6cx1f1k03","58935d5d4d77be0001689f14","freq_resp","","","img/orange_2bandit_b.png","70","img/orange_2bandit_b.png","70","test","","","","","","","","","","","4","","","","","","","","",""
"null","769394","SARL_v6","SARL_v6cx1f1k03","58935d5d4d77be0001689f14","fixation","","","img/fixation.png","null","","","test","","","","","","","","","","","","","","","","","","","",""
"273.79999999981374","769670","SARL_v6","SARL_v6cx1f1k03","58935d5d4d77be0001689f14","freq","","","img/orange_2bandit_b2.png","70","","70","test","1","","96","","","","circle","square","93","25","4","0.967741935483871","","","","","","","",""
"null","770206","SARL_v6","SARL_v6cx1f1k03","58935d5d4d77be0001689f14","freq_resp","","","img/orange_2bandit_b.png","70","img/orange_2bandit_b.png","70","test","","","","","","","","","","","4","","","","","","","","",""
"null","770359","SARL_v6","SARL_v6cx1f1k03","58935d5d4d77be0001689f14","fixation","","","img/fixation.png","null","","","test","","","","","","","","","","","","","","","","","","","",""
"477","770837","SARL_v6","SARL_v6cx1f1k03","58935d5d4d77be0001689f14","rl","","","img/black_2bandit_b2.png","75","","0","test","","","97","","","0","circle","square","","0","4","","75","-12","0","-12","0","square","4","0"
"null","771592","SARL_v6","SARL_v6cx1f1k03","58935d5d4d77be0001689f14","feedback","","","<div class=""verylowPoints_sq""> 0 </div>","null","","na","test","","","NaN","","","","","","","","4","","75","","","","","","4",""
"413.8000000002794","772010","SARL_v6","SARL_v6cx1f1k03","58935d5d4d77be0001689f14","freq","","","img/orange_2bandit_b2.png","70","","70","test","1","","98","","","","circle","square","94","1","5","0.9680851063829787","","","","","","","",""
"null","772413","SARL_v6","SARL_v6cx1f1k03","58935d5d4d77be0001689f14","freq_resp","","","img/orange_2bandit_b.png","70","img/orange_2bandit_b.png","70","test","","","","","","","","","","","5","","","","","","","","",""
"null","772566","SARL_v6","SARL_v6cx1f1k03","58935d5d4d77be0001689f14","fixation","","","img/fixation.png","null","","","test","","","","","","","","","","","","","","","","","","","",""
"353.6999999997206","772922","SARL_v6","SARL_v6cx1f1k03","58935d5d4d77be0001689f14","infreq","","","img/blue_2bandit_b2.png","68","","68","test","1","","99","","","","circle","square","95","2","5","0.968421052631579","","","","","","","",""
"null","773377","SARL_v6","SARL_v6cx1f1k03","58935d5d4d77be0001689f14","infreq_resp","","","img/blue_2bandit_b.png","68","img/blue_2bandit_b.png","68","test","","","","","","","","","","","5","","","","","","","","",""
"null","773533","SARL_v6","SARL_v6cx1f1k03","58935d5d4d77be0001689f14","fixation","","","img/fixation.png","null","","","test","","","","","","","","","","","","","","","","","","","",""
"463.1999999997206","773999","SARL_v6","SARL_v6cx1f1k03","58935d5d4d77be0001689f14","freq","","","img/orange_2bandit_b2.png","68","","70","test","0","","100","","","","circle","square","96","3","5","0.9583333333333334","","","","","","","",""
"null","774344","SARL_v6","SARL_v6cx1f1k03","58935d5d4d77be0001689f14","freq_resp","","","img/orange_2bandit_b.png","68","img/orange_2bandit_b.png","70","test","","","","","","","","","","","5","","","","","","","","",""
"null","774497","SARL_v6","SARL_v6cx1f1k03","58935d5d4d77be0001689f14","fixation","","","img/fixation.png","null","","","test","","","","","","","","","","","","","","","","","","","",""
"405.6999999997206","774905","SARL_v6","SARL_v6cx1f1k03","58935d5d4d77be0001689f14","freq","","","img/orange_2bandit_b2.png","70","","70","test","1","","101","","","","circle","square","97","4","5","0.9587628865979382","","","","","","","",""
"null","775306","SARL_v6","SARL_v6cx1f1k03","58935d5d4d77be0001689f14","freq_resp","","","img/orange_2bandit_b.png","70","img/orange_2bandit_b.png","70","test","","","","","","","","","","","5","","","","","","","","",""
"null","775463","SARL_v6","SARL_v6cx1f1k03","58935d5d4d77be0001689f14","fixation","","","img/fixation.png","null","","","test","","","","","","","","","","","","","","","","","","","",""
"335.5","775801","SARL_v6","SARL_v6cx1f1k03","58935d5d4d77be0001689f14","freq","","","img/orange_2bandit_b2.png","70","","70","test","1","","102","","","","circle","square","98","5","5","0.9591836734693877","","","","","","","",""
"null","776275","SARL_v6","SARL_v6cx1f1k03","58935d5d4d77be0001689f14","freq_resp","","","img/orange_2bandit_b.png","70","img/orange_2bandit_b.png","70","test","","","","","","","","","","","5","","","","","","","","",""
"null","776430","SARL_v6","SARL_v6cx1f1k03","58935d5d4d77be0001689f14","fixation","","","img/fixation.png","null","","","test","","","","","","","","","","","","","","","","","","","",""
"317.5","776750","SARL_v6","SARL_v6cx1f1k03","58935d5d4d77be0001689f14","freq","","","img/orange_2bandit_b2.png","70","","70","test","1","","103","","","","circle","square","99","6","5","0.9595959595959596","","","","","","","",""
"null","777235","SARL_v6","SARL_v6cx1f1k03","58935d5d4d77be0001689f14","freq_resp","","","img/orange_2bandit_b.png","70","img/orange_2bandit_b.png","70","test","","","","","","","","","","","5","","","","","","","","",""
"null","777389","SARL_v6","SARL_v6cx1f1k03","58935d5d4d77be0001689f14","fixation","","","img/fixation.png","null","","","test","","","","","","","","","","","","","","","","","","","",""
"289.5","777680","SARL_v6","SARL_v6cx1f1k03","58935d5d4d77be0001689f14","freq","","","img/orange_2bandit_b2.png","70","","70","test","1","","104","","","","circle","square","100","7","5","0.96","","","","","","","",""
"null","778199","SARL_v6","SARL_v6cx1f1k03","58935d5d4d77be0001689f14","freq_resp","","","img/orange_2bandit_b.png","70","img/orange_2bandit_b.png","70","test","","","","","","","","","","","5","","","","","","","","",""
"null","778353","SARL_v6","SARL_v6cx1f1k03","58935d5d4d77be0001689f14","fixation","","","img/fixation.png","null","","","test","","","","","","","","","","","","","","","","","","","",""
"279","778635","SARL_v6","SARL_v6cx1f1k03","58935d5d4d77be0001689f14","freq","","","img/orange_2bandit_b2.png","70","","70","test","1","","105","","","","circle","square","101","8","5","0.9603960396039604","","","","","","","",""
"null","779161","SARL_v6","SARL_v6cx1f1k03","58935d5d4d77be0001689f14","freq_resp","","","img/orange_2bandit_b.png","70","img/orange_2bandit_b.png","70","test","","","","","","","","","","","5","","","","","","","","",""
"null","779317","SARL_v6","SARL_v6cx1f1k03","58935d5d4d77be0001689f14","fixation","","","img/fixation.png","null","","","test","","","","","","","","","","","","","","","","","","","",""
"279.29999999981374","779599","SARL_v6","SARL_v6cx1f1k03","58935d5d4d77be0001689f14","freq","","","img/orange_2bandit_b2.png","70","","70","test","1","","106","","","","circle","square","102","9","5","0.9607843137254902","","","","","","","",""
"null","780124","SARL_v6","SARL_v6cx1f1k03","58935d5d4d77be0001689f14","freq_resp","","","img/orange_2bandit_b.png","70","img/orange_2bandit_b.png","70","test","","","","","","","","","","","5","","","","","","","","",""
"null","780280","SARL_v6","SARL_v6cx1f1k03","58935d5d4d77be0001689f14","fixation","","","img/fixation.png","null","","","test","","","","","","","","","","","","","","","","","","","",""
"265.39999999990687","780547","SARL_v6","SARL_v6cx1f1k03","58935d5d4d77be0001689f14","freq","","","img/orange_2bandit_b2.png","70","","70","test","1","","107","","","","circle","square","103","10","5","0.9611650485436893","","","","","","","",""
"null","781091","SARL_v6","SARL_v6cx1f1k03","58935d5d4d77be0001689f14","freq_resp","","","img/orange_2bandit_b.png","70","img/orange_2bandit_b.png","70","test","","","","","","","","","","","5","","","","","","","","",""
"null","781245","SARL_v6","SARL_v6cx1f1k03","58935d5d4d77be0001689f14","fixation","","","img/fixation.png","null","","","test","","","","","","","","","","","","","","","","","","","",""
"237.1999999997206","781486","SARL_v6","SARL_v6cx1f1k03","58935d5d4d77be0001689f14","freq","","","img/orange_2bandit_b2.png","70","","70","test","1","","108","","","","circle","square","104","11","5","0.9615384615384616","","","","","","","",""
"null","782054","SARL_v6","SARL_v6cx1f1k03","58935d5d4d77be0001689f14","freq_resp","","","img/orange_2bandit_b.png","70","img/orange_2bandit_b.png","70","test","","","","","","","","","","","5","","","","","","","","",""
"null","782208","SARL_v6","SARL_v6cx1f1k03","58935d5d4d77be0001689f14","fixation","","","img/fixation.png","null","","","test","","","","","","","","","","","","","","","","","","","",""
"249.70000000018626","782461","SARL_v6","SARL_v6cx1f1k03","58935d5d4d77be0001689f14","infreq","","","img/blue_2bandit_b2.png","70","","68","test","0","","109","","","","circle","square","105","12","5","0.9523809523809523","","","","","","","",""
"null","783030","SARL_v6","SARL_v6cx1f1k03","58935d5d4d77be0001689f14","infreq_resp","","","img/blue_2bandit_b.png","70","img/blue_2bandit_b.png","68","test","","","","","","","","","","","5","","","","","","","","",""
"null","783183","SARL_v6","SARL_v6cx1f1k03","58935d5d4d77be0001689f14","fixation","","","img/fixation.png","null","","","test","","","","","","","","","","","","","","","","","","","",""
"411.89999999990687","783598","SARL_v6","SARL_v6cx1f1k03","58935d5d4d77be0001689f14","freq","","","img/orange_2bandit_b2.png","70","","70","test","1","","110","","","","circle","square","106","13","5","0.9528301886792453","","","","","","","",""
"null","783995","SARL_v6","SARL_v6cx1f1k03","58935d5d4d77be0001689f14","freq_resp","","","img/orange_2bandit_b.png","70","img/orange_2bandit_b.png","70","test","","","","","","","","","","","5","","","","","","","","",""
"null","784152","SARL_v6","SARL_v6cx1f1k03","58935d5d4d77be0001689f14","fixation","","","img/fixation.png","null","","","test","","","","","","","","","","","","","","","","","","","",""
"324.89999999990687","784480","SARL_v6","SARL_v6cx1f1k03","58935d5d4d77be0001689f14","freq","","","img/orange_2bandit_b2.png","70","","70","test","1","","111","","","","circle","square","107","14","5","0.9532710280373832","","","","","","","",""
"null","784960","SARL_v6","SARL_v6cx1f1k03","58935d5d4d77be0001689f14","freq_resp","","","img/orange_2bandit_b.png","70","img/orange_2bandit_b.png","70","test","","","","","","","","","","","5","","","","","","","","",""
"null","785114","SARL_v6","SARL_v6cx1f1k03","58935d5d4d77be0001689f14","fixation","","","img/fixation.png","null","","","test","","","","","","","","","","","","","","","","","","","",""
"316.8000000002794","785433","SARL_v6","SARL_v6cx1f1k03","58935d5d4d77be0001689f14","freq","","","img/orange_2bandit_b2.png","70","","70","test","1","","112","","","","circle","square","108","15","5","0.9537037037037037","","","","","","","",""
"null","785921","SARL_v6","SARL_v6cx1f1k03","58935d5d4d77be0001689f14","freq_resp","","","img/orange_2bandit_b.png","70","img/orange_2bandit_b.png","70","test","","","","","","","","","","","5","","","","","","","","",""
"null","786077","SARL_v6","SARL_v6cx1f1k03","58935d5d4d77be0001689f14","fixation","","","img/fixation.png","null","","","test","","","","","","","","","","","","","","","","","","","",""
"325.29999999981374","786405","SARL_v6","SARL_v6cx1f1k03","58935d5d4d77be0001689f14","freq","","","img/orange_2bandit_b2.png","70","","70","test","1","","113","","","","circle","square","109","16","5","0.9541284403669725","","","","","","","",""
"null","786895","SARL_v6","SARL_v6cx1f1k03","58935d5d4d77be0001689f14","freq_resp","","","img/orange_2bandit_b.png","70","img/orange_2bandit_b.png","70","test","","","","","","","","","","","5","","","","","","","","",""
"null","787048","SARL_v6","SARL_v6cx1f1k03","58935d5d4d77be0001689f14","fixation","","","img/fixation.png","null","","","test","","","","","","","","","","","","","","","","","","","",""
"332.20000000018626","787382","SARL_v6","SARL_v6cx1f1k03","58935d5d4d77be0001689f14","freq","","","img/orange_2bandit_b2.png","70","","70","test","1","","114","","","","circle","square","110","17","5","0.9545454545454546","","","","","","","",""
"null","787857","SARL_v6","SARL_v6cx1f1k03","58935d5d4d77be0001689f14","freq_resp","","","img/orange_2bandit_b.png","70","img/orange_2bandit_b.png","70","test","","","","","","","","","","","5","","","","","","","","",""
"null","788012","SARL_v6","SARL_v6cx1f1k03","58935d5d4d77be0001689f14","fixation","","","img/fixation.png","null","","","test","","","","","","","","","","","","","","","","","","","",""
"312.39999999990687","788327","SARL_v6","SARL_v6cx1f1k03","58935d5d4d77be0001689f14","freq","","","img/orange_2bandit_b2.png","70","","70","test","1","","115","","","","circle","square","111","18","5","0.954954954954955","","","","","","","",""
"null","788831","SARL_v6","SARL_v6cx1f1k03","58935d5d4d77be0001689f14","freq_resp","","","img/orange_2bandit_b.png","70","img/orange_2bandit_b.png","70","test","","","","","","","","","","","5","","","","","","","","",""
"null","788984","SARL_v6","SARL_v6cx1f1k03","58935d5d4d77be0001689f14","fixation","","","img/fixation.png","null","","","test","","","","","","","","","","","","","","","","","","","",""
"344.5","789330","SARL_v6","SARL_v6cx1f1k03","58935d5d4d77be0001689f14","freq","","","img/orange_2bandit_b2.png","70","","70","test","1","","116","","","","circle","square","112","19","5","0.9553571428571429","","","","","","","",""
"null","789796","SARL_v6","SARL_v6cx1f1k03","58935d5d4d77be0001689f14","freq_resp","","","img/orange_2bandit_b.png","70","img/orange_2bandit_b.png","70","test","","","","","","","","","","","5","","","","","","","","",""
"null","789953","SARL_v6","SARL_v6cx1f1k03","58935d5d4d77be0001689f14","fixation","","","img/fixation.png","null","","","test","","","","","","","","","","","","","","","","","","","",""
"391.20000000018626","790347","SARL_v6","SARL_v6cx1f1k03","58935d5d4d77be0001689f14","freq","","","img/orange_2bandit_b2.png","70","","70","test","1","","117","","","","circle","square","113","20","5","0.9557522123893806","","","","","","","",""
"null","790759","SARL_v6","SARL_v6cx1f1k03","58935d5d4d77be0001689f14","freq_resp","","","img/orange_2bandit_b.png","70","img/orange_2bandit_b.png","70","test","","","","","","","","","","","5","","","","","","","","",""
"null","790917","SARL_v6","SARL_v6cx1f1k03","58935d5d4d77be0001689f14","fixation","","","img/fixation.png","null","","","test","","","","","","","","","","","","","","","","","","","",""
"382","791302","SARL_v6","SARL_v6cx1f1k03","58935d5d4d77be0001689f14","freq","","","img/orange_2bandit_b2.png","70","","70","test","1","","118","","","","circle","square","114","21","5","0.956140350877193","","","","","","","",""
"null","791737","SARL_v6","SARL_v6cx1f1k03","58935d5d4d77be0001689f14","freq_resp","","","img/orange_2bandit_b.png","70","img/orange_2bandit_b.png","70","test","","","","","","","","","","","5","","","","","","","","",""
"null","791896","SARL_v6","SARL_v6cx1f1k03","58935d5d4d77be0001689f14","fixation","","","img/fixation.png","null","","","test","","","","","","","","","","","","","","","","","","","",""
"567.2999999998137","792466","SARL_v6","SARL_v6cx1f1k03","58935d5d4d77be0001689f14","rl","","","img/black_2bandit_b2.png","75","","0","test","","","119","","","4","circle","square","","0","5","","75","-7","4","-7","4","square","5","0"
"null","793232","SARL_v6","SARL_v6cx1f1k03","58935d5d4d77be0001689f14","feedback","","","<div class=""veryhighPoints_sq""> 4 </div>","null","","na","test","","","NaN","","","","","","","","5","","75","","","","","","5",""
"449.29999999981374","793686","SARL_v6","SARL_v6cx1f1k03","58935d5d4d77be0001689f14","freq","","","img/orange_2bandit_b2.png","70","","70","test","1","","120","","","","circle","square","115","1","6","0.9565217391304348","","","","","","","",""
"null","794057","SARL_v6","SARL_v6cx1f1k03","58935d5d4d77be0001689f14","freq_resp","","","img/orange_2bandit_b.png","70","img/orange_2bandit_b.png","70","test","","","","","","","","","","","6","","","","","","","","",""
"null","794225","SARL_v6","SARL_v6cx1f1k03","58935d5d4d77be0001689f14","fixation","","","img/fixation.png","null","","","test","","","","","","","","","","","","","","","","","","","",""
"325.10000000009313","794553","SARL_v6","SARL_v6cx1f1k03","58935d5d4d77be0001689f14","freq","","","img/orange_2bandit_b2.png","70","","70","test","1","","121","","","","circle","square","116","2","6","0.9568965517241379","","","","","","","",""
"null","795031","SARL_v6","SARL_v6cx1f1k03","58935d5d4d77be0001689f14","freq_resp","","","img/orange_2bandit_b.png","70","img/orange_2bandit_b.png","70","test","","","","","","","","","","","6","","","","","","","","",""
"null","795186","SARL_v6","SARL_v6cx1f1k03","58935d5d4d77be0001689f14","fixation","","","img/fixation.png","null","","","test","","","","","","","","","","","","","","","","","","","",""
"320.5","795510","SARL_v6","SARL_v6cx1f1k03","58935d5d4d77be0001689f14","freq","","","img/orange_2bandit_b2.png","70","","70","test","1","","122","","","","circle","square","117","3","6","0.9572649572649573","","","","","","","",""
"null","795992","SARL_v6","SARL_v6cx1f1k03","58935d5d4d77be0001689f14","freq_resp","","","img/orange_2bandit_b.png","70","img/orange_2bandit_b.png","70","test","","","","","","","","","","","6","","","","","","","","",""
"null","796146","SARL_v6","SARL_v6cx1f1k03","58935d5d4d77be0001689f14","fixation","","","img/fixation.png","null","","","test","","","","","","","","","","","","","","","","","","","",""
"354.40000000037253","796505","SARL_v6","SARL_v6cx1f1k03","58935d5d4d77be0001689f14","freq","","","img/orange_2bandit_b2.png","70","","70","test","1","","123","","","","circle","square","118","4","6","0.9576271186440678","","","","","","","",""
"null","796955","SARL_v6","SARL_v6cx1f1k03","58935d5d4d77be0001689f14","freq_resp","","","img/orange_2bandit_b.png","70","img/orange_2bandit_b.png","70","test","","","","","","","","","","","6","","","","","","","","",""
"null","797113","SARL_v6","SARL_v6cx1f1k03","58935d5d4d77be0001689f14","fixation","","","img/fixation.png","null","","","test","","","","","","","","","","","","","","","","","","","",""
"324.20000000018626","797440","SARL_v6","SARL_v6cx1f1k03","58935d5d4d77be0001689f14","freq","","","img/orange_2bandit_b2.png","70","","70","test","1","","124","","","","circle","square","119","5","6","0.957983193277311","","","","","","","",""
"null","797921","SARL_v6","SARL_v6cx1f1k03","58935d5d4d77be0001689f14","freq_resp","","","img/orange_2bandit_b.png","70","img/orange_2bandit_b.png","70","test","","","","","","","","","","","6","","","","","","","","",""
"null","798075","SARL_v6","SARL_v6cx1f1k03","58935d5d4d77be0001689f14","fixation","","","img/fixation.png","null","","","test","","","","","","","","","","","","","","","","","","","",""
"277.20000000018626","798355","SARL_v6","SARL_v6cx1f1k03","58935d5d4d77be0001689f14","freq","","","img/orange_2bandit_b2.png","70","","70","test","1","","125","","","","circle","square","120","6","6","0.9583333333333334","","","","","","","",""
"null","798883","SARL_v6","SARL_v6cx1f1k03","58935d5d4d77be0001689f14","freq_resp","","","img/orange_2bandit_b.png","70","img/orange_2bandit_b.png","70","test","","","","","","","","","","","6","","","","","","","","",""
"null","799039","SARL_v6","SARL_v6cx1f1k03","58935d5d4d77be0001689f14","fixation","","","img/fixation.png","null","","","test","","","","","","","","","","","","","","","","","","","",""
"346","799387","SARL_v6","SARL_v6cx1f1k03","58935d5d4d77be0001689f14","freq","","","img/orange_2bandit_b2.png","70","","70","test","1","","126","","","","circle","square","121","7","6","0.9586776859504132","","","","","","","",""
"null","799846","SARL_v6","SARL_v6cx1f1k03","58935d5d4d77be0001689f14","freq_resp","","","img/orange_2bandit_b.png","70","img/orange_2bandit_b.png","70","test","","","","","","","","","","","6","","","","","","","","",""
"null","800003","SARL_v6","SARL_v6cx1f1k03","58935d5d4d77be0001689f14","fixation","","","img/fixation.png","null","","","test","","","","","","","","","","","","","","","","","","","",""
"320.20000000018626","800326","SARL_v6","SARL_v6cx1f1k03","58935d5d4d77be0001689f14","freq","","","img/orange_2bandit_b2.png","70","","70","test","1","","127","","","","circle","square","122","8","6","0.9590163934426229","","","","","","","",""
"null","800808","SARL_v6","SARL_v6cx1f1k03","58935d5d4d77be0001689f14","freq_resp","","","img/orange_2bandit_b.png","70","img/orange_2bandit_b.png","70","test","","","","","","","","","","","6","","","","","","","","",""
"null","800963","SARL_v6","SARL_v6cx1f1k03","58935d5d4d77be0001689f14","fixation","","","img/fixation.png","null","","","test","","","","","","","","","","","","","","","","","","","",""
"407.10000000009313","801371","SARL_v6","SARL_v6cx1f1k03","58935d5d4d77be0001689f14","freq","","","img/orange_2bandit_b2.png","70","","70","test","1","","128","","","","circle","square","123","9","6","0.959349593495935","","","","","","","",""
"null","801774","SARL_v6","SARL_v6cx1f1k03","58935d5d4d77be0001689f14","freq_resp","","","img/orange_2bandit_b.png","70","img/orange_2bandit_b.png","70","test","","","","","","","","","","","6","","","","","","","","",""
"null","801930","SARL_v6","SARL_v6cx1f1k03","58935d5d4d77be0001689f14","fixation","","","img/fixation.png","null","","","test","","","","","","","","","","","","","","","","","","","",""
"269.10000000009313","802202","SARL_v6","SARL_v6cx1f1k03","58935d5d4d77be0001689f14","freq","","","img/orange_2bandit_b2.png","70","","70","test","1","","129","","","","circle","square","124","10","6","0.9596774193548387","","","","","","","",""
