"rt","time_elapsed","expId","subject","prolificID","trialType","rlType","attType","stimulus","key_press","stim","corrresp","phase","corr","pracCounter","trialNum","rewardOne","rewardTwo","reward","bandOne","bandTwo","attentionNum","attentionRunNum","blockNum","performance","bandChosen","circleVal","squareVal","bandOneVal","bandTwoVal","shapeChosen","rlNum","badFlag"
"86735.20000000019","86740","SARL_v6","SARL_v6267aly3s","604a7e9f84bf0e7937200df5","","","","","","","","","","","","","","","","","","","","","","","","","","","",""
"","88727","SARL_v6","SARL_v6267aly3s","604a7e9f84bf0e7937200df5","fullscreen","fullscreen","fullscreen","","","","","","","","","","","","","","","","","","","","","","","","",""
"12747","101477","SARL_v6","SARL_v6267aly3s","604a7e9f84bf0e7937200df5","","","","","","","","","","","","","","","","","","","","","","","","","","","",""
"null","102283","SARL_v6","SARL_v6267aly3s","604a7e9f84bf0e7937200df5","freqPrac","","","img/orange_2bandit_b2.png","null","img/orange_2bandit_b2.png","70","prac","0","1","","","","","","","","","","","","","","","","","",""
"null","103287","SARL_v6","SARL_v6267aly3s","604a7e9f84bf0e7937200df5","feedback","","","img/tooSlow.png","null","","na","prac","","","","","","","","","","","","","","","","","","","",""
"null","103443","SARL_v6","SARL_v6267aly3s","604a7e9f84bf0e7937200df5","fixation","","","img/fixation.png","null","","","prac","","","","","","","","","","","","","","","","","","","",""
"519.5","103965","SARL_v6","SARL_v6267aly3s","604a7e9f84bf0e7937200df5","infreqPrac","","","img/blue_2bandit_b2.png","68","img/blue_2bandit_b2.png","68","prac","1","1","","","","","","","","","","","","","","","","","",""
"519.5","104251","SARL_v6","SARL_v6267aly3s","604a7e9f84bf0e7937200df5","infreqPrac_resp","","","img/blue_2bandit_b.png","68","img/blue_2bandit_b.png","68","prac","","","","","","","","","","","","","","","","","","","",""
"null","104404","SARL_v6","SARL_v6267aly3s","604a7e9f84bf0e7937200df5","fixation","","","img/fixation.png","null","","","prac","","","","","","","","","","","","","","","","","","","",""
"405.3999999994412","104811","SARL_v6","SARL_v6267aly3s","604a7e9f84bf0e7937200df5","freqPrac","","","img/orange_2bandit_b2.png","68","img/orange_2bandit_b2.png","70","prac","0","2","","","","","","","","","","","","","","","","","",""
"405.3999999994412","105216","SARL_v6","SARL_v6267aly3s","604a7e9f84bf0e7937200df5","freqPrac_resp","","","img/orange_2bandit_b.png","68","img/orange_2bandit_b.png","70","prac","","","","","","","","","","","","","","","","","","","",""
"null","106229","SARL_v6","SARL_v6267aly3s","604a7e9f84bf0e7937200df5","feedback","","","img/wrongKey.png","null","","na","prac","","","","","","","","","","","","","","","","","","","",""
"null","106381","SARL_v6","SARL_v6267aly3s","604a7e9f84bf0e7937200df5","fixation","","","img/fixation.png","null","","","prac","","","","","","","","","","","","","","","","","","","",""
"564.4000000003725","106948","SARL_v6","SARL_v6267aly3s","604a7e9f84bf0e7937200df5","infreqPrac","","","img/blue_2bandit_b2.png","68","img/blue_2bandit_b2.png","68","prac","1","2","","","","","","","","","","","","","","","","","",""
"564.4000000003725","107194","SARL_v6","SARL_v6267aly3s","604a7e9f84bf0e7937200df5","infreqPrac_resp","","","img/blue_2bandit_b.png","68","img/blue_2bandit_b.png","68","prac","","","","","","","","","","","","","","","","","","","",""
"null","107347","SARL_v6","SARL_v6267aly3s","604a7e9f84bf0e7937200df5","fixation","","","img/fixation.png","null","","","prac","","","","","","","","","","","","","","","","","","","",""
"267.09999999962747","107617","SARL_v6","SARL_v6267aly3s","604a7e9f84bf0e7937200df5","infreqPrac","","","img/blue_2bandit_b2.png","70","img/blue_2bandit_b2.png","68","prac","0","3","","","","","","","","","","","","","","","","","",""
"267.09999999962747","108159","SARL_v6","SARL_v6267aly3s","604a7e9f84bf0e7937200df5","infreqPrac_resp","","","img/blue_2bandit_b.png","70","img/blue_2bandit_b.png","68","prac","","","","","","","","","","","","","","","","","","","",""
"null","109172","SARL_v6","SARL_v6267aly3s","604a7e9f84bf0e7937200df5","feedback","","","img/wrongKey.png","null","","na","prac","","","","","","","","","","","","","","","","","","","",""
"null","109324","SARL_v6","SARL_v6267aly3s","604a7e9f84bf0e7937200df5","fixation","","","img/fixation.png","null","","","prac","","","","","","","","","","","","","","","","","","","",""
"580","109907","SARL_v6","SARL_v6267aly3s","604a7e9f84bf0e7937200df5","infreqPrac","","","img/blue_2bandit_b2.png","68","img/blue_2bandit_b2.png","68","prac","1","3","","","","","","","","","","","","","","","","","",""
"580","110136","SARL_v6","SARL_v6267aly3s","604a7e9f84bf0e7937200df5","infreqPrac_resp","","","img/blue_2bandit_b.png","68","img/blue_2bandit_b.png","68","prac","","","","","","","","","","","","","","","","","","","",""
"null","110292","SARL_v6","SARL_v6267aly3s","604a7e9f84bf0e7937200df5","fixation","","","img/fixation.png","null","","","prac","","","","","","","","","","","","","","","","","","","",""
"491.3999999994412","110786","SARL_v6","SARL_v6267aly3s","604a7e9f84bf0e7937200df5","freqPrac","","","img/orange_2bandit_b2.png","70","img/orange_2bandit_b2.png","70","prac","1","3","","","","","","","","","","","","","","","","","",""
"491.3999999994412","111103","SARL_v6","SARL_v6267aly3s","604a7e9f84bf0e7937200df5","freqPrac_resp","","","img/orange_2bandit_b.png","70","img/orange_2bandit_b.png","70","prac","","","","","","","","","","","","","","","","","","","",""
"null","111260","SARL_v6","SARL_v6267aly3s","604a7e9f84bf0e7937200df5","fixation","","","img/fixation.png","null","","","prac","","","","","","","","","","","","","","","","","","","",""
"366.79999999981374","111629","SARL_v6","SARL_v6267aly3s","604a7e9f84bf0e7937200df5","infreqPrac","","","img/blue_2bandit_b2.png","68","img/blue_2bandit_b2.png","68","prac","1","3","","","","","","","","","","","","","","","","","",""
"366.79999999981374","112071","SARL_v6","SARL_v6267aly3s","604a7e9f84bf0e7937200df5","infreqPrac_resp","","","img/blue_2bandit_b.png","68","img/blue_2bandit_b.png","68","prac","","","","","","","","","","","","","","","","","","","",""
"null","112227","SARL_v6","SARL_v6267aly3s","604a7e9f84bf0e7937200df5","fixation","","","img/fixation.png","null","","","prac","","","","","","","","","","","","","","","","","","","",""
"441.6000000005588","112671","SARL_v6","SARL_v6267aly3s","604a7e9f84bf0e7937200df5","freqPrac","","","img/orange_2bandit_b2.png","68","img/orange_2bandit_b2.png","70","prac","0","4","","","","","","","","","","","","","","","","","",""
"441.6000000005588","113035","SARL_v6","SARL_v6267aly3s","604a7e9f84bf0e7937200df5","freqPrac_resp","","","img/orange_2bandit_b.png","68","img/orange_2bandit_b.png","70","prac","","","","","","","","","","","","","","","","","","","",""
"null","114046","SARL_v6","SARL_v6267aly3s","604a7e9f84bf0e7937200df5","feedback","","","img/wrongKey.png","null","","na","prac","","","","","","","","","","","","","","","","","","","",""
"null","114201","SARL_v6","SARL_v6267aly3s","604a7e9f84bf0e7937200df5","fixation","","","img/fixation.png","null","","","prac","","","","","","","","","","","","","","","","","","","",""
"559.7000000001863","114762","SARL_v6","SARL_v6267aly3s","604a7e9f84bf0e7937200df5","freqPrac","","","img/orange_2bandit_b2.png","70","img/orange_2bandit_b2.png","70","prac","1","4","","","","","","","","","","","","","","","","","",""
"559.7000000001863","115010","SARL_v6","SARL_v6267aly3s","604a7e9f84bf0e7937200df5","freqPrac_resp","","","img/orange_2bandit_b.png","70","img/orange_2bandit_b.png","70","prac","","","","","","","","","","","","","","","","","","","",""
"null","115162","SARL_v6","SARL_v6267aly3s","604a7e9f84bf0e7937200df5","fixation","","","img/fixation.png","null","","","prac","","","","","","","","","","","","","","","","","","","",""
"23004.900000000373","138170","SARL_v6","SARL_v6267aly3s","604a7e9f84bf0e7937200df5","","","","","","","","prac","","","","","","","","","","","","","","","","","","","",""
"null","139681","SARL_v6","SARL_v6267aly3s","604a7e9f84bf0e7937200df5","rlPractice","","","img/black_2bandit_b2.png","null","img/black_2bandit_b2.png","","prac","","","0","","","","","","","","","","","","","","","","",""
"null","140441","SARL_v6","SARL_v6267aly3s","604a7e9f84bf0e7937200df5","feedback","","","<div font size = 80> TOO SLOW  </div>","null","","na","prac","","","1","10","-14","10","","","","","","","","","","","","","",""
"null","140597","SARL_v6","SARL_v6267aly3s","604a7e9f84bf0e7937200df5","fixation","","","img/fixation.png","null","","","prac","","","","","","","","","","","","","","","","","","","",""
"319.19999999925494","140919","SARL_v6","SARL_v6267aly3s","604a7e9f84bf0e7937200df5","rlPractice","","","img/black_2bandit_b2.png","74","img/black_2bandit_b2.png","","prac","","","1","","","","","","","","","","","","","","","","",""
"null","141673","SARL_v6","SARL_v6267aly3s","604a7e9f84bf0e7937200df5","feedback","","","<div class=""veryhighPoints""> 5 </div>","null","","na","prac","","","2","5","-5","5","","","","","","","","","","","","","",""
"null","141829","SARL_v6","SARL_v6267aly3s","604a7e9f84bf0e7937200df5","fixation","","","img/fixation.png","null","","","prac","","","","","","","","","","","","","","","","","","","",""
"401.90000000037253","142234","SARL_v6","SARL_v6267aly3s","604a7e9f84bf0e7937200df5","rlPractice","","","img/black_2bandit_b2.png","75","img/black_2bandit_b2.png","","prac","","","2","","","","","","","","","","","","","","","","",""
"null","142997","SARL_v6","SARL_v6267aly3s","604a7e9f84bf0e7937200df5","feedback","","","<div class=""veryhighPoints_sq""> 2 </div>","null","","na","prac","","","3","30","2","30","","","","","","","","","","","","","",""
"null","143151","SARL_v6","SARL_v6267aly3s","604a7e9f84bf0e7937200df5","fixation","","","img/fixation.png","null","","","prac","","","","","","","","","","","","","","","","","","","",""
"94.79999999981374","143249","SARL_v6","SARL_v6267aly3s","604a7e9f84bf0e7937200df5","rlPractice","","","img/black_2bandit_b2.png","74","img/black_2bandit_b2.png","","prac","","","3","","","","","","","","","","","","","","","","",""
"null","144007","SARL_v6","SARL_v6267aly3s","604a7e9f84bf0e7937200df5","feedback","","","<div class=""verylowPoints""> -2 </div>","null","","na","prac","","","4","-2","20","-2","","","","","","","","","","","","","",""
"null","144163","SARL_v6","SARL_v6267aly3s","604a7e9f84bf0e7937200df5","fixation","","","img/fixation.png","null","","","prac","","","","","","","","","","","","","","","","","","","",""
"15751.200000000186","159916","SARL_v6","SARL_v6267aly3s","604a7e9f84bf0e7937200df5","","","","","","","","prac","","","","","","","","","","","","","","","","","","","",""
"null","160723","SARL_v6","SARL_v6267aly3s","604a7e9f84bf0e7937200df5","mixAttFreqPrac","","","img/orange_2bandit_b2.png","null","img/orange_2bandit_b2.png","70","prac","","","1","","","","","","","","","","","","","","","","",""
"74.5","160876","SARL_v6","SARL_v6267aly3s","604a7e9f84bf0e7937200df5","fixation","","","img/fixation.png","70","","","prac","","","","","","","","","","","","","","","","","","","",""
"452.19999999925494","161330","SARL_v6","SARL_v6267aly3s","604a7e9f84bf0e7937200df5","mixAttInfreqPrac","","","img/blue_2bandit_b2.png","68","img/blue_2bandit_b2.png","68","prac","","","2","","","","","","","","","","","","","","","","",""
"452.19999999925494","161693","SARL_v6","SARL_v6267aly3s","604a7e9f84bf0e7937200df5","infreqPrac_resp","","","img/blue_2bandit_b.png","68","img/orange_2bandit_b.png","68","prac","","","2","","","","","","","","","","","","","","","","",""
"null","161849","SARL_v6","SARL_v6267aly3s","604a7e9f84bf0e7937200df5","fixation","","","img/fixation.png","null","","","prac","","","","","","","","","","","","","","","","","","","",""
"394.20000000018626","162246","SARL_v6","SARL_v6267aly3s","604a7e9f84bf0e7937200df5","mixAttInfreqPrac","","","img/blue_2bandit_b2.png","68","img/blue_2bandit_b2.png","68","prac","","","3","","","","","","","","","","","","","","","","",""
"394.20000000018626","162661","SARL_v6","SARL_v6267aly3s","604a7e9f84bf0e7937200df5","infreqPrac_resp","","","img/blue_2bandit_b.png","68","img/orange_2bandit_b.png","68","prac","","","3","","","","","","","","","","","","","","","","",""
"null","162818","SARL_v6","SARL_v6267aly3s","604a7e9f84bf0e7937200df5","fixation","","","img/fixation.png","null","","","prac","","","","","","","","","","","","","","","","","","","",""
"344.09999999962747","163165","SARL_v6","SARL_v6267aly3s","604a7e9f84bf0e7937200df5","mixAttInfreqPrac","","","img/blue_2bandit_b2.png","68","img/blue_2bandit_b2.png","68","prac","","","4","","","","","","","","","","","","","","","","",""
"344.09999999962747","163624","SARL_v6","SARL_v6267aly3s","604a7e9f84bf0e7937200df5","infreqPrac_resp","","","img/blue_2bandit_b.png","68","img/orange_2bandit_b.png","68","prac","","","4","","","","","","","","","","","","","","","","",""
"null","163780","SARL_v6","SARL_v6267aly3s","604a7e9f84bf0e7937200df5","fixation","","","img/fixation.png","null","","","prac","","","","","","","","","","","","","","","","","","","",""
"382.6000000005588","164165","SARL_v6","SARL_v6267aly3s","604a7e9f84bf0e7937200df5","mixAttFreqPrac","","","img/orange_2bandit_b2.png","70","img/orange_2bandit_b2.png","70","prac","","","5","","","","","","","","","","","","","","","","",""
"382.6000000005588","164587","SARL_v6","SARL_v6267aly3s","604a7e9f84bf0e7937200df5","freqPrac_resp","","","img/orange_2bandit_b.png","70","img/orange_2bandit_b.png","70","prac","","","5","","","","","","","","","","","","","","","","",""
"null","164743","SARL_v6","SARL_v6267aly3s","604a7e9f84bf0e7937200df5","fixation","","","img/fixation.png","null","","","prac","","","","","","","","","","","","","","","","","","","",""
"565","165310","SARL_v6","SARL_v6267aly3s","604a7e9f84bf0e7937200df5","mixRLPractice","","","img/black_2bandit_b2.png","75","img/black_2bandit_b2.png","","prac","","","5","","","","","","","","","","","","","","","","",""
"null","166064","SARL_v6","SARL_v6267aly3s","604a7e9f84bf0e7937200df5","feedback","","","<div class=""veryhighPoints_sq""> 10 </div>","null","","na","prac","","","6","-14","10","-14","","","","","","","","","","","","","",""
"null","166218","SARL_v6","SARL_v6267aly3s","604a7e9f84bf0e7937200df5","fixation","","","img/fixation.png","null","","","prac","","","","","","","","","","","","","","","","","","","",""
"541.7999999998137","166762","SARL_v6","SARL_v6267aly3s","604a7e9f84bf0e7937200df5","mixAttFreqPrac","","","img/orange_2bandit_b2.png","70","img/orange_2bandit_b2.png","70","prac","","","7","","","","","","","","","","","","","","","","",""
"541.7999999998137","167027","SARL_v6","SARL_v6267aly3s","604a7e9f84bf0e7937200df5","freqPrac_resp","","","img/orange_2bandit_b.png","70","img/orange_2bandit_b.png","70","prac","","","7","","","","","","","","","","","","","","","","",""
"null","167179","SARL_v6","SARL_v6267aly3s","604a7e9f84bf0e7937200df5","fixation","","","img/fixation.png","null","","","prac","","","","","","","","","","","","","","","","","","","",""
"435.29999999981374","167616","SARL_v6","SARL_v6267aly3s","604a7e9f84bf0e7937200df5","mixAttInfreqPrac","","","img/blue_2bandit_b2.png","68","img/blue_2bandit_b2.png","68","prac","","","8","","","","","","","","","","","","","","","","",""
"435.29999999981374","167993","SARL_v6","SARL_v6267aly3s","604a7e9f84bf0e7937200df5","infreqPrac_resp","","","img/blue_2bandit_b.png","68","img/orange_2bandit_b.png","68","prac","","","8","","","","","","","","","","","","","","","","",""
"null","168148","SARL_v6","SARL_v6267aly3s","604a7e9f84bf0e7937200df5","fixation","","","img/fixation.png","null","","","prac","","","","","","","","","","","","","","","","","","","",""
"437.70000000018626","168588","SARL_v6","SARL_v6267aly3s","604a7e9f84bf0e7937200df5","mixAttFreqPrac","","","img/orange_2bandit_b2.png","70","img/orange_2bandit_b2.png","70","prac","","","9","","","","","","","","","","","","","","","","",""
"437.70000000018626","168960","SARL_v6","SARL_v6267aly3s","604a7e9f84bf0e7937200df5","freqPrac_resp","","","img/orange_2bandit_b.png","70","img/orange_2bandit_b.png","70","prac","","","9","","","","","","","","","","","","","","","","",""
"null","169114","SARL_v6","SARL_v6267aly3s","604a7e9f84bf0e7937200df5","fixation","","","img/fixation.png","null","","","prac","","","","","","","","","","","","","","","","","","","",""
"530.7999999998137","169647","SARL_v6","SARL_v6267aly3s","604a7e9f84bf0e7937200df5","mixAttFreqPrac","","","img/orange_2bandit_b2.png","70","img/orange_2bandit_b2.png","70","prac","","","10","","","","","","","","","","","","","","","","",""
"530.7999999998137","169923","SARL_v6","SARL_v6267aly3s","604a7e9f84bf0e7937200df5","freqPrac_resp","","","img/orange_2bandit_b.png","70","img/orange_2bandit_b.png","70","prac","","","10","","","","","","","","","","","","","","","","",""
"null","170080","SARL_v6","SARL_v6267aly3s","604a7e9f84bf0e7937200df5","fixation","","","img/fixation.png","null","","","prac","","","","","","","","","","","","","","","","","","","",""
"471.20000000018626","170553","SARL_v6","SARL_v6267aly3s","604a7e9f84bf0e7937200df5","mixAttInfreqPrac","","","img/blue_2bandit_b2.png","68","img/blue_2bandit_b2.png","68","prac","","","11","","","","","","","","","","","","","","","","",""
"471.20000000018626","170887","SARL_v6","SARL_v6267aly3s","604a7e9f84bf0e7937200df5","infreqPrac_resp","","","img/blue_2bandit_b.png","68","img/orange_2bandit_b.png","68","prac","","","11","","","","","","","","","","","","","","","","",""
"null","171043","SARL_v6","SARL_v6267aly3s","604a7e9f84bf0e7937200df5","fixation","","","img/fixation.png","null","","","prac","","","","","","","","","","","","","","","","","","","",""
"490.70000000018626","171536","SARL_v6","SARL_v6267aly3s","604a7e9f84bf0e7937200df5","mixRLPractice","","","img/black_2bandit_b2.png","75","img/black_2bandit_b2.png","","prac","","","11","","","","","","","","","","","","","","","","",""
"null","172292","SARL_v6","SARL_v6267aly3s","604a7e9f84bf0e7937200df5","feedback","","","<div class=""verylowPoints_sq""> -5 </div>","null","","na","prac","","","12","5","-5","5","","","","","","","","","","","","","",""
"null","172449","SARL_v6","SARL_v6267aly3s","604a7e9f84bf0e7937200df5","fixation","","","img/fixation.png","null","","","prac","","","","","","","","","","","","","","","","","","","",""
"17056.10000000056","189506","SARL_v6","SARL_v6267aly3s","604a7e9f84bf0e7937200df5","","","","","","","","prac","","","","","","","","","","","","","","","","","","","",""
"520.6000000005588","190030","SARL_v6","SARL_v6267aly3s","604a7e9f84bf0e7937200df5","freq","","","img/orange_2bandit_b2.png","70","","70","test","1","","1","","","","circle","square","1","1","1","1","","","","","","","",""
"null","190319","SARL_v6","SARL_v6267aly3s","604a7e9f84bf0e7937200df5","freq_resp","","","img/orange_2bandit_b.png","70","img/orange_2bandit_b.png","70","test","","","","","","","","","","","1","","","","","","","","",""
"null","190472","SARL_v6","SARL_v6267aly3s","604a7e9f84bf0e7937200df5","fixation","","","img/fixation.png","null","","","test","","","","","","","","","","","","","","","","","","","",""
"332.79999999981374","190807","SARL_v6","SARL_v6267aly3s","604a7e9f84bf0e7937200df5","freq","","","img/orange_2bandit_b2.png","70","","70","test","1","","2","","","","circle","square","2","2","1","1","","","","","","","",""
"null","191285","SARL_v6","SARL_v6267aly3s","604a7e9f84bf0e7937200df5","freq_resp","","","img/orange_2bandit_b.png","70","img/orange_2bandit_b.png","70","test","","","","","","","","","","","1","","","","","","","","",""
"null","191440","SARL_v6","SARL_v6267aly3s","604a7e9f84bf0e7937200df5","fixation","","","img/fixation.png","null","","","test","","","","","","","","","","","","","","","","","","","",""
"291.5","191734","SARL_v6","SARL_v6267aly3s","604a7e9f84bf0e7937200df5","freq","","","img/orange_2bandit_b2.png","70","","70","test","1","","3","","","","circle","square","3","3","1","1","","","","","","","",""
"null","192254","SARL_v6","SARL_v6267aly3s","604a7e9f84bf0e7937200df5","freq_resp","","","img/orange_2bandit_b.png","70","img/orange_2bandit_b.png","70","test","","","","","","","","","","","1","","","","","","","","",""
"null","192407","SARL_v6","SARL_v6267aly3s","604a7e9f84bf0e7937200df5","fixation","","","img/fixation.png","null","","","test","","","","","","","","","","","","","","","","","","","",""
"292.19999999925494","192701","SARL_v6","SARL_v6267aly3s","604a7e9f84bf0e7937200df5","freq","","","img/orange_2bandit_b2.png","70","","70","test","1","","4","","","","circle","square","4","4","1","1","","","","","","","",""
"null","193221","SARL_v6","SARL_v6267aly3s","604a7e9f84bf0e7937200df5","freq_resp","","","img/orange_2bandit_b.png","70","img/orange_2bandit_b.png","70","test","","","","","","","","","","","1","","","","","","","","",""
"null","193389","SARL_v6","SARL_v6267aly3s","604a7e9f84bf0e7937200df5","fixation","","","img/fixation.png","null","","","test","","","","","","","","","","","","","","","","","","","",""
"324","193716","SARL_v6","SARL_v6267aly3s","604a7e9f84bf0e7937200df5","freq","","","img/orange_2bandit_b2.png","70","","70","test","1","","5","","","","circle","square","5","5","1","1","","","","","","","",""
"null","194200","SARL_v6","SARL_v6267aly3s","604a7e9f84bf0e7937200df5","freq_resp","","","img/orange_2bandit_b.png","70","img/orange_2bandit_b.png","70","test","","","","","","","","","","","1","","","","","","","","",""
"null","194353","SARL_v6","SARL_v6267aly3s","604a7e9f84bf0e7937200df5","fixation","","","img/fixation.png","null","","","test","","","","","","","","","","","","","","","","","","","",""
"333.79999999981374","194689","SARL_v6","SARL_v6267aly3s","604a7e9f84bf0e7937200df5","freq","","","img/orange_2bandit_b2.png","70","","70","test","1","","6","","","","circle","square","6","6","1","1","","","","","","","",""
"null","195165","SARL_v6","SARL_v6267aly3s","604a7e9f84bf0e7937200df5","freq_resp","","","img/orange_2bandit_b.png","70","img/orange_2bandit_b.png","70","test","","","","","","","","","","","1","","","","","","","","",""
"null","195321","SARL_v6","SARL_v6267aly3s","604a7e9f84bf0e7937200df5","fixation","","","img/fixation.png","null","","","test","","","","","","","","","","","","","","","","","","","",""
"415","195739","SARL_v6","SARL_v6267aly3s","604a7e9f84bf0e7937200df5","freq","","","img/orange_2bandit_b2.png","70","","70","test","1","","7","","","","circle","square","7","7","1","1","","","","","","","",""
"null","196130","SARL_v6","SARL_v6267aly3s","604a7e9f84bf0e7937200df5","freq_resp","","","img/orange_2bandit_b.png","70","img/orange_2bandit_b.png","70","test","","","","","","","","","","","1","","","","","","","","",""
"null","196285","SARL_v6","SARL_v6267aly3s","604a7e9f84bf0e7937200df5","fixation","","","img/fixation.png","null","","","test","","","","","","","","","","","","","","","","","","","",""
"362.59999999962747","196650","SARL_v6","SARL_v6267aly3s","604a7e9f84bf0e7937200df5","freq","","","img/orange_2bandit_b2.png","70","","70","test","1","","8","","","","circle","square","8","8","1","1","","","","","","","",""
"null","197093","SARL_v6","SARL_v6267aly3s","604a7e9f84bf0e7937200df5","freq_resp","","","img/orange_2bandit_b.png","70","img/orange_2bandit_b.png","70","test","","","","","","","","","","","1","","","","","","","","",""
"null","197249","SARL_v6","SARL_v6267aly3s","604a7e9f84bf0e7937200df5","fixation","","","img/fixation.png","null","","","test","","","","","","","","","","","","","","","","","","","",""
"341.3999999994412","197592","SARL_v6","SARL_v6267aly3s","604a7e9f84bf0e7937200df5","freq","","","img/orange_2bandit_b2.png","70","","70","test","1","","9","","","","circle","square","9","9","1","1","","","","","","","",""
"null","198059","SARL_v6","SARL_v6267aly3s","604a7e9f84bf0e7937200df5","freq_resp","","","img/orange_2bandit_b.png","70","img/orange_2bandit_b.png","70","test","","","","","","","","","","","1","","","","","","","","",""
"null","198213","SARL_v6","SARL_v6267aly3s","604a7e9f84bf0e7937200df5","fixation","","","img/fixation.png","null","","","test","","","","","","","","","","","","","","","","","","","",""
"351.69999999925494","198567","SARL_v6","SARL_v6267aly3s","604a7e9f84bf0e7937200df5","infreq","","","img/blue_2bandit_b2.png","68","","68","test","1","","10","","","","circle","square","10","10","1","1","","","","","","","",""
"null","199026","SARL_v6","SARL_v6267aly3s","604a7e9f84bf0e7937200df5","infreq_resp","","","img/blue_2bandit_b.png","68","img/blue_2bandit_b.png","68","test","","","","","","","","","","","1","","","","","","","","",""
"null","199183","SARL_v6","SARL_v6267aly3s","604a7e9f84bf0e7937200df5","fixation","","","img/fixation.png","null","","","test","","","","","","","","","","","","","","","","","","","",""
"381.8999999994412","199567","SARL_v6","SARL_v6267aly3s","604a7e9f84bf0e7937200df5","freq","","","img/orange_2bandit_b2.png","70","","70","test","1","","11","","","","circle","square","11","11","1","1","","","","","","","",""
"null","199990","SARL_v6","SARL_v6267aly3s","604a7e9f84bf0e7937200df5","freq_resp","","","img/orange_2bandit_b.png","70","img/orange_2bandit_b.png","70","test","","","","","","","","","","","1","","","","","","","","",""
"null","200147","SARL_v6","SARL_v6267aly3s","604a7e9f84bf0e7937200df5","fixation","","","img/fixation.png","null","","","test","","","","","","","","","","","","","","","","","","","",""
"340.79999999981374","200490","SARL_v6","SARL_v6267aly3s","604a7e9f84bf0e7937200df5","freq","","","img/orange_2bandit_b2.png","70","","70","test","1","","12","","","","circle","square","12","12","1","1","","","","","","","",""
"null","200965","SARL_v6","SARL_v6267aly3s","604a7e9f84bf0e7937200df5","freq_resp","","","img/orange_2bandit_b.png","70","img/orange_2bandit_b.png","70","test","","","","","","","","","","","1","","","","","","","","",""
"null","201122","SARL_v6","SARL_v6267aly3s","604a7e9f84bf0e7937200df5","fixation","","","img/fixation.png","null","","","test","","","","","","","","","","","","","","","","","","","",""
"482.40000000037253","201607","SARL_v6","SARL_v6267aly3s","604a7e9f84bf0e7937200df5","freq","","","img/orange_2bandit_b2.png","70","","70","test","1","","13","","","","circle","square","13","13","1","1","","","","","","","",""
"null","201933","SARL_v6","SARL_v6267aly3s","604a7e9f84bf0e7937200df5","freq_resp","","","img/orange_2bandit_b.png","70","img/orange_2bandit_b.png","70","test","","","","","","","","","","","1","","","","","","","","",""
"null","202089","SARL_v6","SARL_v6267aly3s","604a7e9f84bf0e7937200df5","fixation","","","img/fixation.png","null","","","test","","","","","","","","","","","","","","","","","","","",""
"443.70000000018626","202535","SARL_v6","SARL_v6267aly3s","604a7e9f84bf0e7937200df5","infreq","","","img/blue_2bandit_b2.png","68","","68","test","1","","14","","","","circle","square","14","14","1","1","","","","","","","",""
"null","202893","SARL_v6","SARL_v6267aly3s","604a7e9f84bf0e7937200df5","infreq_resp","","","img/blue_2bandit_b.png","68","img/blue_2bandit_b.png","68","test","","","","","","","","","","","1","","","","","","","","",""
"null","203050","SARL_v6","SARL_v6267aly3s","604a7e9f84bf0e7937200df5","fixation","","","img/fixation.png","null","","","test","","","","","","","","","","","","","","","","","","","",""
"358.1000000005588","203410","SARL_v6","SARL_v6267aly3s","604a7e9f84bf0e7937200df5","freq","","","img/orange_2bandit_b2.png","68","","70","test","0","","15","","","","circle","square","15","15","1","0.9333333333333333","","","","","","","",""
"null","203859","SARL_v6","SARL_v6267aly3s","604a7e9f84bf0e7937200df5","freq_resp","","","img/orange_2bandit_b.png","68","img/orange_2bandit_b.png","70","test","","","","","","","","","","","1","","","","","","","","",""
"null","204015","SARL_v6","SARL_v6267aly3s","604a7e9f84bf0e7937200df5","fixation","","","img/fixation.png","null","","","test","","","","","","","","","","","","","","","","","","","",""
"426","204444","SARL_v6","SARL_v6267aly3s","604a7e9f84bf0e7937200df5","freq","","","img/orange_2bandit_b2.png","70","","70","test","1","","16","","","","circle","square","16","16","1","0.9375","","","","","","","",""
"null","204825","SARL_v6","SARL_v6267aly3s","604a7e9f84bf0e7937200df5","freq_resp","","","img/orange_2bandit_b.png","70","img/orange_2bandit_b.png","70","test","","","","","","","","","","","1","","","","","","","","",""
"null","204981","SARL_v6","SARL_v6267aly3s","604a7e9f84bf0e7937200df5","fixation","","","img/fixation.png","null","","","test","","","","","","","","","","","","","","","","","","","",""
"326.20000000018626","205309","SARL_v6","SARL_v6267aly3s","604a7e9f84bf0e7937200df5","freq","","","img/orange_2bandit_b2.png","70","","70","test","1","","17","","","","circle","square","17","17","1","0.9411764705882353","","","","","","","",""
"null","205790","SARL_v6","SARL_v6267aly3s","604a7e9f84bf0e7937200df5","freq_resp","","","img/orange_2bandit_b.png","70","img/orange_2bandit_b.png","70","test","","","","","","","","","","","1","","","","","","","","",""
"null","205942","SARL_v6","SARL_v6267aly3s","604a7e9f84bf0e7937200df5","fixation","","","img/fixation.png","null","","","test","","","","","","","","","","","","","","","","","","","",""
"323","206267","SARL_v6","SARL_v6267aly3s","604a7e9f84bf0e7937200df5","freq","","","img/orange_2bandit_b2.png","70","","70","test","1","","18","","","","circle","square","18","18","1","0.9444444444444444","","","","","","","",""
"null","206754","SARL_v6","SARL_v6267aly3s","604a7e9f84bf0e7937200df5","freq_resp","","","img/orange_2bandit_b.png","70","img/orange_2bandit_b.png","70","test","","","","","","","","","","","1","","","","","","","","",""
"null","206913","SARL_v6","SARL_v6267aly3s","604a7e9f84bf0e7937200df5","fixation","","","img/fixation.png","null","","","test","","","","","","","","","","","","","","","","","","","",""
"256.09999999962747","207171","SARL_v6","SARL_v6267aly3s","604a7e9f84bf0e7937200df5","freq","","","img/orange_2bandit_b2.png","70","","70","test","1","","19","","","","circle","square","19","19","1","0.9473684210526315","","","","","","","",""
"null","207725","SARL_v6","SARL_v6267aly3s","604a7e9f84bf0e7937200df5","freq_resp","","","img/orange_2bandit_b.png","70","img/orange_2bandit_b.png","70","test","","","","","","","","","","","1","","","","","","","","",""
"null","207880","SARL_v6","SARL_v6267aly3s","604a7e9f84bf0e7937200df5","fixation","","","img/fixation.png","null","","","test","","","","","","","","","","","","","","","","","","","",""
"242.79999999981374","208125","SARL_v6","SARL_v6267aly3s","604a7e9f84bf0e7937200df5","freq","","","img/orange_2bandit_b2.png","70","","70","test","1","","20","","","","circle","square","20","20","1","0.95","","","","","","","",""
"null","208690","SARL_v6","SARL_v6267aly3s","604a7e9f84bf0e7937200df5","freq_resp","","","img/orange_2bandit_b.png","70","img/orange_2bandit_b.png","70","test","","","","","","","","","","","1","","","","","","","","",""
"null","208844","SARL_v6","SARL_v6267aly3s","604a7e9f84bf0e7937200df5","fixation","","","img/fixation.png","null","","","test","","","","","","","","","","","","","","","","","","","",""
"266.20000000018626","209112","SARL_v6","SARL_v6267aly3s","604a7e9f84bf0e7937200df5","freq","","","img/orange_2bandit_b2.png","70","","70","test","1","","21","","","","circle","square","21","21","1","0.9523809523809523","","","","","","","",""
"null","209655","SARL_v6","SARL_v6267aly3s","604a7e9f84bf0e7937200df5","freq_resp","","","img/orange_2bandit_b.png","70","img/orange_2bandit_b.png","70","test","","","","","","","","","","","1","","","","","","","","",""
"null","209810","SARL_v6","SARL_v6267aly3s","604a7e9f84bf0e7937200df5","fixation","","","img/fixation.png","null","","","test","","","","","","","","","","","","","","","","","","","",""
"337","210149","SARL_v6","SARL_v6267aly3s","604a7e9f84bf0e7937200df5","freq","","","img/orange_2bandit_b2.png","70","","70","test","1","","22","","","","circle","square","22","22","1","0.9545454545454546","","","","","","","",""
"null","210620","SARL_v6","SARL_v6267aly3s","604a7e9f84bf0e7937200df5","freq_resp","","","img/orange_2bandit_b.png","70","img/orange_2bandit_b.png","70","test","","","","","","","","","","","1","","","","","","","","",""
"null","210775","SARL_v6","SARL_v6267aly3s","604a7e9f84bf0e7937200df5","fixation","","","img/fixation.png","null","","","test","","","","","","","","","","","","","","","","","","","",""
"866.2999999998137","211643","SARL_v6","SARL_v6267aly3s","604a7e9f84bf0e7937200df5","rl","","","img/black_2bandit_b2.png","74","","0","test","","","23","","","-3","circle","square","","0","1","","74","-3","-3","-3","-3","circle","1","0"
"null","212409","SARL_v6","SARL_v6267aly3s","604a7e9f84bf0e7937200df5","feedback","","","<div class=""verylowPoints""> -3 </div>","null","","na","test","","","NaN","","","","","","","","1","","74","","","","","","1",""
"512.3999999994412","212923","SARL_v6","SARL_v6267aly3s","604a7e9f84bf0e7937200df5","freq","","","img/orange_2bandit_b2.png","70","","70","test","1","","24","","","","circle","square","23","1","2","0.9565217391304348","","","","","","","",""
"null","213217","SARL_v6","SARL_v6267aly3s","604a7e9f84bf0e7937200df5","freq_resp","","","img/orange_2bandit_b.png","70","img/orange_2bandit_b.png","70","test","","","","","","","","","","","2","","","","","","","","",""
"null","213370","SARL_v6","SARL_v6267aly3s","604a7e9f84bf0e7937200df5","fixation","","","img/fixation.png","null","","","test","","","","","","","","","","","","","","","","","","","",""
"337.29999999981374","213709","SARL_v6","SARL_v6267aly3s","604a7e9f84bf0e7937200df5","freq","","","img/orange_2bandit_b2.png","70","","70","test","1","","25","","","","circle","square","24","2","2","0.9583333333333334","","","","","","","",""
"null","214184","SARL_v6","SARL_v6267aly3s","604a7e9f84bf0e7937200df5","freq_resp","","","img/orange_2bandit_b.png","70","img/orange_2bandit_b.png","70","test","","","","","","","","","","","2","","","","","","","","",""
"null","214337","SARL_v6","SARL_v6267aly3s","604a7e9f84bf0e7937200df5","fixation","","","img/fixation.png","null","","","test","","","","","","","","","","","","","","","","","","","",""
"287.29999999981374","214627","SARL_v6","SARL_v6267aly3s","604a7e9f84bf0e7937200df5","infreq","","","img/blue_2bandit_b2.png","70","","68","test","0","","26","","","","circle","square","25","3","2","0.92","","","","","","","",""
"null","215151","SARL_v6","SARL_v6267aly3s","604a7e9f84bf0e7937200df5","infreq_resp","","","img/blue_2bandit_b.png","70","img/blue_2bandit_b.png","68","test","","","","","","","","","","","2","","","","","","","","",""
"null","215310","SARL_v6","SARL_v6267aly3s","604a7e9f84bf0e7937200df5","fixation","","","img/fixation.png","null","","","test","","","","","","","","","","","","","","","","","","","",""
"446.29999999981374","215758","SARL_v6","SARL_v6267aly3s","604a7e9f84bf0e7937200df5","freq","","","img/orange_2bandit_b2.png","70","","70","test","1","","27","","","","circle","square","26","4","2","0.9230769230769231","","","","","","","",""
"null","216119","SARL_v6","SARL_v6267aly3s","604a7e9f84bf0e7937200df5","freq_resp","","","img/orange_2bandit_b.png","70","img/orange_2bandit_b.png","70","test","","","","","","","","","","","2","","","","","","","","",""
"null","216276","SARL_v6","SARL_v6267aly3s","604a7e9f84bf0e7937200df5","fixation","","","img/fixation.png","null","","","test","","","","","","","","","","","","","","","","","","","",""
"363.1000000005588","216641","SARL_v6","SARL_v6267aly3s","604a7e9f84bf0e7937200df5","freq","","","img/orange_2bandit_b2.png","70","","70","test","1","","28","","","","circle","square","27","5","2","0.9259259259259259","","","","","","","",""
"null","217087","SARL_v6","SARL_v6267aly3s","604a7e9f84bf0e7937200df5","freq_resp","","","img/orange_2bandit_b.png","70","img/orange_2bandit_b.png","70","test","","","","","","","","","","","2","","","","","","","","",""
"null","217242","SARL_v6","SARL_v6267aly3s","604a7e9f84bf0e7937200df5","fixation","","","img/fixation.png","null","","","test","","","","","","","","","","","","","","","","","","","",""
"359.90000000037253","217604","SARL_v6","SARL_v6267aly3s","604a7e9f84bf0e7937200df5","freq","","","img/orange_2bandit_b2.png","70","","70","test","1","","29","","","","circle","square","28","6","2","0.9285714285714286","","","","","","","",""
"null","218052","SARL_v6","SARL_v6267aly3s","604a7e9f84bf0e7937200df5","freq_resp","","","img/orange_2bandit_b.png","70","img/orange_2bandit_b.png","70","test","","","","","","","","","","","2","","","","","","","","",""
"null","218208","SARL_v6","SARL_v6267aly3s","604a7e9f84bf0e7937200df5","fixation","","","img/fixation.png","null","","","test","","","","","","","","","","","","","","","","","","","",""
"437.40000000037253","218647","SARL_v6","SARL_v6267aly3s","604a7e9f84bf0e7937200df5","freq","","","img/orange_2bandit_b2.png","70","","70","test","1","","30","","","","circle","square","29","7","2","0.9310344827586207","","","","","","","",""
"null","219014","SARL_v6","SARL_v6267aly3s","604a7e9f84bf0e7937200df5","freq_resp","","","img/orange_2bandit_b.png","70","img/orange_2bandit_b.png","70","test","","","","","","","","","","","2","","","","","","","","",""
"null","219167","SARL_v6","SARL_v6267aly3s","604a7e9f84bf0e7937200df5","fixation","","","img/fixation.png","null","","","test","","","","","","","","","","","","","","","","","","","",""
"417.20000000018626","219587","SARL_v6","SARL_v6267aly3s","604a7e9f84bf0e7937200df5","infreq","","","img/blue_2bandit_b2.png","68","","68","test","1","","31","","","","circle","square","30","8","2","0.9333333333333333","","","","","","","",""
"null","219979","SARL_v6","SARL_v6267aly3s","604a7e9f84bf0e7937200df5","infreq_resp","","","img/blue_2bandit_b.png","68","img/blue_2bandit_b.png","68","test","","","","","","","","","","","2","","","","","","","","",""
"null","220133","SARL_v6","SARL_v6267aly3s","604a7e9f84bf0e7937200df5","fixation","","","img/fixation.png","null","","","test","","","","","","","","","","","","","","","","","","","",""
"441.20000000018626","220577","SARL_v6","SARL_v6267aly3s","604a7e9f84bf0e7937200df5","freq","","","img/orange_2bandit_b2.png","70","","70","test","1","","32","","","","circle","square","31","9","2","0.9354838709677419","","","","","","","",""
"null","220946","SARL_v6","SARL_v6267aly3s","604a7e9f84bf0e7937200df5","freq_resp","","","img/orange_2bandit_b.png","70","img/orange_2bandit_b.png","70","test","","","","","","","","","","","2","","","","","","","","",""
"null","221100","SARL_v6","SARL_v6267aly3s","604a7e9f84bf0e7937200df5","fixation","","","img/fixation.png","null","","","test","","","","","","","","","","","","","","","","","","","",""
"403.80000000074506","221507","SARL_v6","SARL_v6267aly3s","604a7e9f84bf0e7937200df5","freq","","","img/orange_2bandit_b2.png","70","","70","test","1","","33","","","","circle","square","32","10","2","0.9375","","","","","","","",""
"null","221910","SARL_v6","SARL_v6267aly3s","604a7e9f84bf0e7937200df5","freq_resp","","","img/orange_2bandit_b.png","70","img/orange_2bandit_b.png","70","test","","","","","","","","","","","2","","","","","","","","",""
"null","222066","SARL_v6","SARL_v6267aly3s","604a7e9f84bf0e7937200df5","fixation","","","img/fixation.png","null","","","test","","","","","","","","","","","","","","","","","","","",""
"318.20000000018626","222386","SARL_v6","SARL_v6267aly3s","604a7e9f84bf0e7937200df5","freq","","","img/orange_2bandit_b2.png","70","","70","test","1","","34","","","","circle","square","33","11","2","0.9393939393939394","","","","","","","",""
"null","222879","SARL_v6","SARL_v6267aly3s","604a7e9f84bf0e7937200df5","freq_resp","","","img/orange_2bandit_b.png","70","img/orange_2bandit_b.png","70","test","","","","","","","","","","","2","","","","","","","","",""
"null","223047","SARL_v6","SARL_v6267aly3s","604a7e9f84bf0e7937200df5","fixation","","","img/fixation.png","null","","","test","","","","","","","","","","","","","","","","","","","",""
"504.40000000037253","223553","SARL_v6","SARL_v6267aly3s","604a7e9f84bf0e7937200df5","freq","","","img/orange_2bandit_b2.png","70","","70","test","1","","35","","","","circle","square","34","12","2","0.9411764705882353","","","","","","","",""
"null","223856","SARL_v6","SARL_v6267aly3s","604a7e9f84bf0e7937200df5","freq_resp","","","img/orange_2bandit_b.png","70","img/orange_2bandit_b.png","70","test","","","","","","","","","","","2","","","","","","","","",""
"null","224009","SARL_v6","SARL_v6267aly3s","604a7e9f84bf0e7937200df5","fixation","","","img/fixation.png","null","","","test","","","","","","","","","","","","","","","","","","","",""
"475.09999999962747","224486","SARL_v6","SARL_v6267aly3s","604a7e9f84bf0e7937200df5","freq","","","img/orange_2bandit_b2.png","70","","70","test","1","","36","","","","circle","square","35","13","2","0.9428571428571428","","","","","","","",""
"null","224824","SARL_v6","SARL_v6267aly3s","604a7e9f84bf0e7937200df5","freq_resp","","","img/orange_2bandit_b.png","70","img/orange_2bandit_b.png","70","test","","","","","","","","","","","2","","","","","","","","",""
"null","224977","SARL_v6","SARL_v6267aly3s","604a7e9f84bf0e7937200df5","fixation","","","img/fixation.png","null","","","test","","","","","","","","","","","","","","","","","","","",""
"284.1000000005588","225264","SARL_v6","SARL_v6267aly3s","604a7e9f84bf0e7937200df5","freq","","","img/orange_2bandit_b2.png","70","","70","test","1","","37","","","","circle","square","36","14","2","0.9444444444444444","","","","","","","",""
"null","225787","SARL_v6","SARL_v6267aly3s","604a7e9f84bf0e7937200df5","freq_resp","","","img/orange_2bandit_b.png","70","img/orange_2bandit_b.png","70","test","","","","","","","","","","","2","","","","","","","","",""
"null","225943","SARL_v6","SARL_v6267aly3s","604a7e9f84bf0e7937200df5","fixation","","","img/fixation.png","null","","","test","","","","","","","","","","","","","","","","","","","",""
"367.5","226312","SARL_v6","SARL_v6267aly3s","604a7e9f84bf0e7937200df5","freq","","","img/orange_2bandit_b2.png","70","","70","test","1","","38","","","","circle","square","37","15","2","0.9459459459459459","","","","","","","",""
"null","226750","SARL_v6","SARL_v6267aly3s","604a7e9f84bf0e7937200df5","freq_resp","","","img/orange_2bandit_b.png","70","img/orange_2bandit_b.png","70","test","","","","","","","","","","","2","","","","","","","","",""
"null","226908","SARL_v6","SARL_v6267aly3s","604a7e9f84bf0e7937200df5","fixation","","","img/fixation.png","null","","","test","","","","","","","","","","","","","","","","","","","",""
"384.59999999962747","227294","SARL_v6","SARL_v6267aly3s","604a7e9f84bf0e7937200df5","freq","","","img/orange_2bandit_b2.png","70","","70","test","1","","39","","","","circle","square","38","16","2","0.9473684210526315","","","","","","","",""
"null","227722","SARL_v6","SARL_v6267aly3s","604a7e9f84bf0e7937200df5","freq_resp","","","img/orange_2bandit_b.png","70","img/orange_2bandit_b.png","70","test","","","","","","","","","","","2","","","","","","","","",""
"null","227877","SARL_v6","SARL_v6267aly3s","604a7e9f84bf0e7937200df5","fixation","","","img/fixation.png","null","","","test","","","","","","","","","","","","","","","","","","","",""
"261.09999999962747","228140","SARL_v6","SARL_v6267aly3s","604a7e9f84bf0e7937200df5","freq","","","img/orange_2bandit_b2.png","70","","70","test","1","","40","","","","circle","square","39","17","2","0.9487179487179487","","","","","","","",""
"null","228687","SARL_v6","SARL_v6267aly3s","604a7e9f84bf0e7937200df5","freq_resp","","","img/orange_2bandit_b.png","70","img/orange_2bandit_b.png","70","test","","","","","","","","","","","2","","","","","","","","",""
"null","228842","SARL_v6","SARL_v6267aly3s","604a7e9f84bf0e7937200df5","fixation","","","img/fixation.png","null","","","test","","","","","","","","","","","","","","","","","","","",""
"330.3999999994412","229175","SARL_v6","SARL_v6267aly3s","604a7e9f84bf0e7937200df5","freq","","","img/orange_2bandit_b2.png","70","","70","test","1","","41","","","","circle","square","40","18","2","0.95","","","","","","","",""
"null","229648","SARL_v6","SARL_v6267aly3s","604a7e9f84bf0e7937200df5","freq_resp","","","img/orange_2bandit_b.png","70","img/orange_2bandit_b.png","70","test","","","","","","","","","","","2","","","","","","","","",""
"null","229801","SARL_v6","SARL_v6267aly3s","604a7e9f84bf0e7937200df5","fixation","","","img/fixation.png","null","","","test","","","","","","","","","","","","","","","","","","","",""
"380.1000000005588","230183","SARL_v6","SARL_v6267aly3s","604a7e9f84bf0e7937200df5","freq","","","img/orange_2bandit_b2.png","70","","70","test","1","","42","","","","circle","square","41","19","2","0.9512195121951219","","","","","","","",""
"null","230618","SARL_v6","SARL_v6267aly3s","604a7e9f84bf0e7937200df5","freq_resp","","","img/orange_2bandit_b.png","70","img/orange_2bandit_b.png","70","test","","","","","","","","","","","2","","","","","","","","",""
"null","230772","SARL_v6","SARL_v6267aly3s","604a7e9f84bf0e7937200df5","fixation","","","img/fixation.png","null","","","test","","","","","","","","","","","","","","","","","","","",""
"220.70000000018626","230994","SARL_v6","SARL_v6267aly3s","604a7e9f84bf0e7937200df5","freq","","","img/orange_2bandit_b2.png","70","","70","test","1","","43","","","","circle","square","42","20","2","0.9523809523809523","","","","","","","",""
"null","231581","SARL_v6","SARL_v6267aly3s","604a7e9f84bf0e7937200df5","freq_resp","","","img/orange_2bandit_b.png","70","img/orange_2bandit_b.png","70","test","","","","","","","","","","","2","","","","","","","","",""
"null","231738","SARL_v6","SARL_v6267aly3s","604a7e9f84bf0e7937200df5","fixation","","","img/fixation.png","null","","","test","","","","","","","","","","","","","","","","","","","",""
"213.80000000074506","231953","SARL_v6","SARL_v6267aly3s","604a7e9f84bf0e7937200df5","freq","","","img/orange_2bandit_b2.png","70","","70","test","1","","44","","","","circle","square","43","21","2","0.9534883720930233","","","","","","","",""
"null","232550","SARL_v6","SARL_v6267aly3s","604a7e9f84bf0e7937200df5","freq_resp","","","img/orange_2bandit_b.png","70","img/orange_2bandit_b.png","70","test","","","","","","","","","","","2","","","","","","","","",""
"null","232705","SARL_v6","SARL_v6267aly3s","604a7e9f84bf0e7937200df5","fixation","","","img/fixation.png","null","","","test","","","","","","","","","","","","","","","","","","","",""
"691.6999999992549","233400","SARL_v6","SARL_v6267aly3s","604a7e9f84bf0e7937200df5","rl","","","img/black_2bandit_b2.png","75","","0","test","","","45","","","-8","circle","square","","0","2","","75","-5","-8","-5","-8","square","2","0"
"null","234162","SARL_v6","SARL_v6267aly3s","604a7e9f84bf0e7937200df5","feedback","","","<div class=""verylowPoints_sq""> -8 </div>","null","","na","test","","","NaN","","","","","","","","2","","75","","","","","","2",""
"556.8999999994412","234721","SARL_v6","SARL_v6267aly3s","604a7e9f84bf0e7937200df5","freq","","","img/orange_2bandit_b2.png","70","","70","test","1","","46","","","","circle","square","44","1","3","0.9545454545454546","","","","","","","",""
"null","234975","SARL_v6","SARL_v6267aly3s","604a7e9f84bf0e7937200df5","freq_resp","","","img/orange_2bandit_b.png","70","img/orange_2bandit_b.png","70","test","","","","","","","","","","","3","","","","","","","","",""
"null","235128","SARL_v6","SARL_v6267aly3s","604a7e9f84bf0e7937200df5","fixation","","","img/fixation.png","null","","","test","","","","","","","","","","","","","","","","","","","",""
"266","235396","SARL_v6","SARL_v6267aly3s","604a7e9f84bf0e7937200df5","freq","","","img/orange_2bandit_b2.png","70","","70","test","1","","47","","","","circle","square","45","2","3","0.9555555555555556","","","","","","","",""
"null","235939","SARL_v6","SARL_v6267aly3s","604a7e9f84bf0e7937200df5","freq_resp","","","img/orange_2bandit_b.png","70","img/orange_2bandit_b.png","70","test","","","","","","","","","","","3","","","","","","","","",""
"null","236092","SARL_v6","SARL_v6267aly3s","604a7e9f84bf0e7937200df5","fixation","","","img/fixation.png","null","","","test","","","","","","","","","","","","","","","","","","","",""
"312.20000000018626","236407","SARL_v6","SARL_v6267aly3s","604a7e9f84bf0e7937200df5","freq","","","img/orange_2bandit_b2.png","70","","70","test","1","","48","","","","circle","square","46","3","3","0.9565217391304348","","","","","","","",""
"null","236907","SARL_v6","SARL_v6267aly3s","604a7e9f84bf0e7937200df5","freq_resp","","","img/orange_2bandit_b.png","70","img/orange_2bandit_b.png","70","test","","","","","","","","","","","3","","","","","","","","",""
"null","237064","SARL_v6","SARL_v6267aly3s","604a7e9f84bf0e7937200df5","fixation","","","img/fixation.png","null","","","test","","","","","","","","","","","","","","","","","","","",""
"334.5","237401","SARL_v6","SARL_v6267aly3s","604a7e9f84bf0e7937200df5","freq","","","img/orange_2bandit_b2.png","70","","70","test","1","","49","","","","circle","square","47","4","3","0.9574468085106383","","","","","","","",""
"null","237873","SARL_v6","SARL_v6267aly3s","604a7e9f84bf0e7937200df5","freq_resp","","","img/orange_2bandit_b.png","70","img/orange_2bandit_b.png","70","test","","","","","","","","","","","3","","","","","","","","",""
"null","238029","SARL_v6","SARL_v6267aly3s","604a7e9f84bf0e7937200df5","fixation","","","img/fixation.png","null","","","test","","","","","","","","","","","","","","","","","","","",""
"290.69999999925494","238322","SARL_v6","SARL_v6267aly3s","604a7e9f84bf0e7937200df5","freq","","","img/orange_2bandit_b2.png","70","","70","test","1","","50","","","","circle","square","48","5","3","0.9583333333333334","","","","","","","",""
"null","238837","SARL_v6","SARL_v6267aly3s","604a7e9f84bf0e7937200df5","freq_resp","","","img/orange_2bandit_b.png","70","img/orange_2bandit_b.png","70","test","","","","","","","","","","","3","","","","","","","","",""
"null","238993","SARL_v6","SARL_v6267aly3s","604a7e9f84bf0e7937200df5","fixation","","","img/fixation.png","null","","","test","","","","","","","","","","","","","","","","","","","",""
"316.09999999962747","239311","SARL_v6","SARL_v6267aly3s","604a7e9f84bf0e7937200df5","freq","","","img/orange_2bandit_b2.png","70","","70","test","1","","51","","","","circle","square","49","6","3","0.9591836734693877","","","","","","","",""
"null","239802","SARL_v6","SARL_v6267aly3s","604a7e9f84bf0e7937200df5","freq_resp","","","img/orange_2bandit_b.png","70","img/orange_2bandit_b.png","70","test","","","","","","","","","","","3","","","","","","","","",""
"null","239957","SARL_v6","SARL_v6267aly3s","604a7e9f84bf0e7937200df5","fixation","","","img/fixation.png","null","","","test","","","","","","","","","","","","","","","","","","","",""
"504.5","240464","SARL_v6","SARL_v6267aly3s","604a7e9f84bf0e7937200df5","freq","","","img/orange_2bandit_b2.png","70","","70","test","1","","52","","","","circle","square","50","7","3","0.96","","","","","","","",""
"null","240769","SARL_v6","SARL_v6267aly3s","604a7e9f84bf0e7937200df5","freq_resp","","","img/orange_2bandit_b.png","70","img/orange_2bandit_b.png","70","test","","","","","","","","","","","3","","","","","","","","",""
"null","240924","SARL_v6","SARL_v6267aly3s","604a7e9f84bf0e7937200df5","fixation","","","img/fixation.png","null","","","test","","","","","","","","","","","","","","","","","","","",""
"314.1000000005588","241241","SARL_v6","SARL_v6267aly3s","604a7e9f84bf0e7937200df5","freq","","","img/orange_2bandit_b2.png","70","","70","test","1","","53","","","","circle","square","51","8","3","0.9607843137254902","","","","","","","",""
"null","241734","SARL_v6","SARL_v6267aly3s","604a7e9f84bf0e7937200df5","freq_resp","","","img/orange_2bandit_b.png","70","img/orange_2bandit_b.png","70","test","","","","","","","","","","","3","","","","","","","","",""
"null","241887","SARL_v6","SARL_v6267aly3s","604a7e9f84bf0e7937200df5","fixation","","","img/fixation.png","null","","","test","","","","","","","","","","","","","","","","","","","",""
"269.09999999962747","242159","SARL_v6","SARL_v6267aly3s","604a7e9f84bf0e7937200df5","freq","","","img/orange_2bandit_b2.png","70","","70","test","1","","54","","","","circle","square","52","9","3","0.9615384615384616","","","","","","","",""
"null","242699","SARL_v6","SARL_v6267aly3s","604a7e9f84bf0e7937200df5","freq_resp","","","img/orange_2bandit_b.png","70","img/orange_2bandit_b.png","70","test","","","","","","","","","","","3","","","","","","","","",""
"null","242856","SARL_v6","SARL_v6267aly3s","604a7e9f84bf0e7937200df5","fixation","","","img/fixation.png","null","","","test","","","","","","","","","","","","","","","","","","","",""
"258","243117","SARL_v6","SARL_v6267aly3s","604a7e9f84bf0e7937200df5","freq","","","img/orange_2bandit_b2.png","70","","70","test","1","","55","","","","circle","square","53","10","3","0.9622641509433962","","","","","","","",""
"null","243664","SARL_v6","SARL_v6267aly3s","604a7e9f84bf0e7937200df5","freq_resp","","","img/orange_2bandit_b.png","70","img/orange_2bandit_b.png","70","test","","","","","","","","","","","3","","","","","","","","",""
"null","243818","SARL_v6","SARL_v6267aly3s","604a7e9f84bf0e7937200df5","fixation","","","img/fixation.png","null","","","test","","","","","","","","","","","","","","","","","","","",""
"291.70000000018626","244111","SARL_v6","SARL_v6267aly3s","604a7e9f84bf0e7937200df5","freq","","","img/orange_2bandit_b2.png","70","","70","test","1","","56","","","","circle","square","54","11","3","0.9629629629629629","","","","","","","",""
"null","244633","SARL_v6","SARL_v6267aly3s","604a7e9f84bf0e7937200df5","freq_resp","","","img/orange_2bandit_b.png","70","img/orange_2bandit_b.png","70","test","","","","","","","","","","","3","","","","","","","","",""
"null","244786","SARL_v6","SARL_v6267aly3s","604a7e9f84bf0e7937200df5","fixation","","","img/fixation.png","null","","","test","","","","","","","","","","","","","","","","","","","",""
"262.79999999981374","245051","SARL_v6","SARL_v6267aly3s","604a7e9f84bf0e7937200df5","freq","","","img/orange_2bandit_b2.png","70","","70","test","1","","57","","","","circle","square","55","12","3","0.9636363636363636","","","","","","","",""
"null","245600","SARL_v6","SARL_v6267aly3s","604a7e9f84bf0e7937200df5","freq_resp","","","img/orange_2bandit_b.png","70","img/orange_2bandit_b.png","70","test","","","","","","","","","","","3","","","","","","","","",""
"null","245754","SARL_v6","SARL_v6267aly3s","604a7e9f84bf0e7937200df5","fixation","","","img/fixation.png","null","","","test","","","","","","","","","","","","","","","","","","","",""
"271.5","246028","SARL_v6","SARL_v6267aly3s","604a7e9f84bf0e7937200df5","freq","","","img/orange_2bandit_b2.png","70","","70","test","1","","58","","","","circle","square","56","13","3","0.9642857142857143","","","","","","","",""
"null","246562","SARL_v6","SARL_v6267aly3s","604a7e9f84bf0e7937200df5","freq_resp","","","img/orange_2bandit_b.png","70","img/orange_2bandit_b.png","70","test","","","","","","","","","","","3","","","","","","","","",""
"null","246718","SARL_v6","SARL_v6267aly3s","604a7e9f84bf0e7937200df5","fixation","","","img/fixation.png","null","","","test","","","","","","","","","","","","","","","","","","","",""
"399","247120","SARL_v6","SARL_v6267aly3s","604a7e9f84bf0e7937200df5","infreq","","","img/blue_2bandit_b2.png","68","","68","test","1","","59","","","","circle","square","57","14","3","0.9649122807017544","","","","","","","",""
"null","247529","SARL_v6","SARL_v6267aly3s","604a7e9f84bf0e7937200df5","infreq_resp","","","img/blue_2bandit_b.png","68","img/blue_2bandit_b.png","68","test","","","","","","","","","","","3","","","","","","","","",""
"null","247684","SARL_v6","SARL_v6267aly3s","604a7e9f84bf0e7937200df5","fixation","","","img/fixation.png","null","","","test","","","","","","","","","","","","","","","","","","","",""
"401.29999999981374","248089","SARL_v6","SARL_v6267aly3s","604a7e9f84bf0e7937200df5","freq","","","img/orange_2bandit_b2.png","70","","70","test","1","","60","","","","circle","square","58","15","3","0.9655172413793104","","","","","","","",""
"null","248493","SARL_v6","SARL_v6267aly3s","604a7e9f84bf0e7937200df5","freq_resp","","","img/orange_2bandit_b.png","70","img/orange_2bandit_b.png","70","test","","","","","","","","","","","3","","","","","","","","",""
"null","248651","SARL_v6","SARL_v6267aly3s","604a7e9f84bf0e7937200df5","fixation","","","img/fixation.png","null","","","test","","","","","","","","","","","","","","","","","","","",""
"296.5","248949","SARL_v6","SARL_v6267aly3s","604a7e9f84bf0e7937200df5","freq","","","img/orange_2bandit_b2.png","70","","70","test","1","","61","","","","circle","square","59","16","3","0.9661016949152542","","","","","","","",""
"null","249459","SARL_v6","SARL_v6267aly3s","604a7e9f84bf0e7937200df5","freq_resp","","","img/orange_2bandit_b.png","70","img/orange_2bandit_b.png","70","test","","","","","","","","","","","3","","","","","","","","",""
"null","249614","SARL_v6","SARL_v6267aly3s","604a7e9f84bf0e7937200df5","fixation","","","img/fixation.png","null","","","test","","","","","","","","","","","","","","","","","","","",""
"204","249821","SARL_v6","SARL_v6267aly3s","604a7e9f84bf0e7937200df5","freq","","","img/orange_2bandit_b2.png","70","","70","test","1","","62","","","","circle","square","60","17","3","0.9666666666666667","","","","","","","",""
"null","250422","SARL_v6","SARL_v6267aly3s","604a7e9f84bf0e7937200df5","freq_resp","","","img/orange_2bandit_b.png","70","img/orange_2bandit_b.png","70","test","","","","","","","","","","","3","","","","","","","","",""
"null","250574","SARL_v6","SARL_v6267aly3s","604a7e9f84bf0e7937200df5","fixation","","","img/fixation.png","null","","","test","","","","","","","","","","","","","","","","","","","",""
"228.40000000037253","250804","SARL_v6","SARL_v6267aly3s","604a7e9f84bf0e7937200df5","freq","","","img/orange_2bandit_b2.png","70","","70","test","1","","63","","","","circle","square","61","18","3","0.9672131147540983","","","","","","","",""
"null","251387","SARL_v6","SARL_v6267aly3s","604a7e9f84bf0e7937200df5","freq_resp","","","img/orange_2bandit_b.png","70","img/orange_2bandit_b.png","70","test","","","","","","","","","","","3","","","","","","","","",""
"null","251543","SARL_v6","SARL_v6267aly3s","604a7e9f84bf0e7937200df5","fixation","","","img/fixation.png","null","","","test","","","","","","","","","","","","","","","","","","","",""
"145.59999999962747","251691","SARL_v6","SARL_v6267aly3s","604a7e9f84bf0e7937200df5","freq","","","img/orange_2bandit_b2.png","70","","70","test","1","","64","","","","circle","square","62","19","3","0.967741935483871","","","","","","","",""
"null","252353","SARL_v6","SARL_v6267aly3s","604a7e9f84bf0e7937200df5","freq_resp","","","img/orange_2bandit_b.png","70","img/orange_2bandit_b.png","70","test","","","","","","","","","","","3","","","","","","","","",""
"null","252508","SARL_v6","SARL_v6267aly3s","604a7e9f84bf0e7937200df5","fixation","","","img/fixation.png","null","","","test","","","","","","","","","","","","","","","","","","","",""
"163.79999999981374","252674","SARL_v6","SARL_v6267aly3s","604a7e9f84bf0e7937200df5","freq","","","img/orange_2bandit_b2.png","70","","70","test","1","","65","","","","circle","square","63","20","3","0.9682539682539683","","","","","","","",""
"null","253319","SARL_v6","SARL_v6267aly3s","604a7e9f84bf0e7937200df5","freq_resp","","","img/orange_2bandit_b.png","70","img/orange_2bandit_b.png","70","test","","","","","","","","","","","3","","","","","","","","",""
"null","253473","SARL_v6","SARL_v6267aly3s","604a7e9f84bf0e7937200df5","fixation","","","img/fixation.png","null","","","test","","","","","","","","","","","","","","","","","","","",""
"315.09999999962747","253790","SARL_v6","SARL_v6267aly3s","604a7e9f84bf0e7937200df5","infreq","","","img/blue_2bandit_b2.png","68","","68","test","1","","66","","","","circle","square","64","21","3","0.96875","","","","","","","",""
"null","254281","SARL_v6","SARL_v6267aly3s","604a7e9f84bf0e7937200df5","infreq_resp","","","img/blue_2bandit_b.png","68","img/blue_2bandit_b.png","68","test","","","","","","","","","","","3","","","","","","","","",""
"null","254434","SARL_v6","SARL_v6267aly3s","604a7e9f84bf0e7937200df5","fixation","","","img/fixation.png","null","","","test","","","","","","","","","","","","","","","","","","","",""
"358.5","254794","SARL_v6","SARL_v6267aly3s","604a7e9f84bf0e7937200df5","freq","","","img/orange_2bandit_b2.png","70","","70","test","1","","67","","","","circle","square","65","22","3","0.9692307692307692","","","","","","","",""
"null","255249","SARL_v6","SARL_v6267aly3s","604a7e9f84bf0e7937200df5","freq_resp","","","img/orange_2bandit_b.png","70","img/orange_2bandit_b.png","70","test","","","","","","","","","","","3","","","","","","","","",""
"null","255405","SARL_v6","SARL_v6267aly3s","604a7e9f84bf0e7937200df5","fixation","","","img/fixation.png","null","","","test","","","","","","","","","","","","","","","","","","","",""
"883","256290","SARL_v6","SARL_v6267aly3s","604a7e9f84bf0e7937200df5","rl","","","img/black_2bandit_b2.png","74","","0","test","","","68","","","-4","circle","square","","0","3","","74","-4","-8","-4","-8","circle","3","0"
"null","257056","SARL_v6","SARL_v6267aly3s","604a7e9f84bf0e7937200df5","feedback","","","<div class=""verylowPoints""> -4 </div>","null","","na","test","","","NaN","","","","","","","","3","","74","","","","","","3",""
"465.59999999962747","257523","SARL_v6","SARL_v6267aly3s","604a7e9f84bf0e7937200df5","freq","","","img/orange_2bandit_b2.png","70","","70","test","1","","69","","","","circle","square","66","1","4","0.9696969696969697","","","","","","","",""
"null","257866","SARL_v6","SARL_v6267aly3s","604a7e9f84bf0e7937200df5","freq_resp","","","img/orange_2bandit_b.png","70","img/orange_2bandit_b.png","70","test","","","","","","","","","","","4","","","","","","","","",""
"null","258019","SARL_v6","SARL_v6267aly3s","604a7e9f84bf0e7937200df5","fixation","","","img/fixation.png","null","","","test","","","","","","","","","","","","","","","","","","","",""
"372.5","258394","SARL_v6","SARL_v6267aly3s","604a7e9f84bf0e7937200df5","freq","","","img/orange_2bandit_b2.png","70","","70","test","1","","70","","","","circle","square","67","2","4","0.9701492537313433","","","","","","","",""
"null","258831","SARL_v6","SARL_v6267aly3s","604a7e9f84bf0e7937200df5","freq_resp","","","img/orange_2bandit_b.png","70","img/orange_2bandit_b.png","70","test","","","","","","","","","","","4","","","","","","","","",""
"null","258988","SARL_v6","SARL_v6267aly3s","604a7e9f84bf0e7937200df5","fixation","","","img/fixation.png","null","","","test","","","","","","","","","","","","","","","","","","","",""
"286.8999999994412","259277","SARL_v6","SARL_v6267aly3s","604a7e9f84bf0e7937200df5","freq","","","img/orange_2bandit_b2.png","70","","70","test","1","","71","","","","circle","square","68","3","4","0.9705882352941176","","","","","","","",""
"null","259797","SARL_v6","SARL_v6267aly3s","604a7e9f84bf0e7937200df5","freq_resp","","","img/orange_2bandit_b.png","70","img/orange_2bandit_b.png","70","test","","","","","","","","","","","4","","","","","","","","",""
"null","259952","SARL_v6","SARL_v6267aly3s","604a7e9f84bf0e7937200df5","fixation","","","img/fixation.png","null","","","test","","","","","","","","","","","","","","","","","","","",""
"152.20000000018626","260106","SARL_v6","SARL_v6267aly3s","604a7e9f84bf0e7937200df5","freq","","","img/orange_2bandit_b2.png","70","","70","test","1","","72","","","","circle","square","69","4","4","0.9710144927536232","","","","","","","",""
"null","260761","SARL_v6","SARL_v6267aly3s","604a7e9f84bf0e7937200df5","freq_resp","","","img/orange_2bandit_b.png","70","img/orange_2bandit_b.png","70","test","","","","","","","","","","","4","","","","","","","","",""
"null","260914","SARL_v6","SARL_v6267aly3s","604a7e9f84bf0e7937200df5","fixation","","","img/fixation.png","null","","","test","","","","","","","","","","","","","","","","","","","",""
"311.69999999925494","261228","SARL_v6","SARL_v6267aly3s","604a7e9f84bf0e7937200df5","freq","","","img/orange_2bandit_b2.png","70","","70","test","1","","73","","","","circle","square","70","5","4","0.9714285714285714","","","","","","","",""
"null","261727","SARL_v6","SARL_v6267aly3s","604a7e9f84bf0e7937200df5","freq_resp","","","img/orange_2bandit_b.png","70","img/orange_2bandit_b.png","70","test","","","","","","","","","","","4","","","","","","","","",""
"null","261880","SARL_v6","SARL_v6267aly3s","604a7e9f84bf0e7937200df5","fixation","","","img/fixation.png","null","","","test","","","","","","","","","","","","","","","","","","","",""
"182.3999999994412","262065","SARL_v6","SARL_v6267aly3s","604a7e9f84bf0e7937200df5","freq","","","img/orange_2bandit_b2.png","70","","70","test","1","","74","","","","circle","square","71","6","4","0.971830985915493","","","","","","","",""
"null","262694","SARL_v6","SARL_v6267aly3s","604a7e9f84bf0e7937200df5","freq_resp","","","img/orange_2bandit_b.png","70","img/orange_2bandit_b.png","70","test","","","","","","","","","","","4","","","","","","","","",""
"null","262847","SARL_v6","SARL_v6267aly3s","604a7e9f84bf0e7937200df5","fixation","","","img/fixation.png","null","","","test","","","","","","","","","","","","","","","","","","","",""
"301.30000000074506","263150","SARL_v6","SARL_v6267aly3s","604a7e9f84bf0e7937200df5","freq","","","img/orange_2bandit_b2.png","70","","70","test","1","","75","","","","circle","square","72","7","4","0.9722222222222222","","","","","","","",""
"null","263660","SARL_v6","SARL_v6267aly3s","604a7e9f84bf0e7937200df5","freq_resp","","","img/orange_2bandit_b.png","70","img/orange_2bandit_b.png","70","test","","","","","","","","","","","4","","","","","","","","",""
"null","263817","SARL_v6","SARL_v6267aly3s","604a7e9f84bf0e7937200df5","fixation","","","img/fixation.png","null","","","test","","","","","","","","","","","","","","","","","","","",""
"273.20000000018626","264092","SARL_v6","SARL_v6267aly3s","604a7e9f84bf0e7937200df5","freq","","","img/orange_2bandit_b2.png","70","","70","test","1","","76","","","","circle","square","73","8","4","0.9726027397260274","","","","","","","",""
"null","264627","SARL_v6","SARL_v6267aly3s","604a7e9f84bf0e7937200df5","freq_resp","","","img/orange_2bandit_b.png","70","img/orange_2bandit_b.png","70","test","","","","","","","","","","","4","","","","","","","","",""
"null","264780","SARL_v6","SARL_v6267aly3s","604a7e9f84bf0e7937200df5","fixation","","","img/fixation.png","null","","","test","","","","","","","","","","","","","","","","","","","",""
"249.20000000018626","265032","SARL_v6","SARL_v6267aly3s","604a7e9f84bf0e7937200df5","freq","","","img/orange_2bandit_b2.png","70","","70","test","1","","77","","","","circle","square","74","9","4","0.972972972972973","","","","","","","",""
"null","265594","SARL_v6","SARL_v6267aly3s","604a7e9f84bf0e7937200df5","freq_resp","","","img/orange_2bandit_b.png","70","img/orange_2bandit_b.png","70","test","","","","","","","","","","","4","","","","","","","","",""
"null","265748","SARL_v6","SARL_v6267aly3s","604a7e9f84bf0e7937200df5","fixation","","","img/fixation.png","null","","","test","","","","","","","","","","","","","","","","","","","",""
"231.6000000005588","265982","SARL_v6","SARL_v6267aly3s","604a7e9f84bf0e7937200df5","freq","","","img/orange_2bandit_b2.png","70","","70","test","1","","78","","","","circle","square","75","10","4","0.9733333333333334","","","","","","","",""
"null","266559","SARL_v6","SARL_v6267aly3s","604a7e9f84bf0e7937200df5","freq_resp","","","img/orange_2bandit_b.png","70","img/orange_2bandit_b.png","70","test","","","","","","","","","","","4","","","","","","","","",""
"null","266717","SARL_v6","SARL_v6267aly3s","604a7e9f84bf0e7937200df5","fixation","","","img/fixation.png","null","","","test","","","","","","","","","","","","","","","","","","","",""
"119.09999999962747","266838","SARL_v6","SARL_v6267aly3s","604a7e9f84bf0e7937200df5","freq","","","img/orange_2bandit_b2.png","70","","70","test","1","","79","","","","circle","square","76","11","4","0.9736842105263158","","","","","","","",""
"null","267523","SARL_v6","SARL_v6267aly3s","604a7e9f84bf0e7937200df5","freq_resp","","","img/orange_2bandit_b.png","70","img/orange_2bandit_b.png","70","test","","","","","","","","","","","4","","","","","","","","",""
"null","267682","SARL_v6","SARL_v6267aly3s","604a7e9f84bf0e7937200df5","fixation","","","img/fixation.png","null","","","test","","","","","","","","","","","","","","","","","","","",""
"279.1000000005588","267963","SARL_v6","SARL_v6267aly3s","604a7e9f84bf0e7937200df5","freq","","","img/orange_2bandit_b2.png","70","","70","test","1","","80","","","","circle","square","77","12","4","0.974025974025974","","","","","","","",""
"null","268487","SARL_v6","SARL_v6267aly3s","604a7e9f84bf0e7937200df5","freq_resp","","","img/orange_2bandit_b.png","70","img/orange_2bandit_b.png","70","test","","","","","","","","","","","4","","","","","","","","",""
"null","268642","SARL_v6","SARL_v6267aly3s","604a7e9f84bf0e7937200df5","fixation","","","img/fixation.png","null","","","test","","","","","","","","","","","","","","","","","","","",""
"254.09999999962747","268899","SARL_v6","SARL_v6267aly3s","604a7e9f84bf0e7937200df5","freq","","","img/orange_2bandit_b2.png","70","","70","test","1","","81","","","","circle","square","78","13","4","0.9743589743589743","","","","","","","",""
"null","269451","SARL_v6","SARL_v6267aly3s","604a7e9f84bf0e7937200df5","freq_resp","","","img/orange_2bandit_b.png","70","img/orange_2bandit_b.png","70","test","","","","","","","","","","","4","","","","","","","","",""
"null","269605","SARL_v6","SARL_v6267aly3s","604a7e9f84bf0e7937200df5","fixation","","","img/fixation.png","null","","","test","","","","","","","","","","","","","","","","","","","",""
"134","269741","SARL_v6","SARL_v6267aly3s","604a7e9f84bf0e7937200df5","freq","","","img/orange_2bandit_b2.png","70","","70","test","1","","82","","","","circle","square","79","14","4","0.9746835443037974","","","","","","","",""
"null","270418","SARL_v6","SARL_v6267aly3s","604a7e9f84bf0e7937200df5","freq_resp","","","img/orange_2bandit_b.png","70","img/orange_2bandit_b.png","70","test","","","","","","","","","","","4","","","","","","","","",""
"null","270571","SARL_v6","SARL_v6267aly3s","604a7e9f84bf0e7937200df5","fixation","","","img/fixation.png","null","","","test","","","","","","","","","","","","","","","","","","","",""
"248.5","270821","SARL_v6","SARL_v6267aly3s","604a7e9f84bf0e7937200df5","freq","","","img/orange_2bandit_b2.png","70","","70","test","1","","83","","","","circle","square","80","15","4","0.975","","","","","","","",""
"null","271382","SARL_v6","SARL_v6267aly3s","604a7e9f84bf0e7937200df5","freq_resp","","","img/orange_2bandit_b.png","70","img/orange_2bandit_b.png","70","test","","","","","","","","","","","4","","","","","","","","",""
"null","271535","SARL_v6","SARL_v6267aly3s","604a7e9f84bf0e7937200df5","fixation","","","img/fixation.png","null","","","test","","","","","","","","","","","","","","","","","","","",""
"402.20000000018626","271940","SARL_v6","SARL_v6267aly3s","604a7e9f84bf0e7937200df5","freq","","","img/orange_2bandit_b2.png","70","","70","test","1","","84","","","","circle","square","81","16","4","0.9753086419753086","","","","","","","",""
"null","272344","SARL_v6","SARL_v6267aly3s","604a7e9f84bf0e7937200df5","freq_resp","","","img/orange_2bandit_b.png","70","img/orange_2bandit_b.png","70","test","","","","","","","","","","","4","","","","","","","","",""
"null","272500","SARL_v6","SARL_v6267aly3s","604a7e9f84bf0e7937200df5","fixation","","","img/fixation.png","null","","","test","","","","","","","","","","","","","","","","","","","",""
"563.0999999996275","273065","SARL_v6","SARL_v6267aly3s","604a7e9f84bf0e7937200df5","freq","","","img/orange_2bandit_b2.png","70","","70","test","1","","85","","","","circle","square","82","17","4","0.975609756097561","","","","","","","",""
"null","273307","SARL_v6","SARL_v6267aly3s","604a7e9f84bf0e7937200df5","freq_resp","","","img/orange_2bandit_b.png","70","img/orange_2bandit_b.png","70","test","","","","","","","","","","","4","","","","","","","","",""
"null","273460","SARL_v6","SARL_v6267aly3s","604a7e9f84bf0e7937200df5","fixation","","","img/fixation.png","null","","","test","","","","","","","","","","","","","","","","","","","",""
"330.70000000018626","273792","SARL_v6","SARL_v6267aly3s","604a7e9f84bf0e7937200df5","freq","","","img/orange_2bandit_b2.png","70","","70","test","1","","86","","","","circle","square","83","18","4","0.9759036144578314","","","","","","","",""
"null","274273","SARL_v6","SARL_v6267aly3s","604a7e9f84bf0e7937200df5","freq_resp","","","img/orange_2bandit_b.png","70","img/orange_2bandit_b.png","70","test","","","","","","","","","","","4","","","","","","","","",""
"null","274429","SARL_v6","SARL_v6267aly3s","604a7e9f84bf0e7937200df5","fixation","","","img/fixation.png","null","","","test","","","","","","","","","","","","","","","","","","","",""
"300.20000000018626","274733","SARL_v6","SARL_v6267aly3s","604a7e9f84bf0e7937200df5","freq","","","img/orange_2bandit_b2.png","70","","70","test","1","","87","","","","circle","square","84","19","4","0.9761904761904762","","","","","","","",""
"null","275238","SARL_v6","SARL_v6267aly3s","604a7e9f84bf0e7937200df5","freq_resp","","","img/orange_2bandit_b.png","70","img/orange_2bandit_b.png","70","test","","","","","","","","","","","4","","","","","","","","",""
"null","275391","SARL_v6","SARL_v6267aly3s","604a7e9f84bf0e7937200df5","fixation","","","img/fixation.png","null","","","test","","","","","","","","","","","","","","","","","","","",""
"263.70000000018626","275657","SARL_v6","SARL_v6267aly3s","604a7e9f84bf0e7937200df5","freq","","","img/orange_2bandit_b2.png","70","","70","test","1","","88","","","","circle","square","85","20","4","0.9764705882352941","","","","","","","",""
"null","276202","SARL_v6","SARL_v6267aly3s","604a7e9f84bf0e7937200df5","freq_resp","","","img/orange_2bandit_b.png","70","img/orange_2bandit_b.png","70","test","","","","","","","","","","","4","","","","","","","","",""
"null","276354","SARL_v6","SARL_v6267aly3s","604a7e9f84bf0e7937200df5","fixation","","","img/fixation.png","null","","","test","","","","","","","","","","","","","","","","","","","",""
"365.20000000018626","276721","SARL_v6","SARL_v6267aly3s","604a7e9f84bf0e7937200df5","infreq","","","img/blue_2bandit_b2.png","68","","68","test","1","","89","","","","circle","square","86","21","4","0.9767441860465116","","","","","","","",""
"null","277167","SARL_v6","SARL_v6267aly3s","604a7e9f84bf0e7937200df5","infreq_resp","","","img/blue_2bandit_b.png","68","img/blue_2bandit_b.png","68","test","","","","","","","","","","","4","","","","","","","","",""
"null","277324","SARL_v6","SARL_v6267aly3s","604a7e9f84bf0e7937200df5","fixation","","","img/fixation.png","null","","","test","","","","","","","","","","","","","","","","","","","",""
"352.19999999925494","277679","SARL_v6","SARL_v6267aly3s","604a7e9f84bf0e7937200df5","freq","","","img/orange_2bandit_b2.png","70","","70","test","1","","90","","","","circle","square","87","22","4","0.9770114942528736","","","","","","","",""
"null","278134","SARL_v6","SARL_v6267aly3s","604a7e9f84bf0e7937200df5","freq_resp","","","img/orange_2bandit_b.png","70","img/orange_2bandit_b.png","70","test","","","","","","","","","","","4","","","","","","","","",""
"null","278287","SARL_v6","SARL_v6267aly3s","604a7e9f84bf0e7937200df5","fixation","","","img/fixation.png","null","","","test","","","","","","","","","","","","","","","","","","","",""
"377.5","278667","SARL_v6","SARL_v6267aly3s","604a7e9f84bf0e7937200df5","infreq","","","img/blue_2bandit_b2.png","68","","68","test","1","","91","","","","circle","square","88","23","4","0.9772727272727273","","","","","","","",""
"null","279100","SARL_v6","SARL_v6267aly3s","604a7e9f84bf0e7937200df5","infreq_resp","","","img/blue_2bandit_b.png","68","img/blue_2bandit_b.png","68","test","","","","","","","","","","","4","","","","","","","","",""
"null","279254","SARL_v6","SARL_v6267aly3s","604a7e9f84bf0e7937200df5","fixation","","","img/fixation.png","null","","","test","","","","","","","","","","","","","","","","","","","",""
"338.30000000074506","279594","SARL_v6","SARL_v6267aly3s","604a7e9f84bf0e7937200df5","freq","","","img/orange_2bandit_b2.png","70","","70","test","1","","92","","","","circle","square","89","24","4","0.9775280898876404","","","","","","","",""
"null","280061","SARL_v6","SARL_v6267aly3s","604a7e9f84bf0e7937200df5","freq_resp","","","img/orange_2bandit_b.png","70","img/orange_2bandit_b.png","70","test","","","","","","","","","","","4","","","","","","","","",""
"null","280218","SARL_v6","SARL_v6267aly3s","604a7e9f84bf0e7937200df5","fixation","","","img/fixation.png","null","","","test","","","","","","","","","","","","","","","","","","","",""
"348.5","280569","SARL_v6","SARL_v6267aly3s","604a7e9f84bf0e7937200df5","freq","","","img/orange_2bandit_b2.png","70","","70","test","1","","93","","","","circle","square","90","25","4","0.9777777777777777","","","","","","","",""
"null","281028","SARL_v6","SARL_v6267aly3s","604a7e9f84bf0e7937200df5","freq_resp","","","img/orange_2bandit_b.png","70","img/orange_2bandit_b.png","70","test","","","","","","","","","","","4","","","","","","","","",""
"null","281183","SARL_v6","SARL_v6267aly3s","604a7e9f84bf0e7937200df5","fixation","","","img/fixation.png","null","","","test","","","","","","","","","","","","","","","","","","","",""
"1078.8999999994412","282264","SARL_v6","SARL_v6267aly3s","604a7e9f84bf0e7937200df5","rl","","","img/black_2bandit_b2.png","74","","0","test","","","94","","","0","circle","square","","0","4","","74","0","-12","0","-12","circle","4","0"
"null","283023","SARL_v6","SARL_v6267aly3s","604a7e9f84bf0e7937200df5","feedback","","","<div class=""verylowPoints""> 0 </div>","null","","na","test","","","NaN","","","","","","","","4","","74","","","","","","4",""
"446.69999999925494","283472","SARL_v6","SARL_v6267aly3s","604a7e9f84bf0e7937200df5","freq","","","img/orange_2bandit_b2.png","70","","70","test","1","","95","","","","circle","square","91","1","5","0.978021978021978","","","","","","","",""
"null","283834","SARL_v6","SARL_v6267aly3s","604a7e9f84bf0e7937200df5","freq_resp","","","img/orange_2bandit_b.png","70","img/orange_2bandit_b.png","70","test","","","","","","","","","","","5","","","","","","","","",""
"null","283991","SARL_v6","SARL_v6267aly3s","604a7e9f84bf0e7937200df5","fixation","","","img/fixation.png","null","","","test","","","","","","","","","","","","","","","","","","","",""
"410.29999999981374","284403","SARL_v6","SARL_v6267aly3s","604a7e9f84bf0e7937200df5","freq","","","img/orange_2bandit_b2.png","70","","70","test","1","","96","","","","circle","square","92","2","5","0.9782608695652174","","","","","","","",""
"null","284800","SARL_v6","SARL_v6267aly3s","604a7e9f84bf0e7937200df5","freq_resp","","","img/orange_2bandit_b.png","70","img/orange_2bandit_b.png","70","test","","","","","","","","","","","5","","","","","","","","",""
"null","284956","SARL_v6","SARL_v6267aly3s","604a7e9f84bf0e7937200df5","fixation","","","img/fixation.png","null","","","test","","","","","","","","","","","","","","","","","","","",""
"407.5","285366","SARL_v6","SARL_v6267aly3s","604a7e9f84bf0e7937200df5","freq","","","img/orange_2bandit_b2.png","70","","70","test","1","","97","","","","circle","square","93","3","5","0.978494623655914","","","","","","","",""
"null","285764","SARL_v6","SARL_v6267aly3s","604a7e9f84bf0e7937200df5","freq_resp","","","img/orange_2bandit_b.png","70","img/orange_2bandit_b.png","70","test","","","","","","","","","","","5","","","","","","","","",""
"null","285921","SARL_v6","SARL_v6267aly3s","604a7e9f84bf0e7937200df5","fixation","","","img/fixation.png","null","","","test","","","","","","","","","","","","","","","","","","","",""
"327.5","286250","SARL_v6","SARL_v6267aly3s","604a7e9f84bf0e7937200df5","freq","","","img/orange_2bandit_b2.png","70","","70","test","1","","98","","","","circle","square","94","4","5","0.9787234042553191","","","","","","","",""
"null","286732","SARL_v6","SARL_v6267aly3s","604a7e9f84bf0e7937200df5","freq_resp","","","img/orange_2bandit_b.png","70","img/orange_2bandit_b.png","70","test","","","","","","","","","","","5","","","","","","","","",""
"null","286885","SARL_v6","SARL_v6267aly3s","604a7e9f84bf0e7937200df5","fixation","","","img/fixation.png","null","","","test","","","","","","","","","","","","","","","","","","","",""
"378.8999999994412","287267","SARL_v6","SARL_v6267aly3s","604a7e9f84bf0e7937200df5","freq","","","img/orange_2bandit_b2.png","70","","70","test","1","","99","","","","circle","square","95","5","5","0.9789473684210527","","","","","","","",""
"null","287695","SARL_v6","SARL_v6267aly3s","604a7e9f84bf0e7937200df5","freq_resp","","","img/orange_2bandit_b.png","70","img/orange_2bandit_b.png","70","test","","","","","","","","","","","5","","","","","","","","",""
"null","287852","SARL_v6","SARL_v6267aly3s","604a7e9f84bf0e7937200df5","fixation","","","img/fixation.png","null","","","test","","","","","","","","","","","","","","","","","","","",""
"359.3999999994412","288213","SARL_v6","SARL_v6267aly3s","604a7e9f84bf0e7937200df5","freq","","","img/orange_2bandit_b2.png","70","","70","test","1","","100","","","","circle","square","96","6","5","0.9791666666666666","","","","","","","",""
"null","288662","SARL_v6","SARL_v6267aly3s","604a7e9f84bf0e7937200df5","freq_resp","","","img/orange_2bandit_b.png","70","img/orange_2bandit_b.png","70","test","","","","","","","","","","","5","","","","","","","","",""
"null","288819","SARL_v6","SARL_v6267aly3s","604a7e9f84bf0e7937200df5","fixation","","","img/fixation.png","null","","","test","","","","","","","","","","","","","","","","","","","",""
"316.6000000005588","289138","SARL_v6","SARL_v6267aly3s","604a7e9f84bf0e7937200df5","freq","","","img/orange_2bandit_b2.png","70","","70","test","1","","101","","","","circle","square","97","7","5","0.979381443298969","","","","","","","",""
"null","289628","SARL_v6","SARL_v6267aly3s","604a7e9f84bf0e7937200df5","freq_resp","","","img/orange_2bandit_b.png","70","img/orange_2bandit_b.png","70","test","","","","","","","","","","","5","","","","","","","","",""
"null","289780","SARL_v6","SARL_v6267aly3s","604a7e9f84bf0e7937200df5","fixation","","","img/fixation.png","null","","","test","","","","","","","","","","","","","","","","","","","",""
"271.6000000005588","290054","SARL_v6","SARL_v6267aly3s","604a7e9f84bf0e7937200df5","freq","","","img/orange_2bandit_b2.png","70","","70","test","1","","102","","","","circle","square","98","8","5","0.9795918367346939","","","","","","","",""
"null","290595","SARL_v6","SARL_v6267aly3s","604a7e9f84bf0e7937200df5","freq_resp","","","img/orange_2bandit_b.png","70","img/orange_2bandit_b.png","70","test","","","","","","","","","","","5","","","","","","","","",""
"null","290751","SARL_v6","SARL_v6267aly3s","604a7e9f84bf0e7937200df5","fixation","","","img/fixation.png","null","","","test","","","","","","","","","","","","","","","","","","","",""
"287.59999999962747","291041","SARL_v6","SARL_v6267aly3s","604a7e9f84bf0e7937200df5","freq","","","img/orange_2bandit_b2.png","70","","70","test","1","","103","","","","circle","square","99","9","5","0.9797979797979798","","","","","","","",""
"null","291559","SARL_v6","SARL_v6267aly3s","604a7e9f84bf0e7937200df5","freq_resp","","","img/orange_2bandit_b.png","70","img/orange_2bandit_b.png","70","test","","","","","","","","","","","5","","","","","","","","",""
"null","291712","SARL_v6","SARL_v6267aly3s","604a7e9f84bf0e7937200df5","fixation","","","img/fixation.png","null","","","test","","","","","","","","","","","","","","","","","","","",""
"155.30000000074506","291870","SARL_v6","SARL_v6267aly3s","604a7e9f84bf0e7937200df5","freq","","","img/orange_2bandit_b2.png","70","","70","test","1","","104","","","","circle","square","100","10","5","0.98","","","","","","","",""
"null","292526","SARL_v6","SARL_v6267aly3s","604a7e9f84bf0e7937200df5","freq_resp","","","img/orange_2bandit_b.png","70","img/orange_2bandit_b.png","70","test","","","","","","","","","","","5","","","","","","","","",""
"null","292680","SARL_v6","SARL_v6267aly3s","604a7e9f84bf0e7937200df5","fixation","","","img/fixation.png","null","","","test","","","","","","","","","","","","","","","","","","","",""
"212.90000000037253","292896","SARL_v6","SARL_v6267aly3s","604a7e9f84bf0e7937200df5","freq","","","img/orange_2bandit_b2.png","70","","70","test","1","","105","","","","circle","square","101","11","5","0.9801980198019802","","","","","","","",""
"null","293487","SARL_v6","SARL_v6267aly3s","604a7e9f84bf0e7937200df5","freq_resp","","","img/orange_2bandit_b.png","70","img/orange_2bandit_b.png","70","test","","","","","","","","","","","5","","","","","","","","",""
"null","293641","SARL_v6","SARL_v6267aly3s","604a7e9f84bf0e7937200df5","fixation","","","img/fixation.png","null","","","test","","","","","","","","","","","","","","","","","","","",""
"338.8999999994412","293982","SARL_v6","SARL_v6267aly3s","604a7e9f84bf0e7937200df5","freq","","","img/orange_2bandit_b2.png","70","","70","test","1","","106","","","","circle","square","102","12","5","0.9803921568627451","","","","","","","",""
"null","294455","SARL_v6","SARL_v6267aly3s","604a7e9f84bf0e7937200df5","freq_resp","","","img/orange_2bandit_b.png","70","img/orange_2bandit_b.png","70","test","","","","","","","","","","","5","","","","","","","","",""
"null","294608","SARL_v6","SARL_v6267aly3s","604a7e9f84bf0e7937200df5","fixation","","","img/fixation.png","null","","","test","","","","","","","","","","","","","","","","","","","",""
"244.09999999962747","294854","SARL_v6","SARL_v6267aly3s","604a7e9f84bf0e7937200df5","freq","","","img/orange_2bandit_b2.png","70","","70","test","1","","107","","","","circle","square","103","13","5","0.9805825242718447","","","","","","","",""
"null","295419","SARL_v6","SARL_v6267aly3s","604a7e9f84bf0e7937200df5","freq_resp","","","img/orange_2bandit_b.png","70","img/orange_2bandit_b.png","70","test","","","","","","","","","","","5","","","","","","","","",""
"null","295572","SARL_v6","SARL_v6267aly3s","604a7e9f84bf0e7937200df5","fixation","","","img/fixation.png","null","","","test","","","","","","","","","","","","","","","","","","","",""
"251.80000000074506","295826","SARL_v6","SARL_v6267aly3s","604a7e9f84bf0e7937200df5","freq","","","img/orange_2bandit_b2.png","70","","70","test","1","","108","","","","circle","square","104","14","5","0.9807692307692307","","","","","","","",""
"null","296384","SARL_v6","SARL_v6267aly3s","604a7e9f84bf0e7937200df5","freq_resp","","","img/orange_2bandit_b.png","70","img/orange_2bandit_b.png","70","test","","","","","","","","","","","5","","","","","","","","",""
"null","296536","SARL_v6","SARL_v6267aly3s","604a7e9f84bf0e7937200df5","fixation","","","img/fixation.png","null","","","test","","","","","","","","","","","","","","","","","","","",""
"264.79999999981374","296803","SARL_v6","SARL_v6267aly3s","604a7e9f84bf0e7937200df5","freq","","","img/orange_2bandit_b2.png","70","","70","test","1","","109","","","","circle","square","105","15","5","0.9809523809523809","","","","","","","",""
"null","297348","SARL_v6","SARL_v6267aly3s","604a7e9f84bf0e7937200df5","freq_resp","","","img/orange_2bandit_b.png","70","img/orange_2bandit_b.png","70","test","","","","","","","","","","","5","","","","","","","","",""
"null","297502","SARL_v6","SARL_v6267aly3s","604a7e9f84bf0e7937200df5","fixation","","","img/fixation.png","null","","","test","","","","","","","","","","","","","","","","","","","",""
"240.20000000018626","297744","SARL_v6","SARL_v6267aly3s","604a7e9f84bf0e7937200df5","freq","","","img/orange_2bandit_b2.png","70","","70","test","1","","110","","","","circle","square","106","16","5","0.9811320754716981","","","","","","","",""
"null","298316","SARL_v6","SARL_v6267aly3s","604a7e9f84bf0e7937200df5","freq_resp","","","img/orange_2bandit_b.png","70","img/orange_2bandit_b.png","70","test","","","","","","","","","","","5","","","","","","","","",""
"null","298468","SARL_v6","SARL_v6267aly3s","604a7e9f84bf0e7937200df5","fixation","","","img/fixation.png","null","","","test","","","","","","","","","","","","","","","","","","","",""
"213.29999999981374","298683","SARL_v6","SARL_v6267aly3s","604a7e9f84bf0e7937200df5","freq","","","img/orange_2bandit_b2.png","70","","70","test","1","","111","","","","circle","square","107","17","5","0.9813084112149533","","","","","","","",""
"null","299281","SARL_v6","SARL_v6267aly3s","604a7e9f84bf0e7937200df5","freq_resp","","","img/orange_2bandit_b.png","70","img/orange_2bandit_b.png","70","test","","","","","","","","","","","5","","","","","","","","",""
"null","299439","SARL_v6","SARL_v6267aly3s","604a7e9f84bf0e7937200df5","fixation","","","img/fixation.png","null","","","test","","","","","","","","","","","","","","","","","","","",""
"321.6000000005588","299763","SARL_v6","SARL_v6267aly3s","604a7e9f84bf0e7937200df5","freq","","","img/orange_2bandit_b2.png","70","","70","test","1","","112","","","","circle","square","108","18","5","0.9814814814814815","","","","","","","",""
"null","300251","SARL_v6","SARL_v6267aly3s","604a7e9f84bf0e7937200df5","freq_resp","","","img/orange_2bandit_b.png","70","img/orange_2bandit_b.png","70","test","","","","","","","","","","","5","","","","","","","","",""
"null","300403","SARL_v6","SARL_v6267aly3s","604a7e9f84bf0e7937200df5","fixation","","","img/fixation.png","null","","","test","","","","","","","","","","","","","","","","","","","",""
"275.29999999981374","300681","SARL_v6","SARL_v6267aly3s","604a7e9f84bf0e7937200df5","freq","","","img/orange_2bandit_b2.png","70","","70","test","1","","113","","","","circle","square","109","19","5","0.981651376146789","","","","","","","",""
"null","301211","SARL_v6","SARL_v6267aly3s","604a7e9f84bf0e7937200df5","freq_resp","","","img/orange_2bandit_b.png","70","img/orange_2bandit_b.png","70","test","","","","","","","","","","","5","","","","","","","","",""
"null","301368","SARL_v6","SARL_v6267aly3s","604a7e9f84bf0e7937200df5","fixation","","","img/fixation.png","null","","","test","","","","","","","","","","","","","","","","","","","",""
"248.90000000037253","301620","SARL_v6","SARL_v6267aly3s","604a7e9f84bf0e7937200df5","freq","","","img/orange_2bandit_b2.png","70","","70","test","1","","114","","","","circle","square","110","20","5","0.9818181818181818","","","","","","","",""
"null","302179","SARL_v6","SARL_v6267aly3s","604a7e9f84bf0e7937200df5","freq_resp","","","img/orange_2bandit_b.png","70","img/orange_2bandit_b.png","70","test","","","","","","","","","","","5","","","","","","","","",""
"null","302334","SARL_v6","SARL_v6267aly3s","604a7e9f84bf0e7937200df5","fixation","","","img/fixation.png","null","","","test","","","","","","","","","","","","","","","","","","","",""
"146.19999999925494","302483","SARL_v6","SARL_v6267aly3s","604a7e9f84bf0e7937200df5","infreq","","","img/blue_2bandit_b2.png","70","","68","test","0","","115","","","","circle","square","111","21","5","0.972972972972973","","","","","","","",""
"null","303140","SARL_v6","SARL_v6267aly3s","604a7e9f84bf0e7937200df5","infreq_resp","","","img/blue_2bandit_b.png","70","img/blue_2bandit_b.png","68","test","","","","","","","","","","","5","","","","","","","","",""
"null","303298","SARL_v6","SARL_v6267aly3s","604a7e9f84bf0e7937200df5","fixation","","","img/fixation.png","null","","","test","","","","","","","","","","","","","","","","","","","",""
"417.20000000018626","303718","SARL_v6","SARL_v6267aly3s","604a7e9f84bf0e7937200df5","infreq","","","img/blue_2bandit_b2.png","68","","68","test","1","","116","","","","circle","square","112","22","5","0.9732142857142857","","","","","","","",""
"null","304109","SARL_v6","SARL_v6267aly3s","604a7e9f84bf0e7937200df5","infreq_resp","","","img/blue_2bandit_b.png","68","img/blue_2bandit_b.png","68","test","","","","","","","","","","","5","","","","","","","","",""
"null","304266","SARL_v6","SARL_v6267aly3s","604a7e9f84bf0e7937200df5","fixation","","","img/fixation.png","null","","","test","","","","","","","","","","","","","","","","","","","",""
"357.29999999981374","304625","SARL_v6","SARL_v6267aly3s","604a7e9f84bf0e7937200df5","freq","","","img/orange_2bandit_b2.png","70","","70","test","1","","117","","","","circle","square","113","23","5","0.9734513274336283","","","","","","","",""
"null","305078","SARL_v6","SARL_v6267aly3s","604a7e9f84bf0e7937200df5","freq_resp","","","img/orange_2bandit_b.png","70","img/orange_2bandit_b.png","70","test","","","","","","","","","","","5","","","","","","","","",""
"null","305231","SARL_v6","SARL_v6267aly3s","604a7e9f84bf0e7937200df5","fixation","","","img/fixation.png","null","","","test","","","","","","","","","","","","","","","","","","","",""
"360.3999999994412","305595","SARL_v6","SARL_v6267aly3s","604a7e9f84bf0e7937200df5","freq","","","img/orange_2bandit_b2.png","70","","70","test","1","","118","","","","circle","square","114","24","5","0.9736842105263158","","","","","","","",""
"null","306040","SARL_v6","SARL_v6267aly3s","604a7e9f84bf0e7937200df5","freq_resp","","","img/orange_2bandit_b.png","70","img/orange_2bandit_b.png","70","test","","","","","","","","","","","5","","","","","","","","",""
"null","306196","SARL_v6","SARL_v6267aly3s","604a7e9f84bf0e7937200df5","fixation","","","img/fixation.png","null","","","test","","","","","","","","","","","","","","","","","","","",""
"818.5","307017","SARL_v6","SARL_v6267aly3s","604a7e9f84bf0e7937200df5","rl","","","img/black_2bandit_b2.png","74","","0","test","","","119","","","4","circle","square","","0","5","","74","4","-7","4","-7","circle","5","0"
"null","307782","SARL_v6","SARL_v6267aly3s","604a7e9f84bf0e7937200df5","feedback","","","<div class=""veryhighPoints""> 4 </div>","null","","na","test","","","NaN","","","","","","","","5","","74","","","","","","5",""
"475","308260","SARL_v6","SARL_v6267aly3s","604a7e9f84bf0e7937200df5","freq","","","img/orange_2bandit_b2.png","70","","70","test","1","","120","","","","circle","square","115","1","6","0.9739130434782609","","","","","","","",""
"null","308590","SARL_v6","SARL_v6267aly3s","604a7e9f84bf0e7937200df5","freq_resp","","","img/orange_2bandit_b.png","70","img/orange_2bandit_b.png","70","test","","","","","","","","","","","6","","","","","","","","",""
"null","308747","SARL_v6","SARL_v6267aly3s","604a7e9f84bf0e7937200df5","fixation","","","img/fixation.png","null","","","test","","","","","","","","","","","","","","","","","","","",""
"247.5","308997","SARL_v6","SARL_v6267aly3s","604a7e9f84bf0e7937200df5","freq","","","img/orange_2bandit_b2.png","70","","70","test","1","","121","","","","circle","square","116","2","6","0.9741379310344828","","","","","","","",""
"null","309562","SARL_v6","SARL_v6267aly3s","604a7e9f84bf0e7937200df5","freq_resp","","","img/orange_2bandit_b.png","70","img/orange_2bandit_b.png","70","test","","","","","","","","","","","6","","","","","","","","",""
"null","309715","SARL_v6","SARL_v6267aly3s","604a7e9f84bf0e7937200df5","fixation","","","img/fixation.png","null","","","test","","","","","","","","","","","","","","","","","","","",""
"115.3999999994412","309833","SARL_v6","SARL_v6267aly3s","604a7e9f84bf0e7937200df5","freq","","","img/orange_2bandit_b2.png","70","","70","test","1","","122","","","","circle","square","117","3","6","0.9743589743589743","","","","","","","",""
"null","310530","SARL_v6","SARL_v6267aly3s","604a7e9f84bf0e7937200df5","freq_resp","","","img/orange_2bandit_b.png","70","img/orange_2bandit_b.png","70","test","","","","","","","","","","","6","","","","","","","","",""
"null","310683","SARL_v6","SARL_v6267aly3s","604a7e9f84bf0e7937200df5","fixation","","","img/fixation.png","null","","","test","","","","","","","","","","","","","","","","","","","",""
"81.09999999962747","310766","SARL_v6","SARL_v6267aly3s","604a7e9f84bf0e7937200df5","infreq","","","img/blue_2bandit_b2.png","70","","68","test","0","","123","","","","circle","square","118","4","6","0.9661016949152542","","","","","","","",""
"null","311494","SARL_v6","SARL_v6267aly3s","604a7e9f84bf0e7937200df5","infreq_resp","","","img/blue_2bandit_b.png","70","img/blue_2bandit_b.png","68","test","","","","","","","","","","","6","","","","","","","","",""
"null","311650","SARL_v6","SARL_v6267aly3s","604a7e9f84bf0e7937200df5","fixation","","","img/fixation.png","null","","","test","","","","","","","","","","","","","","","","","","","",""
"346","311998","SARL_v6","SARL_v6267aly3s","604a7e9f84bf0e7937200df5","freq","","","img/orange_2bandit_b2.png","70","","70","test","1","","124","","","","circle","square","119","5","6","0.9663865546218487","","","","","","","",""
"null","312459","SARL_v6","SARL_v6267aly3s","604a7e9f84bf0e7937200df5","freq_resp","","","img/orange_2bandit_b.png","70","img/orange_2bandit_b.png","70","test","","","","","","","","","","","6","","","","","","","","",""
"null","312616","SARL_v6","SARL_v6267aly3s","604a7e9f84bf0e7937200df5","fixation","","","img/fixation.png","null","","","test","","","","","","","","","","","","","","","","","","","",""
"309.8999999994412","312928","SARL_v6","SARL_v6267aly3s","604a7e9f84bf0e7937200df5","freq","","","img/orange_2bandit_b2.png","70","","70","test","1","","125","","","","circle","square","120","6","6","0.9666666666666667","","","","","","","",""
"null","313427","SARL_v6","SARL_v6267aly3s","604a7e9f84bf0e7937200df5","freq_resp","","","img/orange_2bandit_b.png","70","img/orange_2bandit_b.png","70","test","","","","","","","","","","","6","","","","","","","","",""
"null","313582","SARL_v6","SARL_v6267aly3s","604a7e9f84bf0e7937200df5","fixation","","","img/fixation.png","null","","","test","","","","","","","","","","","","","","","","","","","",""
"237.40000000037253","313821","SARL_v6","SARL_v6267aly3s","604a7e9f84bf0e7937200df5","freq","","","img/orange_2bandit_b2.png","70","","70","test","1","","126","","","","circle","square","121","7","6","0.9669421487603306","","","","","","","",""
"null","314393","SARL_v6","SARL_v6267aly3s","604a7e9f84bf0e7937200df5","freq_resp","","","img/orange_2bandit_b.png","70","img/orange_2bandit_b.png","70","test","","","","","","","","","","","6","","","","","","","","",""
"null","314548","SARL_v6","SARL_v6267aly3s","604a7e9f84bf0e7937200df5","fixation","","","img/fixation.png","null","","","test","","","","","","","","","","","","","","","","","","","",""
"516.7000000001863","315067","SARL_v6","SARL_v6267aly3s","604a7e9f84bf0e7937200df5","freq","","","img/orange_2bandit_b2.png","70","","70","test","1","","127","","","","circle","square","122","8","6","0.9672131147540983","","","","","","","",""
"null","315356","SARL_v6","SARL_v6267aly3s","604a7e9f84bf0e7937200df5","freq_resp","","","img/orange_2bandit_b.png","70","img/orange_2bandit_b.png","70","test","","","","","","","","","","","6","","","","","","","","",""
"null","315515","SARL_v6","SARL_v6267aly3s","604a7e9f84bf0e7937200df5","fixation","","","img/fixation.png","null","","","test","","","","","","","","","","","","","","","","","","","",""
"275","315792","SARL_v6","SARL_v6267aly3s","604a7e9f84bf0e7937200df5","infreq","","","img/blue_2bandit_b2.png","70","","68","test","0","","128","","","","circle","square","123","9","6","0.959349593495935","","","","","","","",""
