"rt","time_elapsed","expId","subject","prolificID","trialType","rlType","attType","stimulus","key_press","stim","corrresp","phase","corr","pracCounter","trialNum","rewardOne","rewardTwo","reward","bandOne","bandTwo","attentionNum","attentionRunNum","blockNum","performance","bandChosen","circleVal","squareVal","bandOneVal","bandTwoVal","shapeChosen","rlNum","badFlag"
"8992.59999999404","8998","SARL_v6","SARL_v6ugt5dc31","57d0a0bee3221e00015fe385","","","","","","","","","","","","","","","","","","","","","","","","","","","",""
"","14094","SARL_v6","SARL_v6ugt5dc31","57d0a0bee3221e00015fe385","fullscreen","fullscreen","fullscreen","","","","","","","","","","","","","","","","","","","","","","","","",""
"52827.59999999404","66925","SARL_v6","SARL_v6ugt5dc31","57d0a0bee3221e00015fe385","","","","","","","","","","","","","","","","","","","","","","","","","","","",""
"null","67740","SARL_v6","SARL_v6ugt5dc31","57d0a0bee3221e00015fe385","freqPrac","","","img/orange_2bandit_a2.png","null","img/orange_2bandit_a2.png","70","prac","0","1","","","","","","","","","","","","","","","","","",""
"null","68748","SARL_v6","SARL_v6ugt5dc31","57d0a0bee3221e00015fe385","feedback","","","img/tooSlow.png","null","","na","prac","","","","","","","","","","","","","","","","","","","",""
"null","68911","SARL_v6","SARL_v6ugt5dc31","57d0a0bee3221e00015fe385","fixation","","","img/fixation.png","null","","","prac","","","","","","","","","","","","","","","","","","","",""
"587.4000000059605","69501","SARL_v6","SARL_v6ugt5dc31","57d0a0bee3221e00015fe385","infreqPrac","","","img/blue_2bandit_a2.png","68","img/blue_2bandit_a2.png","68","prac","1","1","","","","","","","","","","","","","","","","","",""
"587.4000000059605","69721","SARL_v6","SARL_v6ugt5dc31","57d0a0bee3221e00015fe385","infreqPrac_resp","","","img/blue_2bandit_a.png","68","img/blue_2bandit_a.png","68","prac","","","","","","","","","","","","","","","","","","","",""
"null","69890","SARL_v6","SARL_v6ugt5dc31","57d0a0bee3221e00015fe385","fixation","","","img/fixation.png","null","","","prac","","","","","","","","","","","","","","","","","","","",""
"623.5","70515","SARL_v6","SARL_v6ugt5dc31","57d0a0bee3221e00015fe385","freqPrac","","","img/orange_2bandit_a2.png","70","img/orange_2bandit_a2.png","70","prac","1","1","","","","","","","","","","","","","","","","","",""
"623.5","70716","SARL_v6","SARL_v6ugt5dc31","57d0a0bee3221e00015fe385","freqPrac_resp","","","img/orange_2bandit_a.png","70","img/orange_2bandit_a.png","70","prac","","","","","","","","","","","","","","","","","","","",""
"null","70870","SARL_v6","SARL_v6ugt5dc31","57d0a0bee3221e00015fe385","fixation","","","img/fixation.png","null","","","prac","","","","","","","","","","","","","","","","","","","",""
"529.2999999970198","71402","SARL_v6","SARL_v6ugt5dc31","57d0a0bee3221e00015fe385","infreqPrac","","","img/blue_2bandit_a2.png","68","img/blue_2bandit_a2.png","68","prac","1","1","","","","","","","","","","","","","","","","","",""
"529.2999999970198","71680","SARL_v6","SARL_v6ugt5dc31","57d0a0bee3221e00015fe385","infreqPrac_resp","","","img/blue_2bandit_a.png","68","img/blue_2bandit_a.png","68","prac","","","","","","","","","","","","","","","","","","","",""
"null","71842","SARL_v6","SARL_v6ugt5dc31","57d0a0bee3221e00015fe385","fixation","","","img/fixation.png","null","","","prac","","","","","","","","","","","","","","","","","","","",""
"386.20000000298023","72230","SARL_v6","SARL_v6ugt5dc31","57d0a0bee3221e00015fe385","infreqPrac","","","img/blue_2bandit_a2.png","68","img/blue_2bandit_a2.png","68","prac","1","1","","","","","","","","","","","","","","","","","",""
"386.20000000298023","72651","SARL_v6","SARL_v6ugt5dc31","57d0a0bee3221e00015fe385","infreqPrac_resp","","","img/blue_2bandit_a.png","68","img/blue_2bandit_a.png","68","prac","","","","","","","","","","","","","","","","","","","",""
"null","72816","SARL_v6","SARL_v6ugt5dc31","57d0a0bee3221e00015fe385","fixation","","","img/fixation.png","null","","","prac","","","","","","","","","","","","","","","","","","","",""
"326.40000000596046","73145","SARL_v6","SARL_v6ugt5dc31","57d0a0bee3221e00015fe385","infreqPrac","","","img/blue_2bandit_a2.png","68","img/blue_2bandit_a2.png","68","prac","1","1","","","","","","","","","","","","","","","","","",""
"326.40000000596046","73628","SARL_v6","SARL_v6ugt5dc31","57d0a0bee3221e00015fe385","infreqPrac_resp","","","img/blue_2bandit_a.png","68","img/blue_2bandit_a.png","68","prac","","","","","","","","","","","","","","","","","","","",""
"null","73785","SARL_v6","SARL_v6ugt5dc31","57d0a0bee3221e00015fe385","fixation","","","img/fixation.png","null","","","prac","","","","","","","","","","","","","","","","","","","",""
"390.5","74177","SARL_v6","SARL_v6ugt5dc31","57d0a0bee3221e00015fe385","freqPrac","","","img/orange_2bandit_a2.png","70","img/orange_2bandit_a2.png","70","prac","1","1","","","","","","","","","","","","","","","","","",""
"390.5","74601","SARL_v6","SARL_v6ugt5dc31","57d0a0bee3221e00015fe385","freqPrac_resp","","","img/orange_2bandit_a.png","70","img/orange_2bandit_a.png","70","prac","","","","","","","","","","","","","","","","","","","",""
"null","74767","SARL_v6","SARL_v6ugt5dc31","57d0a0bee3221e00015fe385","fixation","","","img/fixation.png","null","","","prac","","","","","","","","","","","","","","","","","","","",""
"479.8999999910593","75250","SARL_v6","SARL_v6ugt5dc31","57d0a0bee3221e00015fe385","infreqPrac","","","img/blue_2bandit_a2.png","68","img/blue_2bandit_a2.png","68","prac","1","1","","","","","","","","","","","","","","","","","",""
"479.8999999910593","75577","SARL_v6","SARL_v6ugt5dc31","57d0a0bee3221e00015fe385","infreqPrac_resp","","","img/blue_2bandit_a.png","68","img/blue_2bandit_a.png","68","prac","","","","","","","","","","","","","","","","","","","",""
"null","75741","SARL_v6","SARL_v6ugt5dc31","57d0a0bee3221e00015fe385","fixation","","","img/fixation.png","null","","","prac","","","","","","","","","","","","","","","","","","","",""
"337.20000000298023","76080","SARL_v6","SARL_v6ugt5dc31","57d0a0bee3221e00015fe385","freqPrac","","","img/orange_2bandit_a2.png","70","img/orange_2bandit_a2.png","70","prac","1","1","","","","","","","","","","","","","","","","","",""
"337.20000000298023","76547","SARL_v6","SARL_v6ugt5dc31","57d0a0bee3221e00015fe385","freqPrac_resp","","","img/orange_2bandit_a.png","70","img/orange_2bandit_a.png","70","prac","","","","","","","","","","","","","","","","","","","",""
"null","76705","SARL_v6","SARL_v6ugt5dc31","57d0a0bee3221e00015fe385","fixation","","","img/fixation.png","null","","","prac","","","","","","","","","","","","","","","","","","","",""
"506.19999998807907","77214","SARL_v6","SARL_v6ugt5dc31","57d0a0bee3221e00015fe385","freqPrac","","","img/orange_2bandit_a2.png","70","img/orange_2bandit_a2.png","70","prac","1","1","","","","","","","","","","","","","","","","","",""
"506.19999998807907","77512","SARL_v6","SARL_v6ugt5dc31","57d0a0bee3221e00015fe385","freqPrac_resp","","","img/orange_2bandit_a.png","70","img/orange_2bandit_a.png","70","prac","","","","","","","","","","","","","","","","","","","",""
"null","77671","SARL_v6","SARL_v6ugt5dc31","57d0a0bee3221e00015fe385","fixation","","","img/fixation.png","null","","","prac","","","","","","","","","","","","","","","","","","","",""
"26096.40000000596","103770","SARL_v6","SARL_v6ugt5dc31","57d0a0bee3221e00015fe385","","","","","","","","prac","","","","","","","","","","","","","","","","","","","",""
"832.2000000029802","104605","SARL_v6","SARL_v6ugt5dc31","57d0a0bee3221e00015fe385","rlPractice","","","img/black_2bandit_a2.png","74","img/black_2bandit_a2.png","","prac","","","0","","","","","","","","","","","","","","","","",""
"null","105360","SARL_v6","SARL_v6ugt5dc31","57d0a0bee3221e00015fe385","feedback","","","<div class=""verylowPoints_sq""> -14 </div>","null","","na","prac","","","1","10","-14","10","","","","","","","","","","","","","",""
"null","105523","SARL_v6","SARL_v6ugt5dc31","57d0a0bee3221e00015fe385","fixation","","","img/fixation.png","null","","","prac","","","","","","","","","","","","","","","","","","","",""
"540.0999999940395","106066","SARL_v6","SARL_v6ugt5dc31","57d0a0bee3221e00015fe385","rlPractice","","","img/black_2bandit_a2.png","75","img/black_2bandit_a2.png","","prac","","","1","","","","","","","","","","","","","","","","",""
"null","106826","SARL_v6","SARL_v6ugt5dc31","57d0a0bee3221e00015fe385","feedback","","","<div class=""veryhighPoints""> 5 </div>","null","","na","prac","","","2","5","-5","5","","","","","","","","","","","","","",""
"null","106986","SARL_v6","SARL_v6ugt5dc31","57d0a0bee3221e00015fe385","fixation","","","img/fixation.png","null","","","prac","","","","","","","","","","","","","","","","","","","",""
"296.29999999701977","107284","SARL_v6","SARL_v6ugt5dc31","57d0a0bee3221e00015fe385","rlPractice","","","img/black_2bandit_a2.png","75","img/black_2bandit_a2.png","","prac","","","2","","","","","","","","","","","","","","","","",""
"null","108049","SARL_v6","SARL_v6ugt5dc31","57d0a0bee3221e00015fe385","feedback","","","<div class=""veryhighPoints""> 30 </div>","null","","na","prac","","","3","30","2","30","","","","","","","","","","","","","",""
"null","108202","SARL_v6","SARL_v6ugt5dc31","57d0a0bee3221e00015fe385","fixation","","","img/fixation.png","null","","","prac","","","","","","","","","","","","","","","","","","","",""
"293","108496","SARL_v6","SARL_v6ugt5dc31","57d0a0bee3221e00015fe385","rlPractice","","","img/black_2bandit_a2.png","75","img/black_2bandit_a2.png","","prac","","","3","","","","","","","","","","","","","","","","",""
"null","109268","SARL_v6","SARL_v6ugt5dc31","57d0a0bee3221e00015fe385","feedback","","","<div class=""verylowPoints""> -2 </div>","null","","na","prac","","","4","-2","20","-2","","","","","","","","","","","","","",""
"null","109433","SARL_v6","SARL_v6ugt5dc31","57d0a0bee3221e00015fe385","fixation","","","img/fixation.png","null","","","prac","","","","","","","","","","","","","","","","","","","",""
"12931.09999999404","122366","SARL_v6","SARL_v6ugt5dc31","57d0a0bee3221e00015fe385","","","","","","","","prac","","","","","","","","","","","","","","","","","","","",""
"null","123183","SARL_v6","SARL_v6ugt5dc31","57d0a0bee3221e00015fe385","mixAttFreqPrac","","","img/orange_2bandit_a2.png","null","img/orange_2bandit_a2.png","70","prac","","","1","","","","","","","","","","","","","","","","",""
"35.599999994039536","123344","SARL_v6","SARL_v6ugt5dc31","57d0a0bee3221e00015fe385","fixation","","","img/fixation.png","70","","","prac","","","","","","","","","","","","","","","","","","","",""
"null","124162","SARL_v6","SARL_v6ugt5dc31","57d0a0bee3221e00015fe385","mixAttInfreqPrac","","","img/blue_2bandit_a2.png","null","img/blue_2bandit_a2.png","68","prac","","","2","","","","","","","","","","","","","","","","",""
"73.79999999701977","124326","SARL_v6","SARL_v6ugt5dc31","57d0a0bee3221e00015fe385","fixation","","","img/fixation.png","68","","","prac","","","","","","","","","","","","","","","","","","","",""
"757.4000000059605","125086","SARL_v6","SARL_v6ugt5dc31","57d0a0bee3221e00015fe385","mixAttInfreqPrac","","","img/blue_2bandit_a2.png","68","img/blue_2bandit_a2.png","68","prac","","","3","","","","","","","","","","","","","","","","",""
"757.4000000059605","125131","SARL_v6","SARL_v6ugt5dc31","57d0a0bee3221e00015fe385","infreqPrac_resp","","","img/blue_2bandit_a.png","68","img/orange_2bandit_a.png","68","prac","","","3","","","","","","","","","","","","","","","","",""
"null","125295","SARL_v6","SARL_v6ugt5dc31","57d0a0bee3221e00015fe385","fixation","","","img/fixation.png","null","","","prac","","","","","","","","","","","","","","","","","","","",""
"798.7999999970198","126096","SARL_v6","SARL_v6ugt5dc31","57d0a0bee3221e00015fe385","mixAttInfreqPrac","","","img/blue_2bandit_a2.png","68","img/blue_2bandit_a2.png","68","prac","","","4","","","","","","","","","","","","","","","","",""
"798.7999999970198","126100","SARL_v6","SARL_v6ugt5dc31","57d0a0bee3221e00015fe385","infreqPrac_resp","","","img/blue_2bandit_a.png","68","img/orange_2bandit_a.png","68","prac","","","4","","","","","","","","","","","","","","","","",""
"null","126253","SARL_v6","SARL_v6ugt5dc31","57d0a0bee3221e00015fe385","fixation","","","img/fixation.png","null","","","prac","","","","","","","","","","","","","","","","","","","",""
"647.1000000089407","126902","SARL_v6","SARL_v6ugt5dc31","57d0a0bee3221e00015fe385","mixAttFreqPrac","","","img/orange_2bandit_a2.png","70","img/orange_2bandit_a2.png","70","prac","","","5","","","","","","","","","","","","","","","","",""
"647.1000000089407","127069","SARL_v6","SARL_v6ugt5dc31","57d0a0bee3221e00015fe385","freqPrac_resp","","","img/orange_2bandit_a.png","70","img/orange_2bandit_a.png","70","prac","","","5","","","","","","","","","","","","","","","","",""
"null","127227","SARL_v6","SARL_v6ugt5dc31","57d0a0bee3221e00015fe385","fixation","","","img/fixation.png","null","","","prac","","","","","","","","","","","","","","","","","","","",""
"816.2999999970198","128045","SARL_v6","SARL_v6ugt5dc31","57d0a0bee3221e00015fe385","mixRLPractice","","","img/black_2bandit_a2.png","74","img/black_2bandit_a2.png","","prac","","","5","","","","","","","","","","","","","","","","",""
"null","128811","SARL_v6","SARL_v6ugt5dc31","57d0a0bee3221e00015fe385","feedback","","","<div class=""veryhighPoints_sq""> 10 </div>","null","","na","prac","","","6","-14","10","-14","","","","","","","","","","","","","",""
"null","128980","SARL_v6","SARL_v6ugt5dc31","57d0a0bee3221e00015fe385","fixation","","","img/fixation.png","null","","","prac","","","","","","","","","","","","","","","","","","","",""
"null","129794","SARL_v6","SARL_v6ugt5dc31","57d0a0bee3221e00015fe385","mixAttFreqPrac","","","img/orange_2bandit_a2.png","null","img/orange_2bandit_a2.png","70","prac","","","7","","","","","","","","","","","","","","","","",""
"143.20000000298023","129946","SARL_v6","SARL_v6ugt5dc31","57d0a0bee3221e00015fe385","fixation","","","img/fixation.png","68","","","prac","","","","","","","","","","","","","","","","","","","",""
"695.5999999940395","130643","SARL_v6","SARL_v6ugt5dc31","57d0a0bee3221e00015fe385","mixAttInfreqPrac","","","img/blue_2bandit_a2.png","70","img/blue_2bandit_a2.png","68","prac","","","8","","","","","","","","","","","","","","","","",""
"695.5999999940395","130754","SARL_v6","SARL_v6ugt5dc31","57d0a0bee3221e00015fe385","infreqPrac_resp","","","img/blue_2bandit_a.png","70","img/orange_2bandit_a.png","68","prac","","","8","","","","","","","","","","","","","","","","",""
"null","130913","SARL_v6","SARL_v6ugt5dc31","57d0a0bee3221e00015fe385","fixation","","","img/fixation.png","null","","","prac","","","","","","","","","","","","","","","","","","","",""
"620.5","131536","SARL_v6","SARL_v6ugt5dc31","57d0a0bee3221e00015fe385","mixAttFreqPrac","","","img/orange_2bandit_a2.png","68","img/orange_2bandit_a2.png","70","prac","","","9","","","","","","","","","","","","","","","","",""
"620.5","131727","SARL_v6","SARL_v6ugt5dc31","57d0a0bee3221e00015fe385","freqPrac_resp","","","img/orange_2bandit_a.png","68","img/orange_2bandit_a.png","70","prac","","","9","","","","","","","","","","","","","","","","",""
"null","131890","SARL_v6","SARL_v6ugt5dc31","57d0a0bee3221e00015fe385","fixation","","","img/fixation.png","null","","","prac","","","","","","","","","","","","","","","","","","","",""
"519.0999999940395","132411","SARL_v6","SARL_v6ugt5dc31","57d0a0bee3221e00015fe385","mixAttFreqPrac","","","img/orange_2bandit_a2.png","68","img/orange_2bandit_a2.png","70","prac","","","10","","","","","","","","","","","","","","","","",""
"519.0999999940395","132707","SARL_v6","SARL_v6ugt5dc31","57d0a0bee3221e00015fe385","freqPrac_resp","","","img/orange_2bandit_a.png","68","img/orange_2bandit_a.png","70","prac","","","10","","","","","","","","","","","","","","","","",""
"null","132862","SARL_v6","SARL_v6ugt5dc31","57d0a0bee3221e00015fe385","fixation","","","img/fixation.png","null","","","prac","","","","","","","","","","","","","","","","","","","",""
"417.20000000298023","133282","SARL_v6","SARL_v6ugt5dc31","57d0a0bee3221e00015fe385","mixAttInfreqPrac","","","img/blue_2bandit_a2.png","70","img/blue_2bandit_a2.png","68","prac","","","11","","","","","","","","","","","","","","","","",""
"417.20000000298023","133671","SARL_v6","SARL_v6ugt5dc31","57d0a0bee3221e00015fe385","infreqPrac_resp","","","img/blue_2bandit_a.png","70","img/orange_2bandit_a.png","68","prac","","","11","","","","","","","","","","","","","","","","",""
"null","133830","SARL_v6","SARL_v6ugt5dc31","57d0a0bee3221e00015fe385","fixation","","","img/fixation.png","null","","","prac","","","","","","","","","","","","","","","","","","","",""
"728.5","134561","SARL_v6","SARL_v6ugt5dc31","57d0a0bee3221e00015fe385","mixRLPractice","","","img/black_2bandit_a2.png","74","img/black_2bandit_a2.png","","prac","","","11","","","","","","","","","","","","","","","","",""
"null","135319","SARL_v6","SARL_v6ugt5dc31","57d0a0bee3221e00015fe385","feedback","","","<div class=""verylowPoints_sq""> -5 </div>","null","","na","prac","","","12","5","-5","5","","","","","","","","","","","","","",""
"null","135480","SARL_v6","SARL_v6ugt5dc31","57d0a0bee3221e00015fe385","fixation","","","img/fixation.png","null","","","prac","","","","","","","","","","","","","","","","","","","",""
"19302.20000000298","154784","SARL_v6","SARL_v6ugt5dc31","57d0a0bee3221e00015fe385","","","","","","","","prac","","","","","","","","","","","","","","","","","","","",""
"635.9000000059605","155423","SARL_v6","SARL_v6ugt5dc31","57d0a0bee3221e00015fe385","freq","","","img/orange_2bandit_a2.png","70","","70","test","1","","1","","","","square","circle","1","1","1","1","","","","","","","",""
"null","155590","SARL_v6","SARL_v6ugt5dc31","57d0a0bee3221e00015fe385","freq_resp","","","img/orange_2bandit_a.png","70","img/orange_2bandit_a.png","70","test","","","","","","","","","","","1","","","","","","","","",""
"null","155749","SARL_v6","SARL_v6ugt5dc31","57d0a0bee3221e00015fe385","fixation","","","img/fixation.png","null","","","test","","","","","","","","","","","","","","","","","","","",""
"557.9000000059605","156309","SARL_v6","SARL_v6ugt5dc31","57d0a0bee3221e00015fe385","freq","","","img/orange_2bandit_a2.png","70","","70","test","1","","2","","","","square","circle","2","2","1","1","","","","","","","",""
"null","156560","SARL_v6","SARL_v6ugt5dc31","57d0a0bee3221e00015fe385","freq_resp","","","img/orange_2bandit_a.png","70","img/orange_2bandit_a.png","70","test","","","","","","","","","","","1","","","","","","","","",""
"null","156717","SARL_v6","SARL_v6ugt5dc31","57d0a0bee3221e00015fe385","fixation","","","img/fixation.png","null","","","test","","","","","","","","","","","","","","","","","","","",""
"460.29999999701977","157180","SARL_v6","SARL_v6ugt5dc31","57d0a0bee3221e00015fe385","freq","","","img/orange_2bandit_a2.png","70","","70","test","1","","3","","","","square","circle","3","3","1","1","","","","","","","",""
"null","157534","SARL_v6","SARL_v6ugt5dc31","57d0a0bee3221e00015fe385","freq_resp","","","img/orange_2bandit_a.png","70","img/orange_2bandit_a.png","70","test","","","","","","","","","","","1","","","","","","","","",""
"null","157699","SARL_v6","SARL_v6ugt5dc31","57d0a0bee3221e00015fe385","fixation","","","img/fixation.png","null","","","test","","","","","","","","","","","","","","","","","","","",""
"521.6999999880791","158223","SARL_v6","SARL_v6ugt5dc31","57d0a0bee3221e00015fe385","infreq","","","img/blue_2bandit_a2.png","68","","68","test","1","","4","","","","square","circle","4","4","1","1","","","","","","","",""
"null","158513","SARL_v6","SARL_v6ugt5dc31","57d0a0bee3221e00015fe385","infreq_resp","","","img/blue_2bandit_a.png","68","img/blue_2bandit_a.png","68","test","","","","","","","","","","","1","","","","","","","","",""
"null","158680","SARL_v6","SARL_v6ugt5dc31","57d0a0bee3221e00015fe385","fixation","","","img/fixation.png","null","","","test","","","","","","","","","","","","","","","","","","","",""
"395.09999999403954","159078","SARL_v6","SARL_v6ugt5dc31","57d0a0bee3221e00015fe385","freq","","","img/orange_2bandit_a2.png","70","","70","test","1","","5","","","","square","circle","5","5","1","1","","","","","","","",""
"null","159485","SARL_v6","SARL_v6ugt5dc31","57d0a0bee3221e00015fe385","freq_resp","","","img/orange_2bandit_a.png","70","img/orange_2bandit_a.png","70","test","","","","","","","","","","","1","","","","","","","","",""
"null","159650","SARL_v6","SARL_v6ugt5dc31","57d0a0bee3221e00015fe385","fixation","","","img/fixation.png","null","","","test","","","","","","","","","","","","","","","","","","","",""
"388.20000000298023","160040","SARL_v6","SARL_v6ugt5dc31","57d0a0bee3221e00015fe385","freq","","","img/orange_2bandit_a2.png","70","","70","test","1","","6","","","","square","circle","6","6","1","1","","","","","","","",""
"null","160459","SARL_v6","SARL_v6ugt5dc31","57d0a0bee3221e00015fe385","freq_resp","","","img/orange_2bandit_a.png","70","img/orange_2bandit_a.png","70","test","","","","","","","","","","","1","","","","","","","","",""
"null","160627","SARL_v6","SARL_v6ugt5dc31","57d0a0bee3221e00015fe385","fixation","","","img/fixation.png","null","","","test","","","","","","","","","","","","","","","","","","","",""
"383.29999999701977","161012","SARL_v6","SARL_v6ugt5dc31","57d0a0bee3221e00015fe385","infreq","","","img/blue_2bandit_a2.png","68","","68","test","1","","7","","","","square","circle","7","7","1","1","","","","","","","",""
"null","161432","SARL_v6","SARL_v6ugt5dc31","57d0a0bee3221e00015fe385","infreq_resp","","","img/blue_2bandit_a.png","68","img/blue_2bandit_a.png","68","test","","","","","","","","","","","1","","","","","","","","",""
"null","161587","SARL_v6","SARL_v6ugt5dc31","57d0a0bee3221e00015fe385","fixation","","","img/fixation.png","null","","","test","","","","","","","","","","","","","","","","","","","",""
"347.3999999910593","161936","SARL_v6","SARL_v6ugt5dc31","57d0a0bee3221e00015fe385","freq","","","img/orange_2bandit_a2.png","70","","70","test","1","","8","","","","square","circle","8","8","1","1","","","","","","","",""
"null","162398","SARL_v6","SARL_v6ugt5dc31","57d0a0bee3221e00015fe385","freq_resp","","","img/orange_2bandit_a.png","70","img/orange_2bandit_a.png","70","test","","","","","","","","","","","1","","","","","","","","",""
"null","162557","SARL_v6","SARL_v6ugt5dc31","57d0a0bee3221e00015fe385","fixation","","","img/fixation.png","null","","","test","","","","","","","","","","","","","","","","","","","",""
"325.79999999701977","162885","SARL_v6","SARL_v6ugt5dc31","57d0a0bee3221e00015fe385","freq","","","img/orange_2bandit_a2.png","70","","70","test","1","","9","","","","square","circle","9","9","1","1","","","","","","","",""
"null","163364","SARL_v6","SARL_v6ugt5dc31","57d0a0bee3221e00015fe385","freq_resp","","","img/orange_2bandit_a.png","70","img/orange_2bandit_a.png","70","test","","","","","","","","","","","1","","","","","","","","",""
"null","163526","SARL_v6","SARL_v6ugt5dc31","57d0a0bee3221e00015fe385","fixation","","","img/fixation.png","null","","","test","","","","","","","","","","","","","","","","","","","",""
"433.70000000298023","163962","SARL_v6","SARL_v6ugt5dc31","57d0a0bee3221e00015fe385","freq","","","img/orange_2bandit_a2.png","70","","70","test","1","","10","","","","square","circle","10","10","1","1","","","","","","","",""
"null","164337","SARL_v6","SARL_v6ugt5dc31","57d0a0bee3221e00015fe385","freq_resp","","","img/orange_2bandit_a.png","70","img/orange_2bandit_a.png","70","test","","","","","","","","","","","1","","","","","","","","",""
"null","164501","SARL_v6","SARL_v6ugt5dc31","57d0a0bee3221e00015fe385","fixation","","","img/fixation.png","null","","","test","","","","","","","","","","","","","","","","","","","",""
"402","164906","SARL_v6","SARL_v6ugt5dc31","57d0a0bee3221e00015fe385","freq","","","img/orange_2bandit_a2.png","68","","70","test","0","","11","","","","square","circle","11","11","1","0.9090909090909091","","","","","","","",""
"null","165310","SARL_v6","SARL_v6ugt5dc31","57d0a0bee3221e00015fe385","freq_resp","","","img/orange_2bandit_a.png","68","img/orange_2bandit_a.png","70","test","","","","","","","","","","","1","","","","","","","","",""
"null","165475","SARL_v6","SARL_v6ugt5dc31","57d0a0bee3221e00015fe385","fixation","","","img/fixation.png","null","","","test","","","","","","","","","","","","","","","","","","","",""
"374.29999999701977","165852","SARL_v6","SARL_v6ugt5dc31","57d0a0bee3221e00015fe385","freq","","","img/orange_2bandit_a2.png","70","","70","test","1","","12","","","","square","circle","12","12","1","0.9166666666666666","","","","","","","",""
"null","166287","SARL_v6","SARL_v6ugt5dc31","57d0a0bee3221e00015fe385","freq_resp","","","img/orange_2bandit_a.png","70","img/orange_2bandit_a.png","70","test","","","","","","","","","","","1","","","","","","","","",""
"null","166443","SARL_v6","SARL_v6ugt5dc31","57d0a0bee3221e00015fe385","fixation","","","img/fixation.png","null","","","test","","","","","","","","","","","","","","","","","","","",""
"337.20000000298023","166782","SARL_v6","SARL_v6ugt5dc31","57d0a0bee3221e00015fe385","freq","","","img/orange_2bandit_a2.png","70","","70","test","1","","13","","","","square","circle","13","13","1","0.9230769230769231","","","","","","","",""
"null","167259","SARL_v6","SARL_v6ugt5dc31","57d0a0bee3221e00015fe385","freq_resp","","","img/orange_2bandit_a.png","70","img/orange_2bandit_a.png","70","test","","","","","","","","","","","1","","","","","","","","",""
"null","167419","SARL_v6","SARL_v6ugt5dc31","57d0a0bee3221e00015fe385","fixation","","","img/fixation.png","null","","","test","","","","","","","","","","","","","","","","","","","",""
"381.70000000298023","167803","SARL_v6","SARL_v6ugt5dc31","57d0a0bee3221e00015fe385","freq","","","img/orange_2bandit_a2.png","70","","70","test","1","","14","","","","square","circle","14","14","1","0.9285714285714286","","","","","","","",""
"null","168231","SARL_v6","SARL_v6ugt5dc31","57d0a0bee3221e00015fe385","freq_resp","","","img/orange_2bandit_a.png","70","img/orange_2bandit_a.png","70","test","","","","","","","","","","","1","","","","","","","","",""
"null","168389","SARL_v6","SARL_v6ugt5dc31","57d0a0bee3221e00015fe385","fixation","","","img/fixation.png","null","","","test","","","","","","","","","","","","","","","","","","","",""
"319.79999999701977","168711","SARL_v6","SARL_v6ugt5dc31","57d0a0bee3221e00015fe385","freq","","","img/orange_2bandit_a2.png","70","","70","test","1","","15","","","","square","circle","15","15","1","0.9333333333333333","","","","","","","",""
"null","169200","SARL_v6","SARL_v6ugt5dc31","57d0a0bee3221e00015fe385","freq_resp","","","img/orange_2bandit_a.png","70","img/orange_2bandit_a.png","70","test","","","","","","","","","","","1","","","","","","","","",""
"null","169365","SARL_v6","SARL_v6ugt5dc31","57d0a0bee3221e00015fe385","fixation","","","img/fixation.png","null","","","test","","","","","","","","","","","","","","","","","","","",""
"547.2000000029802","169915","SARL_v6","SARL_v6ugt5dc31","57d0a0bee3221e00015fe385","infreq","","","img/blue_2bandit_a2.png","68","","68","test","1","","16","","","","square","circle","16","16","1","0.9375","","","","","","","",""
"null","170182","SARL_v6","SARL_v6ugt5dc31","57d0a0bee3221e00015fe385","infreq_resp","","","img/blue_2bandit_a.png","68","img/blue_2bandit_a.png","68","test","","","","","","","","","","","1","","","","","","","","",""
"null","170340","SARL_v6","SARL_v6ugt5dc31","57d0a0bee3221e00015fe385","fixation","","","img/fixation.png","null","","","test","","","","","","","","","","","","","","","","","","","",""
"549.2999999970198","170892","SARL_v6","SARL_v6ugt5dc31","57d0a0bee3221e00015fe385","freq","","","img/orange_2bandit_a2.png","70","","70","test","1","","17","","","","square","circle","17","17","1","0.9411764705882353","","","","","","","",""
"null","171147","SARL_v6","SARL_v6ugt5dc31","57d0a0bee3221e00015fe385","freq_resp","","","img/orange_2bandit_a.png","70","img/orange_2bandit_a.png","70","test","","","","","","","","","","","1","","","","","","","","",""
"null","171313","SARL_v6","SARL_v6ugt5dc31","57d0a0bee3221e00015fe385","fixation","","","img/fixation.png","null","","","test","","","","","","","","","","","","","","","","","","","",""
"436.70000000298023","171751","SARL_v6","SARL_v6ugt5dc31","57d0a0bee3221e00015fe385","freq","","","img/orange_2bandit_a2.png","70","","70","test","1","","18","","","","square","circle","18","18","1","0.9444444444444444","","","","","","","",""
"null","172118","SARL_v6","SARL_v6ugt5dc31","57d0a0bee3221e00015fe385","freq_resp","","","img/orange_2bandit_a.png","70","img/orange_2bandit_a.png","70","test","","","","","","","","","","","1","","","","","","","","",""
"null","172274","SARL_v6","SARL_v6ugt5dc31","57d0a0bee3221e00015fe385","fixation","","","img/fixation.png","null","","","test","","","","","","","","","","","","","","","","","","","",""
"341.70000000298023","172619","SARL_v6","SARL_v6ugt5dc31","57d0a0bee3221e00015fe385","freq","","","img/orange_2bandit_a2.png","70","","70","test","1","","19","","","","square","circle","19","19","1","0.9473684210526315","","","","","","","",""
"null","173083","SARL_v6","SARL_v6ugt5dc31","57d0a0bee3221e00015fe385","freq_resp","","","img/orange_2bandit_a.png","70","img/orange_2bandit_a.png","70","test","","","","","","","","","","","1","","","","","","","","",""
"null","173242","SARL_v6","SARL_v6ugt5dc31","57d0a0bee3221e00015fe385","fixation","","","img/fixation.png","null","","","test","","","","","","","","","","","","","","","","","","","",""
"330.79999999701977","173576","SARL_v6","SARL_v6ugt5dc31","57d0a0bee3221e00015fe385","freq","","","img/orange_2bandit_a2.png","70","","70","test","1","","20","","","","square","circle","20","20","1","0.95","","","","","","","",""
"null","174048","SARL_v6","SARL_v6ugt5dc31","57d0a0bee3221e00015fe385","freq_resp","","","img/orange_2bandit_a.png","70","img/orange_2bandit_a.png","70","test","","","","","","","","","","","1","","","","","","","","",""
"null","174213","SARL_v6","SARL_v6ugt5dc31","57d0a0bee3221e00015fe385","fixation","","","img/fixation.png","null","","","test","","","","","","","","","","","","","","","","","","","",""
"723","174939","SARL_v6","SARL_v6ugt5dc31","57d0a0bee3221e00015fe385","rl","","","img/black_2bandit_a2.png","75","","0","test","","","21","","","-3","square","circle","","0","1","","75","-3","-3","-3","-3","circle","1","0"
"null","175702","SARL_v6","SARL_v6ugt5dc31","57d0a0bee3221e00015fe385","feedback","","","<div class=""verylowPoints""> -3 </div>","null","","na","test","","","NaN","","","","","","","","1","","75","","","","","","1",""
"null","176515","SARL_v6","SARL_v6ugt5dc31","57d0a0bee3221e00015fe385","freq","","","img/orange_2bandit_a2.png","null","","70","test","0","","22","","","","square","circle","21","1","2","0.9047619047619048","","","","","","","",""
"null","176673","SARL_v6","SARL_v6ugt5dc31","57d0a0bee3221e00015fe385","fixation","","","img/fixation.png","null","","","test","","","","","","","","","","","","","","","","","","","",""
"56","176732","SARL_v6","SARL_v6ugt5dc31","57d0a0bee3221e00015fe385","freq","","","img/orange_2bandit_a2.png","70","","70","test","1","","23","","","","square","circle","22","2","2","0.9090909090909091","","","","","","","",""
"null","177489","SARL_v6","SARL_v6ugt5dc31","57d0a0bee3221e00015fe385","freq_resp","","","img/orange_2bandit_a.png","70","img/orange_2bandit_a.png","70","test","","","","","","","","","","","2","","","","","","","","",""
"null","177653","SARL_v6","SARL_v6ugt5dc31","57d0a0bee3221e00015fe385","fixation","","","img/fixation.png","null","","","test","","","","","","","","","","","","","","","","","","","",""
"410.70000000298023","178066","SARL_v6","SARL_v6ugt5dc31","57d0a0bee3221e00015fe385","freq","","","img/orange_2bandit_a2.png","70","","70","test","1","","24","","","","square","circle","23","3","2","0.9130434782608695","","","","","","","",""
"null","178470","SARL_v6","SARL_v6ugt5dc31","57d0a0bee3221e00015fe385","freq_resp","","","img/orange_2bandit_a.png","70","img/orange_2bandit_a.png","70","test","","","","","","","","","","","2","","","","","","","","",""
"null","178636","SARL_v6","SARL_v6ugt5dc31","57d0a0bee3221e00015fe385","fixation","","","img/fixation.png","null","","","test","","","","","","","","","","","","","","","","","","","",""
"344.70000000298023","178983","SARL_v6","SARL_v6ugt5dc31","57d0a0bee3221e00015fe385","freq","","","img/orange_2bandit_a2.png","70","","70","test","1","","25","","","","square","circle","24","4","2","0.9166666666666666","","","","","","","",""
"null","179454","SARL_v6","SARL_v6ugt5dc31","57d0a0bee3221e00015fe385","freq_resp","","","img/orange_2bandit_a.png","70","img/orange_2bandit_a.png","70","test","","","","","","","","","","","2","","","","","","","","",""
"null","179623","SARL_v6","SARL_v6ugt5dc31","57d0a0bee3221e00015fe385","fixation","","","img/fixation.png","null","","","test","","","","","","","","","","","","","","","","","","","",""
"354.5","179981","SARL_v6","SARL_v6ugt5dc31","57d0a0bee3221e00015fe385","freq","","","img/orange_2bandit_a2.png","70","","70","test","1","","26","","","","square","circle","25","5","2","0.92","","","","","","","",""
"null","180438","SARL_v6","SARL_v6ugt5dc31","57d0a0bee3221e00015fe385","freq_resp","","","img/orange_2bandit_a.png","70","img/orange_2bandit_a.png","70","test","","","","","","","","","","","2","","","","","","","","",""
"null","180601","SARL_v6","SARL_v6ugt5dc31","57d0a0bee3221e00015fe385","fixation","","","img/fixation.png","null","","","test","","","","","","","","","","","","","","","","","","","",""
"380.40000000596046","180984","SARL_v6","SARL_v6ugt5dc31","57d0a0bee3221e00015fe385","freq","","","img/orange_2bandit_a2.png","70","","70","test","1","","27","","","","square","circle","26","6","2","0.9230769230769231","","","","","","","",""
"null","181409","SARL_v6","SARL_v6ugt5dc31","57d0a0bee3221e00015fe385","freq_resp","","","img/orange_2bandit_a.png","70","img/orange_2bandit_a.png","70","test","","","","","","","","","","","2","","","","","","","","",""
"null","181572","SARL_v6","SARL_v6ugt5dc31","57d0a0bee3221e00015fe385","fixation","","","img/fixation.png","null","","","test","","","","","","","","","","","","","","","","","","","",""
"374.59999999403954","181949","SARL_v6","SARL_v6ugt5dc31","57d0a0bee3221e00015fe385","freq","","","img/orange_2bandit_a2.png","70","","70","test","1","","28","","","","square","circle","27","7","2","0.9259259259259259","","","","","","","",""
"null","182387","SARL_v6","SARL_v6ugt5dc31","57d0a0bee3221e00015fe385","freq_resp","","","img/orange_2bandit_a.png","70","img/orange_2bandit_a.png","70","test","","","","","","","","","","","2","","","","","","","","",""
"null","182550","SARL_v6","SARL_v6ugt5dc31","57d0a0bee3221e00015fe385","fixation","","","img/fixation.png","null","","","test","","","","","","","","","","","","","","","","","","","",""
"362.79999999701977","182915","SARL_v6","SARL_v6ugt5dc31","57d0a0bee3221e00015fe385","freq","","","img/orange_2bandit_a2.png","70","","70","test","1","","29","","","","square","circle","28","8","2","0.9285714285714286","","","","","","","",""
"null","183355","SARL_v6","SARL_v6ugt5dc31","57d0a0bee3221e00015fe385","freq_resp","","","img/orange_2bandit_a.png","70","img/orange_2bandit_a.png","70","test","","","","","","","","","","","2","","","","","","","","",""
"null","183520","SARL_v6","SARL_v6ugt5dc31","57d0a0bee3221e00015fe385","fixation","","","img/fixation.png","null","","","test","","","","","","","","","","","","","","","","","","","",""
"338.40000000596046","183860","SARL_v6","SARL_v6ugt5dc31","57d0a0bee3221e00015fe385","freq","","","img/orange_2bandit_a2.png","70","","70","test","1","","30","","","","square","circle","29","9","2","0.9310344827586207","","","","","","","",""
"null","184337","SARL_v6","SARL_v6ugt5dc31","57d0a0bee3221e00015fe385","freq_resp","","","img/orange_2bandit_a.png","70","img/orange_2bandit_a.png","70","test","","","","","","","","","","","2","","","","","","","","",""
"null","184497","SARL_v6","SARL_v6ugt5dc31","57d0a0bee3221e00015fe385","fixation","","","img/fixation.png","null","","","test","","","","","","","","","","","","","","","","","","","",""
"369","184869","SARL_v6","SARL_v6ugt5dc31","57d0a0bee3221e00015fe385","freq","","","img/orange_2bandit_a2.png","70","","70","test","1","","31","","","","square","circle","30","10","2","0.9333333333333333","","","","","","","",""
"null","185318","SARL_v6","SARL_v6ugt5dc31","57d0a0bee3221e00015fe385","freq_resp","","","img/orange_2bandit_a.png","70","img/orange_2bandit_a.png","70","test","","","","","","","","","","","2","","","","","","","","",""
"null","185475","SARL_v6","SARL_v6ugt5dc31","57d0a0bee3221e00015fe385","fixation","","","img/fixation.png","null","","","test","","","","","","","","","","","","","","","","","","","",""
"370.5","185848","SARL_v6","SARL_v6ugt5dc31","57d0a0bee3221e00015fe385","freq","","","img/orange_2bandit_a2.png","70","","70","test","1","","32","","","","square","circle","31","11","2","0.9354838709677419","","","","","","","",""
"null","186289","SARL_v6","SARL_v6ugt5dc31","57d0a0bee3221e00015fe385","freq_resp","","","img/orange_2bandit_a.png","70","img/orange_2bandit_a.png","70","test","","","","","","","","","","","2","","","","","","","","",""
"null","186455","SARL_v6","SARL_v6ugt5dc31","57d0a0bee3221e00015fe385","fixation","","","img/fixation.png","null","","","test","","","","","","","","","","","","","","","","","","","",""
"350.5","186808","SARL_v6","SARL_v6ugt5dc31","57d0a0bee3221e00015fe385","freq","","","img/orange_2bandit_a2.png","70","","70","test","1","","33","","","","square","circle","32","12","2","0.9375","","","","","","","",""
"null","187263","SARL_v6","SARL_v6ugt5dc31","57d0a0bee3221e00015fe385","freq_resp","","","img/orange_2bandit_a.png","70","img/orange_2bandit_a.png","70","test","","","","","","","","","","","2","","","","","","","","",""
"null","187426","SARL_v6","SARL_v6ugt5dc31","57d0a0bee3221e00015fe385","fixation","","","img/fixation.png","null","","","test","","","","","","","","","","","","","","","","","","","",""
"331.5","187760","SARL_v6","SARL_v6ugt5dc31","57d0a0bee3221e00015fe385","freq","","","img/orange_2bandit_a2.png","70","","70","test","1","","34","","","","square","circle","33","13","2","0.9393939393939394","","","","","","","",""
"null","188233","SARL_v6","SARL_v6ugt5dc31","57d0a0bee3221e00015fe385","freq_resp","","","img/orange_2bandit_a.png","70","img/orange_2bandit_a.png","70","test","","","","","","","","","","","2","","","","","","","","",""
"null","188398","SARL_v6","SARL_v6ugt5dc31","57d0a0bee3221e00015fe385","fixation","","","img/fixation.png","null","","","test","","","","","","","","","","","","","","","","","","","",""
"331.5","188732","SARL_v6","SARL_v6ugt5dc31","57d0a0bee3221e00015fe385","freq","","","img/orange_2bandit_a2.png","70","","70","test","1","","35","","","","square","circle","34","14","2","0.9411764705882353","","","","","","","",""
"null","189207","SARL_v6","SARL_v6ugt5dc31","57d0a0bee3221e00015fe385","freq_resp","","","img/orange_2bandit_a.png","70","img/orange_2bandit_a.png","70","test","","","","","","","","","","","2","","","","","","","","",""
"null","189374","SARL_v6","SARL_v6ugt5dc31","57d0a0bee3221e00015fe385","fixation","","","img/fixation.png","null","","","test","","","","","","","","","","","","","","","","","","","",""
"317.29999999701977","189693","SARL_v6","SARL_v6ugt5dc31","57d0a0bee3221e00015fe385","freq","","","img/orange_2bandit_a2.png","70","","70","test","1","","36","","","","square","circle","35","15","2","0.9428571428571428","","","","","","","",""
"null","190191","SARL_v6","SARL_v6ugt5dc31","57d0a0bee3221e00015fe385","freq_resp","","","img/orange_2bandit_a.png","70","img/orange_2bandit_a.png","70","test","","","","","","","","","","","2","","","","","","","","",""
"null","190351","SARL_v6","SARL_v6ugt5dc31","57d0a0bee3221e00015fe385","fixation","","","img/fixation.png","null","","","test","","","","","","","","","","","","","","","","","","","",""
"336","190690","SARL_v6","SARL_v6ugt5dc31","57d0a0bee3221e00015fe385","freq","","","img/orange_2bandit_a2.png","70","","70","test","1","","37","","","","square","circle","36","16","2","0.9444444444444444","","","","","","","",""
"null","191158","SARL_v6","SARL_v6ugt5dc31","57d0a0bee3221e00015fe385","freq_resp","","","img/orange_2bandit_a.png","70","img/orange_2bandit_a.png","70","test","","","","","","","","","","","2","","","","","","","","",""
"null","191313","SARL_v6","SARL_v6ugt5dc31","57d0a0bee3221e00015fe385","fixation","","","img/fixation.png","null","","","test","","","","","","","","","","","","","","","","","","","",""
"583.8999999910593","191899","SARL_v6","SARL_v6ugt5dc31","57d0a0bee3221e00015fe385","infreq","","","img/blue_2bandit_a2.png","70","","68","test","0","","38","","","","square","circle","37","17","2","0.918918918918919","","","","","","","",""
"null","192132","SARL_v6","SARL_v6ugt5dc31","57d0a0bee3221e00015fe385","infreq_resp","","","img/blue_2bandit_a.png","70","img/blue_2bandit_a.png","68","test","","","","","","","","","","","2","","","","","","","","",""
"null","192290","SARL_v6","SARL_v6ugt5dc31","57d0a0bee3221e00015fe385","fixation","","","img/fixation.png","null","","","test","","","","","","","","","","","","","","","","","","","",""
"524.7999999970198","192816","SARL_v6","SARL_v6ugt5dc31","57d0a0bee3221e00015fe385","freq","","","img/orange_2bandit_a2.png","70","","70","test","1","","39","","","","square","circle","38","18","2","0.9210526315789473","","","","","","","",""
"null","193099","SARL_v6","SARL_v6ugt5dc31","57d0a0bee3221e00015fe385","freq_resp","","","img/orange_2bandit_a.png","70","img/orange_2bandit_a.png","70","test","","","","","","","","","","","2","","","","","","","","",""
"null","193254","SARL_v6","SARL_v6ugt5dc31","57d0a0bee3221e00015fe385","fixation","","","img/fixation.png","null","","","test","","","","","","","","","","","","","","","","","","","",""
"490.70000000298023","193747","SARL_v6","SARL_v6ugt5dc31","57d0a0bee3221e00015fe385","freq","","","img/orange_2bandit_a2.png","70","","70","test","1","","40","","","","square","circle","39","19","2","0.9230769230769231","","","","","","","",""
"null","194069","SARL_v6","SARL_v6ugt5dc31","57d0a0bee3221e00015fe385","freq_resp","","","img/orange_2bandit_a.png","70","img/orange_2bandit_a.png","70","test","","","","","","","","","","","2","","","","","","","","",""
"null","194236","SARL_v6","SARL_v6ugt5dc31","57d0a0bee3221e00015fe385","fixation","","","img/fixation.png","null","","","test","","","","","","","","","","","","","","","","","","","",""
"409.70000000298023","194648","SARL_v6","SARL_v6ugt5dc31","57d0a0bee3221e00015fe385","freq","","","img/orange_2bandit_a2.png","70","","70","test","1","","41","","","","square","circle","40","20","2","0.925","","","","","","","",""
"null","195045","SARL_v6","SARL_v6ugt5dc31","57d0a0bee3221e00015fe385","freq_resp","","","img/orange_2bandit_a.png","70","img/orange_2bandit_a.png","70","test","","","","","","","","","","","2","","","","","","","","",""
"null","195205","SARL_v6","SARL_v6ugt5dc31","57d0a0bee3221e00015fe385","fixation","","","img/fixation.png","null","","","test","","","","","","","","","","","","","","","","","","","",""
"357.40000000596046","195564","SARL_v6","SARL_v6ugt5dc31","57d0a0bee3221e00015fe385","freq","","","img/orange_2bandit_a2.png","70","","70","test","1","","42","","","","square","circle","41","21","2","0.926829268292683","","","","","","","",""
"null","196015","SARL_v6","SARL_v6ugt5dc31","57d0a0bee3221e00015fe385","freq_resp","","","img/orange_2bandit_a.png","70","img/orange_2bandit_a.png","70","test","","","","","","","","","","","2","","","","","","","","",""
"null","196175","SARL_v6","SARL_v6ugt5dc31","57d0a0bee3221e00015fe385","fixation","","","img/fixation.png","null","","","test","","","","","","","","","","","","","","","","","","","",""
"314.59999999403954","196492","SARL_v6","SARL_v6ugt5dc31","57d0a0bee3221e00015fe385","freq","","","img/orange_2bandit_a2.png","70","","70","test","1","","43","","","","square","circle","42","22","2","0.9285714285714286","","","","","","","",""
"null","196981","SARL_v6","SARL_v6ugt5dc31","57d0a0bee3221e00015fe385","freq_resp","","","img/orange_2bandit_a.png","70","img/orange_2bandit_a.png","70","test","","","","","","","","","","","2","","","","","","","","",""
"null","197148","SARL_v6","SARL_v6ugt5dc31","57d0a0bee3221e00015fe385","fixation","","","img/fixation.png","null","","","test","","","","","","","","","","","","","","","","","","","",""
"326.80000001192093","197478","SARL_v6","SARL_v6ugt5dc31","57d0a0bee3221e00015fe385","freq","","","img/orange_2bandit_a2.png","70","","70","test","1","","44","","","","square","circle","43","23","2","0.9302325581395349","","","","","","","",""
"null","197963","SARL_v6","SARL_v6ugt5dc31","57d0a0bee3221e00015fe385","freq_resp","","","img/orange_2bandit_a.png","70","img/orange_2bandit_a.png","70","test","","","","","","","","","","","2","","","","","","","","",""
"null","198118","SARL_v6","SARL_v6ugt5dc31","57d0a0bee3221e00015fe385","fixation","","","img/fixation.png","null","","","test","","","","","","","","","","","","","","","","","","","",""
"339.5","198460","SARL_v6","SARL_v6ugt5dc31","57d0a0bee3221e00015fe385","freq","","","img/orange_2bandit_a2.png","70","","70","test","1","","45","","","","square","circle","44","24","2","0.9318181818181818","","","","","","","",""
"null","198933","SARL_v6","SARL_v6ugt5dc31","57d0a0bee3221e00015fe385","freq_resp","","","img/orange_2bandit_a.png","70","img/orange_2bandit_a.png","70","test","","","","","","","","","","","2","","","","","","","","",""
"null","199096","SARL_v6","SARL_v6ugt5dc31","57d0a0bee3221e00015fe385","fixation","","","img/fixation.png","null","","","test","","","","","","","","","","","","","","","","","","","",""
"373.79999999701977","199472","SARL_v6","SARL_v6ugt5dc31","57d0a0bee3221e00015fe385","infreq","","","img/blue_2bandit_a2.png","70","","68","test","0","","46","","","","square","circle","45","25","2","0.9111111111111111","","","","","","","",""
"null","199904","SARL_v6","SARL_v6ugt5dc31","57d0a0bee3221e00015fe385","infreq_resp","","","img/blue_2bandit_a.png","70","img/blue_2bandit_a.png","68","test","","","","","","","","","","","2","","","","","","","","",""
"null","200063","SARL_v6","SARL_v6ugt5dc31","57d0a0bee3221e00015fe385","fixation","","","img/fixation.png","null","","","test","","","","","","","","","","","","","","","","","","","",""
"393.20000000298023","200459","SARL_v6","SARL_v6ugt5dc31","57d0a0bee3221e00015fe385","freq","","","img/orange_2bandit_a2.png","70","","70","test","1","","47","","","","square","circle","46","26","2","0.9130434782608695","","","","","","","",""
"null","200878","SARL_v6","SARL_v6ugt5dc31","57d0a0bee3221e00015fe385","freq_resp","","","img/orange_2bandit_a.png","70","img/orange_2bandit_a.png","70","test","","","","","","","","","","","2","","","","","","","","",""
"null","201034","SARL_v6","SARL_v6ugt5dc31","57d0a0bee3221e00015fe385","fixation","","","img/fixation.png","null","","","test","","","","","","","","","","","","","","","","","","","",""
"696.7000000029802","201733","SARL_v6","SARL_v6ugt5dc31","57d0a0bee3221e00015fe385","rl","","","img/black_2bandit_a2.png","75","","0","test","","","48","","","-8","square","circle","","0","2","","75","-8","-5","-5","-8","circle","2","0"
"null","202488","SARL_v6","SARL_v6ugt5dc31","57d0a0bee3221e00015fe385","feedback","","","<div class=""verylowPoints""> -8 </div>","null","","na","test","","","NaN","","","","","","","","2","","75","","","","","","2",""
"null","203303","SARL_v6","SARL_v6ugt5dc31","57d0a0bee3221e00015fe385","freq","","","img/orange_2bandit_a2.png","null","","70","test","0","","49","","","","square","circle","47","1","3","0.8936170212765957","","","","","","","",""
"null","203461","SARL_v6","SARL_v6ugt5dc31","57d0a0bee3221e00015fe385","fixation","","","img/fixation.png","null","","","test","","","","","","","","","","","","","","","","","","","",""
"529.6999999880791","203993","SARL_v6","SARL_v6ugt5dc31","57d0a0bee3221e00015fe385","freq","","","img/orange_2bandit_a2.png","70","","70","test","1","","50","","","","square","circle","48","2","3","0.8958333333333334","","","","","","","",""
"null","204266","SARL_v6","SARL_v6ugt5dc31","57d0a0bee3221e00015fe385","freq_resp","","","img/orange_2bandit_a.png","70","img/orange_2bandit_a.png","70","test","","","","","","","","","","","3","","","","","","","","",""
"null","204419","SARL_v6","SARL_v6ugt5dc31","57d0a0bee3221e00015fe385","fixation","","","img/fixation.png","null","","","test","","","","","","","","","","","","","","","","","","","",""
"343.3999999910593","204764","SARL_v6","SARL_v6ugt5dc31","57d0a0bee3221e00015fe385","freq","","","img/orange_2bandit_a2.png","70","","70","test","1","","51","","","","square","circle","49","3","3","0.8979591836734694","","","","","","","",""
"null","205231","SARL_v6","SARL_v6ugt5dc31","57d0a0bee3221e00015fe385","freq_resp","","","img/orange_2bandit_a.png","70","img/orange_2bandit_a.png","70","test","","","","","","","","","","","3","","","","","","","","",""
"null","205389","SARL_v6","SARL_v6ugt5dc31","57d0a0bee3221e00015fe385","fixation","","","img/fixation.png","null","","","test","","","","","","","","","","","","","","","","","","","",""
"374.5","205766","SARL_v6","SARL_v6ugt5dc31","57d0a0bee3221e00015fe385","freq","","","img/orange_2bandit_a2.png","70","","70","test","1","","52","","","","square","circle","50","4","3","0.9","","","","","","","",""
"null","206202","SARL_v6","SARL_v6ugt5dc31","57d0a0bee3221e00015fe385","freq_resp","","","img/orange_2bandit_a.png","70","img/orange_2bandit_a.png","70","test","","","","","","","","","","","3","","","","","","","","",""
"null","206355","SARL_v6","SARL_v6ugt5dc31","57d0a0bee3221e00015fe385","fixation","","","img/fixation.png","null","","","test","","","","","","","","","","","","","","","","","","","",""
"401","206758","SARL_v6","SARL_v6ugt5dc31","57d0a0bee3221e00015fe385","freq","","","img/orange_2bandit_a2.png","70","","70","test","1","","53","","","","square","circle","51","5","3","0.9019607843137255","","","","","","","",""
"null","207172","SARL_v6","SARL_v6ugt5dc31","57d0a0bee3221e00015fe385","freq_resp","","","img/orange_2bandit_a.png","70","img/orange_2bandit_a.png","70","test","","","","","","","","","","","3","","","","","","","","",""
"null","207328","SARL_v6","SARL_v6ugt5dc31","57d0a0bee3221e00015fe385","fixation","","","img/fixation.png","null","","","test","","","","","","","","","","","","","","","","","","","",""
"350","207680","SARL_v6","SARL_v6ugt5dc31","57d0a0bee3221e00015fe385","freq","","","img/orange_2bandit_a2.png","70","","70","test","1","","54","","","","square","circle","52","6","3","0.9038461538461539","","","","","","","",""
"null","208140","SARL_v6","SARL_v6ugt5dc31","57d0a0bee3221e00015fe385","freq_resp","","","img/orange_2bandit_a.png","70","img/orange_2bandit_a.png","70","test","","","","","","","","","","","3","","","","","","","","",""
"null","208301","SARL_v6","SARL_v6ugt5dc31","57d0a0bee3221e00015fe385","fixation","","","img/fixation.png","null","","","test","","","","","","","","","","","","","","","","","","","",""
"327.79999999701977","208632","SARL_v6","SARL_v6ugt5dc31","57d0a0bee3221e00015fe385","freq","","","img/orange_2bandit_a2.png","70","","70","test","1","","55","","","","square","circle","53","7","3","0.9056603773584906","","","","","","","",""
"null","209108","SARL_v6","SARL_v6ugt5dc31","57d0a0bee3221e00015fe385","freq_resp","","","img/orange_2bandit_a.png","70","img/orange_2bandit_a.png","70","test","","","","","","","","","","","3","","","","","","","","",""
"null","209270","SARL_v6","SARL_v6ugt5dc31","57d0a0bee3221e00015fe385","fixation","","","img/fixation.png","null","","","test","","","","","","","","","","","","","","","","","","","",""
"708.7999999970198","209981","SARL_v6","SARL_v6ugt5dc31","57d0a0bee3221e00015fe385","infreq","","","img/blue_2bandit_a2.png","68","","68","test","1","","56","","","","square","circle","54","8","3","0.9074074074074074","","","","","","","",""
"null","210079","SARL_v6","SARL_v6ugt5dc31","57d0a0bee3221e00015fe385","infreq_resp","","","img/blue_2bandit_a.png","68","img/blue_2bandit_a.png","68","test","","","","","","","","","","","3","","","","","","","","",""
"null","210234","SARL_v6","SARL_v6ugt5dc31","57d0a0bee3221e00015fe385","fixation","","","img/fixation.png","null","","","test","","","","","","","","","","","","","","","","","","","",""
"620.1000000089407","210857","SARL_v6","SARL_v6ugt5dc31","57d0a0bee3221e00015fe385","freq","","","img/orange_2bandit_a2.png","70","","70","test","1","","57","","","","square","circle","55","9","3","0.9090909090909091","","","","","","","",""
"null","211049","SARL_v6","SARL_v6ugt5dc31","57d0a0bee3221e00015fe385","freq_resp","","","img/orange_2bandit_a.png","70","img/orange_2bandit_a.png","70","test","","","","","","","","","","","3","","","","","","","","",""
"null","211213","SARL_v6","SARL_v6ugt5dc31","57d0a0bee3221e00015fe385","fixation","","","img/fixation.png","null","","","test","","","","","","","","","","","","","","","","","","","",""
"381.70000000298023","211597","SARL_v6","SARL_v6ugt5dc31","57d0a0bee3221e00015fe385","freq","","","img/orange_2bandit_a2.png","70","","70","test","1","","58","","","","square","circle","56","10","3","0.9107142857142857","","","","","","","",""
"null","212022","SARL_v6","SARL_v6ugt5dc31","57d0a0bee3221e00015fe385","freq_resp","","","img/orange_2bandit_a.png","70","img/orange_2bandit_a.png","70","test","","","","","","","","","","","3","","","","","","","","",""
"null","212189","SARL_v6","SARL_v6ugt5dc31","57d0a0bee3221e00015fe385","fixation","","","img/fixation.png","null","","","test","","","","","","","","","","","","","","","","","","","",""
"387.29999999701977","212578","SARL_v6","SARL_v6ugt5dc31","57d0a0bee3221e00015fe385","freq","","","img/orange_2bandit_a2.png","70","","70","test","1","","59","","","","square","circle","57","11","3","0.9122807017543859","","","","","","","",""
"null","213008","SARL_v6","SARL_v6ugt5dc31","57d0a0bee3221e00015fe385","freq_resp","","","img/orange_2bandit_a.png","70","img/orange_2bandit_a.png","70","test","","","","","","","","","","","3","","","","","","","","",""
"null","213174","SARL_v6","SARL_v6ugt5dc31","57d0a0bee3221e00015fe385","fixation","","","img/fixation.png","null","","","test","","","","","","","","","","","","","","","","","","","",""
"344.8999999910593","213521","SARL_v6","SARL_v6ugt5dc31","57d0a0bee3221e00015fe385","freq","","","img/orange_2bandit_a2.png","70","","70","test","1","","60","","","","square","circle","58","12","3","0.9137931034482759","","","","","","","",""
"null","213980","SARL_v6","SARL_v6ugt5dc31","57d0a0bee3221e00015fe385","freq_resp","","","img/orange_2bandit_a.png","70","img/orange_2bandit_a.png","70","test","","","","","","","","","","","3","","","","","","","","",""
"null","214140","SARL_v6","SARL_v6ugt5dc31","57d0a0bee3221e00015fe385","fixation","","","img/fixation.png","null","","","test","","","","","","","","","","","","","","","","","","","",""
"360.40000000596046","214503","SARL_v6","SARL_v6ugt5dc31","57d0a0bee3221e00015fe385","freq","","","img/orange_2bandit_a2.png","70","","70","test","1","","61","","","","square","circle","59","13","3","0.9152542372881356","","","","","","","",""
"null","214949","SARL_v6","SARL_v6ugt5dc31","57d0a0bee3221e00015fe385","freq_resp","","","img/orange_2bandit_a.png","70","img/orange_2bandit_a.png","70","test","","","","","","","","","","","3","","","","","","","","",""
"null","215111","SARL_v6","SARL_v6ugt5dc31","57d0a0bee3221e00015fe385","fixation","","","img/fixation.png","null","","","test","","","","","","","","","","","","","","","","","","","",""
"366.09999999403954","215479","SARL_v6","SARL_v6ugt5dc31","57d0a0bee3221e00015fe385","freq","","","img/orange_2bandit_a2.png","70","","70","test","1","","62","","","","square","circle","60","14","3","0.9166666666666666","","","","","","","",""
"null","215921","SARL_v6","SARL_v6ugt5dc31","57d0a0bee3221e00015fe385","freq_resp","","","img/orange_2bandit_a.png","70","img/orange_2bandit_a.png","70","test","","","","","","","","","","","3","","","","","","","","",""
"null","216084","SARL_v6","SARL_v6ugt5dc31","57d0a0bee3221e00015fe385","fixation","","","img/fixation.png","null","","","test","","","","","","","","","","","","","","","","","","","",""
"360.6000000089407","216446","SARL_v6","SARL_v6ugt5dc31","57d0a0bee3221e00015fe385","freq","","","img/orange_2bandit_a2.png","70","","70","test","1","","63","","","","square","circle","61","15","3","0.9180327868852459","","","","","","","",""
"null","216892","SARL_v6","SARL_v6ugt5dc31","57d0a0bee3221e00015fe385","freq_resp","","","img/orange_2bandit_a.png","70","img/orange_2bandit_a.png","70","test","","","","","","","","","","","3","","","","","","","","",""
"null","217054","SARL_v6","SARL_v6ugt5dc31","57d0a0bee3221e00015fe385","fixation","","","img/fixation.png","null","","","test","","","","","","","","","","","","","","","","","","","",""
"300.90000000596046","217358","SARL_v6","SARL_v6ugt5dc31","57d0a0bee3221e00015fe385","freq","","","img/orange_2bandit_a2.png","70","","70","test","1","","64","","","","square","circle","62","16","3","0.9193548387096774","","","","","","","",""
"null","217862","SARL_v6","SARL_v6ugt5dc31","57d0a0bee3221e00015fe385","freq_resp","","","img/orange_2bandit_a.png","70","img/orange_2bandit_a.png","70","test","","","","","","","","","","","3","","","","","","","","",""
"null","218027","SARL_v6","SARL_v6ugt5dc31","57d0a0bee3221e00015fe385","fixation","","","img/fixation.png","null","","","test","","","","","","","","","","","","","","","","","","","",""
"347","218376","SARL_v6","SARL_v6ugt5dc31","57d0a0bee3221e00015fe385","freq","","","img/orange_2bandit_a2.png","70","","70","test","1","","65","","","","square","circle","63","17","3","0.9206349206349206","","","","","","","",""
"null","218847","SARL_v6","SARL_v6ugt5dc31","57d0a0bee3221e00015fe385","freq_resp","","","img/orange_2bandit_a.png","70","img/orange_2bandit_a.png","70","test","","","","","","","","","","","3","","","","","","","","",""
"null","219003","SARL_v6","SARL_v6ugt5dc31","57d0a0bee3221e00015fe385","fixation","","","img/fixation.png","null","","","test","","","","","","","","","","","","","","","","","","","",""
"325.79999999701977","219331","SARL_v6","SARL_v6ugt5dc31","57d0a0bee3221e00015fe385","freq","","","img/orange_2bandit_a2.png","70","","70","test","1","","66","","","","square","circle","64","18","3","0.921875","","","","","","","",""
"null","219814","SARL_v6","SARL_v6ugt5dc31","57d0a0bee3221e00015fe385","freq_resp","","","img/orange_2bandit_a.png","70","img/orange_2bandit_a.png","70","test","","","","","","","","","","","3","","","","","","","","",""
"null","219971","SARL_v6","SARL_v6ugt5dc31","57d0a0bee3221e00015fe385","fixation","","","img/fixation.png","null","","","test","","","","","","","","","","","","","","","","","","","",""
"325.09999999403954","220299","SARL_v6","SARL_v6ugt5dc31","57d0a0bee3221e00015fe385","freq","","","img/orange_2bandit_a2.png","70","","70","test","1","","67","","","","square","circle","65","19","3","0.9230769230769231","","","","","","","",""
"null","220784","SARL_v6","SARL_v6ugt5dc31","57d0a0bee3221e00015fe385","freq_resp","","","img/orange_2bandit_a.png","70","img/orange_2bandit_a.png","70","test","","","","","","","","","","","3","","","","","","","","",""
"null","220951","SARL_v6","SARL_v6ugt5dc31","57d0a0bee3221e00015fe385","fixation","","","img/fixation.png","null","","","test","","","","","","","","","","","","","","","","","","","",""
"327.20000000298023","221281","SARL_v6","SARL_v6ugt5dc31","57d0a0bee3221e00015fe385","freq","","","img/orange_2bandit_a2.png","70","","70","test","1","","68","","","","square","circle","66","20","3","0.9242424242424242","","","","","","","",""
"null","221766","SARL_v6","SARL_v6ugt5dc31","57d0a0bee3221e00015fe385","freq_resp","","","img/orange_2bandit_a.png","70","img/orange_2bandit_a.png","70","test","","","","","","","","","","","3","","","","","","","","",""
"null","221934","SARL_v6","SARL_v6ugt5dc31","57d0a0bee3221e00015fe385","fixation","","","img/fixation.png","null","","","test","","","","","","","","","","","","","","","","","","","",""
"437","222374","SARL_v6","SARL_v6ugt5dc31","57d0a0bee3221e00015fe385","infreq","","","img/blue_2bandit_a2.png","68","","68","test","1","","69","","","","square","circle","67","21","3","0.9253731343283582","","","","","","","",""
"null","222740","SARL_v6","SARL_v6ugt5dc31","57d0a0bee3221e00015fe385","infreq_resp","","","img/blue_2bandit_a.png","68","img/blue_2bandit_a.png","68","test","","","","","","","","","","","3","","","","","","","","",""
"null","222895","SARL_v6","SARL_v6ugt5dc31","57d0a0bee3221e00015fe385","fixation","","","img/fixation.png","null","","","test","","","","","","","","","","","","","","","","","","","",""
"292.1000000089407","223190","SARL_v6","SARL_v6ugt5dc31","57d0a0bee3221e00015fe385","freq","","","img/orange_2bandit_a2.png","70","","70","test","1","","70","","","","square","circle","68","22","3","0.9264705882352942","","","","","","","",""
"null","223706","SARL_v6","SARL_v6ugt5dc31","57d0a0bee3221e00015fe385","freq_resp","","","img/orange_2bandit_a.png","70","img/orange_2bandit_a.png","70","test","","","","","","","","","","","3","","","","","","","","",""
"null","223864","SARL_v6","SARL_v6ugt5dc31","57d0a0bee3221e00015fe385","fixation","","","img/fixation.png","null","","","test","","","","","","","","","","","","","","","","","","","",""
"293.8999999910593","224161","SARL_v6","SARL_v6ugt5dc31","57d0a0bee3221e00015fe385","freq","","","img/orange_2bandit_a2.png","70","","70","test","1","","71","","","","square","circle","69","23","3","0.927536231884058","","","","","","","",""
"null","224670","SARL_v6","SARL_v6ugt5dc31","57d0a0bee3221e00015fe385","freq_resp","","","img/orange_2bandit_a.png","70","img/orange_2bandit_a.png","70","test","","","","","","","","","","","3","","","","","","","","",""
"null","224836","SARL_v6","SARL_v6ugt5dc31","57d0a0bee3221e00015fe385","fixation","","","img/fixation.png","null","","","test","","","","","","","","","","","","","","","","","","","",""
"594.5","225433","SARL_v6","SARL_v6ugt5dc31","57d0a0bee3221e00015fe385","rl","","","img/black_2bandit_a2.png","75","","0","test","","","72","","","-8","square","circle","","0","3","","75","-8","-4","-4","-8","circle","3","0"
"null","226199","SARL_v6","SARL_v6ugt5dc31","57d0a0bee3221e00015fe385","feedback","","","<div class=""verylowPoints""> -8 </div>","null","","na","test","","","NaN","","","","","","","","3","","75","","","","","","3",""
"387.09999999403954","226588","SARL_v6","SARL_v6ugt5dc31","57d0a0bee3221e00015fe385","freq","","","img/orange_2bandit_a2.png","70","","70","test","1","","73","","","","square","circle","70","1","4","0.9285714285714286","","","","","","","",""
"null","227004","SARL_v6","SARL_v6ugt5dc31","57d0a0bee3221e00015fe385","freq_resp","","","img/orange_2bandit_a.png","70","img/orange_2bandit_a.png","70","test","","","","","","","","","","","4","","","","","","","","",""
"null","227163","SARL_v6","SARL_v6ugt5dc31","57d0a0bee3221e00015fe385","fixation","","","img/fixation.png","null","","","test","","","","","","","","","","","","","","","","","","","",""
"317.79999999701977","227484","SARL_v6","SARL_v6ugt5dc31","57d0a0bee3221e00015fe385","freq","","","img/orange_2bandit_a2.png","70","","70","test","1","","74","","","","square","circle","71","2","4","0.9295774647887324","","","","","","","",""
"null","227971","SARL_v6","SARL_v6ugt5dc31","57d0a0bee3221e00015fe385","freq_resp","","","img/orange_2bandit_a.png","70","img/orange_2bandit_a.png","70","test","","","","","","","","","","","4","","","","","","","","",""
"null","228124","SARL_v6","SARL_v6ugt5dc31","57d0a0bee3221e00015fe385","fixation","","","img/fixation.png","null","","","test","","","","","","","","","","","","","","","","","","","",""
"333.5","228461","SARL_v6","SARL_v6ugt5dc31","57d0a0bee3221e00015fe385","freq","","","img/orange_2bandit_a2.png","70","","70","test","1","","75","","","","square","circle","72","3","4","0.9305555555555556","","","","","","","",""
"null","228940","SARL_v6","SARL_v6ugt5dc31","57d0a0bee3221e00015fe385","freq_resp","","","img/orange_2bandit_a.png","70","img/orange_2bandit_a.png","70","test","","","","","","","","","","","4","","","","","","","","",""
"null","229103","SARL_v6","SARL_v6ugt5dc31","57d0a0bee3221e00015fe385","fixation","","","img/fixation.png","null","","","test","","","","","","","","","","","","","","","","","","","",""
"292.19999998807907","229397","SARL_v6","SARL_v6ugt5dc31","57d0a0bee3221e00015fe385","freq","","","img/orange_2bandit_a2.png","70","","70","test","1","","76","","","","square","circle","73","4","4","0.9315068493150684","","","","","","","",""
"null","229920","SARL_v6","SARL_v6ugt5dc31","57d0a0bee3221e00015fe385","freq_resp","","","img/orange_2bandit_a.png","70","img/orange_2bandit_a.png","70","test","","","","","","","","","","","4","","","","","","","","",""
"null","230086","SARL_v6","SARL_v6ugt5dc31","57d0a0bee3221e00015fe385","fixation","","","img/fixation.png","null","","","test","","","","","","","","","","","","","","","","","","","",""
"195.29999999701977","230284","SARL_v6","SARL_v6ugt5dc31","57d0a0bee3221e00015fe385","freq","","","img/orange_2bandit_a2.png","70","","70","test","1","","77","","","","square","circle","74","5","4","0.9324324324324325","","","","","","","",""
"null","230898","SARL_v6","SARL_v6ugt5dc31","57d0a0bee3221e00015fe385","freq_resp","","","img/orange_2bandit_a.png","70","img/orange_2bandit_a.png","70","test","","","","","","","","","","","4","","","","","","","","",""
"null","231059","SARL_v6","SARL_v6ugt5dc31","57d0a0bee3221e00015fe385","fixation","","","img/fixation.png","null","","","test","","","","","","","","","","","","","","","","","","","",""
"109.20000000298023","231170","SARL_v6","SARL_v6ugt5dc31","57d0a0bee3221e00015fe385","freq","","","img/orange_2bandit_a2.png","70","","70","test","1","","78","","","","square","circle","75","6","4","0.9333333333333333","","","","","","","",""
"null","231869","SARL_v6","SARL_v6ugt5dc31","57d0a0bee3221e00015fe385","freq_resp","","","img/orange_2bandit_a.png","70","img/orange_2bandit_a.png","70","test","","","","","","","","","","","4","","","","","","","","",""
"null","232036","SARL_v6","SARL_v6ugt5dc31","57d0a0bee3221e00015fe385","fixation","","","img/fixation.png","null","","","test","","","","","","","","","","","","","","","","","","","",""
"45","232083","SARL_v6","SARL_v6ugt5dc31","57d0a0bee3221e00015fe385","freq","","","img/orange_2bandit_a2.png","70","","70","test","1","","79","","","","square","circle","76","7","4","0.9342105263157895","","","","","","","",""
"null","232846","SARL_v6","SARL_v6ugt5dc31","57d0a0bee3221e00015fe385","freq_resp","","","img/orange_2bandit_a.png","70","img/orange_2bandit_a.png","70","test","","","","","","","","","","","4","","","","","","","","",""
"null","233010","SARL_v6","SARL_v6ugt5dc31","57d0a0bee3221e00015fe385","fixation","","","img/fixation.png","null","","","test","","","","","","","","","","","","","","","","","","","",""
"431.90000000596046","233445","SARL_v6","SARL_v6ugt5dc31","57d0a0bee3221e00015fe385","infreq","","","img/blue_2bandit_a2.png","68","","68","test","1","","80","","","","square","circle","77","8","4","0.935064935064935","","","","","","","",""
"null","233819","SARL_v6","SARL_v6ugt5dc31","57d0a0bee3221e00015fe385","infreq_resp","","","img/blue_2bandit_a.png","68","img/blue_2bandit_a.png","68","test","","","","","","","","","","","4","","","","","","","","",""
"null","233974","SARL_v6","SARL_v6ugt5dc31","57d0a0bee3221e00015fe385","fixation","","","img/fixation.png","null","","","test","","","","","","","","","","","","","","","","","","","",""
"279.59999999403954","234256","SARL_v6","SARL_v6ugt5dc31","57d0a0bee3221e00015fe385","freq","","","img/orange_2bandit_a2.png","70","","70","test","1","","81","","","","square","circle","78","9","4","0.9358974358974359","","","","","","","",""
"null","234785","SARL_v6","SARL_v6ugt5dc31","57d0a0bee3221e00015fe385","freq_resp","","","img/orange_2bandit_a.png","70","img/orange_2bandit_a.png","70","test","","","","","","","","","","","4","","","","","","","","",""
"null","234947","SARL_v6","SARL_v6ugt5dc31","57d0a0bee3221e00015fe385","fixation","","","img/fixation.png","null","","","test","","","","","","","","","","","","","","","","","","","",""
"185.6000000089407","235135","SARL_v6","SARL_v6ugt5dc31","57d0a0bee3221e00015fe385","freq","","","img/orange_2bandit_a2.png","70","","70","test","1","","82","","","","square","circle","79","10","4","0.9367088607594937","","","","","","","",""
"null","235758","SARL_v6","SARL_v6ugt5dc31","57d0a0bee3221e00015fe385","freq_resp","","","img/orange_2bandit_a.png","70","img/orange_2bandit_a.png","70","test","","","","","","","","","","","4","","","","","","","","",""
"null","235921","SARL_v6","SARL_v6ugt5dc31","57d0a0bee3221e00015fe385","fixation","","","img/fixation.png","null","","","test","","","","","","","","","","","","","","","","","","","",""
"306.6000000089407","236230","SARL_v6","SARL_v6ugt5dc31","57d0a0bee3221e00015fe385","freq","","","img/orange_2bandit_a2.png","70","","70","test","1","","83","","","","square","circle","80","11","4","0.9375","","","","","","","",""
"null","236738","SARL_v6","SARL_v6ugt5dc31","57d0a0bee3221e00015fe385","freq_resp","","","img/orange_2bandit_a.png","70","img/orange_2bandit_a.png","70","test","","","","","","","","","","","4","","","","","","","","",""
"null","236904","SARL_v6","SARL_v6ugt5dc31","57d0a0bee3221e00015fe385","fixation","","","img/fixation.png","null","","","test","","","","","","","","","","","","","","","","","","","",""
"330.8999999910593","237237","SARL_v6","SARL_v6ugt5dc31","57d0a0bee3221e00015fe385","freq","","","img/orange_2bandit_a2.png","70","","70","test","1","","84","","","","square","circle","81","12","4","0.9382716049382716","","","","","","","",""
"null","237721","SARL_v6","SARL_v6ugt5dc31","57d0a0bee3221e00015fe385","freq_resp","","","img/orange_2bandit_a.png","70","img/orange_2bandit_a.png","70","test","","","","","","","","","","","4","","","","","","","","",""
"null","237875","SARL_v6","SARL_v6ugt5dc31","57d0a0bee3221e00015fe385","fixation","","","img/fixation.png","null","","","test","","","","","","","","","","","","","","","","","","","",""
"298.70000000298023","238176","SARL_v6","SARL_v6ugt5dc31","57d0a0bee3221e00015fe385","freq","","","img/orange_2bandit_a2.png","70","","70","test","1","","85","","","","square","circle","82","13","4","0.9390243902439024","","","","","","","",""
"null","238687","SARL_v6","SARL_v6ugt5dc31","57d0a0bee3221e00015fe385","freq_resp","","","img/orange_2bandit_a.png","70","img/orange_2bandit_a.png","70","test","","","","","","","","","","","4","","","","","","","","",""
"null","238849","SARL_v6","SARL_v6ugt5dc31","57d0a0bee3221e00015fe385","fixation","","","img/fixation.png","null","","","test","","","","","","","","","","","","","","","","","","","",""
"325.20000000298023","239176","SARL_v6","SARL_v6ugt5dc31","57d0a0bee3221e00015fe385","freq","","","img/orange_2bandit_a2.png","70","","70","test","1","","86","","","","square","circle","83","14","4","0.9397590361445783","","","","","","","",""
"null","239658","SARL_v6","SARL_v6ugt5dc31","57d0a0bee3221e00015fe385","freq_resp","","","img/orange_2bandit_a.png","70","img/orange_2bandit_a.png","70","test","","","","","","","","","","","4","","","","","","","","",""
"null","239815","SARL_v6","SARL_v6ugt5dc31","57d0a0bee3221e00015fe385","fixation","","","img/fixation.png","null","","","test","","","","","","","","","","","","","","","","","","","",""
"310.5","240128","SARL_v6","SARL_v6ugt5dc31","57d0a0bee3221e00015fe385","freq","","","img/orange_2bandit_a2.png","70","","70","test","1","","87","","","","square","circle","84","15","4","0.9404761904761905","","","","","","","",""
"null","240622","SARL_v6","SARL_v6ugt5dc31","57d0a0bee3221e00015fe385","freq_resp","","","img/orange_2bandit_a.png","70","img/orange_2bandit_a.png","70","test","","","","","","","","","","","4","","","","","","","","",""
"null","240785","SARL_v6","SARL_v6ugt5dc31","57d0a0bee3221e00015fe385","fixation","","","img/fixation.png","null","","","test","","","","","","","","","","","","","","","","","","","",""
"279.5","241066","SARL_v6","SARL_v6ugt5dc31","57d0a0bee3221e00015fe385","infreq","","","img/blue_2bandit_a2.png","70","","68","test","0","","88","","","","square","circle","85","16","4","0.9294117647058824","","","","","","","",""
"null","241599","SARL_v6","SARL_v6ugt5dc31","57d0a0bee3221e00015fe385","infreq_resp","","","img/blue_2bandit_a.png","70","img/blue_2bandit_a.png","68","test","","","","","","","","","","","4","","","","","","","","",""
"null","241754","SARL_v6","SARL_v6ugt5dc31","57d0a0bee3221e00015fe385","fixation","","","img/fixation.png","null","","","test","","","","","","","","","","","","","","","","","","","",""
"354.6000000089407","242111","SARL_v6","SARL_v6ugt5dc31","57d0a0bee3221e00015fe385","freq","","","img/orange_2bandit_a2.png","70","","70","test","1","","89","","","","square","circle","86","17","4","0.9302325581395349","","","","","","","",""
"null","242571","SARL_v6","SARL_v6ugt5dc31","57d0a0bee3221e00015fe385","freq_resp","","","img/orange_2bandit_a.png","70","img/orange_2bandit_a.png","70","test","","","","","","","","","","","4","","","","","","","","",""
"null","242733","SARL_v6","SARL_v6ugt5dc31","57d0a0bee3221e00015fe385","fixation","","","img/fixation.png","null","","","test","","","","","","","","","","","","","","","","","","","",""
"367.59999999403954","243103","SARL_v6","SARL_v6ugt5dc31","57d0a0bee3221e00015fe385","freq","","","img/orange_2bandit_a2.png","70","","70","test","1","","90","","","","square","circle","87","18","4","0.9310344827586207","","","","","","","",""
"null","243548","SARL_v6","SARL_v6ugt5dc31","57d0a0bee3221e00015fe385","freq_resp","","","img/orange_2bandit_a.png","70","img/orange_2bandit_a.png","70","test","","","","","","","","","","","4","","","","","","","","",""
"null","243714","SARL_v6","SARL_v6ugt5dc31","57d0a0bee3221e00015fe385","fixation","","","img/fixation.png","null","","","test","","","","","","","","","","","","","","","","","","","",""
"362.70000000298023","244078","SARL_v6","SARL_v6ugt5dc31","57d0a0bee3221e00015fe385","freq","","","img/orange_2bandit_a2.png","70","","70","test","1","","91","","","","square","circle","88","19","4","0.9318181818181818","","","","","","","",""
"null","244518","SARL_v6","SARL_v6ugt5dc31","57d0a0bee3221e00015fe385","freq_resp","","","img/orange_2bandit_a.png","70","img/orange_2bandit_a.png","70","test","","","","","","","","","","","4","","","","","","","","",""
"null","244679","SARL_v6","SARL_v6ugt5dc31","57d0a0bee3221e00015fe385","fixation","","","img/fixation.png","null","","","test","","","","","","","","","","","","","","","","","","","",""
"405.70000000298023","245087","SARL_v6","SARL_v6ugt5dc31","57d0a0bee3221e00015fe385","freq","","","img/orange_2bandit_a2.png","70","","70","test","1","","92","","","","square","circle","89","20","4","0.9325842696629213","","","","","","","",""
"null","245493","SARL_v6","SARL_v6ugt5dc31","57d0a0bee3221e00015fe385","freq_resp","","","img/orange_2bandit_a.png","70","img/orange_2bandit_a.png","70","test","","","","","","","","","","","4","","","","","","","","",""
"null","245661","SARL_v6","SARL_v6ugt5dc31","57d0a0bee3221e00015fe385","fixation","","","img/fixation.png","null","","","test","","","","","","","","","","","","","","","","","","","",""
"692.2000000029802","246356","SARL_v6","SARL_v6ugt5dc31","57d0a0bee3221e00015fe385","rl","","","img/black_2bandit_a2.png","75","","0","test","","","93","","","-12","square","circle","","0","4","","75","-12","0","0","-12","circle","4","0"
"null","247110","SARL_v6","SARL_v6ugt5dc31","57d0a0bee3221e00015fe385","feedback","","","<div class=""verylowPoints""> -12 </div>","null","","na","test","","","NaN","","","","","","","","4","","75","","","","","","4",""
"673.7000000029802","247786","SARL_v6","SARL_v6ugt5dc31","57d0a0bee3221e00015fe385","freq","","","img/orange_2bandit_a2.png","70","","70","test","1","","94","","","","square","circle","90","1","5","0.9333333333333333","","","","","","","",""
"null","247917","SARL_v6","SARL_v6ugt5dc31","57d0a0bee3221e00015fe385","freq_resp","","","img/orange_2bandit_a.png","70","img/orange_2bandit_a.png","70","test","","","","","","","","","","","5","","","","","","","","",""
"null","248071","SARL_v6","SARL_v6ugt5dc31","57d0a0bee3221e00015fe385","fixation","","","img/fixation.png","null","","","test","","","","","","","","","","","","","","","","","","","",""
"493.79999999701977","248567","SARL_v6","SARL_v6ugt5dc31","57d0a0bee3221e00015fe385","freq","","","img/orange_2bandit_a2.png","70","","70","test","1","","95","","","","square","circle","91","2","5","0.9340659340659341","","","","","","","",""
"null","248881","SARL_v6","SARL_v6ugt5dc31","57d0a0bee3221e00015fe385","freq_resp","","","img/orange_2bandit_a.png","70","img/orange_2bandit_a.png","70","test","","","","","","","","","","","5","","","","","","","","",""
"null","249042","SARL_v6","SARL_v6ugt5dc31","57d0a0bee3221e00015fe385","fixation","","","img/fixation.png","null","","","test","","","","","","","","","","","","","","","","","","","",""
"424.6000000089407","249468","SARL_v6","SARL_v6ugt5dc31","57d0a0bee3221e00015fe385","freq","","","img/orange_2bandit_a2.png","70","","70","test","1","","96","","","","square","circle","92","3","5","0.9347826086956522","","","","","","","",""
"null","249851","SARL_v6","SARL_v6ugt5dc31","57d0a0bee3221e00015fe385","freq_resp","","","img/orange_2bandit_a.png","70","img/orange_2bandit_a.png","70","test","","","","","","","","","","","5","","","","","","","","",""
"null","250010","SARL_v6","SARL_v6ugt5dc31","57d0a0bee3221e00015fe385","fixation","","","img/fixation.png","null","","","test","","","","","","","","","","","","","","","","","","","",""
"341.5","250354","SARL_v6","SARL_v6ugt5dc31","57d0a0bee3221e00015fe385","freq","","","img/orange_2bandit_a2.png","70","","70","test","1","","97","","","","square","circle","93","4","5","0.9354838709677419","","","","","","","",""
"null","250823","SARL_v6","SARL_v6ugt5dc31","57d0a0bee3221e00015fe385","freq_resp","","","img/orange_2bandit_a.png","70","img/orange_2bandit_a.png","70","test","","","","","","","","","","","5","","","","","","","","",""
"null","250979","SARL_v6","SARL_v6ugt5dc31","57d0a0bee3221e00015fe385","fixation","","","img/fixation.png","null","","","test","","","","","","","","","","","","","","","","","","","",""
"374.90000000596046","251357","SARL_v6","SARL_v6ugt5dc31","57d0a0bee3221e00015fe385","freq","","","img/orange_2bandit_a2.png","70","","70","test","1","","98","","","","square","circle","94","5","5","0.9361702127659575","","","","","","","",""
"null","251793","SARL_v6","SARL_v6ugt5dc31","57d0a0bee3221e00015fe385","freq_resp","","","img/orange_2bandit_a.png","70","img/orange_2bandit_a.png","70","test","","","","","","","","","","","5","","","","","","","","",""
"null","251960","SARL_v6","SARL_v6ugt5dc31","57d0a0bee3221e00015fe385","fixation","","","img/fixation.png","null","","","test","","","","","","","","","","","","","","","","","","","",""
"366.90000000596046","252329","SARL_v6","SARL_v6ugt5dc31","57d0a0bee3221e00015fe385","freq","","","img/orange_2bandit_a2.png","70","","70","test","1","","99","","","","square","circle","95","6","5","0.9368421052631579","","","","","","","",""
"null","252777","SARL_v6","SARL_v6ugt5dc31","57d0a0bee3221e00015fe385","freq_resp","","","img/orange_2bandit_a.png","70","img/orange_2bandit_a.png","70","test","","","","","","","","","","","5","","","","","","","","",""
"null","252937","SARL_v6","SARL_v6ugt5dc31","57d0a0bee3221e00015fe385","fixation","","","img/fixation.png","null","","","test","","","","","","","","","","","","","","","","","","","",""
"365.8999999910593","253305","SARL_v6","SARL_v6ugt5dc31","57d0a0bee3221e00015fe385","freq","","","img/orange_2bandit_a2.png","70","","70","test","1","","100","","","","square","circle","96","7","5","0.9375","","","","","","","",""
"null","253755","SARL_v6","SARL_v6ugt5dc31","57d0a0bee3221e00015fe385","freq_resp","","","img/orange_2bandit_a.png","70","img/orange_2bandit_a.png","70","test","","","","","","","","","","","5","","","","","","","","",""
"null","253921","SARL_v6","SARL_v6ugt5dc31","57d0a0bee3221e00015fe385","fixation","","","img/fixation.png","null","","","test","","","","","","","","","","","","","","","","","","","",""
"400.1000000089407","254323","SARL_v6","SARL_v6ugt5dc31","57d0a0bee3221e00015fe385","freq","","","img/orange_2bandit_a2.png","70","","70","test","1","","101","","","","square","circle","97","8","5","0.9381443298969072","","","","","","","",""
"null","254728","SARL_v6","SARL_v6ugt5dc31","57d0a0bee3221e00015fe385","freq_resp","","","img/orange_2bandit_a.png","70","img/orange_2bandit_a.png","70","test","","","","","","","","","","","5","","","","","","","","",""
"null","254882","SARL_v6","SARL_v6ugt5dc31","57d0a0bee3221e00015fe385","fixation","","","img/fixation.png","null","","","test","","","","","","","","","","","","","","","","","","","",""
"389.80000001192093","255274","SARL_v6","SARL_v6ugt5dc31","57d0a0bee3221e00015fe385","freq","","","img/orange_2bandit_a2.png","70","","70","test","1","","102","","","","square","circle","98","9","5","0.9387755102040817","","","","","","","",""
"null","255689","SARL_v6","SARL_v6ugt5dc31","57d0a0bee3221e00015fe385","freq_resp","","","img/orange_2bandit_a.png","70","img/orange_2bandit_a.png","70","test","","","","","","","","","","","5","","","","","","","","",""
"null","255850","SARL_v6","SARL_v6ugt5dc31","57d0a0bee3221e00015fe385","fixation","","","img/fixation.png","null","","","test","","","","","","","","","","","","","","","","","","","",""
"383.09999999403954","256235","SARL_v6","SARL_v6ugt5dc31","57d0a0bee3221e00015fe385","freq","","","img/orange_2bandit_a2.png","70","","70","test","1","","103","","","","square","circle","99","10","5","0.9393939393939394","","","","","","","",""
"null","256661","SARL_v6","SARL_v6ugt5dc31","57d0a0bee3221e00015fe385","freq_resp","","","img/orange_2bandit_a.png","70","img/orange_2bandit_a.png","70","test","","","","","","","","","","","5","","","","","","","","",""
"null","256820","SARL_v6","SARL_v6ugt5dc31","57d0a0bee3221e00015fe385","fixation","","","img/fixation.png","null","","","test","","","","","","","","","","","","","","","","","","","",""
"369.90000000596046","257192","SARL_v6","SARL_v6ugt5dc31","57d0a0bee3221e00015fe385","freq","","","img/orange_2bandit_a2.png","70","","70","test","1","","104","","","","square","circle","100","11","5","0.94","","","","","","","",""
"null","257633","SARL_v6","SARL_v6ugt5dc31","57d0a0bee3221e00015fe385","freq_resp","","","img/orange_2bandit_a.png","70","img/orange_2bandit_a.png","70","test","","","","","","","","","","","5","","","","","","","","",""
"null","257798","SARL_v6","SARL_v6ugt5dc31","57d0a0bee3221e00015fe385","fixation","","","img/fixation.png","null","","","test","","","","","","","","","","","","","","","","","","","",""
"379.5","258180","SARL_v6","SARL_v6ugt5dc31","57d0a0bee3221e00015fe385","freq","","","img/orange_2bandit_a2.png","70","","70","test","1","","105","","","","square","circle","101","12","5","0.9405940594059405","","","","","","","",""
"null","258604","SARL_v6","SARL_v6ugt5dc31","57d0a0bee3221e00015fe385","freq_resp","","","img/orange_2bandit_a.png","70","img/orange_2bandit_a.png","70","test","","","","","","","","","","","5","","","","","","","","",""
"null","258765","SARL_v6","SARL_v6ugt5dc31","57d0a0bee3221e00015fe385","fixation","","","img/fixation.png","null","","","test","","","","","","","","","","","","","","","","","","","",""
"363.5","259131","SARL_v6","SARL_v6ugt5dc31","57d0a0bee3221e00015fe385","freq","","","img/orange_2bandit_a2.png","70","","70","test","1","","106","","","","square","circle","102","13","5","0.9411764705882353","","","","","","","",""
"null","259570","SARL_v6","SARL_v6ugt5dc31","57d0a0bee3221e00015fe385","freq_resp","","","img/orange_2bandit_a.png","70","img/orange_2bandit_a.png","70","test","","","","","","","","","","","5","","","","","","","","",""
"null","259737","SARL_v6","SARL_v6ugt5dc31","57d0a0bee3221e00015fe385","fixation","","","img/fixation.png","null","","","test","","","","","","","","","","","","","","","","","","","",""
"360.1000000089407","260099","SARL_v6","SARL_v6ugt5dc31","57d0a0bee3221e00015fe385","freq","","","img/orange_2bandit_a2.png","70","","70","test","1","","107","","","","square","circle","103","14","5","0.941747572815534","","","","","","","",""
"null","260543","SARL_v6","SARL_v6ugt5dc31","57d0a0bee3221e00015fe385","freq_resp","","","img/orange_2bandit_a.png","70","img/orange_2bandit_a.png","70","test","","","","","","","","","","","5","","","","","","","","",""
"null","260706","SARL_v6","SARL_v6ugt5dc31","57d0a0bee3221e00015fe385","fixation","","","img/fixation.png","null","","","test","","","","","","","","","","","","","","","","","","","",""
"381.6000000089407","261090","SARL_v6","SARL_v6ugt5dc31","57d0a0bee3221e00015fe385","freq","","","img/orange_2bandit_a2.png","70","","70","test","1","","108","","","","square","circle","104","15","5","0.9423076923076923","","","","","","","",""
"null","261515","SARL_v6","SARL_v6ugt5dc31","57d0a0bee3221e00015fe385","freq_resp","","","img/orange_2bandit_a.png","70","img/orange_2bandit_a.png","70","test","","","","","","","","","","","5","","","","","","","","",""
"null","261678","SARL_v6","SARL_v6ugt5dc31","57d0a0bee3221e00015fe385","fixation","","","img/fixation.png","null","","","test","","","","","","","","","","","","","","","","","","","",""
"377.5","262058","SARL_v6","SARL_v6ugt5dc31","57d0a0bee3221e00015fe385","freq","","","img/orange_2bandit_a2.png","70","","70","test","1","","109","","","","square","circle","105","16","5","0.9428571428571428","","","","","","","",""
"null","262485","SARL_v6","SARL_v6ugt5dc31","57d0a0bee3221e00015fe385","freq_resp","","","img/orange_2bandit_a.png","70","img/orange_2bandit_a.png","70","test","","","","","","","","","","","5","","","","","","","","",""
"null","262646","SARL_v6","SARL_v6ugt5dc31","57d0a0bee3221e00015fe385","fixation","","","img/fixation.png","null","","","test","","","","","","","","","","","","","","","","","","","",""
"556.4000000059605","263205","SARL_v6","SARL_v6ugt5dc31","57d0a0bee3221e00015fe385","freq","","","img/orange_2bandit_a2.png","70","","70","test","1","","110","","","","square","circle","106","17","5","0.9433962264150944","","","","","","","",""
"null","263454","SARL_v6","SARL_v6ugt5dc31","57d0a0bee3221e00015fe385","freq_resp","","","img/orange_2bandit_a.png","70","img/orange_2bandit_a.png","70","test","","","","","","","","","","","5","","","","","","","","",""
"null","263611","SARL_v6","SARL_v6ugt5dc31","57d0a0bee3221e00015fe385","fixation","","","img/fixation.png","null","","","test","","","","","","","","","","","","","","","","","","","",""
"708.9000000059605","264322","SARL_v6","SARL_v6ugt5dc31","57d0a0bee3221e00015fe385","freq","","","img/orange_2bandit_a2.png","70","","70","test","1","","111","","","","square","circle","107","18","5","0.9439252336448598","","","","","","","",""
"null","264429","SARL_v6","SARL_v6ugt5dc31","57d0a0bee3221e00015fe385","freq_resp","","","img/orange_2bandit_a.png","70","img/orange_2bandit_a.png","70","test","","","","","","","","","","","5","","","","","","","","",""
"null","264595","SARL_v6","SARL_v6ugt5dc31","57d0a0bee3221e00015fe385","fixation","","","img/fixation.png","null","","","test","","","","","","","","","","","","","","","","","","","",""
"606.5999999940395","265204","SARL_v6","SARL_v6ugt5dc31","57d0a0bee3221e00015fe385","infreq","","","img/blue_2bandit_a2.png","68","","68","test","1","","112","","","","square","circle","108","19","5","0.9444444444444444","","","","","","","",""
"null","265410","SARL_v6","SARL_v6ugt5dc31","57d0a0bee3221e00015fe385","infreq_resp","","","img/blue_2bandit_a.png","68","img/blue_2bandit_a.png","68","test","","","","","","","","","","","5","","","","","","","","",""
"null","265577","SARL_v6","SARL_v6ugt5dc31","57d0a0bee3221e00015fe385","fixation","","","img/fixation.png","null","","","test","","","","","","","","","","","","","","","","","","","",""
"550.8999999910593","266130","SARL_v6","SARL_v6ugt5dc31","57d0a0bee3221e00015fe385","infreq","","","img/blue_2bandit_a2.png","68","","68","test","1","","113","","","","square","circle","109","20","5","0.944954128440367","","","","","","","",""
"null","266393","SARL_v6","SARL_v6ugt5dc31","57d0a0bee3221e00015fe385","infreq_resp","","","img/blue_2bandit_a.png","68","img/blue_2bandit_a.png","68","test","","","","","","","","","","","5","","","","","","","","",""
"null","266553","SARL_v6","SARL_v6ugt5dc31","57d0a0bee3221e00015fe385","fixation","","","img/fixation.png","null","","","test","","","","","","","","","","","","","","","","","","","",""
"511.20000000298023","267067","SARL_v6","SARL_v6ugt5dc31","57d0a0bee3221e00015fe385","freq","","","img/orange_2bandit_a2.png","70","","70","test","1","","114","","","","square","circle","110","21","5","0.9454545454545454","","","","","","","",""
"null","267370","SARL_v6","SARL_v6ugt5dc31","57d0a0bee3221e00015fe385","freq_resp","","","img/orange_2bandit_a.png","70","img/orange_2bandit_a.png","70","test","","","","","","","","","","","5","","","","","","","","",""
"null","267525","SARL_v6","SARL_v6ugt5dc31","57d0a0bee3221e00015fe385","fixation","","","img/fixation.png","null","","","test","","","","","","","","","","","","","","","","","","","",""
"652.0999999940395","268180","SARL_v6","SARL_v6ugt5dc31","57d0a0bee3221e00015fe385","freq","","","img/orange_2bandit_a2.png","70","","70","test","1","","115","","","","square","circle","111","22","5","0.9459459459459459","","","","","","","",""
"null","268342","SARL_v6","SARL_v6ugt5dc31","57d0a0bee3221e00015fe385","freq_resp","","","img/orange_2bandit_a.png","70","img/orange_2bandit_a.png","70","test","","","","","","","","","","","5","","","","","","","","",""
"null","268501","SARL_v6","SARL_v6ugt5dc31","57d0a0bee3221e00015fe385","fixation","","","img/fixation.png","null","","","test","","","","","","","","","","","","","","","","","","","",""
"null","269310","SARL_v6","SARL_v6ugt5dc31","57d0a0bee3221e00015fe385","freq","","","img/orange_2bandit_a2.png","null","","70","test","0","","116","","","","square","circle","112","23","5","0.9375","","","","","","","",""
"null","269470","SARL_v6","SARL_v6ugt5dc31","57d0a0bee3221e00015fe385","fixation","","","img/fixation.png","null","","","test","","","","","","","","","","","","","","","","","","","",""
"null","270288","SARL_v6","SARL_v6ugt5dc31","57d0a0bee3221e00015fe385","freq","","","img/orange_2bandit_a2.png","null","","70","test","0","","117","","","","square","circle","113","24","5","0.9292035398230089","","","","","","","",""
"null","270442","SARL_v6","SARL_v6ugt5dc31","57d0a0bee3221e00015fe385","fixation","","","img/fixation.png","null","","","test","","","","","","","","","","","","","","","","","","","",""
"564.2000000029802","271008","SARL_v6","SARL_v6ugt5dc31","57d0a0bee3221e00015fe385","rl","","","img/black_2bandit_a2.png","74","","0","test","","","118","","","4","square","circle","","0","5","","74","-7","4","4","-7","square","5","0"
"null","271771","SARL_v6","SARL_v6ugt5dc31","57d0a0bee3221e00015fe385","feedback","","","<div class=""veryhighPoints_sq""> 4 </div>","null","","na","test","","","NaN","","","","","","","","5","","74","","","","","","5",""
"651.4000000059605","272425","SARL_v6","SARL_v6ugt5dc31","57d0a0bee3221e00015fe385","freq","","","img/orange_2bandit_a2.png","70","","70","test","1","","119","","","","square","circle","114","1","6","0.9298245614035088","","","","","","","",""
"null","272576","SARL_v6","SARL_v6ugt5dc31","57d0a0bee3221e00015fe385","freq_resp","","","img/orange_2bandit_a.png","70","img/orange_2bandit_a.png","70","test","","","","","","","","","","","6","","","","","","","","",""
"null","272733","SARL_v6","SARL_v6ugt5dc31","57d0a0bee3221e00015fe385","fixation","","","img/fixation.png","null","","","test","","","","","","","","","","","","","","","","","","","",""
"727.7999999970198","273463","SARL_v6","SARL_v6ugt5dc31","57d0a0bee3221e00015fe385","infreq","","","img/blue_2bandit_a2.png","68","","68","test","1","","120","","","","square","circle","115","2","6","0.9304347826086956","","","","","","","",""
"null","273553","SARL_v6","SARL_v6ugt5dc31","57d0a0bee3221e00015fe385","infreq_resp","","","img/blue_2bandit_a.png","68","img/blue_2bandit_a.png","68","test","","","","","","","","","","","6","","","","","","","","",""
"null","273720","SARL_v6","SARL_v6ugt5dc31","57d0a0bee3221e00015fe385","fixation","","","img/fixation.png","null","","","test","","","","","","","","","","","","","","","","","","","",""
"539.5","274262","SARL_v6","SARL_v6ugt5dc31","57d0a0bee3221e00015fe385","infreq","","","img/blue_2bandit_a2.png","68","","68","test","1","","121","","","","square","circle","116","3","6","0.9310344827586207","","","","","","","",""
"null","274531","SARL_v6","SARL_v6ugt5dc31","57d0a0bee3221e00015fe385","infreq_resp","","","img/blue_2bandit_a.png","68","img/blue_2bandit_a.png","68","test","","","","","","","","","","","6","","","","","","","","",""
"null","274699","SARL_v6","SARL_v6ugt5dc31","57d0a0bee3221e00015fe385","fixation","","","img/fixation.png","null","","","test","","","","","","","","","","","","","","","","","","","",""
"478.09999999403954","275179","SARL_v6","SARL_v6ugt5dc31","57d0a0bee3221e00015fe385","freq","","","img/orange_2bandit_a2.png","70","","70","test","1","","122","","","","square","circle","117","4","6","0.9316239316239316","","","","","","","",""
"null","275508","SARL_v6","SARL_v6ugt5dc31","57d0a0bee3221e00015fe385","freq_resp","","","img/orange_2bandit_a.png","70","img/orange_2bandit_a.png","70","test","","","","","","","","","","","6","","","","","","","","",""
"null","275667","SARL_v6","SARL_v6ugt5dc31","57d0a0bee3221e00015fe385","fixation","","","img/fixation.png","null","","","test","","","","","","","","","","","","","","","","","","","",""
"557.6000000089407","276227","SARL_v6","SARL_v6ugt5dc31","57d0a0bee3221e00015fe385","freq","","","img/orange_2bandit_a2.png","70","","70","test","1","","123","","","","square","circle","118","5","6","0.9322033898305084","","","","","","","",""
"null","276474","SARL_v6","SARL_v6ugt5dc31","57d0a0bee3221e00015fe385","freq_resp","","","img/orange_2bandit_a.png","70","img/orange_2bandit_a.png","70","test","","","","","","","","","","","6","","","","","","","","",""
"null","276634","SARL_v6","SARL_v6ugt5dc31","57d0a0bee3221e00015fe385","fixation","","","img/fixation.png","null","","","test","","","","","","","","","","","","","","","","","","","",""
"718","277354","SARL_v6","SARL_v6ugt5dc31","57d0a0bee3221e00015fe385","freq","","","img/orange_2bandit_a2.png","70","","70","test","1","","124","","","","square","circle","119","6","6","0.9327731092436975","","","","","","","",""
"null","277455","SARL_v6","SARL_v6ugt5dc31","57d0a0bee3221e00015fe385","freq_resp","","","img/orange_2bandit_a.png","70","img/orange_2bandit_a.png","70","test","","","","","","","","","","","6","","","","","","","","",""
"null","277611","SARL_v6","SARL_v6ugt5dc31","57d0a0bee3221e00015fe385","fixation","","","img/fixation.png","null","","","test","","","","","","","","","","","","","","","","","","","",""
"702.8999999910593","278316","SARL_v6","SARL_v6ugt5dc31","57d0a0bee3221e00015fe385","freq","","","img/orange_2bandit_a2.png","70","","70","test","1","","125","","","","square","circle","120","7","6","0.9333333333333333","","","","","","","",""
"null","278430","SARL_v6","SARL_v6ugt5dc31","57d0a0bee3221e00015fe385","freq_resp","","","img/orange_2bandit_a.png","70","img/orange_2bandit_a.png","70","test","","","","","","","","","","","6","","","","","","","","",""
"null","278590","SARL_v6","SARL_v6ugt5dc31","57d0a0bee3221e00015fe385","fixation","","","img/fixation.png","null","","","test","","","","","","","","","","","","","","","","","","","",""
"795.9000000059605","279388","SARL_v6","SARL_v6ugt5dc31","57d0a0bee3221e00015fe385","freq","","","img/orange_2bandit_a2.png","70","","70","test","1","","126","","","","square","circle","121","8","6","0.9338842975206612","","","","","","","",""
"null","279394","SARL_v6","SARL_v6ugt5dc31","57d0a0bee3221e00015fe385","freq_resp","","","img/orange_2bandit_a.png","70","img/orange_2bandit_a.png","70","test","","","","","","","","","","","6","","","","","","","","",""
"null","279558","SARL_v6","SARL_v6ugt5dc31","57d0a0bee3221e00015fe385","fixation","","","img/fixation.png","null","","","test","","","","","","","","","","","","","","","","","","","",""
"null","280369","SARL_v6","SARL_v6ugt5dc31","57d0a0bee3221e00015fe385","freq","","","img/orange_2bandit_a2.png","null","","70","test","0","","127","","","","square","circle","122","9","6","0.9262295081967213","","","","","","","",""
"null","280529","SARL_v6","SARL_v6ugt5dc31","57d0a0bee3221e00015fe385","fixation","","","img/fixation.png","null","","","test","","","","","","","","","","","","","","","","","","","",""
"50.099999994039536","280581","SARL_v6","SARL_v6ugt5dc31","57d0a0bee3221e00015fe385","freq","","","img/orange_2bandit_a2.png","70","","70","test","1","","128","","","","square","circle","123","10","6","0.926829268292683","","","","","","","",""
"null","281354","SARL_v6","SARL_v6ugt5dc31","57d0a0bee3221e00015fe385","freq_resp","","","img/orange_2bandit_a.png","70","img/orange_2bandit_a.png","70","test","","","","","","","","","","","6","","","","","","","","",""
"null","281521","SARL_v6","SARL_v6ugt5dc31","57d0a0bee3221e00015fe385","fixation","","","img/fixation.png","null","","","test","","","","","","","","","","","","","","","","","","","",""
"337.09999999403954","281861","SARL_v6","SARL_v6ugt5dc31","57d0a0bee3221e00015fe385","freq","","","img/orange_2bandit_a2.png","70","","70","test","1","","129","","","","square","circle","124","11","6","0.9274193548387096","","","","","","","",""
"null","282339","SARL_v6","SARL_v6ugt5dc31","57d0a0bee3221e00015fe385","freq_resp","","","img/orange_2bandit_a.png","70","img/orange_2bandit_a.png","70","test","","","","","","","","","","","6","","","","","","","","",""
"null","282501","SARL_v6","SARL_v6ugt5dc31","57d0a0bee3221e00015fe385","fixation","","","img/fixation.png","null","","","test","","","","","","","","","","","","","","","","","","","",""
"380.09999999403954","282884","SARL_v6","SARL_v6ugt5dc31","57d0a0bee3221e00015fe385","freq","","","img/orange_2bandit_a2.png","70","","70","test","1","","130","","","","square","circle","125","12","6","0.928","","","","","","","",""
"null","283309","SARL_v6","SARL_v6ugt5dc31","57d0a0bee3221e00015fe385","freq_resp","","","img/orange_2bandit_a.png","70","img/orange_2bandit_a.png","70","test","","","","","","","","","","","6","","","","","","","","",""
"null","283475","SARL_v6","SARL_v6ugt5dc31","57d0a0bee3221e00015fe385","fixation","","","img/fixation.png","null","","","test","","","","","","","","","","","","","","","","","","","",""
"458.09999999403954","283935","SARL_v6","SARL_v6ugt5dc31","57d0a0bee3221e00015fe385","freq","","","img/orange_2bandit_a2.png","70","","70","test","1","","131","","","","square","circle","126","13","6","0.9285714285714286","","","","","","","",""
"null","284286","SARL_v6","SARL_v6ugt5dc31","57d0a0bee3221e00015fe385","freq_resp","","","img/orange_2bandit_a.png","70","img/orange_2bandit_a.png","70","test","","","","","","","","","","","6","","","","","","","","",""
