"rt","time_elapsed","expId","subject","prolificID","trialType","rlType","attType","stimulus","key_press","stim","corrresp","phase","corr","pracCounter","trialNum","rewardOne","rewardTwo","reward","bandOne","bandTwo","attentionNum","attentionRunNum","blockNum","performance","bandChosen","circleVal","squareVal","bandOneVal","bandTwoVal","shapeChosen","rlNum","badFlag"
"168485","168488","SARL_v6","SARL_v6tpae29db","63d2a4b549eb02187fd40092","","","","","","","","","","","","","","","","","","","","","","","","","","","",""
"","172314","SARL_v6","SARL_v6tpae29db","63d2a4b549eb02187fd40092","fullscreen","fullscreen","fullscreen","","","","","","","","","","","","","","","","","","","","","","","","",""
"198581","370897","SARL_v6","SARL_v6tpae29db","63d2a4b549eb02187fd40092","","","","","","","","","","","","","","","","","","","","","","","","","","","",""
"null","371703","SARL_v6","SARL_v6tpae29db","63d2a4b549eb02187fd40092","freqPrac","","","img/orange_2bandit_a2.png","null","img/orange_2bandit_a2.png","70","prac","0","1","","","","","","","","","","","","","","","","","",""
"null","372718","SARL_v6","SARL_v6tpae29db","63d2a4b549eb02187fd40092","feedback","","","img/tooSlow.png","null","","na","prac","","","","","","","","","","","","","","","","","","","",""
"null","372872","SARL_v6","SARL_v6tpae29db","63d2a4b549eb02187fd40092","fixation","","","img/fixation.png","null","","","prac","","","","","","","","","","","","","","","","","","","",""
"510.89999997615814","373385","SARL_v6","SARL_v6tpae29db","63d2a4b549eb02187fd40092","infreqPrac","","","img/blue_2bandit_a2.png","68","img/blue_2bandit_a2.png","68","prac","1","1","","","","","","","","","","","","","","","","","",""
"510.89999997615814","373679","SARL_v6","SARL_v6tpae29db","63d2a4b549eb02187fd40092","infreqPrac_resp","","","img/blue_2bandit_a.png","68","img/blue_2bandit_a.png","68","prac","","","","","","","","","","","","","","","","","","","",""
"null","373834","SARL_v6","SARL_v6tpae29db","63d2a4b549eb02187fd40092","fixation","","","img/fixation.png","null","","","prac","","","","","","","","","","","","","","","","","","","",""
"null","374643","SARL_v6","SARL_v6tpae29db","63d2a4b549eb02187fd40092","freqPrac","","","img/orange_2bandit_a2.png","null","img/orange_2bandit_a2.png","70","prac","0","2","","","","","","","","","","","","","","","","","",""
"null","375647","SARL_v6","SARL_v6tpae29db","63d2a4b549eb02187fd40092","feedback","","","img/tooSlow.png","null","","na","prac","","","","","","","","","","","","","","","","","","","",""
"null","375800","SARL_v6","SARL_v6tpae29db","63d2a4b549eb02187fd40092","fixation","","","img/fixation.png","null","","","prac","","","","","","","","","","","","","","","","","","","",""
"390.59999990463257","376192","SARL_v6","SARL_v6tpae29db","63d2a4b549eb02187fd40092","infreqPrac","","","img/blue_2bandit_a2.png","68","img/blue_2bandit_a2.png","68","prac","1","2","","","","","","","","","","","","","","","","","",""
"390.59999990463257","376612","SARL_v6","SARL_v6tpae29db","63d2a4b549eb02187fd40092","infreqPrac_resp","","","img/blue_2bandit_a.png","68","img/blue_2bandit_a.png","68","prac","","","","","","","","","","","","","","","","","","","",""
"null","376767","SARL_v6","SARL_v6tpae29db","63d2a4b549eb02187fd40092","fixation","","","img/fixation.png","null","","","prac","","","","","","","","","","","","","","","","","","","",""
"null","377576","SARL_v6","SARL_v6tpae29db","63d2a4b549eb02187fd40092","infreqPrac","","","img/blue_2bandit_a2.png","null","img/blue_2bandit_a2.png","68","prac","0","3","","","","","","","","","","","","","","","","","",""
"null","378585","SARL_v6","SARL_v6tpae29db","63d2a4b549eb02187fd40092","feedback","","","img/tooSlow.png","null","","na","prac","","","","","","","","","","","","","","","","","","","",""
"null","378741","SARL_v6","SARL_v6tpae29db","63d2a4b549eb02187fd40092","fixation","","","img/fixation.png","null","","","prac","","","","","","","","","","","","","","","","","","","",""
"538.1000000238419","379281","SARL_v6","SARL_v6tpae29db","63d2a4b549eb02187fd40092","infreqPrac","","","img/blue_2bandit_a2.png","68","img/blue_2bandit_a2.png","68","prac","1","3","","","","","","","","","","","","","","","","","",""
"538.1000000238419","379548","SARL_v6","SARL_v6tpae29db","63d2a4b549eb02187fd40092","infreqPrac_resp","","","img/blue_2bandit_a.png","68","img/blue_2bandit_a.png","68","prac","","","","","","","","","","","","","","","","","","","",""
"null","379705","SARL_v6","SARL_v6tpae29db","63d2a4b549eb02187fd40092","fixation","","","img/fixation.png","null","","","prac","","","","","","","","","","","","","","","","","","","",""
"725.6999999284744","380434","SARL_v6","SARL_v6tpae29db","63d2a4b549eb02187fd40092","freqPrac","","","img/orange_2bandit_a2.png","70","img/orange_2bandit_a2.png","70","prac","1","3","","","","","","","","","","","","","","","","","",""
"725.6999999284744","380526","SARL_v6","SARL_v6tpae29db","63d2a4b549eb02187fd40092","freqPrac_resp","","","img/orange_2bandit_a.png","70","img/orange_2bandit_a.png","70","prac","","","","","","","","","","","","","","","","","","","",""
"null","380681","SARL_v6","SARL_v6tpae29db","63d2a4b549eb02187fd40092","fixation","","","img/fixation.png","null","","","prac","","","","","","","","","","","","","","","","","","","",""
"769.5","381453","SARL_v6","SARL_v6tpae29db","63d2a4b549eb02187fd40092","infreqPrac","","","img/blue_2bandit_a2.png","68","img/blue_2bandit_a2.png","68","prac","1","3","","","","","","","","","","","","","","","","","",""
"769.5","381485","SARL_v6","SARL_v6tpae29db","63d2a4b549eb02187fd40092","infreqPrac_resp","","","img/blue_2bandit_a.png","68","img/blue_2bandit_a.png","68","prac","","","","","","","","","","","","","","","","","","","",""
"null","381646","SARL_v6","SARL_v6tpae29db","63d2a4b549eb02187fd40092","fixation","","","img/fixation.png","null","","","prac","","","","","","","","","","","","","","","","","","","",""
"759.6000000238419","382408","SARL_v6","SARL_v6tpae29db","63d2a4b549eb02187fd40092","freqPrac","","","img/orange_2bandit_a2.png","68","img/orange_2bandit_a2.png","70","prac","0","4","","","","","","","","","","","","","","","","","",""
"759.6000000238419","382455","SARL_v6","SARL_v6tpae29db","63d2a4b549eb02187fd40092","freqPrac_resp","","","img/orange_2bandit_a.png","68","img/orange_2bandit_a.png","70","prac","","","","","","","","","","","","","","","","","","","",""
"null","383458","SARL_v6","SARL_v6tpae29db","63d2a4b549eb02187fd40092","feedback","","","img/wrongKey.png","null","","na","prac","","","","","","","","","","","","","","","","","","","",""
"null","383612","SARL_v6","SARL_v6tpae29db","63d2a4b549eb02187fd40092","fixation","","","img/fixation.png","null","","","prac","","","","","","","","","","","","","","","","","","","",""
"618.6000000238419","384233","SARL_v6","SARL_v6tpae29db","63d2a4b549eb02187fd40092","freqPrac","","","img/orange_2bandit_a2.png","70","img/orange_2bandit_a2.png","70","prac","1","4","","","","","","","","","","","","","","","","","",""
"618.6000000238419","384419","SARL_v6","SARL_v6tpae29db","63d2a4b549eb02187fd40092","freqPrac_resp","","","img/orange_2bandit_a.png","70","img/orange_2bandit_a.png","70","prac","","","","","","","","","","","","","","","","","","","",""
"null","384574","SARL_v6","SARL_v6tpae29db","63d2a4b549eb02187fd40092","fixation","","","img/fixation.png","null","","","prac","","","","","","","","","","","","","","","","","","","",""
"182160.60000002384","566737","SARL_v6","SARL_v6tpae29db","63d2a4b549eb02187fd40092","","","","","","","","prac","","","","","","","","","","","","","","","","","","","",""
"501.10000002384186","567240","SARL_v6","SARL_v6tpae29db","63d2a4b549eb02187fd40092","rlPractice","","","img/black_2bandit_a2.png","74","img/black_2bandit_a2.png","","prac","","","0","","","","","","","","","","","","","","","","",""
"null","568005","SARL_v6","SARL_v6tpae29db","63d2a4b549eb02187fd40092","feedback","","","<div class=""verylowPoints_sq""> -14 </div>","null","","na","prac","","","1","10","-14","10","","","","","","","","","","","","","",""
"null","568161","SARL_v6","SARL_v6tpae29db","63d2a4b549eb02187fd40092","fixation","","","img/fixation.png","null","","","prac","","","","","","","","","","","","","","","","","","","",""
"300.10000002384186","568464","SARL_v6","SARL_v6tpae29db","63d2a4b549eb02187fd40092","rlPractice","","","img/black_2bandit_a2.png","75","img/black_2bandit_a2.png","","prac","","","1","","","","","","","","","","","","","","","","",""
"null","569228","SARL_v6","SARL_v6tpae29db","63d2a4b549eb02187fd40092","feedback","","","<div class=""veryhighPoints""> 5 </div>","null","","na","prac","","","2","5","-5","5","","","","","","","","","","","","","",""
"null","569385","SARL_v6","SARL_v6tpae29db","63d2a4b549eb02187fd40092","fixation","","","img/fixation.png","null","","","prac","","","","","","","","","","","","","","","","","","","",""
"364.2999999523163","569752","SARL_v6","SARL_v6tpae29db","63d2a4b549eb02187fd40092","rlPractice","","","img/black_2bandit_a2.png","75","img/black_2bandit_a2.png","","prac","","","2","","","","","","","","","","","","","","","","",""
"null","570505","SARL_v6","SARL_v6tpae29db","63d2a4b549eb02187fd40092","feedback","","","<div class=""veryhighPoints""> 30 </div>","null","","na","prac","","","3","30","2","30","","","","","","","","","","","","","",""
"null","570661","SARL_v6","SARL_v6tpae29db","63d2a4b549eb02187fd40092","fixation","","","img/fixation.png","null","","","prac","","","","","","","","","","","","","","","","","","","",""
"387.2000000476837","571051","SARL_v6","SARL_v6tpae29db","63d2a4b549eb02187fd40092","rlPractice","","","img/black_2bandit_a2.png","75","img/black_2bandit_a2.png","","prac","","","3","","","","","","","","","","","","","","","","",""
"null","571806","SARL_v6","SARL_v6tpae29db","63d2a4b549eb02187fd40092","feedback","","","<div class=""verylowPoints""> -2 </div>","null","","na","prac","","","4","-2","20","-2","","","","","","","","","","","","","",""
"null","571962","SARL_v6","SARL_v6tpae29db","63d2a4b549eb02187fd40092","fixation","","","img/fixation.png","null","","","prac","","","","","","","","","","","","","","","","","","","",""
"147367.59999990463","719331","SARL_v6","SARL_v6tpae29db","63d2a4b549eb02187fd40092","","","","","","","","prac","","","","","","","","","","","","","","","","","","","",""
"683.2000000476837","720017","SARL_v6","SARL_v6tpae29db","63d2a4b549eb02187fd40092","mixAttFreqPrac","","","img/orange_2bandit_a2.png","68","img/orange_2bandit_a2.png","70","prac","","","1","","","","","","","","","","","","","","","","",""
"683.2000000476837","720149","SARL_v6","SARL_v6tpae29db","63d2a4b549eb02187fd40092","freqPrac_resp","","","img/orange_2bandit_a.png","68","img/orange_2bandit_a.png","70","prac","","","1","","","","","","","","","","","","","","","","",""
"null","720306","SARL_v6","SARL_v6tpae29db","63d2a4b549eb02187fd40092","fixation","","","img/fixation.png","null","","","prac","","","","","","","","","","","","","","","","","","","",""
"null","721116","SARL_v6","SARL_v6tpae29db","63d2a4b549eb02187fd40092","mixAttInfreqPrac","","","img/blue_2bandit_a2.png","null","img/blue_2bandit_a2.png","68","prac","","","2","","","","","","","","","","","","","","","","",""
"null","721269","SARL_v6","SARL_v6tpae29db","63d2a4b549eb02187fd40092","fixation","","","img/fixation.png","null","","","prac","","","","","","","","","","","","","","","","","","","",""
"24.199999928474426","721296","SARL_v6","SARL_v6tpae29db","63d2a4b549eb02187fd40092","mixAttInfreqPrac","","","img/blue_2bandit_a2.png","70","img/blue_2bandit_a2.png","68","prac","","","3","","","","","","","","","","","","","","","","",""
"24.199999928474426","722077","SARL_v6","SARL_v6tpae29db","63d2a4b549eb02187fd40092","infreqPrac_resp","","","img/blue_2bandit_a.png","70","img/orange_2bandit_a.png","68","prac","","","3","","","","","","","","","","","","","","","","",""
"null","722231","SARL_v6","SARL_v6tpae29db","63d2a4b549eb02187fd40092","fixation","","","img/fixation.png","null","","","prac","","","","","","","","","","","","","","","","","","","",""
"141.89999997615814","722375","SARL_v6","SARL_v6tpae29db","63d2a4b549eb02187fd40092","mixAttInfreqPrac","","","img/blue_2bandit_a2.png","70","img/blue_2bandit_a2.png","68","prac","","","4","","","","","","","","","","","","","","","","",""
"141.89999997615814","723042","SARL_v6","SARL_v6tpae29db","63d2a4b549eb02187fd40092","infreqPrac_resp","","","img/blue_2bandit_a.png","70","img/orange_2bandit_a.png","68","prac","","","4","","","","","","","","","","","","","","","","",""
"null","723195","SARL_v6","SARL_v6tpae29db","63d2a4b549eb02187fd40092","fixation","","","img/fixation.png","null","","","prac","","","","","","","","","","","","","","","","","","","",""
"122.20000004768372","723320","SARL_v6","SARL_v6tpae29db","63d2a4b549eb02187fd40092","mixAttFreqPrac","","","img/orange_2bandit_a2.png","68","img/orange_2bandit_a2.png","70","prac","","","5","","","","","","","","","","","","","","","","",""
"122.20000004768372","724009","SARL_v6","SARL_v6tpae29db","63d2a4b549eb02187fd40092","freqPrac_resp","","","img/orange_2bandit_a.png","68","img/orange_2bandit_a.png","70","prac","","","5","","","","","","","","","","","","","","","","",""
"null","724161","SARL_v6","SARL_v6tpae29db","63d2a4b549eb02187fd40092","fixation","","","img/fixation.png","null","","","prac","","","","","","","","","","","","","","","","","","","",""
"716.6999999284744","724880","SARL_v6","SARL_v6tpae29db","63d2a4b549eb02187fd40092","mixRLPractice","","","img/black_2bandit_a2.png","75","img/black_2bandit_a2.png","","prac","","","5","","","","","","","","","","","","","","","","",""
"null","725643","SARL_v6","SARL_v6tpae29db","63d2a4b549eb02187fd40092","feedback","","","<div class=""verylowPoints""> -14 </div>","null","","na","prac","","","6","-14","10","-14","","","","","","","","","","","","","",""
"null","725799","SARL_v6","SARL_v6tpae29db","63d2a4b549eb02187fd40092","fixation","","","img/fixation.png","null","","","prac","","","","","","","","","","","","","","","","","","","",""
"null","726604","SARL_v6","SARL_v6tpae29db","63d2a4b549eb02187fd40092","mixAttFreqPrac","","","img/orange_2bandit_a2.png","null","img/orange_2bandit_a2.png","70","prac","","","7","","","","","","","","","","","","","","","","",""
"65.29999995231628","726757","SARL_v6","SARL_v6tpae29db","63d2a4b549eb02187fd40092","fixation","","","img/fixation.png","70","","","prac","","","","","","","","","","","","","","","","","","","",""
"665.2000000476837","727424","SARL_v6","SARL_v6tpae29db","63d2a4b549eb02187fd40092","mixAttInfreqPrac","","","img/blue_2bandit_a2.png","68","img/blue_2bandit_a2.png","68","prac","","","8","","","","","","","","","","","","","","","","",""
"665.2000000476837","727567","SARL_v6","SARL_v6tpae29db","63d2a4b549eb02187fd40092","infreqPrac_resp","","","img/blue_2bandit_a.png","68","img/orange_2bandit_a.png","68","prac","","","8","","","","","","","","","","","","","","","","",""
"null","727720","SARL_v6","SARL_v6tpae29db","63d2a4b549eb02187fd40092","fixation","","","img/fixation.png","null","","","prac","","","","","","","","","","","","","","","","","","","",""
"550.6999999284744","728272","SARL_v6","SARL_v6tpae29db","63d2a4b549eb02187fd40092","mixAttFreqPrac","","","img/orange_2bandit_a2.png","70","img/orange_2bandit_a2.png","70","prac","","","9","","","","","","","","","","","","","","","","",""
"550.6999999284744","728533","SARL_v6","SARL_v6tpae29db","63d2a4b549eb02187fd40092","freqPrac_resp","","","img/orange_2bandit_a.png","70","img/orange_2bandit_a.png","70","prac","","","9","","","","","","","","","","","","","","","","",""
"null","728689","SARL_v6","SARL_v6tpae29db","63d2a4b549eb02187fd40092","fixation","","","img/fixation.png","null","","","prac","","","","","","","","","","","","","","","","","","","",""
"620.8000000715256","729312","SARL_v6","SARL_v6tpae29db","63d2a4b549eb02187fd40092","mixAttFreqPrac","","","img/orange_2bandit_a2.png","70","img/orange_2bandit_a2.png","70","prac","","","10","","","","","","","","","","","","","","","","",""
"620.8000000715256","729506","SARL_v6","SARL_v6tpae29db","63d2a4b549eb02187fd40092","freqPrac_resp","","","img/orange_2bandit_a.png","70","img/orange_2bandit_a.png","70","prac","","","10","","","","","","","","","","","","","","","","",""
"null","729661","SARL_v6","SARL_v6tpae29db","63d2a4b549eb02187fd40092","fixation","","","img/fixation.png","null","","","prac","","","","","","","","","","","","","","","","","","","",""
"683.7999999523163","730346","SARL_v6","SARL_v6tpae29db","63d2a4b549eb02187fd40092","mixAttInfreqPrac","","","img/blue_2bandit_a2.png","70","img/blue_2bandit_a2.png","68","prac","","","11","","","","","","","","","","","","","","","","",""
"683.7999999523163","730471","SARL_v6","SARL_v6tpae29db","63d2a4b549eb02187fd40092","infreqPrac_resp","","","img/blue_2bandit_a.png","70","img/orange_2bandit_a.png","68","prac","","","11","","","","","","","","","","","","","","","","",""
"7","730624","SARL_v6","SARL_v6tpae29db","63d2a4b549eb02187fd40092","fixation","","","img/fixation.png","68","","","prac","","","","","","","","","","","","","","","","","","","",""
"637.8000000715256","731264","SARL_v6","SARL_v6tpae29db","63d2a4b549eb02187fd40092","mixRLPractice","","","img/black_2bandit_a2.png","75","img/black_2bandit_a2.png","","prac","","","11","","","","","","","","","","","","","","","","",""
"null","732025","SARL_v6","SARL_v6tpae29db","63d2a4b549eb02187fd40092","feedback","","","<div class=""veryhighPoints""> 5 </div>","null","","na","prac","","","12","5","-5","5","","","","","","","","","","","","","",""
"null","732180","SARL_v6","SARL_v6tpae29db","63d2a4b549eb02187fd40092","fixation","","","img/fixation.png","null","","","prac","","","","","","","","","","","","","","","","","","","",""
"32051.099999904633","764233","SARL_v6","SARL_v6tpae29db","63d2a4b549eb02187fd40092","","","","","","","","prac","","","","","","","","","","","","","","","","","","","",""
"564.2000000476837","764799","SARL_v6","SARL_v6tpae29db","63d2a4b549eb02187fd40092","freq","","","img/orange_2bandit_a2.png","70","","70","test","1","","1","","","","square","circle","1","1","1","1","","","","","","","",""
"null","765040","SARL_v6","SARL_v6tpae29db","63d2a4b549eb02187fd40092","freq_resp","","","img/orange_2bandit_a.png","70","img/orange_2bandit_a.png","70","test","","","","","","","","","","","1","","","","","","","","",""
"null","765196","SARL_v6","SARL_v6tpae29db","63d2a4b549eb02187fd40092","fixation","","","img/fixation.png","null","","","test","","","","","","","","","","","","","","","","","","","",""
"362.09999990463257","765561","SARL_v6","SARL_v6tpae29db","63d2a4b549eb02187fd40092","freq","","","img/orange_2bandit_a2.png","70","","70","test","1","","2","","","","square","circle","2","2","1","1","","","","","","","",""
"null","766007","SARL_v6","SARL_v6tpae29db","63d2a4b549eb02187fd40092","freq_resp","","","img/orange_2bandit_a.png","70","img/orange_2bandit_a.png","70","test","","","","","","","","","","","1","","","","","","","","",""
"null","766165","SARL_v6","SARL_v6tpae29db","63d2a4b549eb02187fd40092","fixation","","","img/fixation.png","null","","","test","","","","","","","","","","","","","","","","","","","",""
"369.2999999523163","766536","SARL_v6","SARL_v6tpae29db","63d2a4b549eb02187fd40092","freq","","","img/orange_2bandit_a2.png","70","","70","test","1","","3","","","","square","circle","3","3","1","1","","","","","","","",""
"null","766968","SARL_v6","SARL_v6tpae29db","63d2a4b549eb02187fd40092","freq_resp","","","img/orange_2bandit_a.png","70","img/orange_2bandit_a.png","70","test","","","","","","","","","","","1","","","","","","","","",""
"null","767123","SARL_v6","SARL_v6tpae29db","63d2a4b549eb02187fd40092","fixation","","","img/fixation.png","null","","","test","","","","","","","","","","","","","","","","","","","",""
"490.89999997615814","767616","SARL_v6","SARL_v6tpae29db","63d2a4b549eb02187fd40092","freq","","","img/orange_2bandit_a2.png","70","","70","test","1","","4","","","","square","circle","4","4","1","1","","","","","","","",""
"null","767935","SARL_v6","SARL_v6tpae29db","63d2a4b549eb02187fd40092","freq_resp","","","img/orange_2bandit_a.png","70","img/orange_2bandit_a.png","70","test","","","","","","","","","","","1","","","","","","","","",""
"null","768089","SARL_v6","SARL_v6tpae29db","63d2a4b549eb02187fd40092","fixation","","","img/fixation.png","null","","","test","","","","","","","","","","","","","","","","","","","",""
"355.7000000476837","768447","SARL_v6","SARL_v6tpae29db","63d2a4b549eb02187fd40092","freq","","","img/orange_2bandit_a2.png","70","","70","test","1","","5","","","","square","circle","5","5","1","1","","","","","","","",""
"null","768898","SARL_v6","SARL_v6tpae29db","63d2a4b549eb02187fd40092","freq_resp","","","img/orange_2bandit_a.png","70","img/orange_2bandit_a.png","70","test","","","","","","","","","","","1","","","","","","","","",""
"null","769065","SARL_v6","SARL_v6tpae29db","63d2a4b549eb02187fd40092","fixation","","","img/fixation.png","null","","","test","","","","","","","","","","","","","","","","","","","",""
"420","769487","SARL_v6","SARL_v6tpae29db","63d2a4b549eb02187fd40092","freq","","","img/orange_2bandit_a2.png","70","","70","test","1","","6","","","","square","circle","6","6","1","1","","","","","","","",""
"null","769873","SARL_v6","SARL_v6tpae29db","63d2a4b549eb02187fd40092","freq_resp","","","img/orange_2bandit_a.png","70","img/orange_2bandit_a.png","70","test","","","","","","","","","","","1","","","","","","","","",""
"null","770029","SARL_v6","SARL_v6tpae29db","63d2a4b549eb02187fd40092","fixation","","","img/fixation.png","null","","","test","","","","","","","","","","","","","","","","","","","",""
"448.10000002384186","770479","SARL_v6","SARL_v6tpae29db","63d2a4b549eb02187fd40092","freq","","","img/orange_2bandit_a2.png","70","","70","test","1","","7","","","","square","circle","7","7","1","1","","","","","","","",""
"null","770839","SARL_v6","SARL_v6tpae29db","63d2a4b549eb02187fd40092","freq_resp","","","img/orange_2bandit_a.png","70","img/orange_2bandit_a.png","70","test","","","","","","","","","","","1","","","","","","","","",""
"null","770993","SARL_v6","SARL_v6tpae29db","63d2a4b549eb02187fd40092","fixation","","","img/fixation.png","null","","","test","","","","","","","","","","","","","","","","","","","",""
"437.2000000476837","771432","SARL_v6","SARL_v6tpae29db","63d2a4b549eb02187fd40092","freq","","","img/orange_2bandit_a2.png","70","","70","test","1","","8","","","","square","circle","8","8","1","1","","","","","","","",""
"null","771803","SARL_v6","SARL_v6tpae29db","63d2a4b549eb02187fd40092","freq_resp","","","img/orange_2bandit_a.png","70","img/orange_2bandit_a.png","70","test","","","","","","","","","","","1","","","","","","","","",""
"null","771957","SARL_v6","SARL_v6tpae29db","63d2a4b549eb02187fd40092","fixation","","","img/fixation.png","null","","","test","","","","","","","","","","","","","","","","","","","",""
"568.1000000238419","772528","SARL_v6","SARL_v6tpae29db","63d2a4b549eb02187fd40092","freq","","","img/orange_2bandit_a2.png","70","","70","test","1","","9","","","","square","circle","9","9","1","1","","","","","","","",""
"null","772767","SARL_v6","SARL_v6tpae29db","63d2a4b549eb02187fd40092","freq_resp","","","img/orange_2bandit_a.png","70","img/orange_2bandit_a.png","70","test","","","","","","","","","","","1","","","","","","","","",""
"null","772923","SARL_v6","SARL_v6tpae29db","63d2a4b549eb02187fd40092","fixation","","","img/fixation.png","null","","","test","","","","","","","","","","","","","","","","","","","",""
"587.3000000715256","773513","SARL_v6","SARL_v6tpae29db","63d2a4b549eb02187fd40092","freq","","","img/orange_2bandit_a2.png","70","","70","test","1","","10","","","","square","circle","10","10","1","1","","","","","","","",""
"null","773736","SARL_v6","SARL_v6tpae29db","63d2a4b549eb02187fd40092","freq_resp","","","img/orange_2bandit_a.png","70","img/orange_2bandit_a.png","70","test","","","","","","","","","","","1","","","","","","","","",""
"null","773891","SARL_v6","SARL_v6tpae29db","63d2a4b549eb02187fd40092","fixation","","","img/fixation.png","null","","","test","","","","","","","","","","","","","","","","","","","",""
"598","774493","SARL_v6","SARL_v6tpae29db","63d2a4b549eb02187fd40092","freq","","","img/orange_2bandit_a2.png","70","","70","test","1","","11","","","","square","circle","11","11","1","1","","","","","","","",""
"null","774701","SARL_v6","SARL_v6tpae29db","63d2a4b549eb02187fd40092","freq_resp","","","img/orange_2bandit_a.png","70","img/orange_2bandit_a.png","70","test","","","","","","","","","","","1","","","","","","","","",""
"null","774856","SARL_v6","SARL_v6tpae29db","63d2a4b549eb02187fd40092","fixation","","","img/fixation.png","null","","","test","","","","","","","","","","","","","","","","","","","",""
"493.7999999523163","775352","SARL_v6","SARL_v6tpae29db","63d2a4b549eb02187fd40092","infreq","","","img/blue_2bandit_a2.png","68","","68","test","1","","12","","","","square","circle","12","12","1","1","","","","","","","",""
"null","775664","SARL_v6","SARL_v6tpae29db","63d2a4b549eb02187fd40092","infreq_resp","","","img/blue_2bandit_a.png","68","img/blue_2bandit_a.png","68","test","","","","","","","","","","","1","","","","","","","","",""
"null","775818","SARL_v6","SARL_v6tpae29db","63d2a4b549eb02187fd40092","fixation","","","img/fixation.png","null","","","test","","","","","","","","","","","","","","","","","","","",""
"436.39999997615814","776256","SARL_v6","SARL_v6tpae29db","63d2a4b549eb02187fd40092","freq","","","img/orange_2bandit_a2.png","70","","70","test","1","","13","","","","square","circle","13","13","1","1","","","","","","","",""
"null","776626","SARL_v6","SARL_v6tpae29db","63d2a4b549eb02187fd40092","freq_resp","","","img/orange_2bandit_a.png","70","img/orange_2bandit_a.png","70","test","","","","","","","","","","","1","","","","","","","","",""
"null","776782","SARL_v6","SARL_v6tpae29db","63d2a4b549eb02187fd40092","fixation","","","img/fixation.png","null","","","test","","","","","","","","","","","","","","","","","","","",""
"407.3000000715256","777192","SARL_v6","SARL_v6tpae29db","63d2a4b549eb02187fd40092","freq","","","img/orange_2bandit_a2.png","70","","70","test","1","","14","","","","square","circle","14","14","1","1","","","","","","","",""
"null","777590","SARL_v6","SARL_v6tpae29db","63d2a4b549eb02187fd40092","freq_resp","","","img/orange_2bandit_a.png","70","img/orange_2bandit_a.png","70","test","","","","","","","","","","","1","","","","","","","","",""
"null","777747","SARL_v6","SARL_v6tpae29db","63d2a4b549eb02187fd40092","fixation","","","img/fixation.png","null","","","test","","","","","","","","","","","","","","","","","","","",""
"338.7000000476837","778088","SARL_v6","SARL_v6tpae29db","63d2a4b549eb02187fd40092","freq","","","img/orange_2bandit_a2.png","70","","70","test","1","","15","","","","square","circle","15","15","1","1","","","","","","","",""
"null","778559","SARL_v6","SARL_v6tpae29db","63d2a4b549eb02187fd40092","freq_resp","","","img/orange_2bandit_a.png","70","img/orange_2bandit_a.png","70","test","","","","","","","","","","","1","","","","","","","","",""
"null","778712","SARL_v6","SARL_v6tpae29db","63d2a4b549eb02187fd40092","fixation","","","img/fixation.png","null","","","test","","","","","","","","","","","","","","","","","","","",""
"324.89999997615814","779040","SARL_v6","SARL_v6tpae29db","63d2a4b549eb02187fd40092","freq","","","img/orange_2bandit_a2.png","70","","70","test","1","","16","","","","square","circle","16","16","1","1","","","","","","","",""
"null","779531","SARL_v6","SARL_v6tpae29db","63d2a4b549eb02187fd40092","freq_resp","","","img/orange_2bandit_a.png","70","img/orange_2bandit_a.png","70","test","","","","","","","","","","","1","","","","","","","","",""
"null","779684","SARL_v6","SARL_v6tpae29db","63d2a4b549eb02187fd40092","fixation","","","img/fixation.png","null","","","test","","","","","","","","","","","","","","","","","","","",""
"315.1999999284744","780001","SARL_v6","SARL_v6tpae29db","63d2a4b549eb02187fd40092","freq","","","img/orange_2bandit_a2.png","70","","70","test","1","","17","","","","square","circle","17","17","1","1","","","","","","","",""
"null","780497","SARL_v6","SARL_v6tpae29db","63d2a4b549eb02187fd40092","freq_resp","","","img/orange_2bandit_a.png","70","img/orange_2bandit_a.png","70","test","","","","","","","","","","","1","","","","","","","","",""
"null","780652","SARL_v6","SARL_v6tpae29db","63d2a4b549eb02187fd40092","fixation","","","img/fixation.png","null","","","test","","","","","","","","","","","","","","","","","","","",""
"298.60000002384186","780953","SARL_v6","SARL_v6tpae29db","63d2a4b549eb02187fd40092","freq","","","img/orange_2bandit_a2.png","70","","70","test","1","","18","","","","square","circle","18","18","1","1","","","","","","","",""
"null","781459","SARL_v6","SARL_v6tpae29db","63d2a4b549eb02187fd40092","freq_resp","","","img/orange_2bandit_a.png","70","img/orange_2bandit_a.png","70","test","","","","","","","","","","","1","","","","","","","","",""
"null","781612","SARL_v6","SARL_v6tpae29db","63d2a4b549eb02187fd40092","fixation","","","img/fixation.png","null","","","test","","","","","","","","","","","","","","","","","","","",""
"338.60000002384186","781953","SARL_v6","SARL_v6tpae29db","63d2a4b549eb02187fd40092","freq","","","img/orange_2bandit_a2.png","70","","70","test","1","","19","","","","square","circle","19","19","1","1","","","","","","","",""
"null","782420","SARL_v6","SARL_v6tpae29db","63d2a4b549eb02187fd40092","freq_resp","","","img/orange_2bandit_a.png","70","img/orange_2bandit_a.png","70","test","","","","","","","","","","","1","","","","","","","","",""
"null","782578","SARL_v6","SARL_v6tpae29db","63d2a4b549eb02187fd40092","fixation","","","img/fixation.png","null","","","test","","","","","","","","","","","","","","","","","","","",""
"283.5","782864","SARL_v6","SARL_v6tpae29db","63d2a4b549eb02187fd40092","freq","","","img/orange_2bandit_a2.png","70","","70","test","1","","20","","","","square","circle","20","20","1","1","","","","","","","",""
"null","783388","SARL_v6","SARL_v6tpae29db","63d2a4b549eb02187fd40092","freq_resp","","","img/orange_2bandit_a.png","70","img/orange_2bandit_a.png","70","test","","","","","","","","","","","1","","","","","","","","",""
"null","783543","SARL_v6","SARL_v6tpae29db","63d2a4b549eb02187fd40092","fixation","","","img/fixation.png","null","","","test","","","","","","","","","","","","","","","","","","","",""
"342.10000002384186","783887","SARL_v6","SARL_v6tpae29db","63d2a4b549eb02187fd40092","freq","","","img/orange_2bandit_a2.png","70","","70","test","1","","21","","","","square","circle","21","21","1","1","","","","","","","",""
"null","784360","SARL_v6","SARL_v6tpae29db","63d2a4b549eb02187fd40092","freq_resp","","","img/orange_2bandit_a.png","70","img/orange_2bandit_a.png","70","test","","","","","","","","","","","1","","","","","","","","",""
"null","784513","SARL_v6","SARL_v6tpae29db","63d2a4b549eb02187fd40092","fixation","","","img/fixation.png","null","","","test","","","","","","","","","","","","","","","","","","","",""
"406.2999999523163","784922","SARL_v6","SARL_v6tpae29db","63d2a4b549eb02187fd40092","infreq","","","img/blue_2bandit_a2.png","68","","68","test","1","","22","","","","square","circle","22","22","1","1","","","","","","","",""
"null","785320","SARL_v6","SARL_v6tpae29db","63d2a4b549eb02187fd40092","infreq_resp","","","img/blue_2bandit_a.png","68","img/blue_2bandit_a.png","68","test","","","","","","","","","","","1","","","","","","","","",""
"null","785474","SARL_v6","SARL_v6tpae29db","63d2a4b549eb02187fd40092","fixation","","","img/fixation.png","null","","","test","","","","","","","","","","","","","","","","","","","",""
"499.89999997615814","785976","SARL_v6","SARL_v6tpae29db","63d2a4b549eb02187fd40092","freq","","","img/orange_2bandit_a2.png","70","","70","test","1","","23","","","","square","circle","23","23","1","1","","","","","","","",""
"null","786283","SARL_v6","SARL_v6tpae29db","63d2a4b549eb02187fd40092","freq_resp","","","img/orange_2bandit_a.png","70","img/orange_2bandit_a.png","70","test","","","","","","","","","","","1","","","","","","","","",""
"null","786439","SARL_v6","SARL_v6tpae29db","63d2a4b549eb02187fd40092","fixation","","","img/fixation.png","null","","","test","","","","","","","","","","","","","","","","","","","",""
"487.10000002384186","786929","SARL_v6","SARL_v6tpae29db","63d2a4b549eb02187fd40092","freq","","","img/orange_2bandit_a2.png","70","","70","test","1","","24","","","","square","circle","24","24","1","1","","","","","","","",""
"null","787246","SARL_v6","SARL_v6tpae29db","63d2a4b549eb02187fd40092","freq_resp","","","img/orange_2bandit_a.png","70","img/orange_2bandit_a.png","70","test","","","","","","","","","","","1","","","","","","","","",""
"null","787399","SARL_v6","SARL_v6tpae29db","63d2a4b549eb02187fd40092","fixation","","","img/fixation.png","null","","","test","","","","","","","","","","","","","","","","","","","",""
"407.2000000476837","787808","SARL_v6","SARL_v6tpae29db","63d2a4b549eb02187fd40092","freq","","","img/orange_2bandit_a2.png","70","","70","test","1","","25","","","","square","circle","25","25","1","1","","","","","","","",""
"null","788204","SARL_v6","SARL_v6tpae29db","63d2a4b549eb02187fd40092","freq_resp","","","img/orange_2bandit_a.png","70","img/orange_2bandit_a.png","70","test","","","","","","","","","","","1","","","","","","","","",""
"null","788359","SARL_v6","SARL_v6tpae29db","63d2a4b549eb02187fd40092","fixation","","","img/fixation.png","null","","","test","","","","","","","","","","","","","","","","","","","",""
"390.2000000476837","788751","SARL_v6","SARL_v6tpae29db","63d2a4b549eb02187fd40092","freq","","","img/orange_2bandit_a2.png","70","","70","test","1","","26","","","","square","circle","26","26","1","1","","","","","","","",""
"null","789165","SARL_v6","SARL_v6tpae29db","63d2a4b549eb02187fd40092","freq_resp","","","img/orange_2bandit_a.png","70","img/orange_2bandit_a.png","70","test","","","","","","","","","","","1","","","","","","","","",""
"null","789320","SARL_v6","SARL_v6tpae29db","63d2a4b549eb02187fd40092","fixation","","","img/fixation.png","null","","","test","","","","","","","","","","","","","","","","","","","",""
"846.5","790168","SARL_v6","SARL_v6tpae29db","63d2a4b549eb02187fd40092","rl","","","img/black_2bandit_a2.png","75","","0","test","","","27","","","-3","square","circle","","0","1","","75","-3","-3","-3","-3","circle","1","0"
"null","790936","SARL_v6","SARL_v6tpae29db","63d2a4b549eb02187fd40092","feedback","","","<div class=""verylowPoints""> -3 </div>","null","","na","test","","","NaN","","","","","","","","1","","75","","","","","","1",""
"null","791746","SARL_v6","SARL_v6tpae29db","63d2a4b549eb02187fd40092","freq","","","img/orange_2bandit_a2.png","null","","70","test","0","","28","","","","square","circle","27","1","2","0.9629629629629629","","","","","","","",""
"null","791900","SARL_v6","SARL_v6tpae29db","63d2a4b549eb02187fd40092","fixation","","","img/fixation.png","null","","","test","","","","","","","","","","","","","","","","","","","",""
"null","792707","SARL_v6","SARL_v6tpae29db","63d2a4b549eb02187fd40092","freq","","","img/orange_2bandit_a2.png","null","","70","test","0","","29","","","","square","circle","28","2","2","0.9285714285714286","","","","","","","",""
"null","792861","SARL_v6","SARL_v6tpae29db","63d2a4b549eb02187fd40092","fixation","","","img/fixation.png","null","","","test","","","","","","","","","","","","","","","","","","","",""
"128.60000002384186","792992","SARL_v6","SARL_v6tpae29db","63d2a4b549eb02187fd40092","freq","","","img/orange_2bandit_a2.png","70","","70","test","1","","30","","","","square","circle","29","3","2","0.9310344827586207","","","","","","","",""
"null","793670","SARL_v6","SARL_v6tpae29db","63d2a4b549eb02187fd40092","freq_resp","","","img/orange_2bandit_a.png","70","img/orange_2bandit_a.png","70","test","","","","","","","","","","","2","","","","","","","","",""
"null","793823","SARL_v6","SARL_v6tpae29db","63d2a4b549eb02187fd40092","fixation","","","img/fixation.png","null","","","test","","","","","","","","","","","","","","","","","","","",""
"207.29999995231628","794033","SARL_v6","SARL_v6tpae29db","63d2a4b549eb02187fd40092","freq","","","img/orange_2bandit_a2.png","70","","70","test","1","","31","","","","square","circle","30","4","2","0.9333333333333333","","","","","","","",""
"null","794631","SARL_v6","SARL_v6tpae29db","63d2a4b549eb02187fd40092","freq_resp","","","img/orange_2bandit_a.png","70","img/orange_2bandit_a.png","70","test","","","","","","","","","","","2","","","","","","","","",""
"null","794784","SARL_v6","SARL_v6tpae29db","63d2a4b549eb02187fd40092","fixation","","","img/fixation.png","null","","","test","","","","","","","","","","","","","","","","","","","",""
"280","795066","SARL_v6","SARL_v6tpae29db","63d2a4b549eb02187fd40092","freq","","","img/orange_2bandit_a2.png","70","","70","test","1","","32","","","","square","circle","31","5","2","0.9354838709677419","","","","","","","",""
"null","795599","SARL_v6","SARL_v6tpae29db","63d2a4b549eb02187fd40092","freq_resp","","","img/orange_2bandit_a.png","70","img/orange_2bandit_a.png","70","test","","","","","","","","","","","2","","","","","","","","",""
"null","795751","SARL_v6","SARL_v6tpae29db","63d2a4b549eb02187fd40092","fixation","","","img/fixation.png","null","","","test","","","","","","","","","","","","","","","","","","","",""
"287.5","796041","SARL_v6","SARL_v6tpae29db","63d2a4b549eb02187fd40092","freq","","","img/orange_2bandit_a2.png","70","","70","test","1","","33","","","","square","circle","32","6","2","0.9375","","","","","","","",""
"null","796562","SARL_v6","SARL_v6tpae29db","63d2a4b549eb02187fd40092","freq_resp","","","img/orange_2bandit_a.png","70","img/orange_2bandit_a.png","70","test","","","","","","","","","","","2","","","","","","","","",""
"null","796715","SARL_v6","SARL_v6tpae29db","63d2a4b549eb02187fd40092","fixation","","","img/fixation.png","null","","","test","","","","","","","","","","","","","","","","","","","",""
"395.59999990463257","797113","SARL_v6","SARL_v6tpae29db","63d2a4b549eb02187fd40092","freq","","","img/orange_2bandit_a2.png","70","","70","test","1","","34","","","","square","circle","33","7","2","0.9393939393939394","","","","","","","",""
"null","797526","SARL_v6","SARL_v6tpae29db","63d2a4b549eb02187fd40092","freq_resp","","","img/orange_2bandit_a.png","70","img/orange_2bandit_a.png","70","test","","","","","","","","","","","2","","","","","","","","",""
"null","797682","SARL_v6","SARL_v6tpae29db","63d2a4b549eb02187fd40092","fixation","","","img/fixation.png","null","","","test","","","","","","","","","","","","","","","","","","","",""
"402.8000000715256","798087","SARL_v6","SARL_v6tpae29db","63d2a4b549eb02187fd40092","infreq","","","img/blue_2bandit_a2.png","68","","68","test","1","","35","","","","square","circle","34","8","2","0.9411764705882353","","","","","","","",""
"null","798490","SARL_v6","SARL_v6tpae29db","63d2a4b549eb02187fd40092","infreq_resp","","","img/blue_2bandit_a.png","68","img/blue_2bandit_a.png","68","test","","","","","","","","","","","2","","","","","","","","",""
"null","798646","SARL_v6","SARL_v6tpae29db","63d2a4b549eb02187fd40092","fixation","","","img/fixation.png","null","","","test","","","","","","","","","","","","","","","","","","","",""
"464.8000000715256","799113","SARL_v6","SARL_v6tpae29db","63d2a4b549eb02187fd40092","freq","","","img/orange_2bandit_a2.png","70","","70","test","1","","36","","","","square","circle","35","9","2","0.9428571428571428","","","","","","","",""
"null","799466","SARL_v6","SARL_v6tpae29db","63d2a4b549eb02187fd40092","freq_resp","","","img/orange_2bandit_a.png","70","img/orange_2bandit_a.png","70","test","","","","","","","","","","","2","","","","","","","","",""
"null","799623","SARL_v6","SARL_v6tpae29db","63d2a4b549eb02187fd40092","fixation","","","img/fixation.png","null","","","test","","","","","","","","","","","","","","","","","","","",""
"599.9000000953674","800225","SARL_v6","SARL_v6tpae29db","63d2a4b549eb02187fd40092","freq","","","img/orange_2bandit_a2.png","70","","70","test","1","","37","","","","square","circle","36","10","2","0.9444444444444444","","","","","","","",""
"null","800432","SARL_v6","SARL_v6tpae29db","63d2a4b549eb02187fd40092","freq_resp","","","img/orange_2bandit_a.png","70","img/orange_2bandit_a.png","70","test","","","","","","","","","","","2","","","","","","","","",""
"null","800590","SARL_v6","SARL_v6tpae29db","63d2a4b549eb02187fd40092","fixation","","","img/fixation.png","null","","","test","","","","","","","","","","","","","","","","","","","",""
"375.7000000476837","800968","SARL_v6","SARL_v6tpae29db","63d2a4b549eb02187fd40092","freq","","","img/orange_2bandit_a2.png","70","","70","test","1","","38","","","","square","circle","37","11","2","0.9459459459459459","","","","","","","",""
"null","801403","SARL_v6","SARL_v6tpae29db","63d2a4b549eb02187fd40092","freq_resp","","","img/orange_2bandit_a.png","70","img/orange_2bandit_a.png","70","test","","","","","","","","","","","2","","","","","","","","",""
"null","801559","SARL_v6","SARL_v6tpae29db","63d2a4b549eb02187fd40092","fixation","","","img/fixation.png","null","","","test","","","","","","","","","","","","","","","","","","","",""
"374.60000002384186","801936","SARL_v6","SARL_v6tpae29db","63d2a4b549eb02187fd40092","freq","","","img/orange_2bandit_a2.png","70","","70","test","1","","39","","","","square","circle","38","12","2","0.9473684210526315","","","","","","","",""
"null","802365","SARL_v6","SARL_v6tpae29db","63d2a4b549eb02187fd40092","freq_resp","","","img/orange_2bandit_a.png","70","img/orange_2bandit_a.png","70","test","","","","","","","","","","","2","","","","","","","","",""
"null","802518","SARL_v6","SARL_v6tpae29db","63d2a4b549eb02187fd40092","fixation","","","img/fixation.png","null","","","test","","","","","","","","","","","","","","","","","","","",""
"342.7999999523163","802863","SARL_v6","SARL_v6tpae29db","63d2a4b549eb02187fd40092","freq","","","img/orange_2bandit_a2.png","70","","70","test","1","","40","","","","square","circle","39","13","2","0.9487179487179487","","","","","","","",""
"null","803331","SARL_v6","SARL_v6tpae29db","63d2a4b549eb02187fd40092","freq_resp","","","img/orange_2bandit_a.png","70","img/orange_2bandit_a.png","70","test","","","","","","","","","","","2","","","","","","","","",""
"null","803483","SARL_v6","SARL_v6tpae29db","63d2a4b549eb02187fd40092","fixation","","","img/fixation.png","null","","","test","","","","","","","","","","","","","","","","","","","",""
"395.5","803881","SARL_v6","SARL_v6tpae29db","63d2a4b549eb02187fd40092","freq","","","img/orange_2bandit_a2.png","70","","70","test","1","","41","","","","square","circle","40","14","2","0.95","","","","","","","",""
"null","804298","SARL_v6","SARL_v6tpae29db","63d2a4b549eb02187fd40092","freq_resp","","","img/orange_2bandit_a.png","70","img/orange_2bandit_a.png","70","test","","","","","","","","","","","2","","","","","","","","",""
"null","804453","SARL_v6","SARL_v6tpae29db","63d2a4b549eb02187fd40092","fixation","","","img/fixation.png","null","","","test","","","","","","","","","","","","","","","","","","","",""
"401.3000000715256","804856","SARL_v6","SARL_v6tpae29db","63d2a4b549eb02187fd40092","infreq","","","img/blue_2bandit_a2.png","68","","68","test","1","","42","","","","square","circle","41","15","2","0.9512195121951219","","","","","","","",""
"null","805260","SARL_v6","SARL_v6tpae29db","63d2a4b549eb02187fd40092","infreq_resp","","","img/blue_2bandit_a.png","68","img/blue_2bandit_a.png","68","test","","","","","","","","","","","2","","","","","","","","",""
"null","805417","SARL_v6","SARL_v6tpae29db","63d2a4b549eb02187fd40092","fixation","","","img/fixation.png","null","","","test","","","","","","","","","","","","","","","","","","","",""
"399.2000000476837","805818","SARL_v6","SARL_v6tpae29db","63d2a4b549eb02187fd40092","freq","","","img/orange_2bandit_a2.png","70","","70","test","1","","43","","","","square","circle","42","16","2","0.9523809523809523","","","","","","","",""
"null","806225","SARL_v6","SARL_v6tpae29db","63d2a4b549eb02187fd40092","freq_resp","","","img/orange_2bandit_a.png","70","img/orange_2bandit_a.png","70","test","","","","","","","","","","","2","","","","","","","","",""
"null","806381","SARL_v6","SARL_v6tpae29db","63d2a4b549eb02187fd40092","fixation","","","img/fixation.png","null","","","test","","","","","","","","","","","","","","","","","","","",""
"322","806705","SARL_v6","SARL_v6tpae29db","63d2a4b549eb02187fd40092","freq","","","img/orange_2bandit_a2.png","70","","70","test","1","","44","","","","square","circle","43","17","2","0.9534883720930233","","","","","","","",""
"null","807191","SARL_v6","SARL_v6tpae29db","63d2a4b549eb02187fd40092","freq_resp","","","img/orange_2bandit_a.png","70","img/orange_2bandit_a.png","70","test","","","","","","","","","","","2","","","","","","","","",""
"null","807345","SARL_v6","SARL_v6tpae29db","63d2a4b549eb02187fd40092","fixation","","","img/fixation.png","null","","","test","","","","","","","","","","","","","","","","","","","",""
"339.39999997615814","807687","SARL_v6","SARL_v6tpae29db","63d2a4b549eb02187fd40092","freq","","","img/orange_2bandit_a2.png","70","","70","test","1","","45","","","","square","circle","44","18","2","0.9545454545454546","","","","","","","",""
"null","808154","SARL_v6","SARL_v6tpae29db","63d2a4b549eb02187fd40092","freq_resp","","","img/orange_2bandit_a.png","70","img/orange_2bandit_a.png","70","test","","","","","","","","","","","2","","","","","","","","",""
"null","808308","SARL_v6","SARL_v6tpae29db","63d2a4b549eb02187fd40092","fixation","","","img/fixation.png","null","","","test","","","","","","","","","","","","","","","","","","","",""
"290.89999997615814","808602","SARL_v6","SARL_v6tpae29db","63d2a4b549eb02187fd40092","freq","","","img/orange_2bandit_a2.png","70","","70","test","1","","46","","","","square","circle","45","19","2","0.9555555555555556","","","","","","","",""
"null","809118","SARL_v6","SARL_v6tpae29db","63d2a4b549eb02187fd40092","freq_resp","","","img/orange_2bandit_a.png","70","img/orange_2bandit_a.png","70","test","","","","","","","","","","","2","","","","","","","","",""
"null","809274","SARL_v6","SARL_v6tpae29db","63d2a4b549eb02187fd40092","fixation","","","img/fixation.png","null","","","test","","","","","","","","","","","","","","","","","","","",""
"299.6999999284744","809576","SARL_v6","SARL_v6tpae29db","63d2a4b549eb02187fd40092","freq","","","img/orange_2bandit_a2.png","70","","70","test","1","","47","","","","square","circle","46","20","2","0.9565217391304348","","","","","","","",""
"null","810079","SARL_v6","SARL_v6tpae29db","63d2a4b549eb02187fd40092","freq_resp","","","img/orange_2bandit_a.png","70","img/orange_2bandit_a.png","70","test","","","","","","","","","","","2","","","","","","","","",""
"null","810232","SARL_v6","SARL_v6tpae29db","63d2a4b549eb02187fd40092","fixation","","","img/fixation.png","null","","","test","","","","","","","","","","","","","","","","","","","",""
"303.5","810539","SARL_v6","SARL_v6tpae29db","63d2a4b549eb02187fd40092","freq","","","img/orange_2bandit_a2.png","70","","70","test","1","","48","","","","square","circle","47","21","2","0.9574468085106383","","","","","","","",""
"null","811048","SARL_v6","SARL_v6tpae29db","63d2a4b549eb02187fd40092","freq_resp","","","img/orange_2bandit_a.png","70","img/orange_2bandit_a.png","70","test","","","","","","","","","","","2","","","","","","","","",""
"null","811201","SARL_v6","SARL_v6tpae29db","63d2a4b549eb02187fd40092","fixation","","","img/fixation.png","null","","","test","","","","","","","","","","","","","","","","","","","",""
"349.60000002384186","811553","SARL_v6","SARL_v6tpae29db","63d2a4b549eb02187fd40092","freq","","","img/orange_2bandit_a2.png","70","","70","test","1","","49","","","","square","circle","48","22","2","0.9583333333333334","","","","","","","",""
"null","812020","SARL_v6","SARL_v6tpae29db","63d2a4b549eb02187fd40092","freq_resp","","","img/orange_2bandit_a.png","70","img/orange_2bandit_a.png","70","test","","","","","","","","","","","2","","","","","","","","",""
"null","812176","SARL_v6","SARL_v6tpae29db","63d2a4b549eb02187fd40092","fixation","","","img/fixation.png","null","","","test","","","","","","","","","","","","","","","","","","","",""
"317.10000002384186","812496","SARL_v6","SARL_v6tpae29db","63d2a4b549eb02187fd40092","freq","","","img/orange_2bandit_a2.png","70","","70","test","1","","50","","","","square","circle","49","23","2","0.9591836734693877","","","","","","","",""
"null","812988","SARL_v6","SARL_v6tpae29db","63d2a4b549eb02187fd40092","freq_resp","","","img/orange_2bandit_a.png","70","img/orange_2bandit_a.png","70","test","","","","","","","","","","","2","","","","","","","","",""
"null","813140","SARL_v6","SARL_v6tpae29db","63d2a4b549eb02187fd40092","fixation","","","img/fixation.png","null","","","test","","","","","","","","","","","","","","","","","","","",""
"313.8000000715256","813456","SARL_v6","SARL_v6tpae29db","63d2a4b549eb02187fd40092","freq","","","img/orange_2bandit_a2.png","70","","70","test","1","","51","","","","square","circle","50","24","2","0.96","","","","","","","",""
"null","813945","SARL_v6","SARL_v6tpae29db","63d2a4b549eb02187fd40092","freq_resp","","","img/orange_2bandit_a.png","70","img/orange_2bandit_a.png","70","test","","","","","","","","","","","2","","","","","","","","",""
"null","814098","SARL_v6","SARL_v6tpae29db","63d2a4b549eb02187fd40092","fixation","","","img/fixation.png","null","","","test","","","","","","","","","","","","","","","","","","","",""
"812.6000000238419","814912","SARL_v6","SARL_v6tpae29db","63d2a4b549eb02187fd40092","rl","","","img/black_2bandit_a2.png","74","","0","test","","","52","","","-8","square","circle","","0","2","","74","-5","-8","-8","-5","square","2","0"
"null","815666","SARL_v6","SARL_v6tpae29db","63d2a4b549eb02187fd40092","feedback","","","<div class=""verylowPoints_sq""> -8 </div>","null","","na","test","","","NaN","","","","","","","","2","","74","","","","","","2",""
"655.0999999046326","816324","SARL_v6","SARL_v6tpae29db","63d2a4b549eb02187fd40092","freq","","","img/orange_2bandit_a2.png","70","","70","test","1","","53","","","","square","circle","51","1","3","0.9607843137254902","","","","","","","",""
"null","816473","SARL_v6","SARL_v6tpae29db","63d2a4b549eb02187fd40092","freq_resp","","","img/orange_2bandit_a.png","70","img/orange_2bandit_a.png","70","test","","","","","","","","","","","3","","","","","","","","",""
"null","816628","SARL_v6","SARL_v6tpae29db","63d2a4b549eb02187fd40092","fixation","","","img/fixation.png","null","","","test","","","","","","","","","","","","","","","","","","","",""
"577.5","817209","SARL_v6","SARL_v6tpae29db","63d2a4b549eb02187fd40092","freq","","","img/orange_2bandit_a2.png","70","","70","test","1","","54","","","","square","circle","52","2","3","0.9615384615384616","","","","","","","",""
"null","817437","SARL_v6","SARL_v6tpae29db","63d2a4b549eb02187fd40092","freq_resp","","","img/orange_2bandit_a.png","70","img/orange_2bandit_a.png","70","test","","","","","","","","","","","3","","","","","","","","",""
"null","817595","SARL_v6","SARL_v6tpae29db","63d2a4b549eb02187fd40092","fixation","","","img/fixation.png","null","","","test","","","","","","","","","","","","","","","","","","","",""
"570.3999999761581","818168","SARL_v6","SARL_v6tpae29db","63d2a4b549eb02187fd40092","freq","","","img/orange_2bandit_a2.png","70","","70","test","1","","55","","","","square","circle","53","3","3","0.9622641509433962","","","","","","","",""
"null","818404","SARL_v6","SARL_v6tpae29db","63d2a4b549eb02187fd40092","freq_resp","","","img/orange_2bandit_a.png","70","img/orange_2bandit_a.png","70","test","","","","","","","","","","","3","","","","","","","","",""
"null","818557","SARL_v6","SARL_v6tpae29db","63d2a4b549eb02187fd40092","fixation","","","img/fixation.png","null","","","test","","","","","","","","","","","","","","","","","","","",""
"544.5","819104","SARL_v6","SARL_v6tpae29db","63d2a4b549eb02187fd40092","freq","","","img/orange_2bandit_a2.png","70","","70","test","1","","56","","","","square","circle","54","4","3","0.9629629629629629","","","","","","","",""
"null","819365","SARL_v6","SARL_v6tpae29db","63d2a4b549eb02187fd40092","freq_resp","","","img/orange_2bandit_a.png","70","img/orange_2bandit_a.png","70","test","","","","","","","","","","","3","","","","","","","","",""
"null","819520","SARL_v6","SARL_v6tpae29db","63d2a4b549eb02187fd40092","fixation","","","img/fixation.png","null","","","test","","","","","","","","","","","","","","","","","","","",""
"582.4000000953674","820105","SARL_v6","SARL_v6tpae29db","63d2a4b549eb02187fd40092","freq","","","img/orange_2bandit_a2.png","70","","70","test","1","","57","","","","square","circle","55","5","3","0.9636363636363636","","","","","","","",""
"null","820340","SARL_v6","SARL_v6tpae29db","63d2a4b549eb02187fd40092","freq_resp","","","img/orange_2bandit_a.png","70","img/orange_2bandit_a.png","70","test","","","","","","","","","","","3","","","","","","","","",""
"null","820497","SARL_v6","SARL_v6tpae29db","63d2a4b549eb02187fd40092","fixation","","","img/fixation.png","null","","","test","","","","","","","","","","","","","","","","","","","",""
"540.7999999523163","821040","SARL_v6","SARL_v6tpae29db","63d2a4b549eb02187fd40092","freq","","","img/orange_2bandit_a2.png","70","","70","test","1","","58","","","","square","circle","56","6","3","0.9642857142857143","","","","","","","",""
"null","821316","SARL_v6","SARL_v6tpae29db","63d2a4b549eb02187fd40092","freq_resp","","","img/orange_2bandit_a.png","70","img/orange_2bandit_a.png","70","test","","","","","","","","","","","3","","","","","","","","",""
"null","821470","SARL_v6","SARL_v6tpae29db","63d2a4b549eb02187fd40092","fixation","","","img/fixation.png","null","","","test","","","","","","","","","","","","","","","","","","","",""
"351.60000002384186","821824","SARL_v6","SARL_v6tpae29db","63d2a4b549eb02187fd40092","freq","","","img/orange_2bandit_a2.png","70","","70","test","1","","59","","","","square","circle","57","7","3","0.9649122807017544","","","","","","","",""
"null","822280","SARL_v6","SARL_v6tpae29db","63d2a4b549eb02187fd40092","freq_resp","","","img/orange_2bandit_a.png","70","img/orange_2bandit_a.png","70","test","","","","","","","","","","","3","","","","","","","","",""
"null","822437","SARL_v6","SARL_v6tpae29db","63d2a4b549eb02187fd40092","fixation","","","img/fixation.png","null","","","test","","","","","","","","","","","","","","","","","","","",""
"489.89999997615814","822929","SARL_v6","SARL_v6tpae29db","63d2a4b549eb02187fd40092","infreq","","","img/blue_2bandit_a2.png","68","","68","test","1","","60","","","","square","circle","58","8","3","0.9655172413793104","","","","","","","",""
"null","823244","SARL_v6","SARL_v6tpae29db","63d2a4b549eb02187fd40092","infreq_resp","","","img/blue_2bandit_a.png","68","img/blue_2bandit_a.png","68","test","","","","","","","","","","","3","","","","","","","","",""
"null","823397","SARL_v6","SARL_v6tpae29db","63d2a4b549eb02187fd40092","fixation","","","img/fixation.png","null","","","test","","","","","","","","","","","","","","","","","","","",""
"360.90000009536743","823762","SARL_v6","SARL_v6tpae29db","63d2a4b549eb02187fd40092","infreq","","","img/blue_2bandit_a2.png","68","","68","test","1","","61","","","","square","circle","59","9","3","0.9661016949152542","","","","","","","",""
"null","824218","SARL_v6","SARL_v6tpae29db","63d2a4b549eb02187fd40092","infreq_resp","","","img/blue_2bandit_a.png","68","img/blue_2bandit_a.png","68","test","","","","","","","","","","","3","","","","","","","","",""
"null","824374","SARL_v6","SARL_v6tpae29db","63d2a4b549eb02187fd40092","fixation","","","img/fixation.png","null","","","test","","","","","","","","","","","","","","","","","","","",""
"361.2999999523163","824738","SARL_v6","SARL_v6tpae29db","63d2a4b549eb02187fd40092","freq","","","img/orange_2bandit_a2.png","70","","70","test","1","","62","","","","square","circle","60","10","3","0.9666666666666667","","","","","","","",""
"null","825180","SARL_v6","SARL_v6tpae29db","63d2a4b549eb02187fd40092","freq_resp","","","img/orange_2bandit_a.png","70","img/orange_2bandit_a.png","70","test","","","","","","","","","","","3","","","","","","","","",""
"null","825337","SARL_v6","SARL_v6tpae29db","63d2a4b549eb02187fd40092","fixation","","","img/fixation.png","null","","","test","","","","","","","","","","","","","","","","","","","",""
"365.2000000476837","825704","SARL_v6","SARL_v6tpae29db","63d2a4b549eb02187fd40092","freq","","","img/orange_2bandit_a2.png","70","","70","test","1","","63","","","","square","circle","61","11","3","0.9672131147540983","","","","","","","",""
"null","826147","SARL_v6","SARL_v6tpae29db","63d2a4b549eb02187fd40092","freq_resp","","","img/orange_2bandit_a.png","70","img/orange_2bandit_a.png","70","test","","","","","","","","","","","3","","","","","","","","",""
"null","826303","SARL_v6","SARL_v6tpae29db","63d2a4b549eb02187fd40092","fixation","","","img/fixation.png","null","","","test","","","","","","","","","","","","","","","","","","","",""
"416.5","826721","SARL_v6","SARL_v6tpae29db","63d2a4b549eb02187fd40092","freq","","","img/orange_2bandit_a2.png","70","","70","test","1","","64","","","","square","circle","62","12","3","0.967741935483871","","","","","","","",""
"null","827110","SARL_v6","SARL_v6tpae29db","63d2a4b549eb02187fd40092","freq_resp","","","img/orange_2bandit_a.png","70","img/orange_2bandit_a.png","70","test","","","","","","","","","","","3","","","","","","","","",""
"null","827266","SARL_v6","SARL_v6tpae29db","63d2a4b549eb02187fd40092","fixation","","","img/fixation.png","null","","","test","","","","","","","","","","","","","","","","","","","",""
"325.1999999284744","827593","SARL_v6","SARL_v6tpae29db","63d2a4b549eb02187fd40092","freq","","","img/orange_2bandit_a2.png","70","","70","test","1","","65","","","","square","circle","63","13","3","0.9682539682539683","","","","","","","",""
"null","828070","SARL_v6","SARL_v6tpae29db","63d2a4b549eb02187fd40092","freq_resp","","","img/orange_2bandit_a.png","70","img/orange_2bandit_a.png","70","test","","","","","","","","","","","3","","","","","","","","",""
"null","828225","SARL_v6","SARL_v6tpae29db","63d2a4b549eb02187fd40092","fixation","","","img/fixation.png","null","","","test","","","","","","","","","","","","","","","","","","","",""
"308.90000009536743","828537","SARL_v6","SARL_v6tpae29db","63d2a4b549eb02187fd40092","freq","","","img/orange_2bandit_a2.png","70","","70","test","1","","66","","","","square","circle","64","14","3","0.96875","","","","","","","",""
"null","829044","SARL_v6","SARL_v6tpae29db","63d2a4b549eb02187fd40092","freq_resp","","","img/orange_2bandit_a.png","70","img/orange_2bandit_a.png","70","test","","","","","","","","","","","3","","","","","","","","",""
"null","829197","SARL_v6","SARL_v6tpae29db","63d2a4b549eb02187fd40092","fixation","","","img/fixation.png","null","","","test","","","","","","","","","","","","","","","","","","","",""
"361.89999997615814","829562","SARL_v6","SARL_v6tpae29db","63d2a4b549eb02187fd40092","freq","","","img/orange_2bandit_a2.png","70","","70","test","1","","67","","","","square","circle","65","15","3","0.9692307692307692","","","","","","","",""
"null","830008","SARL_v6","SARL_v6tpae29db","63d2a4b549eb02187fd40092","freq_resp","","","img/orange_2bandit_a.png","70","img/orange_2bandit_a.png","70","test","","","","","","","","","","","3","","","","","","","","",""
"null","830163","SARL_v6","SARL_v6tpae29db","63d2a4b549eb02187fd40092","fixation","","","img/fixation.png","null","","","test","","","","","","","","","","","","","","","","","","","",""
"347.60000002384186","830513","SARL_v6","SARL_v6tpae29db","63d2a4b549eb02187fd40092","freq","","","img/orange_2bandit_a2.png","70","","70","test","1","","68","","","","square","circle","66","16","3","0.9696969696969697","","","","","","","",""
"null","830968","SARL_v6","SARL_v6tpae29db","63d2a4b549eb02187fd40092","freq_resp","","","img/orange_2bandit_a.png","70","img/orange_2bandit_a.png","70","test","","","","","","","","","","","3","","","","","","","","",""
"null","831124","SARL_v6","SARL_v6tpae29db","63d2a4b549eb02187fd40092","fixation","","","img/fixation.png","null","","","test","","","","","","","","","","","","","","","","","","","",""
"377","831503","SARL_v6","SARL_v6tpae29db","63d2a4b549eb02187fd40092","freq","","","img/orange_2bandit_a2.png","70","","70","test","1","","69","","","","square","circle","67","17","3","0.9701492537313433","","","","","","","",""
"null","831932","SARL_v6","SARL_v6tpae29db","63d2a4b549eb02187fd40092","freq_resp","","","img/orange_2bandit_a.png","70","img/orange_2bandit_a.png","70","test","","","","","","","","","","","3","","","","","","","","",""
"null","832086","SARL_v6","SARL_v6tpae29db","63d2a4b549eb02187fd40092","fixation","","","img/fixation.png","null","","","test","","","","","","","","","","","","","","","","","","","",""
"440.2000000476837","832528","SARL_v6","SARL_v6tpae29db","63d2a4b549eb02187fd40092","freq","","","img/orange_2bandit_a2.png","70","","70","test","1","","70","","","","square","circle","68","18","3","0.9705882352941176","","","","","","","",""
"null","832894","SARL_v6","SARL_v6tpae29db","63d2a4b549eb02187fd40092","freq_resp","","","img/orange_2bandit_a.png","70","img/orange_2bandit_a.png","70","test","","","","","","","","","","","3","","","","","","","","",""
"null","833047","SARL_v6","SARL_v6tpae29db","63d2a4b549eb02187fd40092","fixation","","","img/fixation.png","null","","","test","","","","","","","","","","","","","","","","","","","",""
"351.2000000476837","833401","SARL_v6","SARL_v6tpae29db","63d2a4b549eb02187fd40092","freq","","","img/orange_2bandit_a2.png","70","","70","test","1","","71","","","","square","circle","69","19","3","0.9710144927536232","","","","","","","",""
"null","833856","SARL_v6","SARL_v6tpae29db","63d2a4b549eb02187fd40092","freq_resp","","","img/orange_2bandit_a.png","70","img/orange_2bandit_a.png","70","test","","","","","","","","","","","3","","","","","","","","",""
"null","834012","SARL_v6","SARL_v6tpae29db","63d2a4b549eb02187fd40092","fixation","","","img/fixation.png","null","","","test","","","","","","","","","","","","","","","","","","","",""
"426.5","834441","SARL_v6","SARL_v6tpae29db","63d2a4b549eb02187fd40092","freq","","","img/orange_2bandit_a2.png","70","","70","test","1","","72","","","","square","circle","70","20","3","0.9714285714285714","","","","","","","",""
"null","834823","SARL_v6","SARL_v6tpae29db","63d2a4b549eb02187fd40092","freq_resp","","","img/orange_2bandit_a.png","70","img/orange_2bandit_a.png","70","test","","","","","","","","","","","3","","","","","","","","",""
"null","834979","SARL_v6","SARL_v6tpae29db","63d2a4b549eb02187fd40092","fixation","","","img/fixation.png","null","","","test","","","","","","","","","","","","","","","","","","","",""
"387.5","835369","SARL_v6","SARL_v6tpae29db","63d2a4b549eb02187fd40092","freq","","","img/orange_2bandit_a2.png","70","","70","test","1","","73","","","","square","circle","71","21","3","0.971830985915493","","","","","","","",""
"null","835784","SARL_v6","SARL_v6tpae29db","63d2a4b549eb02187fd40092","freq_resp","","","img/orange_2bandit_a.png","70","img/orange_2bandit_a.png","70","test","","","","","","","","","","","3","","","","","","","","",""
"null","835941","SARL_v6","SARL_v6tpae29db","63d2a4b549eb02187fd40092","fixation","","","img/fixation.png","null","","","test","","","","","","","","","","","","","","","","","","","",""
"344.2999999523163","836288","SARL_v6","SARL_v6tpae29db","63d2a4b549eb02187fd40092","freq","","","img/orange_2bandit_a2.png","70","","70","test","1","","74","","","","square","circle","72","22","3","0.9722222222222222","","","","","","","",""
"null","836760","SARL_v6","SARL_v6tpae29db","63d2a4b549eb02187fd40092","freq_resp","","","img/orange_2bandit_a.png","70","img/orange_2bandit_a.png","70","test","","","","","","","","","","","3","","","","","","","","",""
"null","836915","SARL_v6","SARL_v6tpae29db","63d2a4b549eb02187fd40092","fixation","","","img/fixation.png","null","","","test","","","","","","","","","","","","","","","","","","","",""
"556.7999999523163","837474","SARL_v6","SARL_v6tpae29db","63d2a4b549eb02187fd40092","rl","","","img/black_2bandit_a2.png","75","","0","test","","","75","","","-4","square","circle","","0","3","","75","-4","-8","-8","-4","circle","3","0"
"null","838228","SARL_v6","SARL_v6tpae29db","63d2a4b549eb02187fd40092","feedback","","","<div class=""verylowPoints""> -4 </div>","null","","na","test","","","NaN","","","","","","","","3","","75","","","","","","3",""
"null","839035","SARL_v6","SARL_v6tpae29db","63d2a4b549eb02187fd40092","freq","","","img/orange_2bandit_a2.png","null","","70","test","0","","76","","","","square","circle","73","1","4","0.958904109589041","","","","","","","",""
"null","839192","SARL_v6","SARL_v6tpae29db","63d2a4b549eb02187fd40092","fixation","","","img/fixation.png","null","","","test","","","","","","","","","","","","","","","","","","","",""
"686.6000000238419","839880","SARL_v6","SARL_v6tpae29db","63d2a4b549eb02187fd40092","freq","","","img/orange_2bandit_a2.png","70","","70","test","1","","77","","","","square","circle","74","2","4","0.9594594594594594","","","","","","","",""
"null","840004","SARL_v6","SARL_v6tpae29db","63d2a4b549eb02187fd40092","freq_resp","","","img/orange_2bandit_a.png","70","img/orange_2bandit_a.png","70","test","","","","","","","","","","","4","","","","","","","","",""
"null","840157","SARL_v6","SARL_v6tpae29db","63d2a4b549eb02187fd40092","fixation","","","img/fixation.png","null","","","test","","","","","","","","","","","","","","","","","","","",""
"535.8999999761581","840696","SARL_v6","SARL_v6tpae29db","63d2a4b549eb02187fd40092","freq","","","img/orange_2bandit_a2.png","70","","70","test","1","","78","","","","square","circle","75","3","4","0.96","","","","","","","",""
"null","840979","SARL_v6","SARL_v6tpae29db","63d2a4b549eb02187fd40092","freq_resp","","","img/orange_2bandit_a.png","70","img/orange_2bandit_a.png","70","test","","","","","","","","","","","4","","","","","","","","",""
"null","841132","SARL_v6","SARL_v6tpae29db","63d2a4b549eb02187fd40092","fixation","","","img/fixation.png","null","","","test","","","","","","","","","","","","","","","","","","","",""
"497","841631","SARL_v6","SARL_v6tpae29db","63d2a4b549eb02187fd40092","freq","","","img/orange_2bandit_a2.png","70","","70","test","1","","79","","","","square","circle","76","4","4","0.9605263157894737","","","","","","","",""
"null","841950","SARL_v6","SARL_v6tpae29db","63d2a4b549eb02187fd40092","freq_resp","","","img/orange_2bandit_a.png","70","img/orange_2bandit_a.png","70","test","","","","","","","","","","","4","","","","","","","","",""
"null","842107","SARL_v6","SARL_v6tpae29db","63d2a4b549eb02187fd40092","fixation","","","img/fixation.png","null","","","test","","","","","","","","","","","","","","","","","","","",""
"562.2000000476837","842671","SARL_v6","SARL_v6tpae29db","63d2a4b549eb02187fd40092","freq","","","img/orange_2bandit_a2.png","70","","70","test","1","","80","","","","square","circle","77","5","4","0.961038961038961","","","","","","","",""
"null","842921","SARL_v6","SARL_v6tpae29db","63d2a4b549eb02187fd40092","freq_resp","","","img/orange_2bandit_a.png","70","img/orange_2bandit_a.png","70","test","","","","","","","","","","","4","","","","","","","","",""
"null","843077","SARL_v6","SARL_v6tpae29db","63d2a4b549eb02187fd40092","fixation","","","img/fixation.png","null","","","test","","","","","","","","","","","","","","","","","","","",""
"376","843455","SARL_v6","SARL_v6tpae29db","63d2a4b549eb02187fd40092","infreq","","","img/blue_2bandit_a2.png","68","","68","test","1","","81","","","","square","circle","78","6","4","0.9615384615384616","","","","","","","",""
"null","843884","SARL_v6","SARL_v6tpae29db","63d2a4b549eb02187fd40092","infreq_resp","","","img/blue_2bandit_a.png","68","img/blue_2bandit_a.png","68","test","","","","","","","","","","","4","","","","","","","","",""
"null","844040","SARL_v6","SARL_v6tpae29db","63d2a4b549eb02187fd40092","fixation","","","img/fixation.png","null","","","test","","","","","","","","","","","","","","","","","","","",""
"445.7000000476837","844489","SARL_v6","SARL_v6tpae29db","63d2a4b549eb02187fd40092","freq","","","img/orange_2bandit_a2.png","70","","70","test","1","","82","","","","square","circle","79","7","4","0.9620253164556962","","","","","","","",""
"null","844859","SARL_v6","SARL_v6tpae29db","63d2a4b549eb02187fd40092","freq_resp","","","img/orange_2bandit_a.png","70","img/orange_2bandit_a.png","70","test","","","","","","","","","","","4","","","","","","","","",""
"null","845011","SARL_v6","SARL_v6tpae29db","63d2a4b549eb02187fd40092","fixation","","","img/fixation.png","null","","","test","","","","","","","","","","","","","","","","","","","",""
"361.90000009536743","845376","SARL_v6","SARL_v6tpae29db","63d2a4b549eb02187fd40092","freq","","","img/orange_2bandit_a2.png","70","","70","test","1","","83","","","","square","circle","80","8","4","0.9625","","","","","","","",""
"null","845822","SARL_v6","SARL_v6tpae29db","63d2a4b549eb02187fd40092","freq_resp","","","img/orange_2bandit_a.png","70","img/orange_2bandit_a.png","70","test","","","","","","","","","","","4","","","","","","","","",""
"null","845976","SARL_v6","SARL_v6tpae29db","63d2a4b549eb02187fd40092","fixation","","","img/fixation.png","null","","","test","","","","","","","","","","","","","","","","","","","",""
"461.09999990463257","846439","SARL_v6","SARL_v6tpae29db","63d2a4b549eb02187fd40092","freq","","","img/orange_2bandit_a2.png","70","","70","test","1","","84","","","","square","circle","81","9","4","0.9629629629629629","","","","","","","",""
"null","846786","SARL_v6","SARL_v6tpae29db","63d2a4b549eb02187fd40092","freq_resp","","","img/orange_2bandit_a.png","70","img/orange_2bandit_a.png","70","test","","","","","","","","","","","4","","","","","","","","",""
"null","846942","SARL_v6","SARL_v6tpae29db","63d2a4b549eb02187fd40092","fixation","","","img/fixation.png","null","","","test","","","","","","","","","","","","","","","","","","","",""
"431.3000000715256","847376","SARL_v6","SARL_v6tpae29db","63d2a4b549eb02187fd40092","freq","","","img/orange_2bandit_a2.png","70","","70","test","1","","85","","","","square","circle","82","10","4","0.9634146341463414","","","","","","","",""
"null","847751","SARL_v6","SARL_v6tpae29db","63d2a4b549eb02187fd40092","freq_resp","","","img/orange_2bandit_a.png","70","img/orange_2bandit_a.png","70","test","","","","","","","","","","","4","","","","","","","","",""
"null","847907","SARL_v6","SARL_v6tpae29db","63d2a4b549eb02187fd40092","fixation","","","img/fixation.png","null","","","test","","","","","","","","","","","","","","","","","","","",""
"371.2000000476837","848281","SARL_v6","SARL_v6tpae29db","63d2a4b549eb02187fd40092","freq","","","img/orange_2bandit_a2.png","70","","70","test","1","","86","","","","square","circle","83","11","4","0.963855421686747","","","","","","","",""
"null","848715","SARL_v6","SARL_v6tpae29db","63d2a4b549eb02187fd40092","freq_resp","","","img/orange_2bandit_a.png","70","img/orange_2bandit_a.png","70","test","","","","","","","","","","","4","","","","","","","","",""
"null","848871","SARL_v6","SARL_v6tpae29db","63d2a4b549eb02187fd40092","fixation","","","img/fixation.png","null","","","test","","","","","","","","","","","","","","","","","","","",""
"406.7000000476837","849280","SARL_v6","SARL_v6tpae29db","63d2a4b549eb02187fd40092","freq","","","img/orange_2bandit_a2.png","70","","70","test","1","","87","","","","square","circle","84","12","4","0.9642857142857143","","","","","","","",""
"null","849680","SARL_v6","SARL_v6tpae29db","63d2a4b549eb02187fd40092","freq_resp","","","img/orange_2bandit_a.png","70","img/orange_2bandit_a.png","70","test","","","","","","","","","","","4","","","","","","","","",""
"null","849835","SARL_v6","SARL_v6tpae29db","63d2a4b549eb02187fd40092","fixation","","","img/fixation.png","null","","","test","","","","","","","","","","","","","","","","","","","",""
"665.7999999523163","850503","SARL_v6","SARL_v6tpae29db","63d2a4b549eb02187fd40092","infreq","","","img/blue_2bandit_a2.png","68","","68","test","1","","88","","","","square","circle","85","13","4","0.9647058823529412","","","","","","","",""
"null","850641","SARL_v6","SARL_v6tpae29db","63d2a4b549eb02187fd40092","infreq_resp","","","img/blue_2bandit_a.png","68","img/blue_2bandit_a.png","68","test","","","","","","","","","","","4","","","","","","","","",""
"null","850798","SARL_v6","SARL_v6tpae29db","63d2a4b549eb02187fd40092","fixation","","","img/fixation.png","null","","","test","","","","","","","","","","","","","","","","","","","",""
"502.7000000476837","851303","SARL_v6","SARL_v6tpae29db","63d2a4b549eb02187fd40092","freq","","","img/orange_2bandit_a2.png","70","","70","test","1","","89","","","","square","circle","86","14","4","0.9651162790697675","","","","","","","",""
"null","851605","SARL_v6","SARL_v6tpae29db","63d2a4b549eb02187fd40092","freq_resp","","","img/orange_2bandit_a.png","70","img/orange_2bandit_a.png","70","test","","","","","","","","","","","4","","","","","","","","",""
"null","851758","SARL_v6","SARL_v6tpae29db","63d2a4b549eb02187fd40092","fixation","","","img/fixation.png","null","","","test","","","","","","","","","","","","","","","","","","","",""
"447.40000009536743","852208","SARL_v6","SARL_v6tpae29db","63d2a4b549eb02187fd40092","freq","","","img/orange_2bandit_a2.png","70","","70","test","1","","90","","","","square","circle","87","15","4","0.9655172413793104","","","","","","","",""
"null","852573","SARL_v6","SARL_v6tpae29db","63d2a4b549eb02187fd40092","freq_resp","","","img/orange_2bandit_a.png","70","img/orange_2bandit_a.png","70","test","","","","","","","","","","","4","","","","","","","","",""
"null","852731","SARL_v6","SARL_v6tpae29db","63d2a4b549eb02187fd40092","fixation","","","img/fixation.png","null","","","test","","","","","","","","","","","","","","","","","","","",""
"330.89999997615814","853064","SARL_v6","SARL_v6tpae29db","63d2a4b549eb02187fd40092","freq","","","img/orange_2bandit_a2.png","70","","70","test","1","","91","","","","square","circle","88","16","4","0.9659090909090909","","","","","","","",""
"null","853542","SARL_v6","SARL_v6tpae29db","63d2a4b549eb02187fd40092","freq_resp","","","img/orange_2bandit_a.png","70","img/orange_2bandit_a.png","70","test","","","","","","","","","","","4","","","","","","","","",""
"null","853694","SARL_v6","SARL_v6tpae29db","63d2a4b549eb02187fd40092","fixation","","","img/fixation.png","null","","","test","","","","","","","","","","","","","","","","","","","",""
"391","854087","SARL_v6","SARL_v6tpae29db","63d2a4b549eb02187fd40092","freq","","","img/orange_2bandit_a2.png","70","","70","test","1","","92","","","","square","circle","89","17","4","0.9662921348314607","","","","","","","",""
"null","854506","SARL_v6","SARL_v6tpae29db","63d2a4b549eb02187fd40092","freq_resp","","","img/orange_2bandit_a.png","70","img/orange_2bandit_a.png","70","test","","","","","","","","","","","4","","","","","","","","",""
"null","854663","SARL_v6","SARL_v6tpae29db","63d2a4b549eb02187fd40092","fixation","","","img/fixation.png","null","","","test","","","","","","","","","","","","","","","","","","","",""
"389.89999997615814","855055","SARL_v6","SARL_v6tpae29db","63d2a4b549eb02187fd40092","freq","","","img/orange_2bandit_a2.png","70","","70","test","1","","93","","","","square","circle","90","18","4","0.9666666666666667","","","","","","","",""
"null","855472","SARL_v6","SARL_v6tpae29db","63d2a4b549eb02187fd40092","freq_resp","","","img/orange_2bandit_a.png","70","img/orange_2bandit_a.png","70","test","","","","","","","","","","","4","","","","","","","","",""
"null","855628","SARL_v6","SARL_v6tpae29db","63d2a4b549eb02187fd40092","fixation","","","img/fixation.png","null","","","test","","","","","","","","","","","","","","","","","","","",""
"345.2000000476837","855976","SARL_v6","SARL_v6tpae29db","63d2a4b549eb02187fd40092","freq","","","img/orange_2bandit_a2.png","70","","70","test","1","","94","","","","square","circle","91","19","4","0.967032967032967","","","","","","","",""
"null","856439","SARL_v6","SARL_v6tpae29db","63d2a4b549eb02187fd40092","freq_resp","","","img/orange_2bandit_a.png","70","img/orange_2bandit_a.png","70","test","","","","","","","","","","","4","","","","","","","","",""
"null","856595","SARL_v6","SARL_v6tpae29db","63d2a4b549eb02187fd40092","fixation","","","img/fixation.png","null","","","test","","","","","","","","","","","","","","","","","","","",""
"514.2000000476837","857112","SARL_v6","SARL_v6tpae29db","63d2a4b549eb02187fd40092","rl","","","img/black_2bandit_a2.png","75","","0","test","","","95","","","0","square","circle","","0","4","","75","0","-12","-12","0","circle","4","0"
"null","857878","SARL_v6","SARL_v6tpae29db","63d2a4b549eb02187fd40092","feedback","","","<div class=""verylowPoints""> 0 </div>","null","","na","test","","","NaN","","","","","","","","4","","75","","","","","","4",""
"null","858687","SARL_v6","SARL_v6tpae29db","63d2a4b549eb02187fd40092","freq","","","img/orange_2bandit_a2.png","null","","70","test","0","","96","","","","square","circle","92","1","5","0.9565217391304348","","","","","","","",""
"null","858840","SARL_v6","SARL_v6tpae29db","63d2a4b549eb02187fd40092","fixation","","","img/fixation.png","null","","","test","","","","","","","","","","","","","","","","","","","",""
"94.89999997615814","858937","SARL_v6","SARL_v6tpae29db","63d2a4b549eb02187fd40092","freq","","","img/orange_2bandit_a2.png","70","","70","test","1","","97","","","","square","circle","93","2","5","0.956989247311828","","","","","","","",""
"null","859647","SARL_v6","SARL_v6tpae29db","63d2a4b549eb02187fd40092","freq_resp","","","img/orange_2bandit_a.png","70","img/orange_2bandit_a.png","70","test","","","","","","","","","","","5","","","","","","","","",""
"null","859800","SARL_v6","SARL_v6tpae29db","63d2a4b549eb02187fd40092","fixation","","","img/fixation.png","null","","","test","","","","","","","","","","","","","","","","","","","",""
"460.2999999523163","860263","SARL_v6","SARL_v6tpae29db","63d2a4b549eb02187fd40092","freq","","","img/orange_2bandit_a2.png","70","","70","test","1","","98","","","","square","circle","94","3","5","0.9574468085106383","","","","","","","",""
"null","860611","SARL_v6","SARL_v6tpae29db","63d2a4b549eb02187fd40092","freq_resp","","","img/orange_2bandit_a.png","70","img/orange_2bandit_a.png","70","test","","","","","","","","","","","5","","","","","","","","",""
"null","860768","SARL_v6","SARL_v6tpae29db","63d2a4b549eb02187fd40092","fixation","","","img/fixation.png","null","","","test","","","","","","","","","","","","","","","","","","","",""
"373.2000000476837","861143","SARL_v6","SARL_v6tpae29db","63d2a4b549eb02187fd40092","freq","","","img/orange_2bandit_a2.png","70","","70","test","1","","99","","","","square","circle","95","4","5","0.9578947368421052","","","","","","","",""
"null","861575","SARL_v6","SARL_v6tpae29db","63d2a4b549eb02187fd40092","freq_resp","","","img/orange_2bandit_a.png","70","img/orange_2bandit_a.png","70","test","","","","","","","","","","","5","","","","","","","","",""
"null","861730","SARL_v6","SARL_v6tpae29db","63d2a4b549eb02187fd40092","fixation","","","img/fixation.png","null","","","test","","","","","","","","","","","","","","","","","","","",""
"331.2999999523163","862063","SARL_v6","SARL_v6tpae29db","63d2a4b549eb02187fd40092","freq","","","img/orange_2bandit_a2.png","70","","70","test","1","","100","","","","square","circle","96","5","5","0.9583333333333334","","","","","","","",""
"null","862536","SARL_v6","SARL_v6tpae29db","63d2a4b549eb02187fd40092","freq_resp","","","img/orange_2bandit_a.png","70","img/orange_2bandit_a.png","70","test","","","","","","","","","","","5","","","","","","","","",""
"null","862694","SARL_v6","SARL_v6tpae29db","63d2a4b549eb02187fd40092","fixation","","","img/fixation.png","null","","","test","","","","","","","","","","","","","","","","","","","",""
"374.8000000715256","863071","SARL_v6","SARL_v6tpae29db","63d2a4b549eb02187fd40092","freq","","","img/orange_2bandit_a2.png","70","","70","test","1","","101","","","","square","circle","97","6","5","0.9587628865979382","","","","","","","",""
"null","863505","SARL_v6","SARL_v6tpae29db","63d2a4b549eb02187fd40092","freq_resp","","","img/orange_2bandit_a.png","70","img/orange_2bandit_a.png","70","test","","","","","","","","","","","5","","","","","","","","",""
"null","863673","SARL_v6","SARL_v6tpae29db","63d2a4b549eb02187fd40092","fixation","","","img/fixation.png","null","","","test","","","","","","","","","","","","","","","","","","","",""
"364.10000002384186","864039","SARL_v6","SARL_v6tpae29db","63d2a4b549eb02187fd40092","freq","","","img/orange_2bandit_a2.png","70","","70","test","1","","102","","","","square","circle","98","7","5","0.9591836734693877","","","","","","","",""
"null","864483","SARL_v6","SARL_v6tpae29db","63d2a4b549eb02187fd40092","freq_resp","","","img/orange_2bandit_a.png","70","img/orange_2bandit_a.png","70","test","","","","","","","","","","","5","","","","","","","","",""
"null","864639","SARL_v6","SARL_v6tpae29db","63d2a4b549eb02187fd40092","fixation","","","img/fixation.png","null","","","test","","","","","","","","","","","","","","","","","","","",""
"349","864991","SARL_v6","SARL_v6tpae29db","63d2a4b549eb02187fd40092","freq","","","img/orange_2bandit_a2.png","70","","70","test","1","","103","","","","square","circle","99","8","5","0.9595959595959596","","","","","","","",""
"null","865446","SARL_v6","SARL_v6tpae29db","63d2a4b549eb02187fd40092","freq_resp","","","img/orange_2bandit_a.png","70","img/orange_2bandit_a.png","70","test","","","","","","","","","","","5","","","","","","","","",""
"null","865600","SARL_v6","SARL_v6tpae29db","63d2a4b549eb02187fd40092","fixation","","","img/fixation.png","null","","","test","","","","","","","","","","","","","","","","","","","",""
"285.60000002384186","865888","SARL_v6","SARL_v6tpae29db","63d2a4b549eb02187fd40092","freq","","","img/orange_2bandit_a2.png","70","","70","test","1","","104","","","","square","circle","100","9","5","0.96","","","","","","","",""
"null","866409","SARL_v6","SARL_v6tpae29db","63d2a4b549eb02187fd40092","freq_resp","","","img/orange_2bandit_a.png","70","img/orange_2bandit_a.png","70","test","","","","","","","","","","","5","","","","","","","","",""
"null","866566","SARL_v6","SARL_v6tpae29db","63d2a4b549eb02187fd40092","fixation","","","img/fixation.png","null","","","test","","","","","","","","","","","","","","","","","","","",""
"286.8000000715256","866856","SARL_v6","SARL_v6tpae29db","63d2a4b549eb02187fd40092","freq","","","img/orange_2bandit_a2.png","70","","70","test","1","","105","","","","square","circle","101","10","5","0.9603960396039604","","","","","","","",""
"null","867377","SARL_v6","SARL_v6tpae29db","63d2a4b549eb02187fd40092","freq_resp","","","img/orange_2bandit_a.png","70","img/orange_2bandit_a.png","70","test","","","","","","","","","","","5","","","","","","","","",""
"null","867531","SARL_v6","SARL_v6tpae29db","63d2a4b549eb02187fd40092","fixation","","","img/fixation.png","null","","","test","","","","","","","","","","","","","","","","","","","",""
"435.09999990463257","867969","SARL_v6","SARL_v6tpae29db","63d2a4b549eb02187fd40092","infreq","","","img/blue_2bandit_a2.png","68","","68","test","1","","106","","","","square","circle","102","11","5","0.9607843137254902","","","","","","","",""
"null","868338","SARL_v6","SARL_v6tpae29db","63d2a4b549eb02187fd40092","infreq_resp","","","img/blue_2bandit_a.png","68","img/blue_2bandit_a.png","68","test","","","","","","","","","","","5","","","","","","","","",""
"null","868492","SARL_v6","SARL_v6tpae29db","63d2a4b549eb02187fd40092","fixation","","","img/fixation.png","null","","","test","","","","","","","","","","","","","","","","","","","",""
"425.8000000715256","868921","SARL_v6","SARL_v6tpae29db","63d2a4b549eb02187fd40092","freq","","","img/orange_2bandit_a2.png","70","","70","test","1","","107","","","","square","circle","103","12","5","0.9611650485436893","","","","","","","",""
"null","869299","SARL_v6","SARL_v6tpae29db","63d2a4b549eb02187fd40092","freq_resp","","","img/orange_2bandit_a.png","70","img/orange_2bandit_a.png","70","test","","","","","","","","","","","5","","","","","","","","",""
"null","869456","SARL_v6","SARL_v6tpae29db","63d2a4b549eb02187fd40092","fixation","","","img/fixation.png","null","","","test","","","","","","","","","","","","","","","","","","","",""
"319.7000000476837","869778","SARL_v6","SARL_v6tpae29db","63d2a4b549eb02187fd40092","freq","","","img/orange_2bandit_a2.png","70","","70","test","1","","108","","","","square","circle","104","13","5","0.9615384615384616","","","","","","","",""
"null","870266","SARL_v6","SARL_v6tpae29db","63d2a4b549eb02187fd40092","freq_resp","","","img/orange_2bandit_a.png","70","img/orange_2bandit_a.png","70","test","","","","","","","","","","","5","","","","","","","","",""
"null","870419","SARL_v6","SARL_v6tpae29db","63d2a4b549eb02187fd40092","fixation","","","img/fixation.png","null","","","test","","","","","","","","","","","","","","","","","","","",""
"314.3000000715256","870735","SARL_v6","SARL_v6tpae29db","63d2a4b549eb02187fd40092","freq","","","img/orange_2bandit_a2.png","70","","70","test","1","","109","","","","square","circle","105","14","5","0.9619047619047619","","","","","","","",""
"null","871228","SARL_v6","SARL_v6tpae29db","63d2a4b549eb02187fd40092","freq_resp","","","img/orange_2bandit_a.png","70","img/orange_2bandit_a.png","70","test","","","","","","","","","","","5","","","","","","","","",""
"null","871383","SARL_v6","SARL_v6tpae29db","63d2a4b549eb02187fd40092","fixation","","","img/fixation.png","null","","","test","","","","","","","","","","","","","","","","","","","",""
"287","871671","SARL_v6","SARL_v6tpae29db","63d2a4b549eb02187fd40092","freq","","","img/orange_2bandit_a2.png","70","","70","test","1","","110","","","","square","circle","106","15","5","0.9622641509433962","","","","","","","",""
"null","872188","SARL_v6","SARL_v6tpae29db","63d2a4b549eb02187fd40092","freq_resp","","","img/orange_2bandit_a.png","70","img/orange_2bandit_a.png","70","test","","","","","","","","","","","5","","","","","","","","",""
"null","872344","SARL_v6","SARL_v6tpae29db","63d2a4b549eb02187fd40092","fixation","","","img/fixation.png","null","","","test","","","","","","","","","","","","","","","","","","","",""
"405.7999999523163","872752","SARL_v6","SARL_v6tpae29db","63d2a4b549eb02187fd40092","infreq","","","img/blue_2bandit_a2.png","68","","68","test","1","","111","","","","square","circle","107","16","5","0.9626168224299065","","","","","","","",""
"null","873149","SARL_v6","SARL_v6tpae29db","63d2a4b549eb02187fd40092","infreq_resp","","","img/blue_2bandit_a.png","68","img/blue_2bandit_a.png","68","test","","","","","","","","","","","5","","","","","","","","",""
"null","873308","SARL_v6","SARL_v6tpae29db","63d2a4b549eb02187fd40092","fixation","","","img/fixation.png","null","","","test","","","","","","","","","","","","","","","","","","","",""
"401.2999999523163","873712","SARL_v6","SARL_v6tpae29db","63d2a4b549eb02187fd40092","freq","","","img/orange_2bandit_a2.png","70","","70","test","1","","112","","","","square","circle","108","17","5","0.9629629629629629","","","","","","","",""
"null","874115","SARL_v6","SARL_v6tpae29db","63d2a4b549eb02187fd40092","freq_resp","","","img/orange_2bandit_a.png","70","img/orange_2bandit_a.png","70","test","","","","","","","","","","","5","","","","","","","","",""
"null","874273","SARL_v6","SARL_v6tpae29db","63d2a4b549eb02187fd40092","fixation","","","img/fixation.png","null","","","test","","","","","","","","","","","","","","","","","","","",""
"323.39999997615814","874598","SARL_v6","SARL_v6tpae29db","63d2a4b549eb02187fd40092","freq","","","img/orange_2bandit_a2.png","70","","70","test","1","","113","","","","square","circle","109","18","5","0.963302752293578","","","","","","","",""
"null","875082","SARL_v6","SARL_v6tpae29db","63d2a4b549eb02187fd40092","freq_resp","","","img/orange_2bandit_a.png","70","img/orange_2bandit_a.png","70","test","","","","","","","","","","","5","","","","","","","","",""
"null","875235","SARL_v6","SARL_v6tpae29db","63d2a4b549eb02187fd40092","fixation","","","img/fixation.png","null","","","test","","","","","","","","","","","","","","","","","","","",""
"305.8000000715256","875543","SARL_v6","SARL_v6tpae29db","63d2a4b549eb02187fd40092","freq","","","img/orange_2bandit_a2.png","70","","70","test","1","","114","","","","square","circle","110","19","5","0.9636363636363636","","","","","","","",""
"null","876044","SARL_v6","SARL_v6tpae29db","63d2a4b549eb02187fd40092","freq_resp","","","img/orange_2bandit_a.png","70","img/orange_2bandit_a.png","70","test","","","","","","","","","","","5","","","","","","","","",""
"null","876198","SARL_v6","SARL_v6tpae29db","63d2a4b549eb02187fd40092","fixation","","","img/fixation.png","null","","","test","","","","","","","","","","","","","","","","","","","",""
"295.10000002384186","876496","SARL_v6","SARL_v6tpae29db","63d2a4b549eb02187fd40092","freq","","","img/orange_2bandit_a2.png","70","","70","test","1","","115","","","","square","circle","111","20","5","0.963963963963964","","","","","","","",""
"null","877004","SARL_v6","SARL_v6tpae29db","63d2a4b549eb02187fd40092","freq_resp","","","img/orange_2bandit_a.png","70","img/orange_2bandit_a.png","70","test","","","","","","","","","","","5","","","","","","","","",""
"null","877160","SARL_v6","SARL_v6tpae29db","63d2a4b549eb02187fd40092","fixation","","","img/fixation.png","null","","","test","","","","","","","","","","","","","","","","","","","",""
"284.7000000476837","877447","SARL_v6","SARL_v6tpae29db","63d2a4b549eb02187fd40092","freq","","","img/orange_2bandit_a2.png","70","","70","test","1","","116","","","","square","circle","112","21","5","0.9642857142857143","","","","","","","",""
"null","877971","SARL_v6","SARL_v6tpae29db","63d2a4b549eb02187fd40092","freq_resp","","","img/orange_2bandit_a.png","70","img/orange_2bandit_a.png","70","test","","","","","","","","","","","5","","","","","","","","",""
"null","878139","SARL_v6","SARL_v6tpae29db","63d2a4b549eb02187fd40092","fixation","","","img/fixation.png","null","","","test","","","","","","","","","","","","","","","","","","","",""
"313.60000002384186","878455","SARL_v6","SARL_v6tpae29db","63d2a4b549eb02187fd40092","freq","","","img/orange_2bandit_a2.png","70","","70","test","1","","117","","","","square","circle","113","22","5","0.9646017699115044","","","","","","","",""
"null","878949","SARL_v6","SARL_v6tpae29db","63d2a4b549eb02187fd40092","freq_resp","","","img/orange_2bandit_a.png","70","img/orange_2bandit_a.png","70","test","","","","","","","","","","","5","","","","","","","","",""
"null","879104","SARL_v6","SARL_v6tpae29db","63d2a4b549eb02187fd40092","fixation","","","img/fixation.png","null","","","test","","","","","","","","","","","","","","","","","","","",""
"315.5","879422","SARL_v6","SARL_v6tpae29db","63d2a4b549eb02187fd40092","freq","","","img/orange_2bandit_a2.png","70","","70","test","1","","118","","","","square","circle","114","23","5","0.9649122807017544","","","","","","","",""
"null","879923","SARL_v6","SARL_v6tpae29db","63d2a4b549eb02187fd40092","freq_resp","","","img/orange_2bandit_a.png","70","img/orange_2bandit_a.png","70","test","","","","","","","","","","","5","","","","","","","","",""
"null","880077","SARL_v6","SARL_v6tpae29db","63d2a4b549eb02187fd40092","fixation","","","img/fixation.png","null","","","test","","","","","","","","","","","","","","","","","","","",""
"529.6000000238419","880609","SARL_v6","SARL_v6tpae29db","63d2a4b549eb02187fd40092","rl","","","img/black_2bandit_a2.png","75","","0","test","","","119","","","4","square","circle","","0","5","","75","4","-7","-7","4","circle","5","0"
"null","881361","SARL_v6","SARL_v6tpae29db","63d2a4b549eb02187fd40092","feedback","","","<div class=""veryhighPoints""> 4 </div>","null","","na","test","","","NaN","","","","","","","","5","","75","","","","","","5",""
"540.3000000715256","881905","SARL_v6","SARL_v6tpae29db","63d2a4b549eb02187fd40092","freq","","","img/orange_2bandit_a2.png","70","","70","test","1","","120","","","","square","circle","115","1","6","0.9652173913043478","","","","","","","",""
"null","882180","SARL_v6","SARL_v6tpae29db","63d2a4b549eb02187fd40092","freq_resp","","","img/orange_2bandit_a.png","70","img/orange_2bandit_a.png","70","test","","","","","","","","","","","6","","","","","","","","",""
"null","882334","SARL_v6","SARL_v6tpae29db","63d2a4b549eb02187fd40092","fixation","","","img/fixation.png","null","","","test","","","","","","","","","","","","","","","","","","","",""
"607.3999999761581","882943","SARL_v6","SARL_v6tpae29db","63d2a4b549eb02187fd40092","freq","","","img/orange_2bandit_a2.png","70","","70","test","1","","121","","","","square","circle","116","2","6","0.9655172413793104","","","","","","","",""
"null","883143","SARL_v6","SARL_v6tpae29db","63d2a4b549eb02187fd40092","freq_resp","","","img/orange_2bandit_a.png","70","img/orange_2bandit_a.png","70","test","","","","","","","","","","","6","","","","","","","","",""
"null","883301","SARL_v6","SARL_v6tpae29db","63d2a4b549eb02187fd40092","fixation","","","img/fixation.png","null","","","test","","","","","","","","","","","","","","","","","","","",""
"622.6000000238419","883926","SARL_v6","SARL_v6tpae29db","63d2a4b549eb02187fd40092","freq","","","img/orange_2bandit_a2.png","70","","70","test","1","","122","","","","square","circle","117","3","6","0.9658119658119658","","","","","","","",""
"null","884108","SARL_v6","SARL_v6tpae29db","63d2a4b549eb02187fd40092","freq_resp","","","img/orange_2bandit_a.png","70","img/orange_2bandit_a.png","70","test","","","","","","","","","","","6","","","","","","","","",""
"null","884263","SARL_v6","SARL_v6tpae29db","63d2a4b549eb02187fd40092","fixation","","","img/fixation.png","null","","","test","","","","","","","","","","","","","","","","","","","",""
"518.3999999761581","884783","SARL_v6","SARL_v6tpae29db","63d2a4b549eb02187fd40092","freq","","","img/orange_2bandit_a2.png","70","","70","test","1","","123","","","","square","circle","118","4","6","0.9661016949152542","","","","","","","",""
"null","885066","SARL_v6","SARL_v6tpae29db","63d2a4b549eb02187fd40092","freq_resp","","","img/orange_2bandit_a.png","70","img/orange_2bandit_a.png","70","test","","","","","","","","","","","6","","","","","","","","",""
"null","885221","SARL_v6","SARL_v6tpae29db","63d2a4b549eb02187fd40092","fixation","","","img/fixation.png","null","","","test","","","","","","","","","","","","","","","","","","","",""
"552.6000000238419","885777","SARL_v6","SARL_v6tpae29db","63d2a4b549eb02187fd40092","freq","","","img/orange_2bandit_a2.png","70","","70","test","1","","124","","","","square","circle","119","5","6","0.9663865546218487","","","","","","","",""
"null","886030","SARL_v6","SARL_v6tpae29db","63d2a4b549eb02187fd40092","freq_resp","","","img/orange_2bandit_a.png","70","img/orange_2bandit_a.png","70","test","","","","","","","","","","","6","","","","","","","","",""
"null","886187","SARL_v6","SARL_v6tpae29db","63d2a4b549eb02187fd40092","fixation","","","img/fixation.png","null","","","test","","","","","","","","","","","","","","","","","","","",""
"378.2000000476837","886567","SARL_v6","SARL_v6tpae29db","63d2a4b549eb02187fd40092","freq","","","img/orange_2bandit_a2.png","70","","70","test","1","","125","","","","square","circle","120","6","6","0.9666666666666667","","","","","","","",""
"null","886993","SARL_v6","SARL_v6tpae29db","63d2a4b549eb02187fd40092","freq_resp","","","img/orange_2bandit_a.png","70","img/orange_2bandit_a.png","70","test","","","","","","","","","","","6","","","","","","","","",""
"null","887161","SARL_v6","SARL_v6tpae29db","63d2a4b549eb02187fd40092","fixation","","","img/fixation.png","null","","","test","","","","","","","","","","","","","","","","","","","",""
"324.5","887488","SARL_v6","SARL_v6tpae29db","63d2a4b549eb02187fd40092","freq","","","img/orange_2bandit_a2.png","70","","70","test","1","","126","","","","square","circle","121","7","6","0.9669421487603306","","","","","","","",""
"null","887970","SARL_v6","SARL_v6tpae29db","63d2a4b549eb02187fd40092","freq_resp","","","img/orange_2bandit_a.png","70","img/orange_2bandit_a.png","70","test","","","","","","","","","","","6","","","","","","","","",""
"null","888125","SARL_v6","SARL_v6tpae29db","63d2a4b549eb02187fd40092","fixation","","","img/fixation.png","null","","","test","","","","","","","","","","","","","","","","","","","",""
"351.8000000715256","888479","SARL_v6","SARL_v6tpae29db","63d2a4b549eb02187fd40092","freq","","","img/orange_2bandit_a2.png","70","","70","test","1","","127","","","","square","circle","122","8","6","0.9672131147540983","","","","","","","",""
"null","888946","SARL_v6","SARL_v6tpae29db","63d2a4b549eb02187fd40092","freq_resp","","","img/orange_2bandit_a.png","70","img/orange_2bandit_a.png","70","test","","","","","","","","","","","6","","","","","","","","",""
"null","889100","SARL_v6","SARL_v6tpae29db","63d2a4b549eb02187fd40092","fixation","","","img/fixation.png","null","","","test","","","","","","","","","","","","","","","","","","","",""
"321.40000009536743","889424","SARL_v6","SARL_v6tpae29db","63d2a4b549eb02187fd40092","freq","","","img/orange_2bandit_a2.png","70","","70","test","1","","128","","","","square","circle","123","9","6","0.967479674796748","","","","","","","",""
"null","889914","SARL_v6","SARL_v6tpae29db","63d2a4b549eb02187fd40092","freq_resp","","","img/orange_2bandit_a.png","70","img/orange_2bandit_a.png","70","test","","","","","","","","","","","6","","","","","","","","",""
"null","890067","SARL_v6","SARL_v6tpae29db","63d2a4b549eb02187fd40092","fixation","","","img/fixation.png","null","","","test","","","","","","","","","","","","","","","","","","","",""
"513.6000000238419","890584","SARL_v6","SARL_v6tpae29db","63d2a4b549eb02187fd40092","infreq","","","img/blue_2bandit_a2.png","68","","68","test","1","","129","","","","square","circle","124","10","6","0.967741935483871","","","","","","","",""
"null","890880","SARL_v6","SARL_v6tpae29db","63d2a4b549eb02187fd40092","infreq_resp","","","img/blue_2bandit_a.png","68","img/blue_2bandit_a.png","68","test","","","","","","","","","","","6","","","","","","","","",""
"null","891032","SARL_v6","SARL_v6tpae29db","63d2a4b549eb02187fd40092","fixation","","","img/fixation.png","null","","","test","","","","","","","","","","","","","","","","","","","",""
"480.3000000715256","891515","SARL_v6","SARL_v6tpae29db","63d2a4b549eb02187fd40092","freq","","","img/orange_2bandit_a2.png","70","","70","test","1","","130","","","","square","circle","125","11","6","0.968","","","","","","","",""
"null","891844","SARL_v6","SARL_v6tpae29db","63d2a4b549eb02187fd40092","freq_resp","","","img/orange_2bandit_a.png","70","img/orange_2bandit_a.png","70","test","","","","","","","","","","","6","","","","","","","","",""
"null","891999","SARL_v6","SARL_v6tpae29db","63d2a4b549eb02187fd40092","fixation","","","img/fixation.png","null","","","test","","","","","","","","","","","","","","","","","","","",""
