"rt","time_elapsed","expId","subject","prolificID","trialType","rlType","attType","stimulus","key_press","stim","corrresp","phase","corr","pracCounter","trialNum","rewardOne","rewardTwo","reward","bandOne","bandTwo","attentionNum","attentionRunNum","blockNum","performance","bandChosen","circleVal","squareVal","bandOneVal","bandTwoVal","shapeChosen","rlNum","badFlag"
"9383","9387","SARL_v6","SARL_v6hutg6h75","5d8e64ab4e055600157a3d90","","","","","","","","","","","","","","","","","","","","","","","","","","","",""
"","12774","SARL_v6","SARL_v6hutg6h75","5d8e64ab4e055600157a3d90","fullscreen","fullscreen","fullscreen","","","","","","","","","","","","","","","","","","","","","","","","",""
"81776.20000001788","94555","SARL_v6","SARL_v6hutg6h75","5d8e64ab4e055600157a3d90","","","","","","","","","","","","","","","","","","","","","","","","","","","",""
"null","95372","SARL_v6","SARL_v6hutg6h75","5d8e64ab4e055600157a3d90","freqPrac","","","img/orange_2bandit_a2.png","null","img/orange_2bandit_a2.png","70","prac","0","1","","","","","","","","","","","","","","","","","",""
"null","96385","SARL_v6","SARL_v6hutg6h75","5d8e64ab4e055600157a3d90","feedback","","","img/tooSlow.png","null","","na","prac","","","","","","","","","","","","","","","","","","","",""
"null","96551","SARL_v6","SARL_v6hutg6h75","5d8e64ab4e055600157a3d90","fixation","","","img/fixation.png","null","","","prac","","","","","","","","","","","","","","","","","","","",""
"461","97014","SARL_v6","SARL_v6hutg6h75","5d8e64ab4e055600157a3d90","infreqPrac","","","img/blue_2bandit_a2.png","68","img/blue_2bandit_a2.png","68","prac","1","1","","","","","","","","","","","","","","","","","",""
"461","97357","SARL_v6","SARL_v6hutg6h75","5d8e64ab4e055600157a3d90","infreqPrac_resp","","","img/blue_2bandit_a.png","68","img/blue_2bandit_a.png","68","prac","","","","","","","","","","","","","","","","","","","",""
"null","97517","SARL_v6","SARL_v6hutg6h75","5d8e64ab4e055600157a3d90","fixation","","","img/fixation.png","null","","","prac","","","","","","","","","","","","","","","","","","","",""
"477.7999999821186","97997","SARL_v6","SARL_v6hutg6h75","5d8e64ab4e055600157a3d90","freqPrac","","","img/orange_2bandit_a2.png","70","img/orange_2bandit_a2.png","70","prac","1","1","","","","","","","","","","","","","","","","","",""
"477.7999999821186","98328","SARL_v6","SARL_v6hutg6h75","5d8e64ab4e055600157a3d90","freqPrac_resp","","","img/orange_2bandit_a.png","70","img/orange_2bandit_a.png","70","prac","","","","","","","","","","","","","","","","","","","",""
"null","98487","SARL_v6","SARL_v6hutg6h75","5d8e64ab4e055600157a3d90","fixation","","","img/fixation.png","null","","","prac","","","","","","","","","","","","","","","","","","","",""
"460.30000001192093","98949","SARL_v6","SARL_v6hutg6h75","5d8e64ab4e055600157a3d90","infreqPrac","","","img/blue_2bandit_a2.png","68","img/blue_2bandit_a2.png","68","prac","1","1","","","","","","","","","","","","","","","","","",""
"460.30000001192093","99295","SARL_v6","SARL_v6hutg6h75","5d8e64ab4e055600157a3d90","infreqPrac_resp","","","img/blue_2bandit_a.png","68","img/blue_2bandit_a.png","68","prac","","","","","","","","","","","","","","","","","","","",""
"null","99455","SARL_v6","SARL_v6hutg6h75","5d8e64ab4e055600157a3d90","fixation","","","img/fixation.png","null","","","prac","","","","","","","","","","","","","","","","","","","",""
"468.90000000596046","99926","SARL_v6","SARL_v6hutg6h75","5d8e64ab4e055600157a3d90","infreqPrac","","","img/blue_2bandit_a2.png","68","img/blue_2bandit_a2.png","68","prac","1","1","","","","","","","","","","","","","","","","","",""
"468.90000000596046","100263","SARL_v6","SARL_v6hutg6h75","5d8e64ab4e055600157a3d90","infreqPrac_resp","","","img/blue_2bandit_a.png","68","img/blue_2bandit_a.png","68","prac","","","","","","","","","","","","","","","","","","","",""
"null","100422","SARL_v6","SARL_v6hutg6h75","5d8e64ab4e055600157a3d90","fixation","","","img/fixation.png","null","","","prac","","","","","","","","","","","","","","","","","","","",""
"381.5","100805","SARL_v6","SARL_v6hutg6h75","5d8e64ab4e055600157a3d90","infreqPrac","","","img/blue_2bandit_a2.png","68","img/blue_2bandit_a2.png","68","prac","1","1","","","","","","","","","","","","","","","","","",""
"381.5","101239","SARL_v6","SARL_v6hutg6h75","5d8e64ab4e055600157a3d90","infreqPrac_resp","","","img/blue_2bandit_a.png","68","img/blue_2bandit_a.png","68","prac","","","","","","","","","","","","","","","","","","","",""
"null","101407","SARL_v6","SARL_v6hutg6h75","5d8e64ab4e055600157a3d90","fixation","","","img/fixation.png","null","","","prac","","","","","","","","","","","","","","","","","","","",""
"340.90000000596046","101750","SARL_v6","SARL_v6hutg6h75","5d8e64ab4e055600157a3d90","freqPrac","","","img/orange_2bandit_a2.png","70","img/orange_2bandit_a2.png","70","prac","1","1","","","","","","","","","","","","","","","","","",""
"340.90000000596046","102222","SARL_v6","SARL_v6hutg6h75","5d8e64ab4e055600157a3d90","freqPrac_resp","","","img/orange_2bandit_a.png","70","img/orange_2bandit_a.png","70","prac","","","","","","","","","","","","","","","","","","","",""
"null","102389","SARL_v6","SARL_v6hutg6h75","5d8e64ab4e055600157a3d90","fixation","","","img/fixation.png","null","","","prac","","","","","","","","","","","","","","","","","","","",""
"430.59999999403954","102822","SARL_v6","SARL_v6hutg6h75","5d8e64ab4e055600157a3d90","infreqPrac","","","img/blue_2bandit_a2.png","68","img/blue_2bandit_a2.png","68","prac","1","1","","","","","","","","","","","","","","","","","",""
"430.59999999403954","103196","SARL_v6","SARL_v6hutg6h75","5d8e64ab4e055600157a3d90","infreqPrac_resp","","","img/blue_2bandit_a.png","68","img/blue_2bandit_a.png","68","prac","","","","","","","","","","","","","","","","","","","",""
"null","103358","SARL_v6","SARL_v6hutg6h75","5d8e64ab4e055600157a3d90","fixation","","","img/fixation.png","null","","","prac","","","","","","","","","","","","","","","","","","","",""
"589.3999999761581","103949","SARL_v6","SARL_v6hutg6h75","5d8e64ab4e055600157a3d90","freqPrac","","","img/orange_2bandit_a2.png","70","img/orange_2bandit_a2.png","70","prac","1","1","","","","","","","","","","","","","","","","","",""
"589.3999999761581","104171","SARL_v6","SARL_v6hutg6h75","5d8e64ab4e055600157a3d90","freqPrac_resp","","","img/orange_2bandit_a.png","70","img/orange_2bandit_a.png","70","prac","","","","","","","","","","","","","","","","","","","",""
"null","104327","SARL_v6","SARL_v6hutg6h75","5d8e64ab4e055600157a3d90","fixation","","","img/fixation.png","null","","","prac","","","","","","","","","","","","","","","","","","","",""
"428.5","104758","SARL_v6","SARL_v6hutg6h75","5d8e64ab4e055600157a3d90","freqPrac","","","img/orange_2bandit_a2.png","70","img/orange_2bandit_a2.png","70","prac","1","1","","","","","","","","","","","","","","","","","",""
"428.5","105132","SARL_v6","SARL_v6hutg6h75","5d8e64ab4e055600157a3d90","freqPrac_resp","","","img/orange_2bandit_a.png","70","img/orange_2bandit_a.png","70","prac","","","","","","","","","","","","","","","","","","","",""
"null","105295","SARL_v6","SARL_v6hutg6h75","5d8e64ab4e055600157a3d90","fixation","","","img/fixation.png","null","","","prac","","","","","","","","","","","","","","","","","","","",""
"33425.59999999404","138725","SARL_v6","SARL_v6hutg6h75","5d8e64ab4e055600157a3d90","","","","","","","","prac","","","","","","","","","","","","","","","","","","","",""
"565.4000000059605","139292","SARL_v6","SARL_v6hutg6h75","5d8e64ab4e055600157a3d90","rlPractice","","","img/black_2bandit_a2.png","74","img/black_2bandit_a2.png","","prac","","","0","","","","","","","","","","","","","","","","",""
"null","140060","SARL_v6","SARL_v6hutg6h75","5d8e64ab4e055600157a3d90","feedback","","","<div class=""verylowPoints_sq""> -14 </div>","null","","na","prac","","","1","10","-14","10","","","","","","","","","","","","","",""
"null","140213","SARL_v6","SARL_v6hutg6h75","5d8e64ab4e055600157a3d90","fixation","","","img/fixation.png","null","","","prac","","","","","","","","","","","","","","","","","","","",""
"877.5","141093","SARL_v6","SARL_v6hutg6h75","5d8e64ab4e055600157a3d90","rlPractice","","","img/black_2bandit_a2.png","75","img/black_2bandit_a2.png","","prac","","","1","","","","","","","","","","","","","","","","",""
"null","141845","SARL_v6","SARL_v6hutg6h75","5d8e64ab4e055600157a3d90","feedback","","","<div class=""veryhighPoints""> 5 </div>","null","","na","prac","","","2","5","-5","5","","","","","","","","","","","","","",""
"null","141998","SARL_v6","SARL_v6hutg6h75","5d8e64ab4e055600157a3d90","fixation","","","img/fixation.png","null","","","prac","","","","","","","","","","","","","","","","","","","",""
"316.59999999403954","142317","SARL_v6","SARL_v6hutg6h75","5d8e64ab4e055600157a3d90","rlPractice","","","img/black_2bandit_a2.png","75","img/black_2bandit_a2.png","","prac","","","2","","","","","","","","","","","","","","","","",""
"null","143080","SARL_v6","SARL_v6hutg6h75","5d8e64ab4e055600157a3d90","feedback","","","<div class=""veryhighPoints""> 30 </div>","null","","na","prac","","","3","30","2","30","","","","","","","","","","","","","",""
"null","143235","SARL_v6","SARL_v6hutg6h75","5d8e64ab4e055600157a3d90","fixation","","","img/fixation.png","null","","","prac","","","","","","","","","","","","","","","","","","","",""
"296.5","143533","SARL_v6","SARL_v6hutg6h75","5d8e64ab4e055600157a3d90","rlPractice","","","img/black_2bandit_a2.png","75","img/black_2bandit_a2.png","","prac","","","3","","","","","","","","","","","","","","","","",""
"null","144298","SARL_v6","SARL_v6hutg6h75","5d8e64ab4e055600157a3d90","feedback","","","<div class=""verylowPoints""> -2 </div>","null","","na","prac","","","4","-2","20","-2","","","","","","","","","","","","","",""
"null","144466","SARL_v6","SARL_v6hutg6h75","5d8e64ab4e055600157a3d90","fixation","","","img/fixation.png","null","","","prac","","","","","","","","","","","","","","","","","","","",""
"11180.699999988079","155648","SARL_v6","SARL_v6hutg6h75","5d8e64ab4e055600157a3d90","","","","","","","","prac","","","","","","","","","","","","","","","","","","","",""
"684.8000000119209","156334","SARL_v6","SARL_v6hutg6h75","5d8e64ab4e055600157a3d90","mixAttFreqPrac","","","img/orange_2bandit_a2.png","70","img/orange_2bandit_a2.png","70","prac","","","1","","","","","","","","","","","","","","","","",""
"684.8000000119209","156465","SARL_v6","SARL_v6hutg6h75","5d8e64ab4e055600157a3d90","freqPrac_resp","","","img/orange_2bandit_a.png","70","img/orange_2bandit_a.png","70","prac","","","1","","","","","","","","","","","","","","","","",""
"null","156628","SARL_v6","SARL_v6hutg6h75","5d8e64ab4e055600157a3d90","fixation","","","img/fixation.png","null","","","prac","","","","","","","","","","","","","","","","","","","",""
"624.1999999880791","157254","SARL_v6","SARL_v6hutg6h75","5d8e64ab4e055600157a3d90","mixAttInfreqPrac","","","img/blue_2bandit_a2.png","68","img/blue_2bandit_a2.png","68","prac","","","2","","","","","","","","","","","","","","","","",""
"624.1999999880791","157445","SARL_v6","SARL_v6hutg6h75","5d8e64ab4e055600157a3d90","infreqPrac_resp","","","img/blue_2bandit_a.png","68","img/orange_2bandit_a.png","68","prac","","","2","","","","","","","","","","","","","","","","",""
"null","157597","SARL_v6","SARL_v6hutg6h75","5d8e64ab4e055600157a3d90","fixation","","","img/fixation.png","null","","","prac","","","","","","","","","","","","","","","","","","","",""
"407.5","158007","SARL_v6","SARL_v6hutg6h75","5d8e64ab4e055600157a3d90","mixAttInfreqPrac","","","img/blue_2bandit_a2.png","70","img/blue_2bandit_a2.png","68","prac","","","3","","","","","","","","","","","","","","","","",""
"407.5","158416","SARL_v6","SARL_v6hutg6h75","5d8e64ab4e055600157a3d90","infreqPrac_resp","","","img/blue_2bandit_a.png","70","img/orange_2bandit_a.png","68","prac","","","3","","","","","","","","","","","","","","","","",""
"null","158579","SARL_v6","SARL_v6hutg6h75","5d8e64ab4e055600157a3d90","fixation","","","img/fixation.png","null","","","prac","","","","","","","","","","","","","","","","","","","",""
"409.30000001192093","158990","SARL_v6","SARL_v6hutg6h75","5d8e64ab4e055600157a3d90","mixAttInfreqPrac","","","img/blue_2bandit_a2.png","68","img/blue_2bandit_a2.png","68","prac","","","4","","","","","","","","","","","","","","","","",""
"409.30000001192093","159384","SARL_v6","SARL_v6hutg6h75","5d8e64ab4e055600157a3d90","infreqPrac_resp","","","img/blue_2bandit_a.png","68","img/orange_2bandit_a.png","68","prac","","","4","","","","","","","","","","","","","","","","",""
"null","159547","SARL_v6","SARL_v6hutg6h75","5d8e64ab4e055600157a3d90","fixation","","","img/fixation.png","null","","","prac","","","","","","","","","","","","","","","","","","","",""
"449.7999999821186","159999","SARL_v6","SARL_v6hutg6h75","5d8e64ab4e055600157a3d90","mixAttFreqPrac","","","img/orange_2bandit_a2.png","70","img/orange_2bandit_a2.png","70","prac","","","5","","","","","","","","","","","","","","","","",""
"449.7999999821186","160353","SARL_v6","SARL_v6hutg6h75","5d8e64ab4e055600157a3d90","freqPrac_resp","","","img/orange_2bandit_a.png","70","img/orange_2bandit_a.png","70","prac","","","5","","","","","","","","","","","","","","","","",""
"null","160517","SARL_v6","SARL_v6hutg6h75","5d8e64ab4e055600157a3d90","fixation","","","img/fixation.png","null","","","prac","","","","","","","","","","","","","","","","","","","",""
"751.5999999940395","161270","SARL_v6","SARL_v6hutg6h75","5d8e64ab4e055600157a3d90","mixRLPractice","","","img/black_2bandit_a2.png","74","img/black_2bandit_a2.png","","prac","","","5","","","","","","","","","","","","","","","","",""
"null","162031","SARL_v6","SARL_v6hutg6h75","5d8e64ab4e055600157a3d90","feedback","","","<div class=""veryhighPoints_sq""> 10 </div>","null","","na","prac","","","6","-14","10","-14","","","","","","","","","","","","","",""
"null","162184","SARL_v6","SARL_v6hutg6h75","5d8e64ab4e055600157a3d90","fixation","","","img/fixation.png","null","","","prac","","","","","","","","","","","","","","","","","","","",""
"773.4000000059605","162959","SARL_v6","SARL_v6hutg6h75","5d8e64ab4e055600157a3d90","mixAttFreqPrac","","","img/orange_2bandit_a2.png","70","img/orange_2bandit_a2.png","70","prac","","","7","","","","","","","","","","","","","","","","",""
"773.4000000059605","162987","SARL_v6","SARL_v6hutg6h75","5d8e64ab4e055600157a3d90","freqPrac_resp","","","img/orange_2bandit_a.png","70","img/orange_2bandit_a.png","70","prac","","","7","","","","","","","","","","","","","","","","",""
"null","163152","SARL_v6","SARL_v6hutg6h75","5d8e64ab4e055600157a3d90","fixation","","","img/fixation.png","null","","","prac","","","","","","","","","","","","","","","","","","","",""
"396.59999999403954","163550","SARL_v6","SARL_v6hutg6h75","5d8e64ab4e055600157a3d90","mixAttInfreqPrac","","","img/blue_2bandit_a2.png","68","img/blue_2bandit_a2.png","68","prac","","","8","","","","","","","","","","","","","","","","",""
"396.59999999403954","163970","SARL_v6","SARL_v6hutg6h75","5d8e64ab4e055600157a3d90","infreqPrac_resp","","","img/blue_2bandit_a.png","68","img/orange_2bandit_a.png","68","prac","","","8","","","","","","","","","","","","","","","","",""
"null","164130","SARL_v6","SARL_v6hutg6h75","5d8e64ab4e055600157a3d90","fixation","","","img/fixation.png","null","","","prac","","","","","","","","","","","","","","","","","","","",""
"683.4000000059605","164815","SARL_v6","SARL_v6hutg6h75","5d8e64ab4e055600157a3d90","mixAttFreqPrac","","","img/orange_2bandit_a2.png","70","img/orange_2bandit_a2.png","70","prac","","","9","","","","","","","","","","","","","","","","",""
"683.4000000059605","164939","SARL_v6","SARL_v6hutg6h75","5d8e64ab4e055600157a3d90","freqPrac_resp","","","img/orange_2bandit_a.png","70","img/orange_2bandit_a.png","70","prac","","","9","","","","","","","","","","","","","","","","",""
"null","165103","SARL_v6","SARL_v6hutg6h75","5d8e64ab4e055600157a3d90","fixation","","","img/fixation.png","null","","","prac","","","","","","","","","","","","","","","","","","","",""
"445.90000000596046","165551","SARL_v6","SARL_v6hutg6h75","5d8e64ab4e055600157a3d90","mixAttFreqPrac","","","img/orange_2bandit_a2.png","70","img/orange_2bandit_a2.png","70","prac","","","10","","","","","","","","","","","","","","","","",""
"445.90000000596046","165909","SARL_v6","SARL_v6hutg6h75","5d8e64ab4e055600157a3d90","freqPrac_resp","","","img/orange_2bandit_a.png","70","img/orange_2bandit_a.png","70","prac","","","10","","","","","","","","","","","","","","","","",""
"null","166066","SARL_v6","SARL_v6hutg6h75","5d8e64ab4e055600157a3d90","fixation","","","img/fixation.png","null","","","prac","","","","","","","","","","","","","","","","","","","",""
"492","166560","SARL_v6","SARL_v6hutg6h75","5d8e64ab4e055600157a3d90","mixAttInfreqPrac","","","img/blue_2bandit_a2.png","68","img/blue_2bandit_a2.png","68","prac","","","11","","","","","","","","","","","","","","","","",""
"492","166880","SARL_v6","SARL_v6hutg6h75","5d8e64ab4e055600157a3d90","infreqPrac_resp","","","img/blue_2bandit_a.png","68","img/orange_2bandit_a.png","68","prac","","","11","","","","","","","","","","","","","","","","",""
"null","167039","SARL_v6","SARL_v6hutg6h75","5d8e64ab4e055600157a3d90","fixation","","","img/fixation.png","null","","","prac","","","","","","","","","","","","","","","","","","","",""
"750.4000000059605","167791","SARL_v6","SARL_v6hutg6h75","5d8e64ab4e055600157a3d90","mixRLPractice","","","img/black_2bandit_a2.png","74","img/black_2bandit_a2.png","","prac","","","11","","","","","","","","","","","","","","","","",""
"null","168557","SARL_v6","SARL_v6hutg6h75","5d8e64ab4e055600157a3d90","feedback","","","<div class=""verylowPoints_sq""> -5 </div>","null","","na","prac","","","12","5","-5","5","","","","","","","","","","","","","",""
"null","168723","SARL_v6","SARL_v6hutg6h75","5d8e64ab4e055600157a3d90","fixation","","","img/fixation.png","null","","","prac","","","","","","","","","","","","","","","","","","","",""
"5388.0999999940395","174112","SARL_v6","SARL_v6hutg6h75","5d8e64ab4e055600157a3d90","","","","","","","","prac","","","","","","","","","","","","","","","","","","","",""
"389.80000001192093","174504","SARL_v6","SARL_v6hutg6h75","5d8e64ab4e055600157a3d90","freq","","","img/orange_2bandit_a2.png","70","","70","test","1","","1","","","","square","circle","1","1","1","1","","","","","","","",""
"null","174929","SARL_v6","SARL_v6hutg6h75","5d8e64ab4e055600157a3d90","freq_resp","","","img/orange_2bandit_a.png","70","img/orange_2bandit_a.png","70","test","","","","","","","","","","","1","","","","","","","","",""
"null","175096","SARL_v6","SARL_v6hutg6h75","5d8e64ab4e055600157a3d90","fixation","","","img/fixation.png","null","","","test","","","","","","","","","","","","","","","","","","","",""
"318.60000002384186","175416","SARL_v6","SARL_v6hutg6h75","5d8e64ab4e055600157a3d90","freq","","","img/orange_2bandit_a2.png","70","","70","test","1","","2","","","","square","circle","2","2","1","1","","","","","","","",""
"null","175911","SARL_v6","SARL_v6hutg6h75","5d8e64ab4e055600157a3d90","freq_resp","","","img/orange_2bandit_a.png","70","img/orange_2bandit_a.png","70","test","","","","","","","","","","","1","","","","","","","","",""
"null","176066","SARL_v6","SARL_v6hutg6h75","5d8e64ab4e055600157a3d90","fixation","","","img/fixation.png","null","","","test","","","","","","","","","","","","","","","","","","","",""
"452.30000001192093","176520","SARL_v6","SARL_v6hutg6h75","5d8e64ab4e055600157a3d90","infreq","","","img/blue_2bandit_a2.png","68","","68","test","1","","3","","","","square","circle","3","3","1","1","","","","","","","",""
"null","176870","SARL_v6","SARL_v6hutg6h75","5d8e64ab4e055600157a3d90","infreq_resp","","","img/blue_2bandit_a.png","68","img/blue_2bandit_a.png","68","test","","","","","","","","","","","1","","","","","","","","",""
"null","177033","SARL_v6","SARL_v6hutg6h75","5d8e64ab4e055600157a3d90","fixation","","","img/fixation.png","null","","","test","","","","","","","","","","","","","","","","","","","",""
"502.19999998807907","177537","SARL_v6","SARL_v6hutg6h75","5d8e64ab4e055600157a3d90","freq","","","img/orange_2bandit_a2.png","70","","70","test","1","","4","","","","square","circle","4","4","1","1","","","","","","","",""
"null","177840","SARL_v6","SARL_v6hutg6h75","5d8e64ab4e055600157a3d90","freq_resp","","","img/orange_2bandit_a.png","70","img/orange_2bandit_a.png","70","test","","","","","","","","","","","1","","","","","","","","",""
"null","177999","SARL_v6","SARL_v6hutg6h75","5d8e64ab4e055600157a3d90","fixation","","","img/fixation.png","null","","","test","","","","","","","","","","","","","","","","","","","",""
"399.40000000596046","178401","SARL_v6","SARL_v6hutg6h75","5d8e64ab4e055600157a3d90","freq","","","img/orange_2bandit_a2.png","70","","70","test","1","","5","","","","square","circle","5","5","1","1","","","","","","","",""
"null","178817","SARL_v6","SARL_v6hutg6h75","5d8e64ab4e055600157a3d90","freq_resp","","","img/orange_2bandit_a.png","70","img/orange_2bandit_a.png","70","test","","","","","","","","","","","1","","","","","","","","",""
"null","178983","SARL_v6","SARL_v6hutg6h75","5d8e64ab4e055600157a3d90","fixation","","","img/fixation.png","null","","","test","","","","","","","","","","","","","","","","","","","",""
"343.5","179328","SARL_v6","SARL_v6hutg6h75","5d8e64ab4e055600157a3d90","freq","","","img/orange_2bandit_a2.png","70","","70","test","1","","6","","","","square","circle","6","6","1","1","","","","","","","",""
"null","179799","SARL_v6","SARL_v6hutg6h75","5d8e64ab4e055600157a3d90","freq_resp","","","img/orange_2bandit_a.png","70","img/orange_2bandit_a.png","70","test","","","","","","","","","","","1","","","","","","","","",""
"null","179953","SARL_v6","SARL_v6hutg6h75","5d8e64ab4e055600157a3d90","fixation","","","img/fixation.png","null","","","test","","","","","","","","","","","","","","","","","","","",""
"349.59999999403954","180304","SARL_v6","SARL_v6hutg6h75","5d8e64ab4e055600157a3d90","freq","","","img/orange_2bandit_a2.png","70","","70","test","1","","7","","","","square","circle","7","7","1","1","","","","","","","",""
"null","180760","SARL_v6","SARL_v6hutg6h75","5d8e64ab4e055600157a3d90","freq_resp","","","img/orange_2bandit_a.png","70","img/orange_2bandit_a.png","70","test","","","","","","","","","","","1","","","","","","","","",""
"null","180921","SARL_v6","SARL_v6hutg6h75","5d8e64ab4e055600157a3d90","fixation","","","img/fixation.png","null","","","test","","","","","","","","","","","","","","","","","","","",""
"349.19999998807907","181272","SARL_v6","SARL_v6hutg6h75","5d8e64ab4e055600157a3d90","freq","","","img/orange_2bandit_a2.png","70","","70","test","1","","8","","","","square","circle","8","8","1","1","","","","","","","",""
"null","181733","SARL_v6","SARL_v6hutg6h75","5d8e64ab4e055600157a3d90","freq_resp","","","img/orange_2bandit_a.png","70","img/orange_2bandit_a.png","70","test","","","","","","","","","","","1","","","","","","","","",""
"null","181901","SARL_v6","SARL_v6hutg6h75","5d8e64ab4e055600157a3d90","fixation","","","img/fixation.png","null","","","test","","","","","","","","","","","","","","","","","","","",""
"321.60000002384186","182225","SARL_v6","SARL_v6hutg6h75","5d8e64ab4e055600157a3d90","freq","","","img/orange_2bandit_a2.png","70","","70","test","1","","9","","","","square","circle","9","9","1","1","","","","","","","",""
"null","182718","SARL_v6","SARL_v6hutg6h75","5d8e64ab4e055600157a3d90","freq_resp","","","img/orange_2bandit_a.png","70","img/orange_2bandit_a.png","70","test","","","","","","","","","","","1","","","","","","","","",""
"null","182870","SARL_v6","SARL_v6hutg6h75","5d8e64ab4e055600157a3d90","fixation","","","img/fixation.png","null","","","test","","","","","","","","","","","","","","","","","","","",""
"408.7999999821186","183283","SARL_v6","SARL_v6hutg6h75","5d8e64ab4e055600157a3d90","infreq","","","img/blue_2bandit_a2.png","68","","68","test","1","","10","","","","square","circle","10","10","1","1","","","","","","","",""
"null","183690","SARL_v6","SARL_v6hutg6h75","5d8e64ab4e055600157a3d90","infreq_resp","","","img/blue_2bandit_a.png","68","img/blue_2bandit_a.png","68","test","","","","","","","","","","","1","","","","","","","","",""
"null","183856","SARL_v6","SARL_v6hutg6h75","5d8e64ab4e055600157a3d90","fixation","","","img/fixation.png","null","","","test","","","","","","","","","","","","","","","","","","","",""
"409.2999999821186","184267","SARL_v6","SARL_v6hutg6h75","5d8e64ab4e055600157a3d90","freq","","","img/orange_2bandit_a2.png","70","","70","test","1","","11","","","","square","circle","11","11","1","1","","","","","","","",""
"null","184660","SARL_v6","SARL_v6hutg6h75","5d8e64ab4e055600157a3d90","freq_resp","","","img/orange_2bandit_a.png","70","img/orange_2bandit_a.png","70","test","","","","","","","","","","","1","","","","","","","","",""
"null","184824","SARL_v6","SARL_v6hutg6h75","5d8e64ab4e055600157a3d90","fixation","","","img/fixation.png","null","","","test","","","","","","","","","","","","","","","","","","","",""
"321.5","185147","SARL_v6","SARL_v6hutg6h75","5d8e64ab4e055600157a3d90","freq","","","img/orange_2bandit_a2.png","70","","70","test","1","","12","","","","square","circle","12","12","1","1","","","","","","","",""
"null","185642","SARL_v6","SARL_v6hutg6h75","5d8e64ab4e055600157a3d90","freq_resp","","","img/orange_2bandit_a.png","70","img/orange_2bandit_a.png","70","test","","","","","","","","","","","1","","","","","","","","",""
"null","185809","SARL_v6","SARL_v6hutg6h75","5d8e64ab4e055600157a3d90","fixation","","","img/fixation.png","null","","","test","","","","","","","","","","","","","","","","","","","",""
"353.2000000178814","186164","SARL_v6","SARL_v6hutg6h75","5d8e64ab4e055600157a3d90","freq","","","img/orange_2bandit_a2.png","70","","70","test","1","","13","","","","square","circle","13","13","1","1","","","","","","","",""
"null","186625","SARL_v6","SARL_v6hutg6h75","5d8e64ab4e055600157a3d90","freq_resp","","","img/orange_2bandit_a.png","70","img/orange_2bandit_a.png","70","test","","","","","","","","","","","1","","","","","","","","",""
"null","186778","SARL_v6","SARL_v6hutg6h75","5d8e64ab4e055600157a3d90","fixation","","","img/fixation.png","null","","","test","","","","","","","","","","","","","","","","","","","",""
"559.4000000059605","187340","SARL_v6","SARL_v6hutg6h75","5d8e64ab4e055600157a3d90","infreq","","","img/blue_2bandit_a2.png","68","","68","test","1","","14","","","","square","circle","14","14","1","1","","","","","","","",""
"null","187588","SARL_v6","SARL_v6hutg6h75","5d8e64ab4e055600157a3d90","infreq_resp","","","img/blue_2bandit_a.png","68","img/blue_2bandit_a.png","68","test","","","","","","","","","","","1","","","","","","","","",""
"null","187745","SARL_v6","SARL_v6hutg6h75","5d8e64ab4e055600157a3d90","fixation","","","img/fixation.png","null","","","test","","","","","","","","","","","","","","","","","","","",""
"489.59999999403954","188236","SARL_v6","SARL_v6hutg6h75","5d8e64ab4e055600157a3d90","freq","","","img/orange_2bandit_a2.png","70","","70","test","1","","15","","","","square","circle","15","15","1","1","","","","","","","",""
"null","188559","SARL_v6","SARL_v6hutg6h75","5d8e64ab4e055600157a3d90","freq_resp","","","img/orange_2bandit_a.png","70","img/orange_2bandit_a.png","70","test","","","","","","","","","","","1","","","","","","","","",""
"null","188712","SARL_v6","SARL_v6hutg6h75","5d8e64ab4e055600157a3d90","fixation","","","img/fixation.png","null","","","test","","","","","","","","","","","","","","","","","","","",""
"425.5","189140","SARL_v6","SARL_v6hutg6h75","5d8e64ab4e055600157a3d90","freq","","","img/orange_2bandit_a2.png","70","","70","test","1","","16","","","","square","circle","16","16","1","1","","","","","","","",""
"null","189532","SARL_v6","SARL_v6hutg6h75","5d8e64ab4e055600157a3d90","freq_resp","","","img/orange_2bandit_a.png","70","img/orange_2bandit_a.png","70","test","","","","","","","","","","","1","","","","","","","","",""
"null","189695","SARL_v6","SARL_v6hutg6h75","5d8e64ab4e055600157a3d90","fixation","","","img/fixation.png","null","","","test","","","","","","","","","","","","","","","","","","","",""
"354.7000000178814","190051","SARL_v6","SARL_v6hutg6h75","5d8e64ab4e055600157a3d90","freq","","","img/orange_2bandit_a2.png","70","","70","test","1","","17","","","","square","circle","17","17","1","1","","","","","","","",""
"null","190513","SARL_v6","SARL_v6hutg6h75","5d8e64ab4e055600157a3d90","freq_resp","","","img/orange_2bandit_a.png","70","img/orange_2bandit_a.png","70","test","","","","","","","","","","","1","","","","","","","","",""
"null","190666","SARL_v6","SARL_v6hutg6h75","5d8e64ab4e055600157a3d90","fixation","","","img/fixation.png","null","","","test","","","","","","","","","","","","","","","","","","","",""
"383.7999999821186","191052","SARL_v6","SARL_v6hutg6h75","5d8e64ab4e055600157a3d90","freq","","","img/orange_2bandit_a2.png","70","","70","test","1","","18","","","","square","circle","18","18","1","1","","","","","","","",""
"null","191481","SARL_v6","SARL_v6hutg6h75","5d8e64ab4e055600157a3d90","freq_resp","","","img/orange_2bandit_a.png","70","img/orange_2bandit_a.png","70","test","","","","","","","","","","","1","","","","","","","","",""
"null","191647","SARL_v6","SARL_v6hutg6h75","5d8e64ab4e055600157a3d90","fixation","","","img/fixation.png","null","","","test","","","","","","","","","","","","","","","","","","","",""
"346.59999999403954","191995","SARL_v6","SARL_v6hutg6h75","5d8e64ab4e055600157a3d90","freq","","","img/orange_2bandit_a2.png","70","","70","test","1","","19","","","","square","circle","19","19","1","1","","","","","","","",""
"null","192463","SARL_v6","SARL_v6hutg6h75","5d8e64ab4e055600157a3d90","freq_resp","","","img/orange_2bandit_a.png","70","img/orange_2bandit_a.png","70","test","","","","","","","","","","","1","","","","","","","","",""
"null","192616","SARL_v6","SARL_v6hutg6h75","5d8e64ab4e055600157a3d90","fixation","","","img/fixation.png","null","","","test","","","","","","","","","","","","","","","","","","","",""
"322.69999998807907","192940","SARL_v6","SARL_v6hutg6h75","5d8e64ab4e055600157a3d90","freq","","","img/orange_2bandit_a2.png","70","","70","test","1","","20","","","","square","circle","20","20","1","1","","","","","","","",""
"null","193432","SARL_v6","SARL_v6hutg6h75","5d8e64ab4e055600157a3d90","freq_resp","","","img/orange_2bandit_a.png","70","img/orange_2bandit_a.png","70","test","","","","","","","","","","","1","","","","","","","","",""
"null","193585","SARL_v6","SARL_v6hutg6h75","5d8e64ab4e055600157a3d90","fixation","","","img/fixation.png","null","","","test","","","","","","","","","","","","","","","","","","","",""
"369","193956","SARL_v6","SARL_v6hutg6h75","5d8e64ab4e055600157a3d90","freq","","","img/orange_2bandit_a2.png","70","","70","test","1","","21","","","","square","circle","21","21","1","1","","","","","","","",""
"null","194402","SARL_v6","SARL_v6hutg6h75","5d8e64ab4e055600157a3d90","freq_resp","","","img/orange_2bandit_a.png","70","img/orange_2bandit_a.png","70","test","","","","","","","","","","","1","","","","","","","","",""
"null","194567","SARL_v6","SARL_v6hutg6h75","5d8e64ab4e055600157a3d90","fixation","","","img/fixation.png","null","","","test","","","","","","","","","","","","","","","","","","","",""
"347.80000001192093","194916","SARL_v6","SARL_v6hutg6h75","5d8e64ab4e055600157a3d90","freq","","","img/orange_2bandit_a2.png","70","","70","test","1","","22","","","","square","circle","22","22","1","1","","","","","","","",""
"null","195380","SARL_v6","SARL_v6hutg6h75","5d8e64ab4e055600157a3d90","freq_resp","","","img/orange_2bandit_a.png","70","img/orange_2bandit_a.png","70","test","","","","","","","","","","","1","","","","","","","","",""
"null","195535","SARL_v6","SARL_v6hutg6h75","5d8e64ab4e055600157a3d90","fixation","","","img/fixation.png","null","","","test","","","","","","","","","","","","","","","","","","","",""
"348","195884","SARL_v6","SARL_v6hutg6h75","5d8e64ab4e055600157a3d90","freq","","","img/orange_2bandit_a2.png","70","","70","test","1","","23","","","","square","circle","23","23","1","1","","","","","","","",""
"null","196342","SARL_v6","SARL_v6hutg6h75","5d8e64ab4e055600157a3d90","freq_resp","","","img/orange_2bandit_a.png","70","img/orange_2bandit_a.png","70","test","","","","","","","","","","","1","","","","","","","","",""
"null","196504","SARL_v6","SARL_v6hutg6h75","5d8e64ab4e055600157a3d90","fixation","","","img/fixation.png","null","","","test","","","","","","","","","","","","","","","","","","","",""
"411","196917","SARL_v6","SARL_v6hutg6h75","5d8e64ab4e055600157a3d90","rl","","","img/black_2bandit_a2.png","75","","0","test","","","24","","","-3","square","circle","","0","1","","75","-3","-3","-3","-3","circle","1","0"
"null","197682","SARL_v6","SARL_v6hutg6h75","5d8e64ab4e055600157a3d90","feedback","","","<div class=""verylowPoints""> -3 </div>","null","","na","test","","","NaN","","","","","","","","1","","75","","","","","","1",""
"753.2000000178814","198437","SARL_v6","SARL_v6hutg6h75","5d8e64ab4e055600157a3d90","freq","","","img/orange_2bandit_a2.png","70","","70","test","1","","25","","","","square","circle","24","1","2","1","","","","","","","",""
"null","198493","SARL_v6","SARL_v6hutg6h75","5d8e64ab4e055600157a3d90","freq_resp","","","img/orange_2bandit_a.png","70","img/orange_2bandit_a.png","70","test","","","","","","","","","","","2","","","","","","","","",""
"null","198655","SARL_v6","SARL_v6hutg6h75","5d8e64ab4e055600157a3d90","fixation","","","img/fixation.png","null","","","test","","","","","","","","","","","","","","","","","","","",""
"420.59999999403954","199077","SARL_v6","SARL_v6hutg6h75","5d8e64ab4e055600157a3d90","freq","","","img/orange_2bandit_a2.png","70","","70","test","1","","26","","","","square","circle","25","2","2","1","","","","","","","",""
"null","199459","SARL_v6","SARL_v6hutg6h75","5d8e64ab4e055600157a3d90","freq_resp","","","img/orange_2bandit_a.png","70","img/orange_2bandit_a.png","70","test","","","","","","","","","","","2","","","","","","","","",""
"null","199623","SARL_v6","SARL_v6hutg6h75","5d8e64ab4e055600157a3d90","fixation","","","img/fixation.png","null","","","test","","","","","","","","","","","","","","","","","","","",""
"388.40000000596046","200013","SARL_v6","SARL_v6hutg6h75","5d8e64ab4e055600157a3d90","infreq","","","img/blue_2bandit_a2.png","68","","68","test","1","","27","","","","square","circle","26","3","2","1","","","","","","","",""
"null","200426","SARL_v6","SARL_v6hutg6h75","5d8e64ab4e055600157a3d90","infreq_resp","","","img/blue_2bandit_a.png","68","img/blue_2bandit_a.png","68","test","","","","","","","","","","","2","","","","","","","","",""
"null","200589","SARL_v6","SARL_v6hutg6h75","5d8e64ab4e055600157a3d90","fixation","","","img/fixation.png","null","","","test","","","","","","","","","","","","","","","","","","","",""
"390.5","200981","SARL_v6","SARL_v6hutg6h75","5d8e64ab4e055600157a3d90","freq","","","img/orange_2bandit_a2.png","70","","70","test","1","","28","","","","square","circle","27","4","2","1","","","","","","","",""
"null","201393","SARL_v6","SARL_v6hutg6h75","5d8e64ab4e055600157a3d90","freq_resp","","","img/orange_2bandit_a.png","70","img/orange_2bandit_a.png","70","test","","","","","","","","","","","2","","","","","","","","",""
"null","201557","SARL_v6","SARL_v6hutg6h75","5d8e64ab4e055600157a3d90","fixation","","","img/fixation.png","null","","","test","","","","","","","","","","","","","","","","","","","",""
"534.2000000178814","202093","SARL_v6","SARL_v6hutg6h75","5d8e64ab4e055600157a3d90","freq","","","img/orange_2bandit_a2.png","70","","70","test","1","","29","","","","square","circle","28","5","2","1","","","","","","","",""
"null","202363","SARL_v6","SARL_v6hutg6h75","5d8e64ab4e055600157a3d90","freq_resp","","","img/orange_2bandit_a.png","70","img/orange_2bandit_a.png","70","test","","","","","","","","","","","2","","","","","","","","",""
"null","202527","SARL_v6","SARL_v6hutg6h75","5d8e64ab4e055600157a3d90","fixation","","","img/fixation.png","null","","","test","","","","","","","","","","","","","","","","","","","",""
"388.09999999403954","202917","SARL_v6","SARL_v6hutg6h75","5d8e64ab4e055600157a3d90","freq","","","img/orange_2bandit_a2.png","70","","70","test","1","","30","","","","square","circle","29","6","2","1","","","","","","","",""
"null","203344","SARL_v6","SARL_v6hutg6h75","5d8e64ab4e055600157a3d90","freq_resp","","","img/orange_2bandit_a.png","70","img/orange_2bandit_a.png","70","test","","","","","","","","","","","2","","","","","","","","",""
"null","203509","SARL_v6","SARL_v6hutg6h75","5d8e64ab4e055600157a3d90","fixation","","","img/fixation.png","null","","","test","","","","","","","","","","","","","","","","","","","",""
"391.09999999403954","203901","SARL_v6","SARL_v6hutg6h75","5d8e64ab4e055600157a3d90","freq","","","img/orange_2bandit_a2.png","70","","70","test","1","","31","","","","square","circle","30","7","2","1","","","","","","","",""
"null","204322","SARL_v6","SARL_v6hutg6h75","5d8e64ab4e055600157a3d90","freq_resp","","","img/orange_2bandit_a.png","70","img/orange_2bandit_a.png","70","test","","","","","","","","","","","2","","","","","","","","",""
"null","204478","SARL_v6","SARL_v6hutg6h75","5d8e64ab4e055600157a3d90","fixation","","","img/fixation.png","null","","","test","","","","","","","","","","","","","","","","","","","",""
"373.59999999403954","204853","SARL_v6","SARL_v6hutg6h75","5d8e64ab4e055600157a3d90","freq","","","img/orange_2bandit_a2.png","70","","70","test","1","","32","","","","square","circle","31","8","2","1","","","","","","","",""
"null","205294","SARL_v6","SARL_v6hutg6h75","5d8e64ab4e055600157a3d90","freq_resp","","","img/orange_2bandit_a.png","70","img/orange_2bandit_a.png","70","test","","","","","","","","","","","2","","","","","","","","",""
"null","205461","SARL_v6","SARL_v6hutg6h75","5d8e64ab4e055600157a3d90","fixation","","","img/fixation.png","null","","","test","","","","","","","","","","","","","","","","","","","",""
"350.5","205813","SARL_v6","SARL_v6hutg6h75","5d8e64ab4e055600157a3d90","freq","","","img/orange_2bandit_a2.png","70","","70","test","1","","33","","","","square","circle","32","9","2","1","","","","","","","",""
"null","206277","SARL_v6","SARL_v6hutg6h75","5d8e64ab4e055600157a3d90","freq_resp","","","img/orange_2bandit_a.png","70","img/orange_2bandit_a.png","70","test","","","","","","","","","","","2","","","","","","","","",""
"null","206430","SARL_v6","SARL_v6hutg6h75","5d8e64ab4e055600157a3d90","fixation","","","img/fixation.png","null","","","test","","","","","","","","","","","","","","","","","","","",""
"366.19999998807907","206798","SARL_v6","SARL_v6hutg6h75","5d8e64ab4e055600157a3d90","freq","","","img/orange_2bandit_a2.png","70","","70","test","1","","34","","","","square","circle","33","10","2","1","","","","","","","",""
"null","207246","SARL_v6","SARL_v6hutg6h75","5d8e64ab4e055600157a3d90","freq_resp","","","img/orange_2bandit_a.png","70","img/orange_2bandit_a.png","70","test","","","","","","","","","","","2","","","","","","","","",""
"null","207412","SARL_v6","SARL_v6hutg6h75","5d8e64ab4e055600157a3d90","fixation","","","img/fixation.png","null","","","test","","","","","","","","","","","","","","","","","","","",""
"487.5","207901","SARL_v6","SARL_v6hutg6h75","5d8e64ab4e055600157a3d90","freq","","","img/orange_2bandit_a2.png","70","","70","test","1","","35","","","","square","circle","34","11","2","1","","","","","","","",""
"null","208222","SARL_v6","SARL_v6hutg6h75","5d8e64ab4e055600157a3d90","freq_resp","","","img/orange_2bandit_a.png","70","img/orange_2bandit_a.png","70","test","","","","","","","","","","","2","","","","","","","","",""
"null","208390","SARL_v6","SARL_v6hutg6h75","5d8e64ab4e055600157a3d90","fixation","","","img/fixation.png","null","","","test","","","","","","","","","","","","","","","","","","","",""
"471.09999999403954","208863","SARL_v6","SARL_v6hutg6h75","5d8e64ab4e055600157a3d90","freq","","","img/orange_2bandit_a2.png","70","","70","test","1","","36","","","","square","circle","35","12","2","1","","","","","","","",""
"null","209204","SARL_v6","SARL_v6hutg6h75","5d8e64ab4e055600157a3d90","freq_resp","","","img/orange_2bandit_a.png","70","img/orange_2bandit_a.png","70","test","","","","","","","","","","","2","","","","","","","","",""
"null","209361","SARL_v6","SARL_v6hutg6h75","5d8e64ab4e055600157a3d90","fixation","","","img/fixation.png","null","","","test","","","","","","","","","","","","","","","","","","","",""
"362.30000001192093","209725","SARL_v6","SARL_v6hutg6h75","5d8e64ab4e055600157a3d90","freq","","","img/orange_2bandit_a2.png","70","","70","test","1","","37","","","","square","circle","36","13","2","1","","","","","","","",""
"null","210166","SARL_v6","SARL_v6hutg6h75","5d8e64ab4e055600157a3d90","freq_resp","","","img/orange_2bandit_a.png","70","img/orange_2bandit_a.png","70","test","","","","","","","","","","","2","","","","","","","","",""
"null","210332","SARL_v6","SARL_v6hutg6h75","5d8e64ab4e055600157a3d90","fixation","","","img/fixation.png","null","","","test","","","","","","","","","","","","","","","","","","","",""
"360.2000000178814","210694","SARL_v6","SARL_v6hutg6h75","5d8e64ab4e055600157a3d90","freq","","","img/orange_2bandit_a2.png","70","","70","test","1","","38","","","","square","circle","37","14","2","1","","","","","","","",""
"null","211148","SARL_v6","SARL_v6hutg6h75","5d8e64ab4e055600157a3d90","freq_resp","","","img/orange_2bandit_a.png","70","img/orange_2bandit_a.png","70","test","","","","","","","","","","","2","","","","","","","","",""
"null","211301","SARL_v6","SARL_v6hutg6h75","5d8e64ab4e055600157a3d90","fixation","","","img/fixation.png","null","","","test","","","","","","","","","","","","","","","","","","","",""
"351.2999999821186","211654","SARL_v6","SARL_v6hutg6h75","5d8e64ab4e055600157a3d90","freq","","","img/orange_2bandit_a2.png","70","","70","test","1","","39","","","","square","circle","38","15","2","1","","","","","","","",""
"null","212115","SARL_v6","SARL_v6hutg6h75","5d8e64ab4e055600157a3d90","freq_resp","","","img/orange_2bandit_a.png","70","img/orange_2bandit_a.png","70","test","","","","","","","","","","","2","","","","","","","","",""
"null","212269","SARL_v6","SARL_v6hutg6h75","5d8e64ab4e055600157a3d90","fixation","","","img/fixation.png","null","","","test","","","","","","","","","","","","","","","","","","","",""
"295.59999999403954","212566","SARL_v6","SARL_v6hutg6h75","5d8e64ab4e055600157a3d90","freq","","","img/orange_2bandit_a2.png","70","","70","test","1","","40","","","","square","circle","39","16","2","1","","","","","","","",""
"null","213079","SARL_v6","SARL_v6hutg6h75","5d8e64ab4e055600157a3d90","freq_resp","","","img/orange_2bandit_a.png","70","img/orange_2bandit_a.png","70","test","","","","","","","","","","","2","","","","","","","","",""
"null","213237","SARL_v6","SARL_v6hutg6h75","5d8e64ab4e055600157a3d90","fixation","","","img/fixation.png","null","","","test","","","","","","","","","","","","","","","","","","","",""
"319.2999999821186","213557","SARL_v6","SARL_v6hutg6h75","5d8e64ab4e055600157a3d90","freq","","","img/orange_2bandit_a2.png","70","","70","test","1","","41","","","","square","circle","40","17","2","1","","","","","","","",""
"null","214050","SARL_v6","SARL_v6hutg6h75","5d8e64ab4e055600157a3d90","freq_resp","","","img/orange_2bandit_a.png","70","img/orange_2bandit_a.png","70","test","","","","","","","","","","","2","","","","","","","","",""
"null","214204","SARL_v6","SARL_v6hutg6h75","5d8e64ab4e055600157a3d90","fixation","","","img/fixation.png","null","","","test","","","","","","","","","","","","","","","","","","","",""
"432.69999998807907","214638","SARL_v6","SARL_v6hutg6h75","5d8e64ab4e055600157a3d90","freq","","","img/orange_2bandit_a2.png","70","","70","test","1","","42","","","","square","circle","41","18","2","1","","","","","","","",""
"null","215008","SARL_v6","SARL_v6hutg6h75","5d8e64ab4e055600157a3d90","freq_resp","","","img/orange_2bandit_a.png","70","img/orange_2bandit_a.png","70","test","","","","","","","","","","","2","","","","","","","","",""
"null","215172","SARL_v6","SARL_v6hutg6h75","5d8e64ab4e055600157a3d90","fixation","","","img/fixation.png","null","","","test","","","","","","","","","","","","","","","","","","","",""
"505.2999999821186","215679","SARL_v6","SARL_v6hutg6h75","5d8e64ab4e055600157a3d90","infreq","","","img/blue_2bandit_a2.png","68","","68","test","1","","43","","","","square","circle","42","19","2","1","","","","","","","",""
"null","215979","SARL_v6","SARL_v6hutg6h75","5d8e64ab4e055600157a3d90","infreq_resp","","","img/blue_2bandit_a.png","68","img/blue_2bandit_a.png","68","test","","","","","","","","","","","2","","","","","","","","",""
"null","216138","SARL_v6","SARL_v6hutg6h75","5d8e64ab4e055600157a3d90","fixation","","","img/fixation.png","null","","","test","","","","","","","","","","","","","","","","","","","",""
"395.09999999403954","216535","SARL_v6","SARL_v6hutg6h75","5d8e64ab4e055600157a3d90","freq","","","img/orange_2bandit_a2.png","70","","70","test","1","","44","","","","square","circle","43","20","2","1","","","","","","","",""
"null","216942","SARL_v6","SARL_v6hutg6h75","5d8e64ab4e055600157a3d90","freq_resp","","","img/orange_2bandit_a.png","70","img/orange_2bandit_a.png","70","test","","","","","","","","","","","2","","","","","","","","",""
"null","217105","SARL_v6","SARL_v6hutg6h75","5d8e64ab4e055600157a3d90","fixation","","","img/fixation.png","null","","","test","","","","","","","","","","","","","","","","","","","",""
"795.2999999821186","217902","SARL_v6","SARL_v6hutg6h75","5d8e64ab4e055600157a3d90","rl","","","img/black_2bandit_a2.png","74","","0","test","","","45","","","-5","square","circle","","0","2","","74","-8","-5","-5","-8","square","2","0"
"null","218656","SARL_v6","SARL_v6hutg6h75","5d8e64ab4e055600157a3d90","feedback","","","<div class=""verylowPoints_sq""> -5 </div>","null","","na","test","","","NaN","","","","","","","","2","","74","","","","","","2",""
"453.7000000178814","219111","SARL_v6","SARL_v6hutg6h75","5d8e64ab4e055600157a3d90","freq","","","img/orange_2bandit_a2.png","70","","70","test","1","","46","","","","square","circle","44","1","3","1","","","","","","","",""
"null","219464","SARL_v6","SARL_v6hutg6h75","5d8e64ab4e055600157a3d90","freq_resp","","","img/orange_2bandit_a.png","70","img/orange_2bandit_a.png","70","test","","","","","","","","","","","3","","","","","","","","",""
"null","219627","SARL_v6","SARL_v6hutg6h75","5d8e64ab4e055600157a3d90","fixation","","","img/fixation.png","null","","","test","","","","","","","","","","","","","","","","","","","",""
"330.5","219959","SARL_v6","SARL_v6hutg6h75","5d8e64ab4e055600157a3d90","freq","","","img/orange_2bandit_a2.png","70","","70","test","1","","47","","","","square","circle","45","2","3","1","","","","","","","",""
"null","220438","SARL_v6","SARL_v6hutg6h75","5d8e64ab4e055600157a3d90","freq_resp","","","img/orange_2bandit_a.png","70","img/orange_2bandit_a.png","70","test","","","","","","","","","","","3","","","","","","","","",""
"null","220593","SARL_v6","SARL_v6hutg6h75","5d8e64ab4e055600157a3d90","fixation","","","img/fixation.png","null","","","test","","","","","","","","","","","","","","","","","","","",""
"283.80000001192093","220879","SARL_v6","SARL_v6hutg6h75","5d8e64ab4e055600157a3d90","freq","","","img/orange_2bandit_a2.png","70","","70","test","1","","48","","","","square","circle","46","3","3","1","","","","","","","",""
"null","221405","SARL_v6","SARL_v6hutg6h75","5d8e64ab4e055600157a3d90","freq_resp","","","img/orange_2bandit_a.png","70","img/orange_2bandit_a.png","70","test","","","","","","","","","","","3","","","","","","","","",""
"null","221561","SARL_v6","SARL_v6hutg6h75","5d8e64ab4e055600157a3d90","fixation","","","img/fixation.png","null","","","test","","","","","","","","","","","","","","","","","","","",""
"476.09999999403954","222039","SARL_v6","SARL_v6hutg6h75","5d8e64ab4e055600157a3d90","infreq","","","img/blue_2bandit_a2.png","68","","68","test","1","","49","","","","square","circle","47","4","3","1","","","","","","","",""
"null","222369","SARL_v6","SARL_v6hutg6h75","5d8e64ab4e055600157a3d90","infreq_resp","","","img/blue_2bandit_a.png","68","img/blue_2bandit_a.png","68","test","","","","","","","","","","","3","","","","","","","","",""
"null","222528","SARL_v6","SARL_v6hutg6h75","5d8e64ab4e055600157a3d90","fixation","","","img/fixation.png","null","","","test","","","","","","","","","","","","","","","","","","","",""
"485.39999997615814","223015","SARL_v6","SARL_v6hutg6h75","5d8e64ab4e055600157a3d90","freq","","","img/orange_2bandit_a2.png","70","","70","test","1","","50","","","","square","circle","48","5","3","1","","","","","","","",""
"null","223336","SARL_v6","SARL_v6hutg6h75","5d8e64ab4e055600157a3d90","freq_resp","","","img/orange_2bandit_a.png","70","img/orange_2bandit_a.png","70","test","","","","","","","","","","","3","","","","","","","","",""
"null","223496","SARL_v6","SARL_v6hutg6h75","5d8e64ab4e055600157a3d90","fixation","","","img/fixation.png","null","","","test","","","","","","","","","","","","","","","","","","","",""
"324.90000000596046","223823","SARL_v6","SARL_v6hutg6h75","5d8e64ab4e055600157a3d90","freq","","","img/orange_2bandit_a2.png","70","","70","test","1","","51","","","","square","circle","49","6","3","1","","","","","","","",""
"null","224309","SARL_v6","SARL_v6hutg6h75","5d8e64ab4e055600157a3d90","freq_resp","","","img/orange_2bandit_a.png","70","img/orange_2bandit_a.png","70","test","","","","","","","","","","","3","","","","","","","","",""
"null","224465","SARL_v6","SARL_v6hutg6h75","5d8e64ab4e055600157a3d90","fixation","","","img/fixation.png","null","","","test","","","","","","","","","","","","","","","","","","","",""
"372","224839","SARL_v6","SARL_v6hutg6h75","5d8e64ab4e055600157a3d90","freq","","","img/orange_2bandit_a2.png","70","","70","test","1","","52","","","","square","circle","50","7","3","1","","","","","","","",""
"null","225280","SARL_v6","SARL_v6hutg6h75","5d8e64ab4e055600157a3d90","freq_resp","","","img/orange_2bandit_a.png","70","img/orange_2bandit_a.png","70","test","","","","","","","","","","","3","","","","","","","","",""
"null","225447","SARL_v6","SARL_v6hutg6h75","5d8e64ab4e055600157a3d90","fixation","","","img/fixation.png","null","","","test","","","","","","","","","","","","","","","","","","","",""
"327","225775","SARL_v6","SARL_v6hutg6h75","5d8e64ab4e055600157a3d90","freq","","","img/orange_2bandit_a2.png","70","","70","test","1","","53","","","","square","circle","51","8","3","1","","","","","","","",""
"null","226260","SARL_v6","SARL_v6hutg6h75","5d8e64ab4e055600157a3d90","freq_resp","","","img/orange_2bandit_a.png","70","img/orange_2bandit_a.png","70","test","","","","","","","","","","","3","","","","","","","","",""
"null","226415","SARL_v6","SARL_v6hutg6h75","5d8e64ab4e055600157a3d90","fixation","","","img/fixation.png","null","","","test","","","","","","","","","","","","","","","","","","","",""
"310.19999998807907","226728","SARL_v6","SARL_v6hutg6h75","5d8e64ab4e055600157a3d90","freq","","","img/orange_2bandit_a2.png","70","","70","test","1","","54","","","","square","circle","52","9","3","1","","","","","","","",""
"null","227228","SARL_v6","SARL_v6hutg6h75","5d8e64ab4e055600157a3d90","freq_resp","","","img/orange_2bandit_a.png","70","img/orange_2bandit_a.png","70","test","","","","","","","","","","","3","","","","","","","","",""
"null","227382","SARL_v6","SARL_v6hutg6h75","5d8e64ab4e055600157a3d90","fixation","","","img/fixation.png","null","","","test","","","","","","","","","","","","","","","","","","","",""
"311.39999997615814","227695","SARL_v6","SARL_v6hutg6h75","5d8e64ab4e055600157a3d90","freq","","","img/orange_2bandit_a2.png","70","","70","test","1","","55","","","","square","circle","53","10","3","1","","","","","","","",""
"null","228195","SARL_v6","SARL_v6hutg6h75","5d8e64ab4e055600157a3d90","freq_resp","","","img/orange_2bandit_a.png","70","img/orange_2bandit_a.png","70","test","","","","","","","","","","","3","","","","","","","","",""
"null","228355","SARL_v6","SARL_v6hutg6h75","5d8e64ab4e055600157a3d90","fixation","","","img/fixation.png","null","","","test","","","","","","","","","","","","","","","","","","","",""
"299.10000002384186","228656","SARL_v6","SARL_v6hutg6h75","5d8e64ab4e055600157a3d90","freq","","","img/orange_2bandit_a2.png","70","","70","test","1","","56","","","","square","circle","54","11","3","1","","","","","","","",""
"null","229165","SARL_v6","SARL_v6hutg6h75","5d8e64ab4e055600157a3d90","freq_resp","","","img/orange_2bandit_a.png","70","img/orange_2bandit_a.png","70","test","","","","","","","","","","","3","","","","","","","","",""
"null","229318","SARL_v6","SARL_v6hutg6h75","5d8e64ab4e055600157a3d90","fixation","","","img/fixation.png","null","","","test","","","","","","","","","","","","","","","","","","","",""
"264.30000001192093","229584","SARL_v6","SARL_v6hutg6h75","5d8e64ab4e055600157a3d90","freq","","","img/orange_2bandit_a2.png","70","","70","test","1","","57","","","","square","circle","55","12","3","1","","","","","","","",""
"null","230128","SARL_v6","SARL_v6hutg6h75","5d8e64ab4e055600157a3d90","freq_resp","","","img/orange_2bandit_a.png","70","img/orange_2bandit_a.png","70","test","","","","","","","","","","","3","","","","","","","","",""
"null","230287","SARL_v6","SARL_v6hutg6h75","5d8e64ab4e055600157a3d90","fixation","","","img/fixation.png","null","","","test","","","","","","","","","","","","","","","","","","","",""
"287.2000000178814","230576","SARL_v6","SARL_v6hutg6h75","5d8e64ab4e055600157a3d90","freq","","","img/orange_2bandit_a2.png","70","","70","test","1","","58","","","","square","circle","56","13","3","1","","","","","","","",""
"null","231098","SARL_v6","SARL_v6hutg6h75","5d8e64ab4e055600157a3d90","freq_resp","","","img/orange_2bandit_a.png","70","img/orange_2bandit_a.png","70","test","","","","","","","","","","","3","","","","","","","","",""
"null","231253","SARL_v6","SARL_v6hutg6h75","5d8e64ab4e055600157a3d90","fixation","","","img/fixation.png","null","","","test","","","","","","","","","","","","","","","","","","","",""
"272.90000000596046","231527","SARL_v6","SARL_v6hutg6h75","5d8e64ab4e055600157a3d90","freq","","","img/orange_2bandit_a2.png","70","","70","test","1","","59","","","","square","circle","57","14","3","1","","","","","","","",""
"null","232063","SARL_v6","SARL_v6hutg6h75","5d8e64ab4e055600157a3d90","freq_resp","","","img/orange_2bandit_a.png","70","img/orange_2bandit_a.png","70","test","","","","","","","","","","","3","","","","","","","","",""
"null","232221","SARL_v6","SARL_v6hutg6h75","5d8e64ab4e055600157a3d90","fixation","","","img/fixation.png","null","","","test","","","","","","","","","","","","","","","","","","","",""
"305.7999999821186","232528","SARL_v6","SARL_v6hutg6h75","5d8e64ab4e055600157a3d90","freq","","","img/orange_2bandit_a2.png","70","","70","test","1","","60","","","","square","circle","58","15","3","1","","","","","","","",""
"null","233034","SARL_v6","SARL_v6hutg6h75","5d8e64ab4e055600157a3d90","freq_resp","","","img/orange_2bandit_a.png","70","img/orange_2bandit_a.png","70","test","","","","","","","","","","","3","","","","","","","","",""
"null","233188","SARL_v6","SARL_v6hutg6h75","5d8e64ab4e055600157a3d90","fixation","","","img/fixation.png","null","","","test","","","","","","","","","","","","","","","","","","","",""
"290.10000002384186","233480","SARL_v6","SARL_v6hutg6h75","5d8e64ab4e055600157a3d90","freq","","","img/orange_2bandit_a2.png","70","","70","test","1","","61","","","","square","circle","59","16","3","1","","","","","","","",""
"null","234001","SARL_v6","SARL_v6hutg6h75","5d8e64ab4e055600157a3d90","freq_resp","","","img/orange_2bandit_a.png","70","img/orange_2bandit_a.png","70","test","","","","","","","","","","","3","","","","","","","","",""
"null","234157","SARL_v6","SARL_v6hutg6h75","5d8e64ab4e055600157a3d90","fixation","","","img/fixation.png","null","","","test","","","","","","","","","","","","","","","","","","","",""
"249.30000001192093","234408","SARL_v6","SARL_v6hutg6h75","5d8e64ab4e055600157a3d90","freq","","","img/orange_2bandit_a2.png","70","","70","test","1","","62","","","","square","circle","60","17","3","1","","","","","","","",""
"null","234965","SARL_v6","SARL_v6hutg6h75","5d8e64ab4e055600157a3d90","freq_resp","","","img/orange_2bandit_a.png","70","img/orange_2bandit_a.png","70","test","","","","","","","","","","","3","","","","","","","","",""
"null","235125","SARL_v6","SARL_v6hutg6h75","5d8e64ab4e055600157a3d90","fixation","","","img/fixation.png","null","","","test","","","","","","","","","","","","","","","","","","","",""
"306","235433","SARL_v6","SARL_v6hutg6h75","5d8e64ab4e055600157a3d90","freq","","","img/orange_2bandit_a2.png","70","","70","test","1","","63","","","","square","circle","61","18","3","1","","","","","","","",""
"null","235937","SARL_v6","SARL_v6hutg6h75","5d8e64ab4e055600157a3d90","freq_resp","","","img/orange_2bandit_a.png","70","img/orange_2bandit_a.png","70","test","","","","","","","","","","","3","","","","","","","","",""
"null","236090","SARL_v6","SARL_v6hutg6h75","5d8e64ab4e055600157a3d90","fixation","","","img/fixation.png","null","","","test","","","","","","","","","","","","","","","","","","","",""
"284.30000001192093","236376","SARL_v6","SARL_v6hutg6h75","5d8e64ab4e055600157a3d90","freq","","","img/orange_2bandit_a2.png","70","","70","test","1","","64","","","","square","circle","62","19","3","1","","","","","","","",""
"null","236903","SARL_v6","SARL_v6hutg6h75","5d8e64ab4e055600157a3d90","freq_resp","","","img/orange_2bandit_a.png","70","img/orange_2bandit_a.png","70","test","","","","","","","","","","","3","","","","","","","","",""
"null","237059","SARL_v6","SARL_v6hutg6h75","5d8e64ab4e055600157a3d90","fixation","","","img/fixation.png","null","","","test","","","","","","","","","","","","","","","","","","","",""
"267.69999998807907","237329","SARL_v6","SARL_v6hutg6h75","5d8e64ab4e055600157a3d90","freq","","","img/orange_2bandit_a2.png","70","","70","test","1","","65","","","","square","circle","63","20","3","1","","","","","","","",""
"null","237871","SARL_v6","SARL_v6hutg6h75","5d8e64ab4e055600157a3d90","freq_resp","","","img/orange_2bandit_a.png","70","img/orange_2bandit_a.png","70","test","","","","","","","","","","","3","","","","","","","","",""
"null","238025","SARL_v6","SARL_v6hutg6h75","5d8e64ab4e055600157a3d90","fixation","","","img/fixation.png","null","","","test","","","","","","","","","","","","","","","","","","","",""
"269.5","238296","SARL_v6","SARL_v6hutg6h75","5d8e64ab4e055600157a3d90","freq","","","img/orange_2bandit_a2.png","70","","70","test","1","","66","","","","square","circle","64","21","3","1","","","","","","","",""
"null","238839","SARL_v6","SARL_v6hutg6h75","5d8e64ab4e055600157a3d90","freq_resp","","","img/orange_2bandit_a.png","70","img/orange_2bandit_a.png","70","test","","","","","","","","","","","3","","","","","","","","",""
"null","238994","SARL_v6","SARL_v6hutg6h75","5d8e64ab4e055600157a3d90","fixation","","","img/fixation.png","null","","","test","","","","","","","","","","","","","","","","","","","",""
"301.5","239297","SARL_v6","SARL_v6hutg6h75","5d8e64ab4e055600157a3d90","freq","","","img/orange_2bandit_a2.png","70","","70","test","1","","67","","","","square","circle","65","22","3","1","","","","","","","",""
"null","239805","SARL_v6","SARL_v6hutg6h75","5d8e64ab4e055600157a3d90","freq_resp","","","img/orange_2bandit_a.png","70","img/orange_2bandit_a.png","70","test","","","","","","","","","","","3","","","","","","","","",""
"null","239961","SARL_v6","SARL_v6hutg6h75","5d8e64ab4e055600157a3d90","fixation","","","img/fixation.png","null","","","test","","","","","","","","","","","","","","","","","","","",""
"270.2000000178814","240233","SARL_v6","SARL_v6hutg6h75","5d8e64ab4e055600157a3d90","freq","","","img/orange_2bandit_a2.png","70","","70","test","1","","68","","","","square","circle","66","23","3","1","","","","","","","",""
"null","240773","SARL_v6","SARL_v6hutg6h75","5d8e64ab4e055600157a3d90","freq_resp","","","img/orange_2bandit_a.png","70","img/orange_2bandit_a.png","70","test","","","","","","","","","","","3","","","","","","","","",""
"null","240929","SARL_v6","SARL_v6hutg6h75","5d8e64ab4e055600157a3d90","fixation","","","img/fixation.png","null","","","test","","","","","","","","","","","","","","","","","","","",""
"542.4000000059605","241473","SARL_v6","SARL_v6hutg6h75","5d8e64ab4e055600157a3d90","infreq","","","img/blue_2bandit_a2.png","68","","68","test","1","","69","","","","square","circle","67","24","3","1","","","","","","","",""
"null","241739","SARL_v6","SARL_v6hutg6h75","5d8e64ab4e055600157a3d90","infreq_resp","","","img/blue_2bandit_a.png","68","img/blue_2bandit_a.png","68","test","","","","","","","","","","","3","","","","","","","","",""
"null","241898","SARL_v6","SARL_v6hutg6h75","5d8e64ab4e055600157a3d90","fixation","","","img/fixation.png","null","","","test","","","","","","","","","","","","","","","","","","","",""
"444.7999999821186","242345","SARL_v6","SARL_v6hutg6h75","5d8e64ab4e055600157a3d90","freq","","","img/orange_2bandit_a2.png","70","","70","test","1","","70","","","","square","circle","68","25","3","1","","","","","","","",""
"null","242704","SARL_v6","SARL_v6hutg6h75","5d8e64ab4e055600157a3d90","freq_resp","","","img/orange_2bandit_a.png","70","img/orange_2bandit_a.png","70","test","","","","","","","","","","","3","","","","","","","","",""
"null","242864","SARL_v6","SARL_v6hutg6h75","5d8e64ab4e055600157a3d90","fixation","","","img/fixation.png","null","","","test","","","","","","","","","","","","","","","","","","","",""
"431.40000000596046","243300","SARL_v6","SARL_v6hutg6h75","5d8e64ab4e055600157a3d90","freq","","","img/orange_2bandit_a2.png","70","","70","test","1","","71","","","","square","circle","69","26","3","1","","","","","","","",""
"null","243672","SARL_v6","SARL_v6hutg6h75","5d8e64ab4e055600157a3d90","freq_resp","","","img/orange_2bandit_a.png","70","img/orange_2bandit_a.png","70","test","","","","","","","","","","","3","","","","","","","","",""
"null","243834","SARL_v6","SARL_v6hutg6h75","5d8e64ab4e055600157a3d90","fixation","","","img/fixation.png","null","","","test","","","","","","","","","","","","","","","","","","","",""
"711.1000000238419","244547","SARL_v6","SARL_v6hutg6h75","5d8e64ab4e055600157a3d90","rl","","","img/black_2bandit_a2.png","75","","0","test","","","72","","","-8","square","circle","","0","3","","75","-8","-4","-4","-8","circle","3","0"
"null","245300","SARL_v6","SARL_v6hutg6h75","5d8e64ab4e055600157a3d90","feedback","","","<div class=""verylowPoints""> -8 </div>","null","","na","test","","","NaN","","","","","","","","3","","75","","","","","","3",""
"502","245803","SARL_v6","SARL_v6hutg6h75","5d8e64ab4e055600157a3d90","freq","","","img/orange_2bandit_a2.png","70","","70","test","1","","73","","","","square","circle","70","1","4","1","","","","","","","",""
"null","246111","SARL_v6","SARL_v6hutg6h75","5d8e64ab4e055600157a3d90","freq_resp","","","img/orange_2bandit_a.png","70","img/orange_2bandit_a.png","70","test","","","","","","","","","","","4","","","","","","","","",""
"null","246270","SARL_v6","SARL_v6hutg6h75","5d8e64ab4e055600157a3d90","fixation","","","img/fixation.png","null","","","test","","","","","","","","","","","","","","","","","","","",""
"411.69999998807907","246684","SARL_v6","SARL_v6hutg6h75","5d8e64ab4e055600157a3d90","infreq","","","img/blue_2bandit_a2.png","70","","68","test","0","","74","","","","square","circle","71","2","4","0.9859154929577465","","","","","","","",""
"null","247073","SARL_v6","SARL_v6hutg6h75","5d8e64ab4e055600157a3d90","infreq_resp","","","img/blue_2bandit_a.png","70","img/blue_2bandit_a.png","68","test","","","","","","","","","","","4","","","","","","","","",""
"null","247236","SARL_v6","SARL_v6hutg6h75","5d8e64ab4e055600157a3d90","fixation","","","img/fixation.png","null","","","test","","","","","","","","","","","","","","","","","","","",""
"470.09999999403954","247708","SARL_v6","SARL_v6hutg6h75","5d8e64ab4e055600157a3d90","freq","","","img/orange_2bandit_a2.png","70","","70","test","1","","75","","","","square","circle","72","3","4","0.9861111111111112","","","","","","","",""
"null","248048","SARL_v6","SARL_v6hutg6h75","5d8e64ab4e055600157a3d90","freq_resp","","","img/orange_2bandit_a.png","70","img/orange_2bandit_a.png","70","test","","","","","","","","","","","4","","","","","","","","",""
"null","248206","SARL_v6","SARL_v6hutg6h75","5d8e64ab4e055600157a3d90","fixation","","","img/fixation.png","null","","","test","","","","","","","","","","","","","","","","","","","",""
"485.09999999403954","248692","SARL_v6","SARL_v6hutg6h75","5d8e64ab4e055600157a3d90","freq","","","img/orange_2bandit_a2.png","70","","70","test","1","","76","","","","square","circle","73","4","4","0.9863013698630136","","","","","","","",""
"null","249014","SARL_v6","SARL_v6hutg6h75","5d8e64ab4e055600157a3d90","freq_resp","","","img/orange_2bandit_a.png","70","img/orange_2bandit_a.png","70","test","","","","","","","","","","","4","","","","","","","","",""
"null","249173","SARL_v6","SARL_v6hutg6h75","5d8e64ab4e055600157a3d90","fixation","","","img/fixation.png","null","","","test","","","","","","","","","","","","","","","","","","","",""
"285.80000001192093","249460","SARL_v6","SARL_v6hutg6h75","5d8e64ab4e055600157a3d90","freq","","","img/orange_2bandit_a2.png","70","","70","test","1","","77","","","","square","circle","74","5","4","0.9864864864864865","","","","","","","",""
"null","249985","SARL_v6","SARL_v6hutg6h75","5d8e64ab4e055600157a3d90","freq_resp","","","img/orange_2bandit_a.png","70","img/orange_2bandit_a.png","70","test","","","","","","","","","","","4","","","","","","","","",""
"null","250140","SARL_v6","SARL_v6hutg6h75","5d8e64ab4e055600157a3d90","fixation","","","img/fixation.png","null","","","test","","","","","","","","","","","","","","","","","","","",""
"327.2000000178814","250469","SARL_v6","SARL_v6hutg6h75","5d8e64ab4e055600157a3d90","freq","","","img/orange_2bandit_a2.png","70","","70","test","1","","78","","","","square","circle","75","6","4","0.9866666666666667","","","","","","","",""
"null","250953","SARL_v6","SARL_v6hutg6h75","5d8e64ab4e055600157a3d90","freq_resp","","","img/orange_2bandit_a.png","70","img/orange_2bandit_a.png","70","test","","","","","","","","","","","4","","","","","","","","",""
"null","251108","SARL_v6","SARL_v6hutg6h75","5d8e64ab4e055600157a3d90","fixation","","","img/fixation.png","null","","","test","","","","","","","","","","","","","","","","","","","",""
"262.2999999821186","251372","SARL_v6","SARL_v6hutg6h75","5d8e64ab4e055600157a3d90","freq","","","img/orange_2bandit_a2.png","70","","70","test","1","","79","","","","square","circle","76","7","4","0.9868421052631579","","","","","","","",""
"null","251917","SARL_v6","SARL_v6hutg6h75","5d8e64ab4e055600157a3d90","freq_resp","","","img/orange_2bandit_a.png","70","img/orange_2bandit_a.png","70","test","","","","","","","","","","","4","","","","","","","","",""
"null","252076","SARL_v6","SARL_v6hutg6h75","5d8e64ab4e055600157a3d90","fixation","","","img/fixation.png","null","","","test","","","","","","","","","","","","","","","","","","","",""
"295.30000001192093","252373","SARL_v6","SARL_v6hutg6h75","5d8e64ab4e055600157a3d90","freq","","","img/orange_2bandit_a2.png","70","","70","test","1","","80","","","","square","circle","77","8","4","0.987012987012987","","","","","","","",""
"null","252887","SARL_v6","SARL_v6hutg6h75","5d8e64ab4e055600157a3d90","freq_resp","","","img/orange_2bandit_a.png","70","img/orange_2bandit_a.png","70","test","","","","","","","","","","","4","","","","","","","","",""
"null","253042","SARL_v6","SARL_v6hutg6h75","5d8e64ab4e055600157a3d90","fixation","","","img/fixation.png","null","","","test","","","","","","","","","","","","","","","","","","","",""
"304.7999999821186","253348","SARL_v6","SARL_v6hutg6h75","5d8e64ab4e055600157a3d90","freq","","","img/orange_2bandit_a2.png","70","","70","test","1","","81","","","","square","circle","78","9","4","0.9871794871794872","","","","","","","",""
"null","253857","SARL_v6","SARL_v6hutg6h75","5d8e64ab4e055600157a3d90","freq_resp","","","img/orange_2bandit_a.png","70","img/orange_2bandit_a.png","70","test","","","","","","","","","","","4","","","","","","","","",""
"null","254011","SARL_v6","SARL_v6hutg6h75","5d8e64ab4e055600157a3d90","fixation","","","img/fixation.png","null","","","test","","","","","","","","","","","","","","","","","","","",""
"336","254349","SARL_v6","SARL_v6hutg6h75","5d8e64ab4e055600157a3d90","freq","","","img/orange_2bandit_a2.png","70","","70","test","1","","82","","","","square","circle","79","10","4","0.9873417721518988","","","","","","","",""
"null","254826","SARL_v6","SARL_v6hutg6h75","5d8e64ab4e055600157a3d90","freq_resp","","","img/orange_2bandit_a.png","70","img/orange_2bandit_a.png","70","test","","","","","","","","","","","4","","","","","","","","",""
"null","254979","SARL_v6","SARL_v6hutg6h75","5d8e64ab4e055600157a3d90","fixation","","","img/fixation.png","null","","","test","","","","","","","","","","","","","","","","","","","",""
"303.80000001192093","255285","SARL_v6","SARL_v6hutg6h75","5d8e64ab4e055600157a3d90","freq","","","img/orange_2bandit_a2.png","70","","70","test","1","","83","","","","square","circle","80","11","4","0.9875","","","","","","","",""
"null","255791","SARL_v6","SARL_v6hutg6h75","5d8e64ab4e055600157a3d90","freq_resp","","","img/orange_2bandit_a.png","70","img/orange_2bandit_a.png","70","test","","","","","","","","","","","4","","","","","","","","",""
"null","255946","SARL_v6","SARL_v6hutg6h75","5d8e64ab4e055600157a3d90","fixation","","","img/fixation.png","null","","","test","","","","","","","","","","","","","","","","","","","",""
"313.59999999403954","256261","SARL_v6","SARL_v6hutg6h75","5d8e64ab4e055600157a3d90","freq","","","img/orange_2bandit_a2.png","70","","70","test","1","","84","","","","square","circle","81","12","4","0.9876543209876543","","","","","","","",""
"null","256760","SARL_v6","SARL_v6hutg6h75","5d8e64ab4e055600157a3d90","freq_resp","","","img/orange_2bandit_a.png","70","img/orange_2bandit_a.png","70","test","","","","","","","","","","","4","","","","","","","","",""
"null","256914","SARL_v6","SARL_v6hutg6h75","5d8e64ab4e055600157a3d90","fixation","","","img/fixation.png","null","","","test","","","","","","","","","","","","","","","","","","","",""
"273.69999998807907","257189","SARL_v6","SARL_v6hutg6h75","5d8e64ab4e055600157a3d90","freq","","","img/orange_2bandit_a2.png","70","","70","test","1","","85","","","","square","circle","82","13","4","0.9878048780487805","","","","","","","",""
"null","257725","SARL_v6","SARL_v6hutg6h75","5d8e64ab4e055600157a3d90","freq_resp","","","img/orange_2bandit_a.png","70","img/orange_2bandit_a.png","70","test","","","","","","","","","","","4","","","","","","","","",""
"null","257881","SARL_v6","SARL_v6hutg6h75","5d8e64ab4e055600157a3d90","fixation","","","img/fixation.png","null","","","test","","","","","","","","","","","","","","","","","","","",""
"386.40000000596046","258269","SARL_v6","SARL_v6hutg6h75","5d8e64ab4e055600157a3d90","infreq","","","img/blue_2bandit_a2.png","68","","68","test","1","","86","","","","square","circle","83","14","4","0.9879518072289156","","","","","","","",""
"null","258685","SARL_v6","SARL_v6hutg6h75","5d8e64ab4e055600157a3d90","infreq_resp","","","img/blue_2bandit_a.png","68","img/blue_2bandit_a.png","68","test","","","","","","","","","","","4","","","","","","","","",""
"null","258849","SARL_v6","SARL_v6hutg6h75","5d8e64ab4e055600157a3d90","fixation","","","img/fixation.png","null","","","test","","","","","","","","","","","","","","","","","","","",""
"338.90000000596046","259189","SARL_v6","SARL_v6hutg6h75","5d8e64ab4e055600157a3d90","freq","","","img/orange_2bandit_a2.png","70","","70","test","1","","87","","","","square","circle","84","15","4","0.9880952380952381","","","","","","","",""
"null","259664","SARL_v6","SARL_v6hutg6h75","5d8e64ab4e055600157a3d90","freq_resp","","","img/orange_2bandit_a.png","70","img/orange_2bandit_a.png","70","test","","","","","","","","","","","4","","","","","","","","",""
"null","259816","SARL_v6","SARL_v6hutg6h75","5d8e64ab4e055600157a3d90","fixation","","","img/fixation.png","null","","","test","","","","","","","","","","","","","","","","","","","",""
"354.89999997615814","260173","SARL_v6","SARL_v6hutg6h75","5d8e64ab4e055600157a3d90","freq","","","img/orange_2bandit_a2.png","70","","70","test","1","","88","","","","square","circle","85","16","4","0.9882352941176471","","","","","","","",""
"null","260632","SARL_v6","SARL_v6hutg6h75","5d8e64ab4e055600157a3d90","freq_resp","","","img/orange_2bandit_a.png","70","img/orange_2bandit_a.png","70","test","","","","","","","","","","","4","","","","","","","","",""
"null","260801","SARL_v6","SARL_v6hutg6h75","5d8e64ab4e055600157a3d90","fixation","","","img/fixation.png","null","","","test","","","","","","","","","","","","","","","","","","","",""
"491.60000002384186","261294","SARL_v6","SARL_v6hutg6h75","5d8e64ab4e055600157a3d90","freq","","","img/orange_2bandit_a2.png","70","","70","test","1","","89","","","","square","circle","86","17","4","0.9883720930232558","","","","","","","",""
"null","261609","SARL_v6","SARL_v6hutg6h75","5d8e64ab4e055600157a3d90","freq_resp","","","img/orange_2bandit_a.png","70","img/orange_2bandit_a.png","70","test","","","","","","","","","","","4","","","","","","","","",""
"null","261770","SARL_v6","SARL_v6hutg6h75","5d8e64ab4e055600157a3d90","fixation","","","img/fixation.png","null","","","test","","","","","","","","","","","","","","","","","","","",""
"361.5","262133","SARL_v6","SARL_v6hutg6h75","5d8e64ab4e055600157a3d90","freq","","","img/orange_2bandit_a2.png","70","","70","test","1","","90","","","","square","circle","87","18","4","0.9885057471264368","","","","","","","",""
"null","262578","SARL_v6","SARL_v6hutg6h75","5d8e64ab4e055600157a3d90","freq_resp","","","img/orange_2bandit_a.png","70","img/orange_2bandit_a.png","70","test","","","","","","","","","","","4","","","","","","","","",""
"null","262736","SARL_v6","SARL_v6hutg6h75","5d8e64ab4e055600157a3d90","fixation","","","img/fixation.png","null","","","test","","","","","","","","","","","","","","","","","","","",""
"284.5","263022","SARL_v6","SARL_v6hutg6h75","5d8e64ab4e055600157a3d90","freq","","","img/orange_2bandit_a2.png","70","","70","test","1","","91","","","","square","circle","88","19","4","0.9886363636363636","","","","","","","",""
"null","263549","SARL_v6","SARL_v6hutg6h75","5d8e64ab4e055600157a3d90","freq_resp","","","img/orange_2bandit_a.png","70","img/orange_2bandit_a.png","70","test","","","","","","","","","","","4","","","","","","","","",""
"null","263704","SARL_v6","SARL_v6hutg6h75","5d8e64ab4e055600157a3d90","fixation","","","img/fixation.png","null","","","test","","","","","","","","","","","","","","","","","","","",""
"291.5","263998","SARL_v6","SARL_v6hutg6h75","5d8e64ab4e055600157a3d90","freq","","","img/orange_2bandit_a2.png","70","","70","test","1","","92","","","","square","circle","89","20","4","0.9887640449438202","","","","","","","",""
"null","264515","SARL_v6","SARL_v6hutg6h75","5d8e64ab4e055600157a3d90","freq_resp","","","img/orange_2bandit_a.png","70","img/orange_2bandit_a.png","70","test","","","","","","","","","","","4","","","","","","","","",""
"null","264671","SARL_v6","SARL_v6hutg6h75","5d8e64ab4e055600157a3d90","fixation","","","img/fixation.png","null","","","test","","","","","","","","","","","","","","","","","","","",""
"509.40000000596046","265182","SARL_v6","SARL_v6hutg6h75","5d8e64ab4e055600157a3d90","rl","","","img/black_2bandit_a2.png","75","","0","test","","","93","","","-12","square","circle","","0","4","","75","-12","0","0","-12","circle","4","0"
"null","265949","SARL_v6","SARL_v6hutg6h75","5d8e64ab4e055600157a3d90","feedback","","","<div class=""verylowPoints""> -12 </div>","null","","na","test","","","NaN","","","","","","","","4","","75","","","","","","4",""
"438.5","266390","SARL_v6","SARL_v6hutg6h75","5d8e64ab4e055600157a3d90","freq","","","img/orange_2bandit_a2.png","70","","70","test","1","","94","","","","square","circle","90","1","5","0.9888888888888889","","","","","","","",""
"null","266760","SARL_v6","SARL_v6hutg6h75","5d8e64ab4e055600157a3d90","freq_resp","","","img/orange_2bandit_a.png","70","img/orange_2bandit_a.png","70","test","","","","","","","","","","","5","","","","","","","","",""
"null","266923","SARL_v6","SARL_v6hutg6h75","5d8e64ab4e055600157a3d90","fixation","","","img/fixation.png","null","","","test","","","","","","","","","","","","","","","","","","","",""
"369.40000000596046","267294","SARL_v6","SARL_v6hutg6h75","5d8e64ab4e055600157a3d90","freq","","","img/orange_2bandit_a2.png","70","","70","test","1","","95","","","","square","circle","91","2","5","0.989010989010989","","","","","","","",""
"null","267740","SARL_v6","SARL_v6hutg6h75","5d8e64ab4e055600157a3d90","freq_resp","","","img/orange_2bandit_a.png","70","img/orange_2bandit_a.png","70","test","","","","","","","","","","","5","","","","","","","","",""
"null","267906","SARL_v6","SARL_v6hutg6h75","5d8e64ab4e055600157a3d90","fixation","","","img/fixation.png","null","","","test","","","","","","","","","","","","","","","","","","","",""
"298.09999999403954","268206","SARL_v6","SARL_v6hutg6h75","5d8e64ab4e055600157a3d90","freq","","","img/orange_2bandit_a2.png","70","","70","test","1","","96","","","","square","circle","92","3","5","0.9891304347826086","","","","","","","",""
"null","268718","SARL_v6","SARL_v6hutg6h75","5d8e64ab4e055600157a3d90","freq_resp","","","img/orange_2bandit_a.png","70","img/orange_2bandit_a.png","70","test","","","","","","","","","","","5","","","","","","","","",""
"null","268874","SARL_v6","SARL_v6hutg6h75","5d8e64ab4e055600157a3d90","fixation","","","img/fixation.png","null","","","test","","","","","","","","","","","","","","","","","","","",""
"266.40000000596046","269142","SARL_v6","SARL_v6hutg6h75","5d8e64ab4e055600157a3d90","freq","","","img/orange_2bandit_a2.png","70","","70","test","1","","97","","","","square","circle","93","4","5","0.989247311827957","","","","","","","",""
"null","269685","SARL_v6","SARL_v6hutg6h75","5d8e64ab4e055600157a3d90","freq_resp","","","img/orange_2bandit_a.png","70","img/orange_2bandit_a.png","70","test","","","","","","","","","","","5","","","","","","","","",""
"null","269842","SARL_v6","SARL_v6hutg6h75","5d8e64ab4e055600157a3d90","fixation","","","img/fixation.png","null","","","test","","","","","","","","","","","","","","","","","","","",""
"250.40000000596046","270094","SARL_v6","SARL_v6hutg6h75","5d8e64ab4e055600157a3d90","freq","","","img/orange_2bandit_a2.png","70","","70","test","1","","98","","","","square","circle","94","5","5","0.9893617021276596","","","","","","","",""
"null","270651","SARL_v6","SARL_v6hutg6h75","5d8e64ab4e055600157a3d90","freq_resp","","","img/orange_2bandit_a.png","70","img/orange_2bandit_a.png","70","test","","","","","","","","","","","5","","","","","","","","",""
"null","270809","SARL_v6","SARL_v6hutg6h75","5d8e64ab4e055600157a3d90","fixation","","","img/fixation.png","null","","","test","","","","","","","","","","","","","","","","","","","",""
"588.5","271399","SARL_v6","SARL_v6hutg6h75","5d8e64ab4e055600157a3d90","infreq","","","img/blue_2bandit_a2.png","68","","68","test","1","","99","","","","square","circle","95","6","5","0.9894736842105263","","","","","","","",""
"null","271625","SARL_v6","SARL_v6hutg6h75","5d8e64ab4e055600157a3d90","infreq_resp","","","img/blue_2bandit_a.png","68","img/blue_2bandit_a.png","68","test","","","","","","","","","","","5","","","","","","","","",""
"null","271778","SARL_v6","SARL_v6hutg6h75","5d8e64ab4e055600157a3d90","fixation","","","img/fixation.png","null","","","test","","","","","","","","","","","","","","","","","","","",""
"602.7000000178814","272382","SARL_v6","SARL_v6hutg6h75","5d8e64ab4e055600157a3d90","freq","","","img/orange_2bandit_a2.png","70","","70","test","1","","100","","","","square","circle","96","7","5","0.9895833333333334","","","","","","","",""
"null","272594","SARL_v6","SARL_v6hutg6h75","5d8e64ab4e055600157a3d90","freq_resp","","","img/orange_2bandit_a.png","70","img/orange_2bandit_a.png","70","test","","","","","","","","","","","5","","","","","","","","",""
"null","272762","SARL_v6","SARL_v6hutg6h75","5d8e64ab4e055600157a3d90","fixation","","","img/fixation.png","null","","","test","","","","","","","","","","","","","","","","","","","",""
"386.30000001192093","273151","SARL_v6","SARL_v6hutg6h75","5d8e64ab4e055600157a3d90","freq","","","img/orange_2bandit_a2.png","70","","70","test","1","","101","","","","square","circle","97","8","5","0.9896907216494846","","","","","","","",""
"null","273581","SARL_v6","SARL_v6hutg6h75","5d8e64ab4e055600157a3d90","freq_resp","","","img/orange_2bandit_a.png","70","img/orange_2bandit_a.png","70","test","","","","","","","","","","","5","","","","","","","","",""
"null","273747","SARL_v6","SARL_v6hutg6h75","5d8e64ab4e055600157a3d90","fixation","","","img/fixation.png","null","","","test","","","","","","","","","","","","","","","","","","","",""
"330.09999999403954","274079","SARL_v6","SARL_v6hutg6h75","5d8e64ab4e055600157a3d90","freq","","","img/orange_2bandit_a2.png","70","","70","test","1","","102","","","","square","circle","98","9","5","0.9897959183673469","","","","","","","",""
"null","274563","SARL_v6","SARL_v6hutg6h75","5d8e64ab4e055600157a3d90","freq_resp","","","img/orange_2bandit_a.png","70","img/orange_2bandit_a.png","70","test","","","","","","","","","","","5","","","","","","","","",""
"null","274729","SARL_v6","SARL_v6hutg6h75","5d8e64ab4e055600157a3d90","fixation","","","img/fixation.png","null","","","test","","","","","","","","","","","","","","","","","","","",""
"404.2000000178814","275134","SARL_v6","SARL_v6hutg6h75","5d8e64ab4e055600157a3d90","infreq","","","img/blue_2bandit_a2.png","68","","68","test","1","","103","","","","square","circle","99","10","5","0.98989898989899","","","","","","","",""
"null","275547","SARL_v6","SARL_v6hutg6h75","5d8e64ab4e055600157a3d90","infreq_resp","","","img/blue_2bandit_a.png","68","img/blue_2bandit_a.png","68","test","","","","","","","","","","","5","","","","","","","","",""
"null","275714","SARL_v6","SARL_v6hutg6h75","5d8e64ab4e055600157a3d90","fixation","","","img/fixation.png","null","","","test","","","","","","","","","","","","","","","","","","","",""
"395.59999999403954","276111","SARL_v6","SARL_v6hutg6h75","5d8e64ab4e055600157a3d90","freq","","","img/orange_2bandit_a2.png","70","","70","test","1","","104","","","","square","circle","100","11","5","0.99","","","","","","","",""
"null","276531","SARL_v6","SARL_v6hutg6h75","5d8e64ab4e055600157a3d90","freq_resp","","","img/orange_2bandit_a.png","70","img/orange_2bandit_a.png","70","test","","","","","","","","","","","5","","","","","","","","",""
"null","276685","SARL_v6","SARL_v6hutg6h75","5d8e64ab4e055600157a3d90","fixation","","","img/fixation.png","null","","","test","","","","","","","","","","","","","","","","","","","",""
"352.2000000178814","277039","SARL_v6","SARL_v6hutg6h75","5d8e64ab4e055600157a3d90","freq","","","img/orange_2bandit_a2.png","70","","70","test","1","","105","","","","square","circle","101","12","5","0.9900990099009901","","","","","","","",""
"null","277499","SARL_v6","SARL_v6hutg6h75","5d8e64ab4e055600157a3d90","freq_resp","","","img/orange_2bandit_a.png","70","img/orange_2bandit_a.png","70","test","","","","","","","","","","","5","","","","","","","","",""
"null","277666","SARL_v6","SARL_v6hutg6h75","5d8e64ab4e055600157a3d90","fixation","","","img/fixation.png","null","","","test","","","","","","","","","","","","","","","","","","","",""
"283","277951","SARL_v6","SARL_v6hutg6h75","5d8e64ab4e055600157a3d90","freq","","","img/orange_2bandit_a2.png","70","","70","test","1","","106","","","","square","circle","102","13","5","0.9901960784313726","","","","","","","",""
"null","278483","SARL_v6","SARL_v6hutg6h75","5d8e64ab4e055600157a3d90","freq_resp","","","img/orange_2bandit_a.png","70","img/orange_2bandit_a.png","70","test","","","","","","","","","","","5","","","","","","","","",""
"null","278637","SARL_v6","SARL_v6hutg6h75","5d8e64ab4e055600157a3d90","fixation","","","img/fixation.png","null","","","test","","","","","","","","","","","","","","","","","","","",""
"280.59999999403954","278919","SARL_v6","SARL_v6hutg6h75","5d8e64ab4e055600157a3d90","freq","","","img/orange_2bandit_a2.png","70","","70","test","1","","107","","","","square","circle","103","14","5","0.9902912621359223","","","","","","","",""
"null","279450","SARL_v6","SARL_v6hutg6h75","5d8e64ab4e055600157a3d90","freq_resp","","","img/orange_2bandit_a.png","70","img/orange_2bandit_a.png","70","test","","","","","","","","","","","5","","","","","","","","",""
"null","279603","SARL_v6","SARL_v6hutg6h75","5d8e64ab4e055600157a3d90","fixation","","","img/fixation.png","null","","","test","","","","","","","","","","","","","","","","","","","",""
"259.09999999403954","279863","SARL_v6","SARL_v6hutg6h75","5d8e64ab4e055600157a3d90","freq","","","img/orange_2bandit_a2.png","70","","70","test","1","","108","","","","square","circle","104","15","5","0.9903846153846154","","","","","","","",""
"null","280419","SARL_v6","SARL_v6hutg6h75","5d8e64ab4e055600157a3d90","freq_resp","","","img/orange_2bandit_a.png","70","img/orange_2bandit_a.png","70","test","","","","","","","","","","","5","","","","","","","","",""
"null","280587","SARL_v6","SARL_v6hutg6h75","5d8e64ab4e055600157a3d90","fixation","","","img/fixation.png","null","","","test","","","","","","","","","","","","","","","","","","","",""
"283.09999999403954","280871","SARL_v6","SARL_v6hutg6h75","5d8e64ab4e055600157a3d90","freq","","","img/orange_2bandit_a2.png","70","","70","test","1","","109","","","","square","circle","105","16","5","0.9904761904761905","","","","","","","",""
"null","281394","SARL_v6","SARL_v6hutg6h75","5d8e64ab4e055600157a3d90","freq_resp","","","img/orange_2bandit_a.png","70","img/orange_2bandit_a.png","70","test","","","","","","","","","","","5","","","","","","","","",""
"null","281556","SARL_v6","SARL_v6hutg6h75","5d8e64ab4e055600157a3d90","fixation","","","img/fixation.png","null","","","test","","","","","","","","","","","","","","","","","","","",""
"306.7999999821186","281864","SARL_v6","SARL_v6hutg6h75","5d8e64ab4e055600157a3d90","freq","","","img/orange_2bandit_a2.png","70","","70","test","1","","110","","","","square","circle","106","17","5","0.9905660377358491","","","","","","","",""
"null","282374","SARL_v6","SARL_v6hutg6h75","5d8e64ab4e055600157a3d90","freq_resp","","","img/orange_2bandit_a.png","70","img/orange_2bandit_a.png","70","test","","","","","","","","","","","5","","","","","","","","",""
"null","282538","SARL_v6","SARL_v6hutg6h75","5d8e64ab4e055600157a3d90","fixation","","","img/fixation.png","null","","","test","","","","","","","","","","","","","","","","","","","",""
"91.09999999403954","282631","SARL_v6","SARL_v6hutg6h75","5d8e64ab4e055600157a3d90","infreq","","","img/blue_2bandit_a2.png","70","","68","test","0","","111","","","","square","circle","107","18","5","0.9813084112149533","","","","","","","",""
"null","283347","SARL_v6","SARL_v6hutg6h75","5d8e64ab4e055600157a3d90","infreq_resp","","","img/blue_2bandit_a.png","70","img/blue_2bandit_a.png","68","test","","","","","","","","","","","5","","","","","","","","",""
"null","283506","SARL_v6","SARL_v6hutg6h75","5d8e64ab4e055600157a3d90","fixation","","","img/fixation.png","null","","","test","","","","","","","","","","","","","","","","","","","",""
"451.19999998807907","283959","SARL_v6","SARL_v6hutg6h75","5d8e64ab4e055600157a3d90","freq","","","img/orange_2bandit_a2.png","70","","70","test","1","","112","","","","square","circle","108","19","5","0.9814814814814815","","","","","","","",""
"null","284319","SARL_v6","SARL_v6hutg6h75","5d8e64ab4e055600157a3d90","freq_resp","","","img/orange_2bandit_a.png","70","img/orange_2bandit_a.png","70","test","","","","","","","","","","","5","","","","","","","","",""
"null","284475","SARL_v6","SARL_v6hutg6h75","5d8e64ab4e055600157a3d90","fixation","","","img/fixation.png","null","","","test","","","","","","","","","","","","","","","","","","","",""
"691.1999999880791","285168","SARL_v6","SARL_v6hutg6h75","5d8e64ab4e055600157a3d90","freq","","","img/orange_2bandit_a2.png","70","","70","test","1","","113","","","","square","circle","109","20","5","0.981651376146789","","","","","","","",""
"null","285293","SARL_v6","SARL_v6hutg6h75","5d8e64ab4e055600157a3d90","freq_resp","","","img/orange_2bandit_a.png","70","img/orange_2bandit_a.png","70","test","","","","","","","","","","","5","","","","","","","","",""
"null","285457","SARL_v6","SARL_v6hutg6h75","5d8e64ab4e055600157a3d90","fixation","","","img/fixation.png","null","","","test","","","","","","","","","","","","","","","","","","","",""
"340.80000001192093","285800","SARL_v6","SARL_v6hutg6h75","5d8e64ab4e055600157a3d90","freq","","","img/orange_2bandit_a2.png","70","","70","test","1","","114","","","","square","circle","110","21","5","0.9818181818181818","","","","","","","",""
"null","286273","SARL_v6","SARL_v6hutg6h75","5d8e64ab4e055600157a3d90","freq_resp","","","img/orange_2bandit_a.png","70","img/orange_2bandit_a.png","70","test","","","","","","","","","","","5","","","","","","","","",""
"null","286426","SARL_v6","SARL_v6hutg6h75","5d8e64ab4e055600157a3d90","fixation","","","img/fixation.png","null","","","test","","","","","","","","","","","","","","","","","","","",""
"292.80000001192093","286720","SARL_v6","SARL_v6hutg6h75","5d8e64ab4e055600157a3d90","freq","","","img/orange_2bandit_a2.png","70","","70","test","1","","115","","","","square","circle","111","22","5","0.9819819819819819","","","","","","","",""
"null","287240","SARL_v6","SARL_v6hutg6h75","5d8e64ab4e055600157a3d90","freq_resp","","","img/orange_2bandit_a.png","70","img/orange_2bandit_a.png","70","test","","","","","","","","","","","5","","","","","","","","",""
"null","287396","SARL_v6","SARL_v6hutg6h75","5d8e64ab4e055600157a3d90","fixation","","","img/fixation.png","null","","","test","","","","","","","","","","","","","","","","","","","",""
"370.10000002384186","287768","SARL_v6","SARL_v6hutg6h75","5d8e64ab4e055600157a3d90","freq","","","img/orange_2bandit_a2.png","70","","70","test","1","","116","","","","square","circle","112","23","5","0.9821428571428571","","","","","","","",""
"null","288214","SARL_v6","SARL_v6hutg6h75","5d8e64ab4e055600157a3d90","freq_resp","","","img/orange_2bandit_a.png","70","img/orange_2bandit_a.png","70","test","","","","","","","","","","","5","","","","","","","","",""
"null","288374","SARL_v6","SARL_v6hutg6h75","5d8e64ab4e055600157a3d90","fixation","","","img/fixation.png","null","","","test","","","","","","","","","","","","","","","","","","","",""
"592.2999999821186","288968","SARL_v6","SARL_v6hutg6h75","5d8e64ab4e055600157a3d90","rl","","","img/black_2bandit_a2.png","75","","0","test","","","117","","","-7","square","circle","","0","5","","75","-7","4","4","-7","circle","5","0"
"null","289734","SARL_v6","SARL_v6hutg6h75","5d8e64ab4e055600157a3d90","feedback","","","<div class=""verylowPoints""> -7 </div>","null","","na","test","","","NaN","","","","","","","","5","","75","","","","","","5",""
"664.5999999940395","290400","SARL_v6","SARL_v6hutg6h75","5d8e64ab4e055600157a3d90","freq","","","img/orange_2bandit_a2.png","70","","70","test","1","","118","","","","square","circle","113","1","6","0.9823008849557522","","","","","","","",""
"null","290547","SARL_v6","SARL_v6hutg6h75","5d8e64ab4e055600157a3d90","freq_resp","","","img/orange_2bandit_a.png","70","img/orange_2bandit_a.png","70","test","","","","","","","","","","","6","","","","","","","","",""
"null","290712","SARL_v6","SARL_v6hutg6h75","5d8e64ab4e055600157a3d90","fixation","","","img/fixation.png","null","","","test","","","","","","","","","","","","","","","","","","","",""
"303.09999999403954","291017","SARL_v6","SARL_v6hutg6h75","5d8e64ab4e055600157a3d90","freq","","","img/orange_2bandit_a2.png","70","","70","test","1","","119","","","","square","circle","114","2","6","0.9824561403508771","","","","","","","",""
"null","291526","SARL_v6","SARL_v6hutg6h75","5d8e64ab4e055600157a3d90","freq_resp","","","img/orange_2bandit_a.png","70","img/orange_2bandit_a.png","70","test","","","","","","","","","","","6","","","","","","","","",""
"null","291681","SARL_v6","SARL_v6hutg6h75","5d8e64ab4e055600157a3d90","fixation","","","img/fixation.png","null","","","test","","","","","","","","","","","","","","","","","","","",""
"358.90000000596046","292041","SARL_v6","SARL_v6hutg6h75","5d8e64ab4e055600157a3d90","freq","","","img/orange_2bandit_a2.png","70","","70","test","1","","120","","","","square","circle","115","3","6","0.9826086956521739","","","","","","","",""
"null","292497","SARL_v6","SARL_v6hutg6h75","5d8e64ab4e055600157a3d90","freq_resp","","","img/orange_2bandit_a.png","70","img/orange_2bandit_a.png","70","test","","","","","","","","","","","6","","","","","","","","",""
"null","292663","SARL_v6","SARL_v6hutg6h75","5d8e64ab4e055600157a3d90","fixation","","","img/fixation.png","null","","","test","","","","","","","","","","","","","","","","","","","",""
"319.80000001192093","292985","SARL_v6","SARL_v6hutg6h75","5d8e64ab4e055600157a3d90","freq","","","img/orange_2bandit_a2.png","70","","70","test","1","","121","","","","square","circle","116","4","6","0.9827586206896551","","","","","","","",""
"null","293479","SARL_v6","SARL_v6hutg6h75","5d8e64ab4e055600157a3d90","freq_resp","","","img/orange_2bandit_a.png","70","img/orange_2bandit_a.png","70","test","","","","","","","","","","","6","","","","","","","","",""
"null","293632","SARL_v6","SARL_v6hutg6h75","5d8e64ab4e055600157a3d90","fixation","","","img/fixation.png","null","","","test","","","","","","","","","","","","","","","","","","","",""
"439.09999999403954","294073","SARL_v6","SARL_v6hutg6h75","5d8e64ab4e055600157a3d90","infreq","","","img/blue_2bandit_a2.png","68","","68","test","1","","122","","","","square","circle","117","5","6","0.9829059829059829","","","","","","","",""
"null","294437","SARL_v6","SARL_v6hutg6h75","5d8e64ab4e055600157a3d90","infreq_resp","","","img/blue_2bandit_a.png","68","img/blue_2bandit_a.png","68","test","","","","","","","","","","","6","","","","","","","","",""
"null","294601","SARL_v6","SARL_v6hutg6h75","5d8e64ab4e055600157a3d90","fixation","","","img/fixation.png","null","","","test","","","","","","","","","","","","","","","","","","","",""
"414.09999999403954","295017","SARL_v6","SARL_v6hutg6h75","5d8e64ab4e055600157a3d90","infreq","","","img/blue_2bandit_a2.png","68","","68","test","1","","123","","","","square","circle","118","6","6","0.9830508474576272","","","","","","","",""
"null","295419","SARL_v6","SARL_v6hutg6h75","5d8e64ab4e055600157a3d90","infreq_resp","","","img/blue_2bandit_a.png","68","img/blue_2bandit_a.png","68","test","","","","","","","","","","","6","","","","","","","","",""
"null","295583","SARL_v6","SARL_v6hutg6h75","5d8e64ab4e055600157a3d90","fixation","","","img/fixation.png","null","","","test","","","","","","","","","","","","","","","","","","","",""
"399.89999997615814","295985","SARL_v6","SARL_v6hutg6h75","5d8e64ab4e055600157a3d90","freq","","","img/orange_2bandit_a2.png","70","","70","test","1","","124","","","","square","circle","119","7","6","0.9831932773109243","","","","","","","",""
"null","296402","SARL_v6","SARL_v6hutg6h75","5d8e64ab4e055600157a3d90","freq_resp","","","img/orange_2bandit_a.png","70","img/orange_2bandit_a.png","70","test","","","","","","","","","","","6","","","","","","","","",""
"null","296569","SARL_v6","SARL_v6hutg6h75","5d8e64ab4e055600157a3d90","fixation","","","img/fixation.png","null","","","test","","","","","","","","","","","","","","","","","","","",""
"326.5","296897","SARL_v6","SARL_v6hutg6h75","5d8e64ab4e055600157a3d90","freq","","","img/orange_2bandit_a2.png","70","","70","test","1","","125","","","","square","circle","120","8","6","0.9833333333333333","","","","","","","",""
"null","297383","SARL_v6","SARL_v6hutg6h75","5d8e64ab4e055600157a3d90","freq_resp","","","img/orange_2bandit_a.png","70","img/orange_2bandit_a.png","70","test","","","","","","","","","","","6","","","","","","","","",""
"null","297536","SARL_v6","SARL_v6hutg6h75","5d8e64ab4e055600157a3d90","fixation","","","img/fixation.png","null","","","test","","","","","","","","","","","","","","","","","","","",""
"335.7999999821186","297873","SARL_v6","SARL_v6hutg6h75","5d8e64ab4e055600157a3d90","freq","","","img/orange_2bandit_a2.png","70","","70","test","1","","126","","","","square","circle","121","9","6","0.9834710743801653","","","","","","","",""
"null","298344","SARL_v6","SARL_v6hutg6h75","5d8e64ab4e055600157a3d90","freq_resp","","","img/orange_2bandit_a.png","70","img/orange_2bandit_a.png","70","test","","","","","","","","","","","6","","","","","","","","",""
"null","298503","SARL_v6","SARL_v6hutg6h75","5d8e64ab4e055600157a3d90","fixation","","","img/fixation.png","null","","","test","","","","","","","","","","","","","","","","","","","",""
"288.09999999403954","298793","SARL_v6","SARL_v6hutg6h75","5d8e64ab4e055600157a3d90","freq","","","img/orange_2bandit_a2.png","70","","70","test","1","","127","","","","square","circle","122","10","6","0.9836065573770492","","","","","","","",""
"null","299317","SARL_v6","SARL_v6hutg6h75","5d8e64ab4e055600157a3d90","freq_resp","","","img/orange_2bandit_a.png","70","img/orange_2bandit_a.png","70","test","","","","","","","","","","","6","","","","","","","","",""
"null","299471","SARL_v6","SARL_v6hutg6h75","5d8e64ab4e055600157a3d90","fixation","","","img/fixation.png","null","","","test","","","","","","","","","","","","","","","","","","","",""
"304.80000001192093","299778","SARL_v6","SARL_v6hutg6h75","5d8e64ab4e055600157a3d90","freq","","","img/orange_2bandit_a2.png","70","","70","test","1","","128","","","","square","circle","123","11","6","0.983739837398374","","","","","","","",""
"null","300284","SARL_v6","SARL_v6hutg6h75","5d8e64ab4e055600157a3d90","freq_resp","","","img/orange_2bandit_a.png","70","img/orange_2bandit_a.png","70","test","","","","","","","","","","","6","","","","","","","","",""
"null","300439","SARL_v6","SARL_v6hutg6h75","5d8e64ab4e055600157a3d90","fixation","","","img/fixation.png","null","","","test","","","","","","","","","","","","","","","","","","","",""
"416.80000001192093","300858","SARL_v6","SARL_v6hutg6h75","5d8e64ab4e055600157a3d90","freq","","","img/orange_2bandit_a2.png","70","","70","test","1","","129","","","","square","circle","124","12","6","0.9838709677419355","","","","","","","",""
"null","301254","SARL_v6","SARL_v6hutg6h75","5d8e64ab4e055600157a3d90","freq_resp","","","img/orange_2bandit_a.png","70","img/orange_2bandit_a.png","70","test","","","","","","","","","","","6","","","","","","","","",""
"null","301406","SARL_v6","SARL_v6hutg6h75","5d8e64ab4e055600157a3d90","fixation","","","img/fixation.png","null","","","test","","","","","","","","","","","","","","","","","","","",""
