"rt","time_elapsed","expId","subject","prolificID","trialType","rlType","attType","stimulus","key_press","stim","corrresp","phase","corr","pracCounter","trialNum","rewardOne","rewardTwo","reward","bandOne","bandTwo","attentionNum","attentionRunNum","blockNum","performance","bandChosen","circleVal","squareVal","bandOneVal","bandTwoVal","shapeChosen","rlNum","badFlag"
"9356.40000000596","9362","SARL_v6","SARL_v6ptq8ymdy","5ce973ea6c890100012ea2ae","","","","","","","","","","","","","","","","","","","","","","","","","","","",""
"","14166","SARL_v6","SARL_v6ptq8ymdy","5ce973ea6c890100012ea2ae","fullscreen","fullscreen","fullscreen","","","","","","","","","","","","","","","","","","","","","","","","",""
"122104.89999999106","136273","SARL_v6","SARL_v6ptq8ymdy","5ce973ea6c890100012ea2ae","","","","","","","","","","","","","","","","","","","","","","","","","","","",""
"null","137093","SARL_v6","SARL_v6ptq8ymdy","5ce973ea6c890100012ea2ae","freqPrac","","","img/orange_2bandit_a2.png","null","img/orange_2bandit_a2.png","70","prac","0","1","","","","","","","","","","","","","","","","","",""
"null","138098","SARL_v6","SARL_v6ptq8ymdy","5ce973ea6c890100012ea2ae","feedback","","","img/tooSlow.png","null","","na","prac","","","","","","","","","","","","","","","","","","","",""
"null","138264","SARL_v6","SARL_v6ptq8ymdy","5ce973ea6c890100012ea2ae","fixation","","","img/fixation.png","null","","","prac","","","","","","","","","","","","","","","","","","","",""
"537.2000000029802","138804","SARL_v6","SARL_v6ptq8ymdy","5ce973ea6c890100012ea2ae","infreqPrac","","","img/blue_2bandit_a2.png","68","img/blue_2bandit_a2.png","68","prac","1","1","","","","","","","","","","","","","","","","","",""
"537.2000000029802","139077","SARL_v6","SARL_v6ptq8ymdy","5ce973ea6c890100012ea2ae","infreqPrac_resp","","","img/blue_2bandit_a.png","68","img/blue_2bandit_a.png","68","prac","","","","","","","","","","","","","","","","","","","",""
"null","139232","SARL_v6","SARL_v6ptq8ymdy","5ce973ea6c890100012ea2ae","fixation","","","img/fixation.png","null","","","prac","","","","","","","","","","","","","","","","","","","",""
"555.7000000029802","139790","SARL_v6","SARL_v6ptq8ymdy","5ce973ea6c890100012ea2ae","freqPrac","","","img/orange_2bandit_a2.png","70","img/orange_2bandit_a2.png","70","prac","1","1","","","","","","","","","","","","","","","","","",""
"555.7000000029802","140044","SARL_v6","SARL_v6ptq8ymdy","5ce973ea6c890100012ea2ae","freqPrac_resp","","","img/orange_2bandit_a.png","70","img/orange_2bandit_a.png","70","prac","","","","","","","","","","","","","","","","","","","",""
"null","140199","SARL_v6","SARL_v6ptq8ymdy","5ce973ea6c890100012ea2ae","fixation","","","img/fixation.png","null","","","prac","","","","","","","","","","","","","","","","","","","",""
"604.7000000029802","140806","SARL_v6","SARL_v6ptq8ymdy","5ce973ea6c890100012ea2ae","infreqPrac","","","img/blue_2bandit_a2.png","68","img/blue_2bandit_a2.png","68","prac","1","1","","","","","","","","","","","","","","","","","",""
"604.7000000029802","141013","SARL_v6","SARL_v6ptq8ymdy","5ce973ea6c890100012ea2ae","infreqPrac_resp","","","img/blue_2bandit_a.png","68","img/blue_2bandit_a.png","68","prac","","","","","","","","","","","","","","","","","","","",""
"null","141166","SARL_v6","SARL_v6ptq8ymdy","5ce973ea6c890100012ea2ae","fixation","","","img/fixation.png","null","","","prac","","","","","","","","","","","","","","","","","","","",""
"473","141642","SARL_v6","SARL_v6ptq8ymdy","5ce973ea6c890100012ea2ae","infreqPrac","","","img/blue_2bandit_a2.png","68","img/blue_2bandit_a2.png","68","prac","1","1","","","","","","","","","","","","","","","","","",""
"473","141973","SARL_v6","SARL_v6ptq8ymdy","5ce973ea6c890100012ea2ae","infreqPrac_resp","","","img/blue_2bandit_a.png","68","img/blue_2bandit_a.png","68","prac","","","","","","","","","","","","","","","","","","","",""
"null","142132","SARL_v6","SARL_v6ptq8ymdy","5ce973ea6c890100012ea2ae","fixation","","","img/fixation.png","null","","","prac","","","","","","","","","","","","","","","","","","","",""
"380.59999999403954","142515","SARL_v6","SARL_v6ptq8ymdy","5ce973ea6c890100012ea2ae","infreqPrac","","","img/blue_2bandit_a2.png","68","img/blue_2bandit_a2.png","68","prac","1","1","","","","","","","","","","","","","","","","","",""
"380.59999999403954","142948","SARL_v6","SARL_v6ptq8ymdy","5ce973ea6c890100012ea2ae","infreqPrac_resp","","","img/blue_2bandit_a.png","68","img/blue_2bandit_a.png","68","prac","","","","","","","","","","","","","","","","","","","",""
"null","143115","SARL_v6","SARL_v6ptq8ymdy","5ce973ea6c890100012ea2ae","fixation","","","img/fixation.png","null","","","prac","","","","","","","","","","","","","","","","","","","",""
"436.30000001192093","143553","SARL_v6","SARL_v6ptq8ymdy","5ce973ea6c890100012ea2ae","freqPrac","","","img/orange_2bandit_a2.png","70","img/orange_2bandit_a2.png","70","prac","1","1","","","","","","","","","","","","","","","","","",""
"436.30000001192093","143923","SARL_v6","SARL_v6ptq8ymdy","5ce973ea6c890100012ea2ae","freqPrac_resp","","","img/orange_2bandit_a.png","70","img/orange_2bandit_a.png","70","prac","","","","","","","","","","","","","","","","","","","",""
"null","144083","SARL_v6","SARL_v6ptq8ymdy","5ce973ea6c890100012ea2ae","fixation","","","img/fixation.png","null","","","prac","","","","","","","","","","","","","","","","","","","",""
"626.2000000029802","144711","SARL_v6","SARL_v6ptq8ymdy","5ce973ea6c890100012ea2ae","infreqPrac","","","img/blue_2bandit_a2.png","68","img/blue_2bandit_a2.png","68","prac","1","1","","","","","","","","","","","","","","","","","",""
"626.2000000029802","144897","SARL_v6","SARL_v6ptq8ymdy","5ce973ea6c890100012ea2ae","infreqPrac_resp","","","img/blue_2bandit_a.png","68","img/blue_2bandit_a.png","68","prac","","","","","","","","","","","","","","","","","","","",""
"null","145063","SARL_v6","SARL_v6ptq8ymdy","5ce973ea6c890100012ea2ae","fixation","","","img/fixation.png","null","","","prac","","","","","","","","","","","","","","","","","","","",""
"516.2000000029802","145582","SARL_v6","SARL_v6ptq8ymdy","5ce973ea6c890100012ea2ae","freqPrac","","","img/orange_2bandit_a2.png","70","img/orange_2bandit_a2.png","70","prac","1","1","","","","","","","","","","","","","","","","","",""
"516.2000000029802","145873","SARL_v6","SARL_v6ptq8ymdy","5ce973ea6c890100012ea2ae","freqPrac_resp","","","img/orange_2bandit_a.png","70","img/orange_2bandit_a.png","70","prac","","","","","","","","","","","","","","","","","","","",""
"null","146032","SARL_v6","SARL_v6ptq8ymdy","5ce973ea6c890100012ea2ae","fixation","","","img/fixation.png","null","","","prac","","","","","","","","","","","","","","","","","","","",""
"459.3999999910593","146494","SARL_v6","SARL_v6ptq8ymdy","5ce973ea6c890100012ea2ae","freqPrac","","","img/orange_2bandit_a2.png","70","img/orange_2bandit_a2.png","70","prac","1","1","","","","","","","","","","","","","","","","","",""
"459.3999999910593","146851","SARL_v6","SARL_v6ptq8ymdy","5ce973ea6c890100012ea2ae","freqPrac_resp","","","img/orange_2bandit_a.png","70","img/orange_2bandit_a.png","70","prac","","","","","","","","","","","","","","","","","","","",""
"null","147014","SARL_v6","SARL_v6ptq8ymdy","5ce973ea6c890100012ea2ae","fixation","","","img/fixation.png","null","","","prac","","","","","","","","","","","","","","","","","","","",""
"53666.40000000596","200683","SARL_v6","SARL_v6ptq8ymdy","5ce973ea6c890100012ea2ae","","","","","","","","prac","","","","","","","","","","","","","","","","","","","",""
"null","202198","SARL_v6","SARL_v6ptq8ymdy","5ce973ea6c890100012ea2ae","rlPractice","","","img/black_2bandit_a2.png","null","img/black_2bandit_a2.png","","prac","","","0","","","","","","","","","","","","","","","","",""
"null","202960","SARL_v6","SARL_v6ptq8ymdy","5ce973ea6c890100012ea2ae","feedback","","","<div font size = 80> TOO SLOW  </div>","null","","na","prac","","","1","10","-14","10","","","","","","","","","","","","","",""
"null","203114","SARL_v6","SARL_v6ptq8ymdy","5ce973ea6c890100012ea2ae","fixation","","","img/fixation.png","null","","","prac","","","","","","","","","","","","","","","","","","","",""
"887.7999999970198","204004","SARL_v6","SARL_v6ptq8ymdy","5ce973ea6c890100012ea2ae","rlPractice","","","img/black_2bandit_a2.png","75","img/black_2bandit_a2.png","","prac","","","1","","","","","","","","","","","","","","","","",""
"null","204762","SARL_v6","SARL_v6ptq8ymdy","5ce973ea6c890100012ea2ae","feedback","","","<div class=""veryhighPoints""> 5 </div>","null","","na","prac","","","2","5","-5","5","","","","","","","","","","","","","",""
"null","204932","SARL_v6","SARL_v6ptq8ymdy","5ce973ea6c890100012ea2ae","fixation","","","img/fixation.png","null","","","prac","","","","","","","","","","","","","","","","","","","",""
"1124.7000000029802","206059","SARL_v6","SARL_v6ptq8ymdy","5ce973ea6c890100012ea2ae","rlPractice","","","img/black_2bandit_a2.png","74","img/black_2bandit_a2.png","","prac","","","2","","","","","","","","","","","","","","","","",""
"null","206825","SARL_v6","SARL_v6ptq8ymdy","5ce973ea6c890100012ea2ae","feedback","","","<div class=""veryhighPoints_sq""> 2 </div>","null","","na","prac","","","3","30","2","30","","","","","","","","","","","","","",""
"null","206982","SARL_v6","SARL_v6ptq8ymdy","5ce973ea6c890100012ea2ae","fixation","","","img/fixation.png","null","","","prac","","","","","","","","","","","","","","","","","","","",""
"752.7000000029802","207737","SARL_v6","SARL_v6ptq8ymdy","5ce973ea6c890100012ea2ae","rlPractice","","","img/black_2bandit_a2.png","75","img/black_2bandit_a2.png","","prac","","","3","","","","","","","","","","","","","","","","",""
"null","208496","SARL_v6","SARL_v6ptq8ymdy","5ce973ea6c890100012ea2ae","feedback","","","<div class=""verylowPoints""> -2 </div>","null","","na","prac","","","4","-2","20","-2","","","","","","","","","","","","","",""
"null","208650","SARL_v6","SARL_v6ptq8ymdy","5ce973ea6c890100012ea2ae","fixation","","","img/fixation.png","null","","","prac","","","","","","","","","","","","","","","","","","","",""
"40588","249240","SARL_v6","SARL_v6ptq8ymdy","5ce973ea6c890100012ea2ae","","","","","","","","prac","","","","","","","","","","","","","","","","","","","",""
"691.2000000029802","249933","SARL_v6","SARL_v6ptq8ymdy","5ce973ea6c890100012ea2ae","mixAttFreqPrac","","","img/orange_2bandit_a2.png","70","img/orange_2bandit_a2.png","70","prac","","","1","","","","","","","","","","","","","","","","",""
"691.2000000029802","250051","SARL_v6","SARL_v6ptq8ymdy","5ce973ea6c890100012ea2ae","freqPrac_resp","","","img/orange_2bandit_a.png","70","img/orange_2bandit_a.png","70","prac","","","1","","","","","","","","","","","","","","","","",""
"null","250214","SARL_v6","SARL_v6ptq8ymdy","5ce973ea6c890100012ea2ae","fixation","","","img/fixation.png","null","","","prac","","","","","","","","","","","","","","","","","","","",""
"656.9000000059605","250874","SARL_v6","SARL_v6ptq8ymdy","5ce973ea6c890100012ea2ae","mixAttInfreqPrac","","","img/blue_2bandit_a2.png","68","img/blue_2bandit_a2.png","68","prac","","","2","","","","","","","","","","","","","","","","",""
"656.9000000059605","251033","SARL_v6","SARL_v6ptq8ymdy","5ce973ea6c890100012ea2ae","infreqPrac_resp","","","img/blue_2bandit_a.png","68","img/orange_2bandit_a.png","68","prac","","","2","","","","","","","","","","","","","","","","",""
"null","251196","SARL_v6","SARL_v6ptq8ymdy","5ce973ea6c890100012ea2ae","fixation","","","img/fixation.png","null","","","prac","","","","","","","","","","","","","","","","","","","",""
"651.8000000119209","251850","SARL_v6","SARL_v6ptq8ymdy","5ce973ea6c890100012ea2ae","mixAttInfreqPrac","","","img/blue_2bandit_a2.png","68","img/blue_2bandit_a2.png","68","prac","","","3","","","","","","","","","","","","","","","","",""
"651.8000000119209","252015","SARL_v6","SARL_v6ptq8ymdy","5ce973ea6c890100012ea2ae","infreqPrac_resp","","","img/blue_2bandit_a.png","68","img/orange_2bandit_a.png","68","prac","","","3","","","","","","","","","","","","","","","","",""
"null","252180","SARL_v6","SARL_v6ptq8ymdy","5ce973ea6c890100012ea2ae","fixation","","","img/fixation.png","null","","","prac","","","","","","","","","","","","","","","","","","","",""
"558.2999999970198","252740","SARL_v6","SARL_v6ptq8ymdy","5ce973ea6c890100012ea2ae","mixAttInfreqPrac","","","img/blue_2bandit_a2.png","68","img/blue_2bandit_a2.png","68","prac","","","4","","","","","","","","","","","","","","","","",""
"558.2999999970198","252993","SARL_v6","SARL_v6ptq8ymdy","5ce973ea6c890100012ea2ae","infreqPrac_resp","","","img/blue_2bandit_a.png","68","img/orange_2bandit_a.png","68","prac","","","4","","","","","","","","","","","","","","","","",""
"null","253148","SARL_v6","SARL_v6ptq8ymdy","5ce973ea6c890100012ea2ae","fixation","","","img/fixation.png","null","","","prac","","","","","","","","","","","","","","","","","","","",""
"668.0999999940395","253818","SARL_v6","SARL_v6ptq8ymdy","5ce973ea6c890100012ea2ae","mixAttFreqPrac","","","img/orange_2bandit_a2.png","70","img/orange_2bandit_a2.png","70","prac","","","5","","","","","","","","","","","","","","","","",""
"668.0999999940395","253966","SARL_v6","SARL_v6ptq8ymdy","5ce973ea6c890100012ea2ae","freqPrac_resp","","","img/orange_2bandit_a.png","70","img/orange_2bandit_a.png","70","prac","","","5","","","","","","","","","","","","","","","","",""
"null","254130","SARL_v6","SARL_v6ptq8ymdy","5ce973ea6c890100012ea2ae","fixation","","","img/fixation.png","null","","","prac","","","","","","","","","","","","","","","","","","","",""
"718.4000000059605","254851","SARL_v6","SARL_v6ptq8ymdy","5ce973ea6c890100012ea2ae","mixRLPractice","","","img/black_2bandit_a2.png","75","img/black_2bandit_a2.png","","prac","","","5","","","","","","","","","","","","","","","","",""
"null","255612","SARL_v6","SARL_v6ptq8ymdy","5ce973ea6c890100012ea2ae","feedback","","","<div class=""verylowPoints""> -14 </div>","null","","na","prac","","","6","-14","10","-14","","","","","","","","","","","","","",""
"null","255781","SARL_v6","SARL_v6ptq8ymdy","5ce973ea6c890100012ea2ae","fixation","","","img/fixation.png","null","","","prac","","","","","","","","","","","","","","","","","","","",""
"771.3999999910593","256554","SARL_v6","SARL_v6ptq8ymdy","5ce973ea6c890100012ea2ae","mixAttFreqPrac","","","img/orange_2bandit_a2.png","70","img/orange_2bandit_a2.png","70","prac","","","7","","","","","","","","","","","","","","","","",""
"771.3999999910593","256586","SARL_v6","SARL_v6ptq8ymdy","5ce973ea6c890100012ea2ae","freqPrac_resp","","","img/orange_2bandit_a.png","70","img/orange_2bandit_a.png","70","prac","","","7","","","","","","","","","","","","","","","","",""
"null","256748","SARL_v6","SARL_v6ptq8ymdy","5ce973ea6c890100012ea2ae","fixation","","","img/fixation.png","null","","","prac","","","","","","","","","","","","","","","","","","","",""
"713","257463","SARL_v6","SARL_v6ptq8ymdy","5ce973ea6c890100012ea2ae","mixAttInfreqPrac","","","img/blue_2bandit_a2.png","68","img/blue_2bandit_a2.png","68","prac","","","8","","","","","","","","","","","","","","","","",""
"713","257568","SARL_v6","SARL_v6ptq8ymdy","5ce973ea6c890100012ea2ae","infreqPrac_resp","","","img/blue_2bandit_a.png","68","img/orange_2bandit_a.png","68","prac","","","8","","","","","","","","","","","","","","","","",""
"null","257732","SARL_v6","SARL_v6ptq8ymdy","5ce973ea6c890100012ea2ae","fixation","","","img/fixation.png","null","","","prac","","","","","","","","","","","","","","","","","","","",""
"null","258540","SARL_v6","SARL_v6ptq8ymdy","5ce973ea6c890100012ea2ae","mixAttFreqPrac","","","img/orange_2bandit_a2.png","null","img/orange_2bandit_a2.png","70","prac","","","9","","","","","","","","","","","","","","","","",""
"2.3999999910593033","258698","SARL_v6","SARL_v6ptq8ymdy","5ce973ea6c890100012ea2ae","fixation","","","img/fixation.png","70","","","prac","","","","","","","","","","","","","","","","","","","",""
"573.2999999970198","259274","SARL_v6","SARL_v6ptq8ymdy","5ce973ea6c890100012ea2ae","mixAttFreqPrac","","","img/orange_2bandit_a2.png","70","img/orange_2bandit_a2.png","70","prac","","","10","","","","","","","","","","","","","","","","",""
"573.2999999970198","259512","SARL_v6","SARL_v6ptq8ymdy","5ce973ea6c890100012ea2ae","freqPrac_resp","","","img/orange_2bandit_a.png","70","img/orange_2bandit_a.png","70","prac","","","10","","","","","","","","","","","","","","","","",""
"null","259665","SARL_v6","SARL_v6ptq8ymdy","5ce973ea6c890100012ea2ae","fixation","","","img/fixation.png","null","","","prac","","","","","","","","","","","","","","","","","","","",""
"null","260474","SARL_v6","SARL_v6ptq8ymdy","5ce973ea6c890100012ea2ae","mixAttInfreqPrac","","","img/blue_2bandit_a2.png","null","img/blue_2bandit_a2.png","68","prac","","","11","","","","","","","","","","","","","","","","",""
"95.79999999701977","260632","SARL_v6","SARL_v6ptq8ymdy","5ce973ea6c890100012ea2ae","fixation","","","img/fixation.png","68","","","prac","","","","","","","","","","","","","","","","","","","",""
"671.2999999970198","261305","SARL_v6","SARL_v6ptq8ymdy","5ce973ea6c890100012ea2ae","mixRLPractice","","","img/black_2bandit_a2.png","74","img/black_2bandit_a2.png","","prac","","","11","","","","","","","","","","","","","","","","",""
"null","262063","SARL_v6","SARL_v6ptq8ymdy","5ce973ea6c890100012ea2ae","feedback","","","<div class=""verylowPoints_sq""> -5 </div>","null","","na","prac","","","12","5","-5","5","","","","","","","","","","","","","",""
"null","262230","SARL_v6","SARL_v6ptq8ymdy","5ce973ea6c890100012ea2ae","fixation","","","img/fixation.png","null","","","prac","","","","","","","","","","","","","","","","","","","",""
"14039.40000000596","276271","SARL_v6","SARL_v6ptq8ymdy","5ce973ea6c890100012ea2ae","","","","","","","","prac","","","","","","","","","","","","","","","","","","","",""
"584.2000000029802","276858","SARL_v6","SARL_v6ptq8ymdy","5ce973ea6c890100012ea2ae","freq","","","img/orange_2bandit_a2.png","70","","70","test","1","","1","","","","square","circle","1","1","1","1","","","","","","","",""
"null","277078","SARL_v6","SARL_v6ptq8ymdy","5ce973ea6c890100012ea2ae","freq_resp","","","img/orange_2bandit_a.png","70","img/orange_2bandit_a.png","70","test","","","","","","","","","","","1","","","","","","","","",""
"null","277230","SARL_v6","SARL_v6ptq8ymdy","5ce973ea6c890100012ea2ae","fixation","","","img/fixation.png","null","","","test","","","","","","","","","","","","","","","","","","","",""
"426.09999999403954","277659","SARL_v6","SARL_v6ptq8ymdy","5ce973ea6c890100012ea2ae","freq","","","img/orange_2bandit_a2.png","70","","70","test","1","","2","","","","square","circle","2","2","1","1","","","","","","","",""
"null","278051","SARL_v6","SARL_v6ptq8ymdy","5ce973ea6c890100012ea2ae","freq_resp","","","img/orange_2bandit_a.png","70","img/orange_2bandit_a.png","70","test","","","","","","","","","","","1","","","","","","","","",""
"null","278215","SARL_v6","SARL_v6ptq8ymdy","5ce973ea6c890100012ea2ae","fixation","","","img/fixation.png","null","","","test","","","","","","","","","","","","","","","","","","","",""
"448.59999999403954","278666","SARL_v6","SARL_v6ptq8ymdy","5ce973ea6c890100012ea2ae","freq","","","img/orange_2bandit_a2.png","70","","70","test","1","","3","","","","square","circle","3","3","1","1","","","","","","","",""
"null","279034","SARL_v6","SARL_v6ptq8ymdy","5ce973ea6c890100012ea2ae","freq_resp","","","img/orange_2bandit_a.png","70","img/orange_2bandit_a.png","70","test","","","","","","","","","","","1","","","","","","","","",""
"null","279198","SARL_v6","SARL_v6ptq8ymdy","5ce973ea6c890100012ea2ae","fixation","","","img/fixation.png","null","","","test","","","","","","","","","","","","","","","","","","","",""
"452.5","279653","SARL_v6","SARL_v6ptq8ymdy","5ce973ea6c890100012ea2ae","freq","","","img/orange_2bandit_a2.png","70","","70","test","1","","4","","","","square","circle","4","4","1","1","","","","","","","",""
"null","280019","SARL_v6","SARL_v6ptq8ymdy","5ce973ea6c890100012ea2ae","freq_resp","","","img/orange_2bandit_a.png","70","img/orange_2bandit_a.png","70","test","","","","","","","","","","","1","","","","","","","","",""
"null","280183","SARL_v6","SARL_v6ptq8ymdy","5ce973ea6c890100012ea2ae","fixation","","","img/fixation.png","null","","","test","","","","","","","","","","","","","","","","","","","",""
"377.09999999403954","280562","SARL_v6","SARL_v6ptq8ymdy","5ce973ea6c890100012ea2ae","freq","","","img/orange_2bandit_a2.png","70","","70","test","1","","5","","","","square","circle","5","5","1","1","","","","","","","",""
"null","280999","SARL_v6","SARL_v6ptq8ymdy","5ce973ea6c890100012ea2ae","freq_resp","","","img/orange_2bandit_a.png","70","img/orange_2bandit_a.png","70","test","","","","","","","","","","","1","","","","","","","","",""
"null","281163","SARL_v6","SARL_v6ptq8ymdy","5ce973ea6c890100012ea2ae","fixation","","","img/fixation.png","null","","","test","","","","","","","","","","","","","","","","","","","",""
"433.5","281598","SARL_v6","SARL_v6ptq8ymdy","5ce973ea6c890100012ea2ae","freq","","","img/orange_2bandit_a2.png","70","","70","test","1","","6","","","","square","circle","6","6","1","1","","","","","","","",""
"null","281982","SARL_v6","SARL_v6ptq8ymdy","5ce973ea6c890100012ea2ae","freq_resp","","","img/orange_2bandit_a.png","70","img/orange_2bandit_a.png","70","test","","","","","","","","","","","1","","","","","","","","",""
"null","282146","SARL_v6","SARL_v6ptq8ymdy","5ce973ea6c890100012ea2ae","fixation","","","img/fixation.png","null","","","test","","","","","","","","","","","","","","","","","","","",""
"551.5","282700","SARL_v6","SARL_v6ptq8ymdy","5ce973ea6c890100012ea2ae","freq","","","img/orange_2bandit_a2.png","70","","70","test","1","","7","","","","square","circle","7","7","1","1","","","","","","","",""
"null","282960","SARL_v6","SARL_v6ptq8ymdy","5ce973ea6c890100012ea2ae","freq_resp","","","img/orange_2bandit_a.png","70","img/orange_2bandit_a.png","70","test","","","","","","","","","","","1","","","","","","","","",""
"null","283115","SARL_v6","SARL_v6ptq8ymdy","5ce973ea6c890100012ea2ae","fixation","","","img/fixation.png","null","","","test","","","","","","","","","","","","","","","","","","","",""
"800.8999999910593","283919","SARL_v6","SARL_v6ptq8ymdy","5ce973ea6c890100012ea2ae","freq","","","img/orange_2bandit_a2.png","70","","70","test","1","","8","","","","square","circle","8","8","1","1","","","","","","","",""
"null","284083","SARL_v6","SARL_v6ptq8ymdy","5ce973ea6c890100012ea2ae","fixation","","","img/fixation.png","null","","","test","","","","","","","","","","","","","","","","","","","",""
"null","284891","SARL_v6","SARL_v6ptq8ymdy","5ce973ea6c890100012ea2ae","freq","","","img/orange_2bandit_a2.png","null","","70","test","0","","9","","","","square","circle","9","9","1","0.8888888888888888","","","","","","","",""
"null","285048","SARL_v6","SARL_v6ptq8ymdy","5ce973ea6c890100012ea2ae","fixation","","","img/fixation.png","null","","","test","","","","","","","","","","","","","","","","","","","",""
"583.5999999940395","285634","SARL_v6","SARL_v6ptq8ymdy","5ce973ea6c890100012ea2ae","infreq","","","img/blue_2bandit_a2.png","68","","68","test","1","","10","","","","square","circle","10","10","1","0.9","","","","","","","",""
"null","285860","SARL_v6","SARL_v6ptq8ymdy","5ce973ea6c890100012ea2ae","infreq_resp","","","img/blue_2bandit_a.png","68","img/blue_2bandit_a.png","68","test","","","","","","","","","","","1","","","","","","","","",""
"null","286014","SARL_v6","SARL_v6ptq8ymdy","5ce973ea6c890100012ea2ae","fixation","","","img/fixation.png","null","","","test","","","","","","","","","","","","","","","","","","","",""
"528.0999999940395","286545","SARL_v6","SARL_v6ptq8ymdy","5ce973ea6c890100012ea2ae","freq","","","img/orange_2bandit_a2.png","70","","70","test","1","","11","","","","square","circle","11","11","1","0.9090909090909091","","","","","","","",""
"null","286823","SARL_v6","SARL_v6ptq8ymdy","5ce973ea6c890100012ea2ae","freq_resp","","","img/orange_2bandit_a.png","70","img/orange_2bandit_a.png","70","test","","","","","","","","","","","1","","","","","","","","",""
"null","286981","SARL_v6","SARL_v6ptq8ymdy","5ce973ea6c890100012ea2ae","fixation","","","img/fixation.png","null","","","test","","","","","","","","","","","","","","","","","","","",""
"630.6000000089407","287614","SARL_v6","SARL_v6ptq8ymdy","5ce973ea6c890100012ea2ae","freq","","","img/orange_2bandit_a2.png","70","","70","test","1","","12","","","","square","circle","12","12","1","0.9166666666666666","","","","","","","",""
"null","287795","SARL_v6","SARL_v6ptq8ymdy","5ce973ea6c890100012ea2ae","freq_resp","","","img/orange_2bandit_a.png","70","img/orange_2bandit_a.png","70","test","","","","","","","","","","","1","","","","","","","","",""
"null","287948","SARL_v6","SARL_v6ptq8ymdy","5ce973ea6c890100012ea2ae","fixation","","","img/fixation.png","null","","","test","","","","","","","","","","","","","","","","","","","",""
"754","288704","SARL_v6","SARL_v6ptq8ymdy","5ce973ea6c890100012ea2ae","freq","","","img/orange_2bandit_a2.png","70","","70","test","1","","13","","","","square","circle","13","13","1","0.9230769230769231","","","","","","","",""
"null","288755","SARL_v6","SARL_v6ptq8ymdy","5ce973ea6c890100012ea2ae","freq_resp","","","img/orange_2bandit_a.png","70","img/orange_2bandit_a.png","70","test","","","","","","","","","","","1","","","","","","","","",""
"null","288914","SARL_v6","SARL_v6ptq8ymdy","5ce973ea6c890100012ea2ae","fixation","","","img/fixation.png","null","","","test","","","","","","","","","","","","","","","","","","","",""
"631.5999999940395","289548","SARL_v6","SARL_v6ptq8ymdy","5ce973ea6c890100012ea2ae","infreq","","","img/blue_2bandit_a2.png","68","","68","test","1","","14","","","","square","circle","14","14","1","0.9285714285714286","","","","","","","",""
"null","289722","SARL_v6","SARL_v6ptq8ymdy","5ce973ea6c890100012ea2ae","infreq_resp","","","img/blue_2bandit_a.png","68","img/blue_2bandit_a.png","68","test","","","","","","","","","","","1","","","","","","","","",""
"null","289882","SARL_v6","SARL_v6ptq8ymdy","5ce973ea6c890100012ea2ae","fixation","","","img/fixation.png","null","","","test","","","","","","","","","","","","","","","","","","","",""
"640.8000000119209","290525","SARL_v6","SARL_v6ptq8ymdy","5ce973ea6c890100012ea2ae","freq","","","img/orange_2bandit_a2.png","70","","70","test","1","","15","","","","square","circle","15","15","1","0.9333333333333333","","","","","","","",""
"null","290697","SARL_v6","SARL_v6ptq8ymdy","5ce973ea6c890100012ea2ae","freq_resp","","","img/orange_2bandit_a.png","70","img/orange_2bandit_a.png","70","test","","","","","","","","","","","1","","","","","","","","",""
"null","290863","SARL_v6","SARL_v6ptq8ymdy","5ce973ea6c890100012ea2ae","fixation","","","img/fixation.png","null","","","test","","","","","","","","","","","","","","","","","","","",""
"529.5999999940395","291395","SARL_v6","SARL_v6ptq8ymdy","5ce973ea6c890100012ea2ae","freq","","","img/orange_2bandit_a2.png","70","","70","test","1","","16","","","","square","circle","16","16","1","0.9375","","","","","","","",""
"null","291672","SARL_v6","SARL_v6ptq8ymdy","5ce973ea6c890100012ea2ae","freq_resp","","","img/orange_2bandit_a.png","70","img/orange_2bandit_a.png","70","test","","","","","","","","","","","1","","","","","","","","",""
"null","291832","SARL_v6","SARL_v6ptq8ymdy","5ce973ea6c890100012ea2ae","fixation","","","img/fixation.png","null","","","test","","","","","","","","","","","","","","","","","","","",""
"487.09999999403954","292321","SARL_v6","SARL_v6ptq8ymdy","5ce973ea6c890100012ea2ae","freq","","","img/orange_2bandit_a2.png","70","","70","test","1","","17","","","","square","circle","17","17","1","0.9411764705882353","","","","","","","",""
"null","292639","SARL_v6","SARL_v6ptq8ymdy","5ce973ea6c890100012ea2ae","freq_resp","","","img/orange_2bandit_a.png","70","img/orange_2bandit_a.png","70","test","","","","","","","","","","","1","","","","","","","","",""
"null","292798","SARL_v6","SARL_v6ptq8ymdy","5ce973ea6c890100012ea2ae","fixation","","","img/fixation.png","null","","","test","","","","","","","","","","","","","","","","","","","",""
"572.7999999970198","293373","SARL_v6","SARL_v6ptq8ymdy","5ce973ea6c890100012ea2ae","freq","","","img/orange_2bandit_a2.png","70","","70","test","1","","18","","","","square","circle","18","18","1","0.9444444444444444","","","","","","","",""
"null","293608","SARL_v6","SARL_v6ptq8ymdy","5ce973ea6c890100012ea2ae","freq_resp","","","img/orange_2bandit_a.png","70","img/orange_2bandit_a.png","70","test","","","","","","","","","","","1","","","","","","","","",""
"null","293765","SARL_v6","SARL_v6ptq8ymdy","5ce973ea6c890100012ea2ae","fixation","","","img/fixation.png","null","","","test","","","","","","","","","","","","","","","","","","","",""
"512.5999999940395","294280","SARL_v6","SARL_v6ptq8ymdy","5ce973ea6c890100012ea2ae","freq","","","img/orange_2bandit_a2.png","70","","70","test","1","","19","","","","square","circle","19","19","1","0.9473684210526315","","","","","","","",""
"null","294572","SARL_v6","SARL_v6ptq8ymdy","5ce973ea6c890100012ea2ae","freq_resp","","","img/orange_2bandit_a.png","70","img/orange_2bandit_a.png","70","test","","","","","","","","","","","1","","","","","","","","",""
"null","294731","SARL_v6","SARL_v6ptq8ymdy","5ce973ea6c890100012ea2ae","fixation","","","img/fixation.png","null","","","test","","","","","","","","","","","","","","","","","","","",""
"358.30000001192093","295092","SARL_v6","SARL_v6ptq8ymdy","5ce973ea6c890100012ea2ae","freq","","","img/orange_2bandit_a2.png","70","","70","test","1","","20","","","","square","circle","20","20","1","0.95","","","","","","","",""
"null","295547","SARL_v6","SARL_v6ptq8ymdy","5ce973ea6c890100012ea2ae","freq_resp","","","img/orange_2bandit_a.png","70","img/orange_2bandit_a.png","70","test","","","","","","","","","","","1","","","","","","","","",""
"null","295712","SARL_v6","SARL_v6ptq8ymdy","5ce973ea6c890100012ea2ae","fixation","","","img/fixation.png","null","","","test","","","","","","","","","","","","","","","","","","","",""
"371.1000000089407","296086","SARL_v6","SARL_v6ptq8ymdy","5ce973ea6c890100012ea2ae","freq","","","img/orange_2bandit_a2.png","70","","70","test","1","","21","","","","square","circle","21","21","1","0.9523809523809523","","","","","","","",""
"null","296532","SARL_v6","SARL_v6ptq8ymdy","5ce973ea6c890100012ea2ae","freq_resp","","","img/orange_2bandit_a.png","70","img/orange_2bandit_a.png","70","test","","","","","","","","","","","1","","","","","","","","",""
"null","296696","SARL_v6","SARL_v6ptq8ymdy","5ce973ea6c890100012ea2ae","fixation","","","img/fixation.png","null","","","test","","","","","","","","","","","","","","","","","","","",""
"888.4000000059605","297586","SARL_v6","SARL_v6ptq8ymdy","5ce973ea6c890100012ea2ae","rl","","","img/black_2bandit_a2.png","75","","0","test","","","22","","","-3","square","circle","","0","1","","75","-3","-3","-3","-3","circle","1","0"
"null","298344","SARL_v6","SARL_v6ptq8ymdy","5ce973ea6c890100012ea2ae","feedback","","","<div class=""verylowPoints""> -3 </div>","null","","na","test","","","NaN","","","","","","","","1","","75","","","","","","1",""
"753","299099","SARL_v6","SARL_v6ptq8ymdy","5ce973ea6c890100012ea2ae","freq","","","img/orange_2bandit_a2.png","70","","70","test","1","","23","","","","square","circle","22","1","2","0.9545454545454546","","","","","","","",""
"null","299152","SARL_v6","SARL_v6ptq8ymdy","5ce973ea6c890100012ea2ae","freq_resp","","","img/orange_2bandit_a.png","70","img/orange_2bandit_a.png","70","test","","","","","","","","","","","2","","","","","","","","",""
"null","299316","SARL_v6","SARL_v6ptq8ymdy","5ce973ea6c890100012ea2ae","fixation","","","img/fixation.png","null","","","test","","","","","","","","","","","","","","","","","","","",""
"620.7999999970198","299939","SARL_v6","SARL_v6ptq8ymdy","5ce973ea6c890100012ea2ae","freq","","","img/orange_2bandit_a2.png","70","","70","test","1","","24","","","","square","circle","23","2","2","0.9565217391304348","","","","","","","",""
"null","300130","SARL_v6","SARL_v6ptq8ymdy","5ce973ea6c890100012ea2ae","freq_resp","","","img/orange_2bandit_a.png","70","img/orange_2bandit_a.png","70","test","","","","","","","","","","","2","","","","","","","","",""
"null","300297","SARL_v6","SARL_v6ptq8ymdy","5ce973ea6c890100012ea2ae","fixation","","","img/fixation.png","null","","","test","","","","","","","","","","","","","","","","","","","",""
"387","300686","SARL_v6","SARL_v6ptq8ymdy","5ce973ea6c890100012ea2ae","freq","","","img/orange_2bandit_a2.png","70","","70","test","1","","25","","","","square","circle","24","3","2","0.9583333333333334","","","","","","","",""
"null","301115","SARL_v6","SARL_v6ptq8ymdy","5ce973ea6c890100012ea2ae","freq_resp","","","img/orange_2bandit_a.png","70","img/orange_2bandit_a.png","70","test","","","","","","","","","","","2","","","","","","","","",""
"null","301280","SARL_v6","SARL_v6ptq8ymdy","5ce973ea6c890100012ea2ae","fixation","","","img/fixation.png","null","","","test","","","","","","","","","","","","","","","","","","","",""
"387.3999999910593","301669","SARL_v6","SARL_v6ptq8ymdy","5ce973ea6c890100012ea2ae","freq","","","img/orange_2bandit_a2.png","70","","70","test","1","","26","","","","square","circle","25","4","2","0.96","","","","","","","",""
"null","302098","SARL_v6","SARL_v6ptq8ymdy","5ce973ea6c890100012ea2ae","freq_resp","","","img/orange_2bandit_a.png","70","img/orange_2bandit_a.png","70","test","","","","","","","","","","","2","","","","","","","","",""
"null","302263","SARL_v6","SARL_v6ptq8ymdy","5ce973ea6c890100012ea2ae","fixation","","","img/fixation.png","null","","","test","","","","","","","","","","","","","","","","","","","",""
"321.5","302586","SARL_v6","SARL_v6ptq8ymdy","5ce973ea6c890100012ea2ae","freq","","","img/orange_2bandit_a2.png","70","","70","test","1","","27","","","","square","circle","26","5","2","0.9615384615384616","","","","","","","",""
"null","303080","SARL_v6","SARL_v6ptq8ymdy","5ce973ea6c890100012ea2ae","freq_resp","","","img/orange_2bandit_a.png","70","img/orange_2bandit_a.png","70","test","","","","","","","","","","","2","","","","","","","","",""
"null","303247","SARL_v6","SARL_v6ptq8ymdy","5ce973ea6c890100012ea2ae","fixation","","","img/fixation.png","null","","","test","","","","","","","","","","","","","","","","","","","",""
"309.5","303558","SARL_v6","SARL_v6ptq8ymdy","5ce973ea6c890100012ea2ae","freq","","","img/orange_2bandit_a2.png","70","","70","test","1","","28","","","","square","circle","27","6","2","0.9629629629629629","","","","","","","",""
"null","304060","SARL_v6","SARL_v6ptq8ymdy","5ce973ea6c890100012ea2ae","freq_resp","","","img/orange_2bandit_a.png","70","img/orange_2bandit_a.png","70","test","","","","","","","","","","","2","","","","","","","","",""
"null","304214","SARL_v6","SARL_v6ptq8ymdy","5ce973ea6c890100012ea2ae","fixation","","","img/fixation.png","null","","","test","","","","","","","","","","","","","","","","","","","",""
"344.79999999701977","304561","SARL_v6","SARL_v6ptq8ymdy","5ce973ea6c890100012ea2ae","freq","","","img/orange_2bandit_a2.png","70","","70","test","1","","29","","","","square","circle","28","7","2","0.9642857142857143","","","","","","","",""
"null","305029","SARL_v6","SARL_v6ptq8ymdy","5ce973ea6c890100012ea2ae","freq_resp","","","img/orange_2bandit_a.png","70","img/orange_2bandit_a.png","70","test","","","","","","","","","","","2","","","","","","","","",""
"null","305197","SARL_v6","SARL_v6ptq8ymdy","5ce973ea6c890100012ea2ae","fixation","","","img/fixation.png","null","","","test","","","","","","","","","","","","","","","","","","","",""
"407.40000000596046","305607","SARL_v6","SARL_v6ptq8ymdy","5ce973ea6c890100012ea2ae","freq","","","img/orange_2bandit_a2.png","70","","70","test","1","","30","","","","square","circle","29","8","2","0.9655172413793104","","","","","","","",""
"null","306015","SARL_v6","SARL_v6ptq8ymdy","5ce973ea6c890100012ea2ae","freq_resp","","","img/orange_2bandit_a.png","70","img/orange_2bandit_a.png","70","test","","","","","","","","","","","2","","","","","","","","",""
"null","306178","SARL_v6","SARL_v6ptq8ymdy","5ce973ea6c890100012ea2ae","fixation","","","img/fixation.png","null","","","test","","","","","","","","","","","","","","","","","","","",""
"329.40000000596046","306510","SARL_v6","SARL_v6ptq8ymdy","5ce973ea6c890100012ea2ae","freq","","","img/orange_2bandit_a2.png","70","","70","test","1","","31","","","","square","circle","30","9","2","0.9666666666666667","","","","","","","",""
"null","306993","SARL_v6","SARL_v6ptq8ymdy","5ce973ea6c890100012ea2ae","freq_resp","","","img/orange_2bandit_a.png","70","img/orange_2bandit_a.png","70","test","","","","","","","","","","","2","","","","","","","","",""
"null","307148","SARL_v6","SARL_v6ptq8ymdy","5ce973ea6c890100012ea2ae","fixation","","","img/fixation.png","null","","","test","","","","","","","","","","","","","","","","","","","",""
"497.5","307648","SARL_v6","SARL_v6ptq8ymdy","5ce973ea6c890100012ea2ae","infreq","","","img/blue_2bandit_a2.png","68","","68","test","1","","32","","","","square","circle","31","10","2","0.967741935483871","","","","","","","",""
"null","307954","SARL_v6","SARL_v6ptq8ymdy","5ce973ea6c890100012ea2ae","infreq_resp","","","img/blue_2bandit_a.png","68","img/blue_2bandit_a.png","68","test","","","","","","","","","","","2","","","","","","","","",""
"null","308115","SARL_v6","SARL_v6ptq8ymdy","5ce973ea6c890100012ea2ae","fixation","","","img/fixation.png","null","","","test","","","","","","","","","","","","","","","","","","","",""
"567.5999999940395","308685","SARL_v6","SARL_v6ptq8ymdy","5ce973ea6c890100012ea2ae","freq","","","img/orange_2bandit_a2.png","70","","70","test","1","","33","","","","square","circle","32","11","2","0.96875","","","","","","","",""
"null","308926","SARL_v6","SARL_v6ptq8ymdy","5ce973ea6c890100012ea2ae","freq_resp","","","img/orange_2bandit_a.png","70","img/orange_2bandit_a.png","70","test","","","","","","","","","","","2","","","","","","","","",""
"null","309080","SARL_v6","SARL_v6ptq8ymdy","5ce973ea6c890100012ea2ae","fixation","","","img/fixation.png","null","","","test","","","","","","","","","","","","","","","","","","","",""
"533.6000000089407","309617","SARL_v6","SARL_v6ptq8ymdy","5ce973ea6c890100012ea2ae","freq","","","img/orange_2bandit_a2.png","70","","70","test","1","","34","","","","square","circle","33","12","2","0.9696969696969697","","","","","","","",""
"null","309888","SARL_v6","SARL_v6ptq8ymdy","5ce973ea6c890100012ea2ae","freq_resp","","","img/orange_2bandit_a.png","70","img/orange_2bandit_a.png","70","test","","","","","","","","","","","2","","","","","","","","",""
"null","310048","SARL_v6","SARL_v6ptq8ymdy","5ce973ea6c890100012ea2ae","fixation","","","img/fixation.png","null","","","test","","","","","","","","","","","","","","","","","","","",""
"671.5999999940395","310722","SARL_v6","SARL_v6ptq8ymdy","5ce973ea6c890100012ea2ae","infreq","","","img/blue_2bandit_a2.png","68","","68","test","1","","35","","","","square","circle","34","13","2","0.9705882352941176","","","","","","","",""
"null","310860","SARL_v6","SARL_v6ptq8ymdy","5ce973ea6c890100012ea2ae","infreq_resp","","","img/blue_2bandit_a.png","68","img/blue_2bandit_a.png","68","test","","","","","","","","","","","2","","","","","","","","",""
"null","311014","SARL_v6","SARL_v6ptq8ymdy","5ce973ea6c890100012ea2ae","fixation","","","img/fixation.png","null","","","test","","","","","","","","","","","","","","","","","","","",""
"667.4000000059605","311683","SARL_v6","SARL_v6ptq8ymdy","5ce973ea6c890100012ea2ae","freq","","","img/orange_2bandit_a2.png","70","","70","test","1","","36","","","","square","circle","35","14","2","0.9714285714285714","","","","","","","",""
"null","311831","SARL_v6","SARL_v6ptq8ymdy","5ce973ea6c890100012ea2ae","freq_resp","","","img/orange_2bandit_a.png","70","img/orange_2bandit_a.png","70","test","","","","","","","","","","","2","","","","","","","","",""
"null","311995","SARL_v6","SARL_v6ptq8ymdy","5ce973ea6c890100012ea2ae","fixation","","","img/fixation.png","null","","","test","","","","","","","","","","","","","","","","","","","",""
"419.40000000596046","312417","SARL_v6","SARL_v6ptq8ymdy","5ce973ea6c890100012ea2ae","freq","","","img/orange_2bandit_a2.png","70","","70","test","1","","37","","","","square","circle","36","15","2","0.9722222222222222","","","","","","","",""
"null","312802","SARL_v6","SARL_v6ptq8ymdy","5ce973ea6c890100012ea2ae","freq_resp","","","img/orange_2bandit_a.png","70","img/orange_2bandit_a.png","70","test","","","","","","","","","","","2","","","","","","","","",""
"null","312966","SARL_v6","SARL_v6ptq8ymdy","5ce973ea6c890100012ea2ae","fixation","","","img/fixation.png","null","","","test","","","","","","","","","","","","","","","","","","","",""
"304.29999999701977","313273","SARL_v6","SARL_v6ptq8ymdy","5ce973ea6c890100012ea2ae","freq","","","img/orange_2bandit_a2.png","70","","70","test","1","","38","","","","square","circle","37","16","2","0.972972972972973","","","","","","","",""
"null","313776","SARL_v6","SARL_v6ptq8ymdy","5ce973ea6c890100012ea2ae","freq_resp","","","img/orange_2bandit_a.png","70","img/orange_2bandit_a.png","70","test","","","","","","","","","","","2","","","","","","","","",""
"null","313931","SARL_v6","SARL_v6ptq8ymdy","5ce973ea6c890100012ea2ae","fixation","","","img/fixation.png","null","","","test","","","","","","","","","","","","","","","","","","","",""
"325.20000000298023","314259","SARL_v6","SARL_v6ptq8ymdy","5ce973ea6c890100012ea2ae","freq","","","img/orange_2bandit_a2.png","70","","70","test","1","","39","","","","square","circle","38","17","2","0.9736842105263158","","","","","","","",""
"null","314745","SARL_v6","SARL_v6ptq8ymdy","5ce973ea6c890100012ea2ae","freq_resp","","","img/orange_2bandit_a.png","70","img/orange_2bandit_a.png","70","test","","","","","","","","","","","2","","","","","","","","",""
"null","314912","SARL_v6","SARL_v6ptq8ymdy","5ce973ea6c890100012ea2ae","fixation","","","img/fixation.png","null","","","test","","","","","","","","","","","","","","","","","","","",""
"330.90000000596046","315245","SARL_v6","SARL_v6ptq8ymdy","5ce973ea6c890100012ea2ae","freq","","","img/orange_2bandit_a2.png","70","","70","test","1","","40","","","","square","circle","39","18","2","0.9743589743589743","","","","","","","",""
"null","315730","SARL_v6","SARL_v6ptq8ymdy","5ce973ea6c890100012ea2ae","freq_resp","","","img/orange_2bandit_a.png","70","img/orange_2bandit_a.png","70","test","","","","","","","","","","","2","","","","","","","","",""
"null","315897","SARL_v6","SARL_v6ptq8ymdy","5ce973ea6c890100012ea2ae","fixation","","","img/fixation.png","null","","","test","","","","","","","","","","","","","","","","","","","",""
"641.2000000029802","316540","SARL_v6","SARL_v6ptq8ymdy","5ce973ea6c890100012ea2ae","infreq","","","img/blue_2bandit_a2.png","68","","68","test","1","","41","","","","square","circle","40","19","2","0.975","","","","","","","",""
"null","316713","SARL_v6","SARL_v6ptq8ymdy","5ce973ea6c890100012ea2ae","infreq_resp","","","img/blue_2bandit_a.png","68","img/blue_2bandit_a.png","68","test","","","","","","","","","","","2","","","","","","","","",""
"null","316880","SARL_v6","SARL_v6ptq8ymdy","5ce973ea6c890100012ea2ae","fixation","","","img/fixation.png","null","","","test","","","","","","","","","","","","","","","","","","","",""
"752.4000000059605","317635","SARL_v6","SARL_v6ptq8ymdy","5ce973ea6c890100012ea2ae","freq","","","img/orange_2bandit_a2.png","70","","70","test","1","","42","","","","square","circle","41","20","2","0.975609756097561","","","","","","","",""
"null","317686","SARL_v6","SARL_v6ptq8ymdy","5ce973ea6c890100012ea2ae","freq_resp","","","img/orange_2bandit_a.png","70","img/orange_2bandit_a.png","70","test","","","","","","","","","","","2","","","","","","","","",""
"null","317848","SARL_v6","SARL_v6ptq8ymdy","5ce973ea6c890100012ea2ae","fixation","","","img/fixation.png","null","","","test","","","","","","","","","","","","","","","","","","","",""
"551.7000000029802","318402","SARL_v6","SARL_v6ptq8ymdy","5ce973ea6c890100012ea2ae","freq","","","img/orange_2bandit_a2.png","70","","70","test","1","","43","","","","square","circle","42","21","2","0.9761904761904762","","","","","","","",""
"null","318659","SARL_v6","SARL_v6ptq8ymdy","5ce973ea6c890100012ea2ae","freq_resp","","","img/orange_2bandit_a.png","70","img/orange_2bandit_a.png","70","test","","","","","","","","","","","2","","","","","","","","",""
"null","318815","SARL_v6","SARL_v6ptq8ymdy","5ce973ea6c890100012ea2ae","fixation","","","img/fixation.png","null","","","test","","","","","","","","","","","","","","","","","","","",""
"543.9000000059605","319362","SARL_v6","SARL_v6ptq8ymdy","5ce973ea6c890100012ea2ae","freq","","","img/orange_2bandit_a2.png","70","","70","test","1","","44","","","","square","circle","43","22","2","0.9767441860465116","","","","","","","",""
"null","319623","SARL_v6","SARL_v6ptq8ymdy","5ce973ea6c890100012ea2ae","freq_resp","","","img/orange_2bandit_a.png","70","img/orange_2bandit_a.png","70","test","","","","","","","","","","","2","","","","","","","","",""
"null","319780","SARL_v6","SARL_v6ptq8ymdy","5ce973ea6c890100012ea2ae","fixation","","","img/fixation.png","null","","","test","","","","","","","","","","","","","","","","","","","",""
"344","320127","SARL_v6","SARL_v6ptq8ymdy","5ce973ea6c890100012ea2ae","freq","","","img/orange_2bandit_a2.png","70","","70","test","1","","45","","","","square","circle","44","23","2","0.9772727272727273","","","","","","","",""
"null","320595","SARL_v6","SARL_v6ptq8ymdy","5ce973ea6c890100012ea2ae","freq_resp","","","img/orange_2bandit_a.png","70","img/orange_2bandit_a.png","70","test","","","","","","","","","","","2","","","","","","","","",""
"null","320763","SARL_v6","SARL_v6ptq8ymdy","5ce973ea6c890100012ea2ae","fixation","","","img/fixation.png","null","","","test","","","","","","","","","","","","","","","","","","","",""
"555","321320","SARL_v6","SARL_v6ptq8ymdy","5ce973ea6c890100012ea2ae","freq","","","img/orange_2bandit_a2.png","70","","70","test","1","","46","","","","square","circle","45","24","2","0.9777777777777777","","","","","","","",""
"null","321574","SARL_v6","SARL_v6ptq8ymdy","5ce973ea6c890100012ea2ae","freq_resp","","","img/orange_2bandit_a.png","70","img/orange_2bandit_a.png","70","test","","","","","","","","","","","2","","","","","","","","",""
"null","321730","SARL_v6","SARL_v6ptq8ymdy","5ce973ea6c890100012ea2ae","fixation","","","img/fixation.png","null","","","test","","","","","","","","","","","","","","","","","","","",""
"367.80000001192093","322101","SARL_v6","SARL_v6ptq8ymdy","5ce973ea6c890100012ea2ae","freq","","","img/orange_2bandit_a2.png","70","","70","test","1","","47","","","","square","circle","46","25","2","0.9782608695652174","","","","","","","",""
"null","322547","SARL_v6","SARL_v6ptq8ymdy","5ce973ea6c890100012ea2ae","freq_resp","","","img/orange_2bandit_a.png","70","img/orange_2bandit_a.png","70","test","","","","","","","","","","","2","","","","","","","","",""
"null","322713","SARL_v6","SARL_v6ptq8ymdy","5ce973ea6c890100012ea2ae","fixation","","","img/fixation.png","null","","","test","","","","","","","","","","","","","","","","","","","",""
"626.8999999910593","323343","SARL_v6","SARL_v6ptq8ymdy","5ce973ea6c890100012ea2ae","rl","","","img/black_2bandit_a2.png","75","","0","test","","","48","","","-8","square","circle","","0","2","","75","-8","-5","-5","-8","circle","2","0"
"null","324108","SARL_v6","SARL_v6ptq8ymdy","5ce973ea6c890100012ea2ae","feedback","","","<div class=""verylowPoints""> -8 </div>","null","","na","test","","","NaN","","","","","","","","2","","75","","","","","","2",""
"null","324923","SARL_v6","SARL_v6ptq8ymdy","5ce973ea6c890100012ea2ae","freq","","","img/orange_2bandit_a2.png","null","","70","test","0","","49","","","","square","circle","47","1","3","0.9574468085106383","","","","","","","",""
"null","325080","SARL_v6","SARL_v6ptq8ymdy","5ce973ea6c890100012ea2ae","fixation","","","img/fixation.png","null","","","test","","","","","","","","","","","","","","","","","","","",""
"76.19999998807907","325159","SARL_v6","SARL_v6ptq8ymdy","5ce973ea6c890100012ea2ae","freq","","","img/orange_2bandit_a2.png","70","","70","test","1","","50","","","","square","circle","48","2","3","0.9583333333333334","","","","","","","",""
"null","325894","SARL_v6","SARL_v6ptq8ymdy","5ce973ea6c890100012ea2ae","freq_resp","","","img/orange_2bandit_a.png","70","img/orange_2bandit_a.png","70","test","","","","","","","","","","","3","","","","","","","","",""
"null","326063","SARL_v6","SARL_v6ptq8ymdy","5ce973ea6c890100012ea2ae","fixation","","","img/fixation.png","null","","","test","","","","","","","","","","","","","","","","","","","",""
"657.3999999910593","326724","SARL_v6","SARL_v6ptq8ymdy","5ce973ea6c890100012ea2ae","freq","","","img/orange_2bandit_a2.png","70","","70","test","1","","51","","","","square","circle","49","3","3","0.9591836734693877","","","","","","","",""
"null","326880","SARL_v6","SARL_v6ptq8ymdy","5ce973ea6c890100012ea2ae","freq_resp","","","img/orange_2bandit_a.png","70","img/orange_2bandit_a.png","70","test","","","","","","","","","","","3","","","","","","","","",""
"null","327045","SARL_v6","SARL_v6ptq8ymdy","5ce973ea6c890100012ea2ae","fixation","","","img/fixation.png","null","","","test","","","","","","","","","","","","","","","","","","","",""
"638","327685","SARL_v6","SARL_v6ptq8ymdy","5ce973ea6c890100012ea2ae","freq","","","img/orange_2bandit_a2.png","70","","70","test","1","","52","","","","square","circle","50","4","3","0.96","","","","","","","",""
"null","327864","SARL_v6","SARL_v6ptq8ymdy","5ce973ea6c890100012ea2ae","freq_resp","","","img/orange_2bandit_a.png","70","img/orange_2bandit_a.png","70","test","","","","","","","","","","","3","","","","","","","","",""
"null","328028","SARL_v6","SARL_v6ptq8ymdy","5ce973ea6c890100012ea2ae","fixation","","","img/fixation.png","null","","","test","","","","","","","","","","","","","","","","","","","",""
"589.3999999910593","328620","SARL_v6","SARL_v6ptq8ymdy","5ce973ea6c890100012ea2ae","infreq","","","img/blue_2bandit_a2.png","68","","68","test","1","","53","","","","square","circle","51","5","3","0.9607843137254902","","","","","","","",""
"null","328843","SARL_v6","SARL_v6ptq8ymdy","5ce973ea6c890100012ea2ae","infreq_resp","","","img/blue_2bandit_a.png","68","img/blue_2bandit_a.png","68","test","","","","","","","","","","","3","","","","","","","","",""
"null","328997","SARL_v6","SARL_v6ptq8ymdy","5ce973ea6c890100012ea2ae","fixation","","","img/fixation.png","null","","","test","","","","","","","","","","","","","","","","","","","",""
"424.29999999701977","329424","SARL_v6","SARL_v6ptq8ymdy","5ce973ea6c890100012ea2ae","freq","","","img/orange_2bandit_a2.png","70","","70","test","1","","54","","","","square","circle","52","6","3","0.9615384615384616","","","","","","","",""
"null","329815","SARL_v6","SARL_v6ptq8ymdy","5ce973ea6c890100012ea2ae","freq_resp","","","img/orange_2bandit_a.png","70","img/orange_2bandit_a.png","70","test","","","","","","","","","","","3","","","","","","","","",""
"null","329979","SARL_v6","SARL_v6ptq8ymdy","5ce973ea6c890100012ea2ae","fixation","","","img/fixation.png","null","","","test","","","","","","","","","","","","","","","","","","","",""
"449.59999999403954","330431","SARL_v6","SARL_v6ptq8ymdy","5ce973ea6c890100012ea2ae","freq","","","img/orange_2bandit_a2.png","70","","70","test","1","","55","","","","square","circle","53","7","3","0.9622641509433962","","","","","","","",""
"null","330800","SARL_v6","SARL_v6ptq8ymdy","5ce973ea6c890100012ea2ae","freq_resp","","","img/orange_2bandit_a.png","70","img/orange_2bandit_a.png","70","test","","","","","","","","","","","3","","","","","","","","",""
"null","330964","SARL_v6","SARL_v6ptq8ymdy","5ce973ea6c890100012ea2ae","fixation","","","img/fixation.png","null","","","test","","","","","","","","","","","","","","","","","","","",""
"546.1000000089407","331512","SARL_v6","SARL_v6ptq8ymdy","5ce973ea6c890100012ea2ae","freq","","","img/orange_2bandit_a2.png","70","","70","test","1","","56","","","","square","circle","54","8","3","0.9629629629629629","","","","","","","",""
"null","331772","SARL_v6","SARL_v6ptq8ymdy","5ce973ea6c890100012ea2ae","freq_resp","","","img/orange_2bandit_a.png","70","img/orange_2bandit_a.png","70","test","","","","","","","","","","","3","","","","","","","","",""
"null","331930","SARL_v6","SARL_v6ptq8ymdy","5ce973ea6c890100012ea2ae","fixation","","","img/fixation.png","null","","","test","","","","","","","","","","","","","","","","","","","",""
"411.20000000298023","332344","SARL_v6","SARL_v6ptq8ymdy","5ce973ea6c890100012ea2ae","freq","","","img/orange_2bandit_a2.png","70","","70","test","1","","57","","","","square","circle","55","9","3","0.9636363636363636","","","","","","","",""
"null","332748","SARL_v6","SARL_v6ptq8ymdy","5ce973ea6c890100012ea2ae","freq_resp","","","img/orange_2bandit_a.png","70","img/orange_2bandit_a.png","70","test","","","","","","","","","","","3","","","","","","","","",""
"null","332912","SARL_v6","SARL_v6ptq8ymdy","5ce973ea6c890100012ea2ae","fixation","","","img/fixation.png","null","","","test","","","","","","","","","","","","","","","","","","","",""
"360.70000000298023","333276","SARL_v6","SARL_v6ptq8ymdy","5ce973ea6c890100012ea2ae","freq","","","img/orange_2bandit_a2.png","70","","70","test","1","","58","","","","square","circle","56","10","3","0.9642857142857143","","","","","","","",""
"null","333728","SARL_v6","SARL_v6ptq8ymdy","5ce973ea6c890100012ea2ae","freq_resp","","","img/orange_2bandit_a.png","70","img/orange_2bandit_a.png","70","test","","","","","","","","","","","3","","","","","","","","",""
"null","333895","SARL_v6","SARL_v6ptq8ymdy","5ce973ea6c890100012ea2ae","fixation","","","img/fixation.png","null","","","test","","","","","","","","","","","","","","","","","","","",""
"626.1999999880791","334523","SARL_v6","SARL_v6ptq8ymdy","5ce973ea6c890100012ea2ae","infreq","","","img/blue_2bandit_a2.png","68","","68","test","1","","59","","","","square","circle","57","11","3","0.9649122807017544","","","","","","","",""
"null","334711","SARL_v6","SARL_v6ptq8ymdy","5ce973ea6c890100012ea2ae","infreq_resp","","","img/blue_2bandit_a.png","68","img/blue_2bandit_a.png","68","test","","","","","","","","","","","3","","","","","","","","",""
"null","334880","SARL_v6","SARL_v6ptq8ymdy","5ce973ea6c890100012ea2ae","fixation","","","img/fixation.png","null","","","test","","","","","","","","","","","","","","","","","","","",""
"555.8000000119209","335438","SARL_v6","SARL_v6ptq8ymdy","5ce973ea6c890100012ea2ae","freq","","","img/orange_2bandit_a2.png","70","","70","test","1","","60","","","","square","circle","58","12","3","0.9655172413793104","","","","","","","",""
"null","335692","SARL_v6","SARL_v6ptq8ymdy","5ce973ea6c890100012ea2ae","freq_resp","","","img/orange_2bandit_a.png","70","img/orange_2bandit_a.png","70","test","","","","","","","","","","","3","","","","","","","","",""
"null","335847","SARL_v6","SARL_v6ptq8ymdy","5ce973ea6c890100012ea2ae","fixation","","","img/fixation.png","null","","","test","","","","","","","","","","","","","","","","","","","",""
"414.80000001192093","336264","SARL_v6","SARL_v6ptq8ymdy","5ce973ea6c890100012ea2ae","freq","","","img/orange_2bandit_a2.png","70","","70","test","1","","61","","","","square","circle","59","13","3","0.9661016949152542","","","","","","","",""
"null","336664","SARL_v6","SARL_v6ptq8ymdy","5ce973ea6c890100012ea2ae","freq_resp","","","img/orange_2bandit_a.png","70","img/orange_2bandit_a.png","70","test","","","","","","","","","","","3","","","","","","","","",""
"null","336830","SARL_v6","SARL_v6ptq8ymdy","5ce973ea6c890100012ea2ae","fixation","","","img/fixation.png","null","","","test","","","","","","","","","","","","","","","","","","","",""
"353.20000000298023","337185","SARL_v6","SARL_v6ptq8ymdy","5ce973ea6c890100012ea2ae","freq","","","img/orange_2bandit_a2.png","70","","70","test","1","","62","","","","square","circle","60","14","3","0.9666666666666667","","","","","","","",""
"null","337646","SARL_v6","SARL_v6ptq8ymdy","5ce973ea6c890100012ea2ae","freq_resp","","","img/orange_2bandit_a.png","70","img/orange_2bandit_a.png","70","test","","","","","","","","","","","3","","","","","","","","",""
"null","337812","SARL_v6","SARL_v6ptq8ymdy","5ce973ea6c890100012ea2ae","fixation","","","img/fixation.png","null","","","test","","","","","","","","","","","","","","","","","","","",""
"405","338219","SARL_v6","SARL_v6ptq8ymdy","5ce973ea6c890100012ea2ae","freq","","","img/orange_2bandit_a2.png","70","","70","test","1","","63","","","","square","circle","61","15","3","0.9672131147540983","","","","","","","",""
"null","338630","SARL_v6","SARL_v6ptq8ymdy","5ce973ea6c890100012ea2ae","freq_resp","","","img/orange_2bandit_a.png","70","img/orange_2bandit_a.png","70","test","","","","","","","","","","","3","","","","","","","","",""
"null","338796","SARL_v6","SARL_v6ptq8ymdy","5ce973ea6c890100012ea2ae","fixation","","","img/fixation.png","null","","","test","","","","","","","","","","","","","","","","","","","",""
"312.79999999701977","339111","SARL_v6","SARL_v6ptq8ymdy","5ce973ea6c890100012ea2ae","freq","","","img/orange_2bandit_a2.png","70","","70","test","1","","64","","","","square","circle","62","16","3","0.967741935483871","","","","","","","",""
"null","339608","SARL_v6","SARL_v6ptq8ymdy","5ce973ea6c890100012ea2ae","freq_resp","","","img/orange_2bandit_a.png","70","img/orange_2bandit_a.png","70","test","","","","","","","","","","","3","","","","","","","","",""
"null","339764","SARL_v6","SARL_v6ptq8ymdy","5ce973ea6c890100012ea2ae","fixation","","","img/fixation.png","null","","","test","","","","","","","","","","","","","","","","","","","",""
"316.79999999701977","340084","SARL_v6","SARL_v6ptq8ymdy","5ce973ea6c890100012ea2ae","freq","","","img/orange_2bandit_a2.png","70","","70","test","1","","65","","","","square","circle","63","17","3","0.9682539682539683","","","","","","","",""
"null","340576","SARL_v6","SARL_v6ptq8ymdy","5ce973ea6c890100012ea2ae","freq_resp","","","img/orange_2bandit_a.png","70","img/orange_2bandit_a.png","70","test","","","","","","","","","","","3","","","","","","","","",""
"null","340731","SARL_v6","SARL_v6ptq8ymdy","5ce973ea6c890100012ea2ae","fixation","","","img/fixation.png","null","","","test","","","","","","","","","","","","","","","","","","","",""
"389.8999999910593","341123","SARL_v6","SARL_v6ptq8ymdy","5ce973ea6c890100012ea2ae","freq","","","img/orange_2bandit_a2.png","70","","70","test","1","","66","","","","square","circle","64","18","3","0.96875","","","","","","","",""
"null","341546","SARL_v6","SARL_v6ptq8ymdy","5ce973ea6c890100012ea2ae","freq_resp","","","img/orange_2bandit_a.png","70","img/orange_2bandit_a.png","70","test","","","","","","","","","","","3","","","","","","","","",""
"null","341712","SARL_v6","SARL_v6ptq8ymdy","5ce973ea6c890100012ea2ae","fixation","","","img/fixation.png","null","","","test","","","","","","","","","","","","","","","","","","","",""
"390","342104","SARL_v6","SARL_v6ptq8ymdy","5ce973ea6c890100012ea2ae","freq","","","img/orange_2bandit_a2.png","70","","70","test","1","","67","","","","square","circle","65","19","3","0.9692307692307692","","","","","","","",""
"null","342531","SARL_v6","SARL_v6ptq8ymdy","5ce973ea6c890100012ea2ae","freq_resp","","","img/orange_2bandit_a.png","70","img/orange_2bandit_a.png","70","test","","","","","","","","","","","3","","","","","","","","",""
"null","342695","SARL_v6","SARL_v6ptq8ymdy","5ce973ea6c890100012ea2ae","fixation","","","img/fixation.png","null","","","test","","","","","","","","","","","","","","","","","","","",""
"383.1000000089407","343081","SARL_v6","SARL_v6ptq8ymdy","5ce973ea6c890100012ea2ae","freq","","","img/orange_2bandit_a2.png","70","","70","test","1","","68","","","","square","circle","66","20","3","0.9696969696969697","","","","","","","",""
"null","343513","SARL_v6","SARL_v6ptq8ymdy","5ce973ea6c890100012ea2ae","freq_resp","","","img/orange_2bandit_a.png","70","img/orange_2bandit_a.png","70","test","","","","","","","","","","","3","","","","","","","","",""
"null","343679","SARL_v6","SARL_v6ptq8ymdy","5ce973ea6c890100012ea2ae","fixation","","","img/fixation.png","null","","","test","","","","","","","","","","","","","","","","","","","",""
"652.0999999940395","344333","SARL_v6","SARL_v6ptq8ymdy","5ce973ea6c890100012ea2ae","rl","","","img/black_2bandit_a2.png","75","","0","test","","","69","","","-8","square","circle","","0","3","","75","-8","-4","-4","-8","circle","3","0"
"null","345093","SARL_v6","SARL_v6ptq8ymdy","5ce973ea6c890100012ea2ae","feedback","","","<div class=""verylowPoints""> -8 </div>","null","","na","test","","","NaN","","","","","","","","3","","75","","","","","","3",""
"null","345907","SARL_v6","SARL_v6ptq8ymdy","5ce973ea6c890100012ea2ae","freq","","","img/orange_2bandit_a2.png","null","","70","test","0","","70","","","","square","circle","67","1","4","0.9552238805970149","","","","","","","",""
"null","346065","SARL_v6","SARL_v6ptq8ymdy","5ce973ea6c890100012ea2ae","fixation","","","img/fixation.png","null","","","test","","","","","","","","","","","","","","","","","","","",""
"586.7999999970198","346654","SARL_v6","SARL_v6ptq8ymdy","5ce973ea6c890100012ea2ae","freq","","","img/orange_2bandit_a2.png","70","","70","test","1","","71","","","","square","circle","68","2","4","0.9558823529411765","","","","","","","",""
"null","346876","SARL_v6","SARL_v6ptq8ymdy","5ce973ea6c890100012ea2ae","freq_resp","","","img/orange_2bandit_a.png","70","img/orange_2bandit_a.png","70","test","","","","","","","","","","","4","","","","","","","","",""
"null","347029","SARL_v6","SARL_v6ptq8ymdy","5ce973ea6c890100012ea2ae","fixation","","","img/fixation.png","null","","","test","","","","","","","","","","","","","","","","","","","",""
"415.5","347447","SARL_v6","SARL_v6ptq8ymdy","5ce973ea6c890100012ea2ae","freq","","","img/orange_2bandit_a2.png","70","","70","test","1","","72","","","","square","circle","69","3","4","0.9565217391304348","","","","","","","",""
"null","347847","SARL_v6","SARL_v6ptq8ymdy","5ce973ea6c890100012ea2ae","freq_resp","","","img/orange_2bandit_a.png","70","img/orange_2bandit_a.png","70","test","","","","","","","","","","","4","","","","","","","","",""
"null","348011","SARL_v6","SARL_v6ptq8ymdy","5ce973ea6c890100012ea2ae","fixation","","","img/fixation.png","null","","","test","","","","","","","","","","","","","","","","","","","",""
"315","348329","SARL_v6","SARL_v6ptq8ymdy","5ce973ea6c890100012ea2ae","freq","","","img/orange_2bandit_a2.png","70","","70","test","1","","73","","","","square","circle","70","4","4","0.9571428571428572","","","","","","","",""
"null","348823","SARL_v6","SARL_v6ptq8ymdy","5ce973ea6c890100012ea2ae","freq_resp","","","img/orange_2bandit_a.png","70","img/orange_2bandit_a.png","70","test","","","","","","","","","","","4","","","","","","","","",""
"null","348980","SARL_v6","SARL_v6ptq8ymdy","5ce973ea6c890100012ea2ae","fixation","","","img/fixation.png","null","","","test","","","","","","","","","","","","","","","","","","","",""
"383.1000000089407","349366","SARL_v6","SARL_v6ptq8ymdy","5ce973ea6c890100012ea2ae","freq","","","img/orange_2bandit_a2.png","70","","70","test","1","","74","","","","square","circle","71","5","4","0.9577464788732394","","","","","","","",""
"null","349796","SARL_v6","SARL_v6ptq8ymdy","5ce973ea6c890100012ea2ae","freq_resp","","","img/orange_2bandit_a.png","70","img/orange_2bandit_a.png","70","test","","","","","","","","","","","4","","","","","","","","",""
"null","349962","SARL_v6","SARL_v6ptq8ymdy","5ce973ea6c890100012ea2ae","fixation","","","img/fixation.png","null","","","test","","","","","","","","","","","","","","","","","","","",""
"337.19999998807907","350301","SARL_v6","SARL_v6ptq8ymdy","5ce973ea6c890100012ea2ae","freq","","","img/orange_2bandit_a2.png","70","","70","test","1","","75","","","","square","circle","72","6","4","0.9583333333333334","","","","","","","",""
"null","350780","SARL_v6","SARL_v6ptq8ymdy","5ce973ea6c890100012ea2ae","freq_resp","","","img/orange_2bandit_a.png","70","img/orange_2bandit_a.png","70","test","","","","","","","","","","","4","","","","","","","","",""
"null","350944","SARL_v6","SARL_v6ptq8ymdy","5ce973ea6c890100012ea2ae","fixation","","","img/fixation.png","null","","","test","","","","","","","","","","","","","","","","","","","",""
"559.0999999940395","351506","SARL_v6","SARL_v6ptq8ymdy","5ce973ea6c890100012ea2ae","infreq","","","img/blue_2bandit_a2.png","68","","68","test","1","","76","","","","square","circle","73","7","4","0.958904109589041","","","","","","","",""
"null","351758","SARL_v6","SARL_v6ptq8ymdy","5ce973ea6c890100012ea2ae","infreq_resp","","","img/blue_2bandit_a.png","68","img/blue_2bandit_a.png","68","test","","","","","","","","","","","4","","","","","","","","",""
"null","351913","SARL_v6","SARL_v6ptq8ymdy","5ce973ea6c890100012ea2ae","fixation","","","img/fixation.png","null","","","test","","","","","","","","","","","","","","","","","","","",""
"null","352723","SARL_v6","SARL_v6ptq8ymdy","5ce973ea6c890100012ea2ae","freq","","","img/orange_2bandit_a2.png","null","","70","test","0","","77","","","","square","circle","74","8","4","0.9459459459459459","","","","","","","",""
"null","352881","SARL_v6","SARL_v6ptq8ymdy","5ce973ea6c890100012ea2ae","fixation","","","img/fixation.png","null","","","test","","","","","","","","","","","","","","","","","","","",""
"608","353491","SARL_v6","SARL_v6ptq8ymdy","5ce973ea6c890100012ea2ae","freq","","","img/orange_2bandit_a2.png","70","","70","test","1","","78","","","","square","circle","75","9","4","0.9466666666666667","","","","","","","",""
"null","353692","SARL_v6","SARL_v6ptq8ymdy","5ce973ea6c890100012ea2ae","freq_resp","","","img/orange_2bandit_a.png","70","img/orange_2bandit_a.png","70","test","","","","","","","","","","","4","","","","","","","","",""
"null","353847","SARL_v6","SARL_v6ptq8ymdy","5ce973ea6c890100012ea2ae","fixation","","","img/fixation.png","null","","","test","","","","","","","","","","","","","","","","","","","",""
"503.29999999701977","354353","SARL_v6","SARL_v6ptq8ymdy","5ce973ea6c890100012ea2ae","freq","","","img/orange_2bandit_a2.png","70","","70","test","1","","79","","","","square","circle","76","10","4","0.9473684210526315","","","","","","","",""
"null","354655","SARL_v6","SARL_v6ptq8ymdy","5ce973ea6c890100012ea2ae","freq_resp","","","img/orange_2bandit_a.png","70","img/orange_2bandit_a.png","70","test","","","","","","","","","","","4","","","","","","","","",""
"null","354814","SARL_v6","SARL_v6ptq8ymdy","5ce973ea6c890100012ea2ae","fixation","","","img/fixation.png","null","","","test","","","","","","","","","","","","","","","","","","","",""
"342.90000000596046","355159","SARL_v6","SARL_v6ptq8ymdy","5ce973ea6c890100012ea2ae","freq","","","img/orange_2bandit_a2.png","70","","70","test","1","","80","","","","square","circle","77","11","4","0.948051948051948","","","","","","","",""
"null","355628","SARL_v6","SARL_v6ptq8ymdy","5ce973ea6c890100012ea2ae","freq_resp","","","img/orange_2bandit_a.png","70","img/orange_2bandit_a.png","70","test","","","","","","","","","","","4","","","","","","","","",""
"null","355795","SARL_v6","SARL_v6ptq8ymdy","5ce973ea6c890100012ea2ae","fixation","","","img/fixation.png","null","","","test","","","","","","","","","","","","","","","","","","","",""
"356.1000000089407","356153","SARL_v6","SARL_v6ptq8ymdy","5ce973ea6c890100012ea2ae","freq","","","img/orange_2bandit_a2.png","70","","70","test","1","","81","","","","square","circle","78","12","4","0.9487179487179487","","","","","","","",""
"null","356613","SARL_v6","SARL_v6ptq8ymdy","5ce973ea6c890100012ea2ae","freq_resp","","","img/orange_2bandit_a.png","70","img/orange_2bandit_a.png","70","test","","","","","","","","","","","4","","","","","","","","",""
"null","356779","SARL_v6","SARL_v6ptq8ymdy","5ce973ea6c890100012ea2ae","fixation","","","img/fixation.png","null","","","test","","","","","","","","","","","","","","","","","","","",""
"318","357099","SARL_v6","SARL_v6ptq8ymdy","5ce973ea6c890100012ea2ae","freq","","","img/orange_2bandit_a2.png","70","","70","test","1","","82","","","","square","circle","79","13","4","0.9493670886075949","","","","","","","",""
"null","357592","SARL_v6","SARL_v6ptq8ymdy","5ce973ea6c890100012ea2ae","freq_resp","","","img/orange_2bandit_a.png","70","img/orange_2bandit_a.png","70","test","","","","","","","","","","","4","","","","","","","","",""
"null","357747","SARL_v6","SARL_v6ptq8ymdy","5ce973ea6c890100012ea2ae","fixation","","","img/fixation.png","null","","","test","","","","","","","","","","","","","","","","","","","",""
"622.2000000029802","358371","SARL_v6","SARL_v6ptq8ymdy","5ce973ea6c890100012ea2ae","infreq","","","img/blue_2bandit_a2.png","68","","68","test","1","","83","","","","square","circle","80","14","4","0.95","","","","","","","",""
"null","358563","SARL_v6","SARL_v6ptq8ymdy","5ce973ea6c890100012ea2ae","infreq_resp","","","img/blue_2bandit_a.png","68","img/blue_2bandit_a.png","68","test","","","","","","","","","","","4","","","","","","","","",""
"null","358729","SARL_v6","SARL_v6ptq8ymdy","5ce973ea6c890100012ea2ae","fixation","","","img/fixation.png","null","","","test","","","","","","","","","","","","","","","","","","","",""
"571.5","359302","SARL_v6","SARL_v6ptq8ymdy","5ce973ea6c890100012ea2ae","freq","","","img/orange_2bandit_a2.png","70","","70","test","1","","84","","","","square","circle","81","15","4","0.9506172839506173","","","","","","","",""
"null","359542","SARL_v6","SARL_v6ptq8ymdy","5ce973ea6c890100012ea2ae","freq_resp","","","img/orange_2bandit_a.png","70","img/orange_2bandit_a.png","70","test","","","","","","","","","","","4","","","","","","","","",""
"null","359696","SARL_v6","SARL_v6ptq8ymdy","5ce973ea6c890100012ea2ae","fixation","","","img/fixation.png","null","","","test","","","","","","","","","","","","","","","","","","","",""
"461.70000000298023","360161","SARL_v6","SARL_v6ptq8ymdy","5ce973ea6c890100012ea2ae","freq","","","img/orange_2bandit_a2.png","70","","70","test","1","","85","","","","square","circle","82","16","4","0.9512195121951219","","","","","","","",""
"null","360507","SARL_v6","SARL_v6ptq8ymdy","5ce973ea6c890100012ea2ae","freq_resp","","","img/orange_2bandit_a.png","70","img/orange_2bandit_a.png","70","test","","","","","","","","","","","4","","","","","","","","",""
"null","360663","SARL_v6","SARL_v6ptq8ymdy","5ce973ea6c890100012ea2ae","fixation","","","img/fixation.png","null","","","test","","","","","","","","","","","","","","","","","","","",""
"330.20000000298023","360996","SARL_v6","SARL_v6ptq8ymdy","5ce973ea6c890100012ea2ae","freq","","","img/orange_2bandit_a2.png","70","","70","test","1","","86","","","","square","circle","83","17","4","0.9518072289156626","","","","","","","",""
"null","361476","SARL_v6","SARL_v6ptq8ymdy","5ce973ea6c890100012ea2ae","freq_resp","","","img/orange_2bandit_a.png","70","img/orange_2bandit_a.png","70","test","","","","","","","","","","","4","","","","","","","","",""
"null","361630","SARL_v6","SARL_v6ptq8ymdy","5ce973ea6c890100012ea2ae","fixation","","","img/fixation.png","null","","","test","","","","","","","","","","","","","","","","","","","",""
"346.90000000596046","361980","SARL_v6","SARL_v6ptq8ymdy","5ce973ea6c890100012ea2ae","freq","","","img/orange_2bandit_a2.png","70","","70","test","1","","87","","","","square","circle","84","18","4","0.9523809523809523","","","","","","","",""
"null","362444","SARL_v6","SARL_v6ptq8ymdy","5ce973ea6c890100012ea2ae","freq_resp","","","img/orange_2bandit_a.png","70","img/orange_2bandit_a.png","70","test","","","","","","","","","","","4","","","","","","","","",""
"null","362598","SARL_v6","SARL_v6ptq8ymdy","5ce973ea6c890100012ea2ae","fixation","","","img/fixation.png","null","","","test","","","","","","","","","","","","","","","","","","","",""
"314.20000000298023","362915","SARL_v6","SARL_v6ptq8ymdy","5ce973ea6c890100012ea2ae","freq","","","img/orange_2bandit_a2.png","70","","70","test","1","","88","","","","square","circle","85","19","4","0.9529411764705882","","","","","","","",""
"null","363409","SARL_v6","SARL_v6ptq8ymdy","5ce973ea6c890100012ea2ae","freq_resp","","","img/orange_2bandit_a.png","70","img/orange_2bandit_a.png","70","test","","","","","","","","","","","4","","","","","","","","",""
"null","363565","SARL_v6","SARL_v6ptq8ymdy","5ce973ea6c890100012ea2ae","fixation","","","img/fixation.png","null","","","test","","","","","","","","","","","","","","","","","","","",""
"315.20000000298023","363883","SARL_v6","SARL_v6ptq8ymdy","5ce973ea6c890100012ea2ae","freq","","","img/orange_2bandit_a2.png","70","","70","test","1","","89","","","","square","circle","86","20","4","0.9534883720930233","","","","","","","",""
"null","364376","SARL_v6","SARL_v6ptq8ymdy","5ce973ea6c890100012ea2ae","freq_resp","","","img/orange_2bandit_a.png","70","img/orange_2bandit_a.png","70","test","","","","","","","","","","","4","","","","","","","","",""
"null","364546","SARL_v6","SARL_v6ptq8ymdy","5ce973ea6c890100012ea2ae","fixation","","","img/fixation.png","null","","","test","","","","","","","","","","","","","","","","","","","",""
"null","366062","SARL_v6","SARL_v6ptq8ymdy","5ce973ea6c890100012ea2ae","rl","","","img/black_2bandit_a2.png","null","","0","test","","","90","","","0","square","circle","","0","4","","null","-12","0","0","-12","too slow","4","0"
"null","366827","SARL_v6","SARL_v6ptq8ymdy","5ce973ea6c890100012ea2ae","feedback","","","<div font size = 80> TOO SLOW  </div>","null","","na","test","","","NaN","","","","","","","","4","","null","","","","","","4",""
"null","367639","SARL_v6","SARL_v6ptq8ymdy","5ce973ea6c890100012ea2ae","freq","","","img/orange_2bandit_a2.png","null","","70","test","0","","91","","","","square","circle","87","1","5","0.9425287356321839","","","","","","","",""
"null","367796","SARL_v6","SARL_v6ptq8ymdy","5ce973ea6c890100012ea2ae","fixation","","","img/fixation.png","null","","","test","","","","","","","","","","","","","","","","","","","",""
"704.5","368503","SARL_v6","SARL_v6ptq8ymdy","5ce973ea6c890100012ea2ae","freq","","","img/orange_2bandit_a2.png","70","","70","test","1","","92","","","","square","circle","88","2","5","0.9431818181818182","","","","","","","",""
"null","368602","SARL_v6","SARL_v6ptq8ymdy","5ce973ea6c890100012ea2ae","freq_resp","","","img/orange_2bandit_a.png","70","img/orange_2bandit_a.png","70","test","","","","","","","","","","","5","","","","","","","","",""
"null","368764","SARL_v6","SARL_v6ptq8ymdy","5ce973ea6c890100012ea2ae","fixation","","","img/fixation.png","null","","","test","","","","","","","","","","","","","","","","","","","",""
"null","369571","SARL_v6","SARL_v6ptq8ymdy","5ce973ea6c890100012ea2ae","freq","","","img/orange_2bandit_a2.png","null","","70","test","0","","93","","","","square","circle","89","3","5","0.9325842696629213","","","","","","","",""
"null","369729","SARL_v6","SARL_v6ptq8ymdy","5ce973ea6c890100012ea2ae","fixation","","","img/fixation.png","null","","","test","","","","","","","","","","","","","","","","","","","",""
"56.8999999910593","369788","SARL_v6","SARL_v6ptq8ymdy","5ce973ea6c890100012ea2ae","infreq","","","img/blue_2bandit_a2.png","70","","68","test","0","","94","","","","square","circle","90","4","5","0.9222222222222223","","","","","","","",""
"null","370543","SARL_v6","SARL_v6ptq8ymdy","5ce973ea6c890100012ea2ae","infreq_resp","","","img/blue_2bandit_a.png","70","img/blue_2bandit_a.png","68","test","","","","","","","","","","","5","","","","","","","","",""
"null","370697","SARL_v6","SARL_v6ptq8ymdy","5ce973ea6c890100012ea2ae","fixation","","","img/fixation.png","null","","","test","","","","","","","","","","","","","","","","","","","",""
"458.3999999910593","371158","SARL_v6","SARL_v6ptq8ymdy","5ce973ea6c890100012ea2ae","freq","","","img/orange_2bandit_a2.png","70","","70","test","1","","95","","","","square","circle","91","5","5","0.9230769230769231","","","","","","","",""
"null","371517","SARL_v6","SARL_v6ptq8ymdy","5ce973ea6c890100012ea2ae","freq_resp","","","img/orange_2bandit_a.png","70","img/orange_2bandit_a.png","70","test","","","","","","","","","","","5","","","","","","","","",""
"null","371680","SARL_v6","SARL_v6ptq8ymdy","5ce973ea6c890100012ea2ae","fixation","","","img/fixation.png","null","","","test","","","","","","","","","","","","","","","","","","","",""
"520.5","372204","SARL_v6","SARL_v6ptq8ymdy","5ce973ea6c890100012ea2ae","freq","","","img/orange_2bandit_a2.png","70","","70","test","1","","96","","","","square","circle","92","6","5","0.9239130434782609","","","","","","","",""
"null","372487","SARL_v6","SARL_v6ptq8ymdy","5ce973ea6c890100012ea2ae","freq_resp","","","img/orange_2bandit_a.png","70","img/orange_2bandit_a.png","70","test","","","","","","","","","","","5","","","","","","","","",""
"null","372646","SARL_v6","SARL_v6ptq8ymdy","5ce973ea6c890100012ea2ae","fixation","","","img/fixation.png","null","","","test","","","","","","","","","","","","","","","","","","","",""
"306.3999999910593","372954","SARL_v6","SARL_v6ptq8ymdy","5ce973ea6c890100012ea2ae","freq","","","img/orange_2bandit_a2.png","70","","70","test","1","","97","","","","square","circle","93","7","5","0.9247311827956989","","","","","","","",""
"null","373458","SARL_v6","SARL_v6ptq8ymdy","5ce973ea6c890100012ea2ae","freq_resp","","","img/orange_2bandit_a.png","70","img/orange_2bandit_a.png","70","test","","","","","","","","","","","5","","","","","","","","",""
"null","373612","SARL_v6","SARL_v6ptq8ymdy","5ce973ea6c890100012ea2ae","fixation","","","img/fixation.png","null","","","test","","","","","","","","","","","","","","","","","","","",""
"290.59999999403954","373905","SARL_v6","SARL_v6ptq8ymdy","5ce973ea6c890100012ea2ae","freq","","","img/orange_2bandit_a2.png","70","","70","test","1","","98","","","","square","circle","94","8","5","0.925531914893617","","","","","","","",""
"null","374424","SARL_v6","SARL_v6ptq8ymdy","5ce973ea6c890100012ea2ae","freq_resp","","","img/orange_2bandit_a.png","70","img/orange_2bandit_a.png","70","test","","","","","","","","","","","5","","","","","","","","",""
"null","374581","SARL_v6","SARL_v6ptq8ymdy","5ce973ea6c890100012ea2ae","fixation","","","img/fixation.png","null","","","test","","","","","","","","","","","","","","","","","","","",""
"302.5","374886","SARL_v6","SARL_v6ptq8ymdy","5ce973ea6c890100012ea2ae","freq","","","img/orange_2bandit_a2.png","70","","70","test","1","","99","","","","square","circle","95","9","5","0.9263157894736842","","","","","","","",""
"null","375392","SARL_v6","SARL_v6ptq8ymdy","5ce973ea6c890100012ea2ae","freq_resp","","","img/orange_2bandit_a.png","70","img/orange_2bandit_a.png","70","test","","","","","","","","","","","5","","","","","","","","",""
"null","375548","SARL_v6","SARL_v6ptq8ymdy","5ce973ea6c890100012ea2ae","fixation","","","img/fixation.png","null","","","test","","","","","","","","","","","","","","","","","","","",""
"246.09999999403954","375796","SARL_v6","SARL_v6ptq8ymdy","5ce973ea6c890100012ea2ae","freq","","","img/orange_2bandit_a2.png","70","","70","test","1","","100","","","","square","circle","96","10","5","0.9270833333333334","","","","","","","",""
"null","376354","SARL_v6","SARL_v6ptq8ymdy","5ce973ea6c890100012ea2ae","freq_resp","","","img/orange_2bandit_a.png","70","img/orange_2bandit_a.png","70","test","","","","","","","","","","","5","","","","","","","","",""
"null","376513","SARL_v6","SARL_v6ptq8ymdy","5ce973ea6c890100012ea2ae","fixation","","","img/fixation.png","null","","","test","","","","","","","","","","","","","","","","","","","",""
"294.30000001192093","376809","SARL_v6","SARL_v6ptq8ymdy","5ce973ea6c890100012ea2ae","freq","","","img/orange_2bandit_a2.png","70","","70","test","1","","101","","","","square","circle","97","11","5","0.9278350515463918","","","","","","","",""
"null","377324","SARL_v6","SARL_v6ptq8ymdy","5ce973ea6c890100012ea2ae","freq_resp","","","img/orange_2bandit_a.png","70","img/orange_2bandit_a.png","70","test","","","","","","","","","","","5","","","","","","","","",""
"null","377481","SARL_v6","SARL_v6ptq8ymdy","5ce973ea6c890100012ea2ae","fixation","","","img/fixation.png","null","","","test","","","","","","","","","","","","","","","","","","","",""
"657.5999999940395","378140","SARL_v6","SARL_v6ptq8ymdy","5ce973ea6c890100012ea2ae","infreq","","","img/blue_2bandit_a2.png","68","","68","test","1","","102","","","","square","circle","98","12","5","0.9285714285714286","","","","","","","",""
"null","378296","SARL_v6","SARL_v6ptq8ymdy","5ce973ea6c890100012ea2ae","infreq_resp","","","img/blue_2bandit_a.png","68","img/blue_2bandit_a.png","68","test","","","","","","","","","","","5","","","","","","","","",""
"null","378461","SARL_v6","SARL_v6ptq8ymdy","5ce973ea6c890100012ea2ae","fixation","","","img/fixation.png","null","","","test","","","","","","","","","","","","","","","","","","","",""
"543","379006","SARL_v6","SARL_v6ptq8ymdy","5ce973ea6c890100012ea2ae","freq","","","img/orange_2bandit_a2.png","70","","70","test","1","","103","","","","square","circle","99","13","5","0.9292929292929293","","","","","","","",""
"null","379273","SARL_v6","SARL_v6ptq8ymdy","5ce973ea6c890100012ea2ae","freq_resp","","","img/orange_2bandit_a.png","70","img/orange_2bandit_a.png","70","test","","","","","","","","","","","5","","","","","","","","",""
"null","379429","SARL_v6","SARL_v6ptq8ymdy","5ce973ea6c890100012ea2ae","fixation","","","img/fixation.png","null","","","test","","","","","","","","","","","","","","","","","","","",""
"666.7000000029802","380098","SARL_v6","SARL_v6ptq8ymdy","5ce973ea6c890100012ea2ae","freq","","","img/orange_2bandit_a2.png","70","","70","test","1","","104","","","","square","circle","100","14","5","0.93","","","","","","","",""
"null","380247","SARL_v6","SARL_v6ptq8ymdy","5ce973ea6c890100012ea2ae","freq_resp","","","img/orange_2bandit_a.png","70","img/orange_2bandit_a.png","70","test","","","","","","","","","","","5","","","","","","","","",""
"null","380414","SARL_v6","SARL_v6ptq8ymdy","5ce973ea6c890100012ea2ae","fixation","","","img/fixation.png","null","","","test","","","","","","","","","","","","","","","","","","","",""
"461.20000000298023","380878","SARL_v6","SARL_v6ptq8ymdy","5ce973ea6c890100012ea2ae","freq","","","img/orange_2bandit_a2.png","70","","70","test","1","","105","","","","square","circle","101","15","5","0.9306930693069307","","","","","","","",""
"null","381234","SARL_v6","SARL_v6ptq8ymdy","5ce973ea6c890100012ea2ae","freq_resp","","","img/orange_2bandit_a.png","70","img/orange_2bandit_a.png","70","test","","","","","","","","","","","5","","","","","","","","",""
"null","381395","SARL_v6","SARL_v6ptq8ymdy","5ce973ea6c890100012ea2ae","fixation","","","img/fixation.png","null","","","test","","","","","","","","","","","","","","","","","","","",""
"326.1000000089407","381724","SARL_v6","SARL_v6ptq8ymdy","5ce973ea6c890100012ea2ae","freq","","","img/orange_2bandit_a2.png","70","","70","test","1","","106","","","","square","circle","102","16","5","0.9313725490196079","","","","","","","",""
"null","382209","SARL_v6","SARL_v6ptq8ymdy","5ce973ea6c890100012ea2ae","freq_resp","","","img/orange_2bandit_a.png","70","img/orange_2bandit_a.png","70","test","","","","","","","","","","","5","","","","","","","","",""
"null","382363","SARL_v6","SARL_v6ptq8ymdy","5ce973ea6c890100012ea2ae","fixation","","","img/fixation.png","null","","","test","","","","","","","","","","","","","","","","","","","",""
"315.40000000596046","382681","SARL_v6","SARL_v6ptq8ymdy","5ce973ea6c890100012ea2ae","freq","","","img/orange_2bandit_a2.png","70","","70","test","1","","107","","","","square","circle","103","17","5","0.9320388349514563","","","","","","","",""
"null","383175","SARL_v6","SARL_v6ptq8ymdy","5ce973ea6c890100012ea2ae","freq_resp","","","img/orange_2bandit_a.png","70","img/orange_2bandit_a.png","70","test","","","","","","","","","","","5","","","","","","","","",""
"null","383328","SARL_v6","SARL_v6ptq8ymdy","5ce973ea6c890100012ea2ae","fixation","","","img/fixation.png","null","","","test","","","","","","","","","","","","","","","","","","","",""
"331.29999999701977","383662","SARL_v6","SARL_v6ptq8ymdy","5ce973ea6c890100012ea2ae","freq","","","img/orange_2bandit_a2.png","70","","70","test","1","","108","","","","square","circle","104","18","5","0.9326923076923077","","","","","","","",""
"null","384141","SARL_v6","SARL_v6ptq8ymdy","5ce973ea6c890100012ea2ae","freq_resp","","","img/orange_2bandit_a.png","70","img/orange_2bandit_a.png","70","test","","","","","","","","","","","5","","","","","","","","",""
"null","384297","SARL_v6","SARL_v6ptq8ymdy","5ce973ea6c890100012ea2ae","fixation","","","img/fixation.png","null","","","test","","","","","","","","","","","","","","","","","","","",""
"361.90000000596046","384661","SARL_v6","SARL_v6ptq8ymdy","5ce973ea6c890100012ea2ae","freq","","","img/orange_2bandit_a2.png","70","","70","test","1","","109","","","","square","circle","105","19","5","0.9333333333333333","","","","","","","",""
"null","385113","SARL_v6","SARL_v6ptq8ymdy","5ce973ea6c890100012ea2ae","freq_resp","","","img/orange_2bandit_a.png","70","img/orange_2bandit_a.png","70","test","","","","","","","","","","","5","","","","","","","","",""
"null","385277","SARL_v6","SARL_v6ptq8ymdy","5ce973ea6c890100012ea2ae","fixation","","","img/fixation.png","null","","","test","","","","","","","","","","","","","","","","","","","",""
"338.59999999403954","385618","SARL_v6","SARL_v6ptq8ymdy","5ce973ea6c890100012ea2ae","freq","","","img/orange_2bandit_a2.png","70","","70","test","1","","110","","","","square","circle","106","20","5","0.9339622641509434","","","","","","","",""
"null","386093","SARL_v6","SARL_v6ptq8ymdy","5ce973ea6c890100012ea2ae","freq_resp","","","img/orange_2bandit_a.png","70","img/orange_2bandit_a.png","70","test","","","","","","","","","","","5","","","","","","","","",""
"null","386245","SARL_v6","SARL_v6ptq8ymdy","5ce973ea6c890100012ea2ae","fixation","","","img/fixation.png","null","","","test","","","","","","","","","","","","","","","","","","","",""
"371.59999999403954","386620","SARL_v6","SARL_v6ptq8ymdy","5ce973ea6c890100012ea2ae","freq","","","img/orange_2bandit_a2.png","70","","70","test","1","","111","","","","square","circle","107","21","5","0.9345794392523364","","","","","","","",""
"null","387061","SARL_v6","SARL_v6ptq8ymdy","5ce973ea6c890100012ea2ae","freq_resp","","","img/orange_2bandit_a.png","70","img/orange_2bandit_a.png","70","test","","","","","","","","","","","5","","","","","","","","",""
"null","387227","SARL_v6","SARL_v6ptq8ymdy","5ce973ea6c890100012ea2ae","fixation","","","img/fixation.png","null","","","test","","","","","","","","","","","","","","","","","","","",""
"330.3999999910593","387559","SARL_v6","SARL_v6ptq8ymdy","5ce973ea6c890100012ea2ae","freq","","","img/orange_2bandit_a2.png","70","","70","test","1","","112","","","","square","circle","108","22","5","0.9351851851851852","","","","","","","",""
"null","388042","SARL_v6","SARL_v6ptq8ymdy","5ce973ea6c890100012ea2ae","freq_resp","","","img/orange_2bandit_a.png","70","img/orange_2bandit_a.png","70","test","","","","","","","","","","","5","","","","","","","","",""
"null","388196","SARL_v6","SARL_v6ptq8ymdy","5ce973ea6c890100012ea2ae","fixation","","","img/fixation.png","null","","","test","","","","","","","","","","","","","","","","","","","",""
"348.8999999910593","388547","SARL_v6","SARL_v6ptq8ymdy","5ce973ea6c890100012ea2ae","freq","","","img/orange_2bandit_a2.png","70","","70","test","1","","113","","","","square","circle","109","23","5","0.9357798165137615","","","","","","","",""
"null","389009","SARL_v6","SARL_v6ptq8ymdy","5ce973ea6c890100012ea2ae","freq_resp","","","img/orange_2bandit_a.png","70","img/orange_2bandit_a.png","70","test","","","","","","","","","","","5","","","","","","","","",""
"null","389162","SARL_v6","SARL_v6ptq8ymdy","5ce973ea6c890100012ea2ae","fixation","","","img/fixation.png","null","","","test","","","","","","","","","","","","","","","","","","","",""
"468","389632","SARL_v6","SARL_v6ptq8ymdy","5ce973ea6c890100012ea2ae","rl","","","img/black_2bandit_a2.png","74","","0","test","","","114","","","4","square","circle","","0","5","","74","-7","4","4","-7","square","5","0"
"null","390392","SARL_v6","SARL_v6ptq8ymdy","5ce973ea6c890100012ea2ae","feedback","","","<div class=""veryhighPoints_sq""> 4 </div>","null","","na","test","","","NaN","","","","","","","","5","","74","","","","","","5",""
"430.6000000089407","390825","SARL_v6","SARL_v6ptq8ymdy","5ce973ea6c890100012ea2ae","freq","","","img/orange_2bandit_a2.png","70","","70","test","1","","115","","","","square","circle","110","1","6","0.9363636363636364","","","","","","","",""
"null","391199","SARL_v6","SARL_v6ptq8ymdy","5ce973ea6c890100012ea2ae","freq_resp","","","img/orange_2bandit_a.png","70","img/orange_2bandit_a.png","70","test","","","","","","","","","","","6","","","","","","","","",""
"null","391362","SARL_v6","SARL_v6ptq8ymdy","5ce973ea6c890100012ea2ae","fixation","","","img/fixation.png","null","","","test","","","","","","","","","","","","","","","","","","","",""
"572.2999999970198","391937","SARL_v6","SARL_v6ptq8ymdy","5ce973ea6c890100012ea2ae","freq","","","img/orange_2bandit_a2.png","70","","70","test","1","","116","","","","square","circle","111","2","6","0.9369369369369369","","","","","","","",""
"null","392174","SARL_v6","SARL_v6ptq8ymdy","5ce973ea6c890100012ea2ae","freq_resp","","","img/orange_2bandit_a.png","70","img/orange_2bandit_a.png","70","test","","","","","","","","","","","6","","","","","","","","",""
"null","392330","SARL_v6","SARL_v6ptq8ymdy","5ce973ea6c890100012ea2ae","fixation","","","img/fixation.png","null","","","test","","","","","","","","","","","","","","","","","","","",""
"374.09999999403954","392706","SARL_v6","SARL_v6ptq8ymdy","5ce973ea6c890100012ea2ae","freq","","","img/orange_2bandit_a2.png","70","","70","test","1","","117","","","","square","circle","112","3","6","0.9375","","","","","","","",""
"null","393144","SARL_v6","SARL_v6ptq8ymdy","5ce973ea6c890100012ea2ae","freq_resp","","","img/orange_2bandit_a.png","70","img/orange_2bandit_a.png","70","test","","","","","","","","","","","6","","","","","","","","",""
"null","393310","SARL_v6","SARL_v6ptq8ymdy","5ce973ea6c890100012ea2ae","fixation","","","img/fixation.png","null","","","test","","","","","","","","","","","","","","","","","","","",""
"613.7999999970198","393926","SARL_v6","SARL_v6ptq8ymdy","5ce973ea6c890100012ea2ae","freq","","","img/orange_2bandit_a2.png","70","","70","test","1","","118","","","","square","circle","113","4","6","0.9380530973451328","","","","","","","",""
"null","394127","SARL_v6","SARL_v6ptq8ymdy","5ce973ea6c890100012ea2ae","freq_resp","","","img/orange_2bandit_a.png","70","img/orange_2bandit_a.png","70","test","","","","","","","","","","","6","","","","","","","","",""
"null","394295","SARL_v6","SARL_v6ptq8ymdy","5ce973ea6c890100012ea2ae","fixation","","","img/fixation.png","null","","","test","","","","","","","","","","","","","","","","","","","",""
"724.2999999970198","395021","SARL_v6","SARL_v6ptq8ymdy","5ce973ea6c890100012ea2ae","freq","","","img/orange_2bandit_a2.png","70","","70","test","1","","119","","","","square","circle","114","5","6","0.9385964912280702","","","","","","","",""
"null","395101","SARL_v6","SARL_v6ptq8ymdy","5ce973ea6c890100012ea2ae","freq_resp","","","img/orange_2bandit_a.png","70","img/orange_2bandit_a.png","70","test","","","","","","","","","","","6","","","","","","","","",""
"null","395263","SARL_v6","SARL_v6ptq8ymdy","5ce973ea6c890100012ea2ae","fixation","","","img/fixation.png","null","","","test","","","","","","","","","","","","","","","","","","","",""
"621.7999999970198","395887","SARL_v6","SARL_v6ptq8ymdy","5ce973ea6c890100012ea2ae","infreq","","","img/blue_2bandit_a2.png","68","","68","test","1","","120","","","","square","circle","115","6","6","0.9391304347826087","","","","","","","",""
"null","396070","SARL_v6","SARL_v6ptq8ymdy","5ce973ea6c890100012ea2ae","infreq_resp","","","img/blue_2bandit_a.png","68","img/blue_2bandit_a.png","68","test","","","","","","","","","","","6","","","","","","","","",""
"null","396229","SARL_v6","SARL_v6ptq8ymdy","5ce973ea6c890100012ea2ae","fixation","","","img/fixation.png","null","","","test","","","","","","","","","","","","","","","","","","","",""
"571.8999999910593","396803","SARL_v6","SARL_v6ptq8ymdy","5ce973ea6c890100012ea2ae","freq","","","img/orange_2bandit_a2.png","70","","70","test","1","","121","","","","square","circle","116","7","6","0.9396551724137931","","","","","","","",""
"null","397041","SARL_v6","SARL_v6ptq8ymdy","5ce973ea6c890100012ea2ae","freq_resp","","","img/orange_2bandit_a.png","70","img/orange_2bandit_a.png","70","test","","","","","","","","","","","6","","","","","","","","",""
"null","397196","SARL_v6","SARL_v6ptq8ymdy","5ce973ea6c890100012ea2ae","fixation","","","img/fixation.png","null","","","test","","","","","","","","","","","","","","","","","","","",""
"580.6000000089407","397779","SARL_v6","SARL_v6ptq8ymdy","5ce973ea6c890100012ea2ae","freq","","","img/orange_2bandit_a2.png","70","","70","test","1","","122","","","","square","circle","117","8","6","0.9401709401709402","","","","","","","",""
"null","398006","SARL_v6","SARL_v6ptq8ymdy","5ce973ea6c890100012ea2ae","freq_resp","","","img/orange_2bandit_a.png","70","img/orange_2bandit_a.png","70","test","","","","","","","","","","","6","","","","","","","","",""
"null","398163","SARL_v6","SARL_v6ptq8ymdy","5ce973ea6c890100012ea2ae","fixation","","","img/fixation.png","null","","","test","","","","","","","","","","","","","","","","","","","",""
"533","398698","SARL_v6","SARL_v6ptq8ymdy","5ce973ea6c890100012ea2ae","infreq","","","img/blue_2bandit_a2.png","68","","68","test","1","","123","","","","square","circle","118","9","6","0.940677966101695","","","","","","","",""
"null","398972","SARL_v6","SARL_v6ptq8ymdy","5ce973ea6c890100012ea2ae","infreq_resp","","","img/blue_2bandit_a.png","68","img/blue_2bandit_a.png","68","test","","","","","","","","","","","6","","","","","","","","",""
"null","399129","SARL_v6","SARL_v6ptq8ymdy","5ce973ea6c890100012ea2ae","fixation","","","img/fixation.png","null","","","test","","","","","","","","","","","","","","","","","","","",""
"369","399500","SARL_v6","SARL_v6ptq8ymdy","5ce973ea6c890100012ea2ae","freq","","","img/orange_2bandit_a2.png","70","","70","test","1","","124","","","","square","circle","119","10","6","0.9411764705882353","","","","","","","",""
"null","399951","SARL_v6","SARL_v6ptq8ymdy","5ce973ea6c890100012ea2ae","freq_resp","","","img/orange_2bandit_a.png","70","img/orange_2bandit_a.png","70","test","","","","","","","","","","","6","","","","","","","","",""
"null","400113","SARL_v6","SARL_v6ptq8ymdy","5ce973ea6c890100012ea2ae","fixation","","","img/fixation.png","null","","","test","","","","","","","","","","","","","","","","","","","",""
"346.40000000596046","400461","SARL_v6","SARL_v6ptq8ymdy","5ce973ea6c890100012ea2ae","freq","","","img/orange_2bandit_a2.png","70","","70","test","1","","125","","","","square","circle","120","11","6","0.9416666666666667","","","","","","","",""
"null","400926","SARL_v6","SARL_v6ptq8ymdy","5ce973ea6c890100012ea2ae","freq_resp","","","img/orange_2bandit_a.png","70","img/orange_2bandit_a.png","70","test","","","","","","","","","","","6","","","","","","","","",""
"null","401079","SARL_v6","SARL_v6ptq8ymdy","5ce973ea6c890100012ea2ae","fixation","","","img/fixation.png","null","","","test","","","","","","","","","","","","","","","","","","","",""
"305.29999999701977","401387","SARL_v6","SARL_v6ptq8ymdy","5ce973ea6c890100012ea2ae","freq","","","img/orange_2bandit_a2.png","70","","70","test","1","","126","","","","square","circle","121","12","6","0.9421487603305785","","","","","","","",""
"null","401892","SARL_v6","SARL_v6ptq8ymdy","5ce973ea6c890100012ea2ae","freq_resp","","","img/orange_2bandit_a.png","70","img/orange_2bandit_a.png","70","test","","","","","","","","","","","6","","","","","","","","",""
"null","402046","SARL_v6","SARL_v6ptq8ymdy","5ce973ea6c890100012ea2ae","fixation","","","img/fixation.png","null","","","test","","","","","","","","","","","","","","","","","","","",""
"322.29999999701977","402370","SARL_v6","SARL_v6ptq8ymdy","5ce973ea6c890100012ea2ae","freq","","","img/orange_2bandit_a2.png","70","","70","test","1","","127","","","","square","circle","122","13","6","0.9426229508196722","","","","","","","",""
"null","402859","SARL_v6","SARL_v6ptq8ymdy","5ce973ea6c890100012ea2ae","freq_resp","","","img/orange_2bandit_a.png","70","img/orange_2bandit_a.png","70","test","","","","","","","","","","","6","","","","","","","","",""
"null","403012","SARL_v6","SARL_v6ptq8ymdy","5ce973ea6c890100012ea2ae","fixation","","","img/fixation.png","null","","","test","","","","","","","","","","","","","","","","","","","",""
"317.20000000298023","403331","SARL_v6","SARL_v6ptq8ymdy","5ce973ea6c890100012ea2ae","freq","","","img/orange_2bandit_a2.png","70","","70","test","1","","128","","","","square","circle","123","14","6","0.943089430894309","","","","","","","",""
"null","403824","SARL_v6","SARL_v6ptq8ymdy","5ce973ea6c890100012ea2ae","freq_resp","","","img/orange_2bandit_a.png","70","img/orange_2bandit_a.png","70","test","","","","","","","","","","","6","","","","","","","","",""
"null","403978","SARL_v6","SARL_v6ptq8ymdy","5ce973ea6c890100012ea2ae","fixation","","","img/fixation.png","null","","","test","","","","","","","","","","","","","","","","","","","",""
"274.09999999403954","404254","SARL_v6","SARL_v6ptq8ymdy","5ce973ea6c890100012ea2ae","freq","","","img/orange_2bandit_a2.png","70","","70","test","1","","129","","","","square","circle","124","15","6","0.9435483870967742","","","","","","","",""
"null","404789","SARL_v6","SARL_v6ptq8ymdy","5ce973ea6c890100012ea2ae","freq_resp","","","img/orange_2bandit_a.png","70","img/orange_2bandit_a.png","70","test","","","","","","","","","","","6","","","","","","","","",""
"null","404946","SARL_v6","SARL_v6ptq8ymdy","5ce973ea6c890100012ea2ae","fixation","","","img/fixation.png","null","","","test","","","","","","","","","","","","","","","","","","","",""
"287.59999999403954","405236","SARL_v6","SARL_v6ptq8ymdy","5ce973ea6c890100012ea2ae","freq","","","img/orange_2bandit_a2.png","70","","70","test","1","","130","","","","square","circle","125","16","6","0.944","","","","","","","",""
"null","405761","SARL_v6","SARL_v6ptq8ymdy","5ce973ea6c890100012ea2ae","freq_resp","","","img/orange_2bandit_a.png","70","img/orange_2bandit_a.png","70","test","","","","","","","","","","","6","","","","","","","","",""
"null","405926","SARL_v6","SARL_v6ptq8ymdy","5ce973ea6c890100012ea2ae","fixation","","","img/fixation.png","null","","","test","","","","","","","","","","","","","","","","","","","",""
"14.700000002980232","405943","SARL_v6","SARL_v6ptq8ymdy","5ce973ea6c890100012ea2ae","infreq","","","img/blue_2bandit_a2.png","70","","68","test","0","","131","","","","square","circle","126","17","6","0.9365079365079365","","","","","","","",""
"null","406739","SARL_v6","SARL_v6ptq8ymdy","5ce973ea6c890100012ea2ae","infreq_resp","","","img/blue_2bandit_a.png","70","img/blue_2bandit_a.png","68","test","","","","","","","","","","","6","","","","","","","","",""
"null","406896","SARL_v6","SARL_v6ptq8ymdy","5ce973ea6c890100012ea2ae","fixation","","","img/fixation.png","null","","","test","","","","","","","","","","","","","","","","","","","",""
