"rt","time_elapsed","expId","subject","prolificID","trialType","rlType","attType","stimulus","key_press","stim","corrresp","phase","corr","pracCounter","trialNum","rewardOne","rewardTwo","reward","bandOne","bandTwo","attentionNum","attentionRunNum","blockNum","performance","bandChosen","circleVal","squareVal","bandOneVal","bandTwoVal","shapeChosen","rlNum","badFlag"
"2038.6000000000058","2063","SARL_v6","SARL_v6w9atktnj","5596a991fdf99b2d1e834690","","","","","","","","","","","","","","","","","","","","","","","","","","","",""
"","4116","SARL_v6","SARL_v6w9atktnj","5596a991fdf99b2d1e834690","fullscreen","fullscreen","fullscreen","","","","","","","","","","","","","","","","","","","","","","","","",""
"26579.5","30706","SARL_v6","SARL_v6w9atktnj","5596a991fdf99b2d1e834690","","","","","","","","","","","","","","","","","","","","","","","","","","","",""
"null","31535","SARL_v6","SARL_v6w9atktnj","5596a991fdf99b2d1e834690","freqPrac","","","img/blue_2bandit_b2.png","null","img/blue_2bandit_b2.png","70","prac","0","1","","","","","","","","","","","","","","","","","",""
"null","32565","SARL_v6","SARL_v6w9atktnj","5596a991fdf99b2d1e834690","feedback","","","img/tooSlow.png","null","","na","prac","","","","","","","","","","","","","","","","","","","",""
"null","32724","SARL_v6","SARL_v6w9atktnj","5596a991fdf99b2d1e834690","fixation","","","img/fixation.png","null","","","prac","","","","","","","","","","","","","","","","","","","",""
"629.1999999999825","33363","SARL_v6","SARL_v6w9atktnj","5596a991fdf99b2d1e834690","infreqPrac","","","img/orange_2bandit_b2.png","70","img/orange_2bandit_b2.png","68","prac","0","2","","","","","","","","","","","","","","","","","",""
"629.1999999999825","33543","SARL_v6","SARL_v6w9atktnj","5596a991fdf99b2d1e834690","infreqPrac_resp","","","img/orange_2bandit_b.png","70","img/orange_2bandit_b.png","68","prac","","","","","","","","","","","","","","","","","","","",""
"null","34554","SARL_v6","SARL_v6w9atktnj","5596a991fdf99b2d1e834690","feedback","","","img/wrongKey.png","null","","na","prac","","","","","","","","","","","","","","","","","","","",""
"null","34715","SARL_v6","SARL_v6w9atktnj","5596a991fdf99b2d1e834690","fixation","","","img/fixation.png","null","","","prac","","","","","","","","","","","","","","","","","","","",""
"457.8999999999942","35183","SARL_v6","SARL_v6w9atktnj","5596a991fdf99b2d1e834690","freqPrac","","","img/blue_2bandit_b2.png","70","img/blue_2bandit_b2.png","70","prac","1","2","","","","","","","","","","","","","","","","","",""
"457.8999999999942","35536","SARL_v6","SARL_v6w9atktnj","5596a991fdf99b2d1e834690","freqPrac_resp","","","img/blue_2bandit_b.png","70","img/blue_2bandit_b.png","70","prac","","","","","","","","","","","","","","","","","","","",""
"null","35701","SARL_v6","SARL_v6w9atktnj","5596a991fdf99b2d1e834690","fixation","","","img/fixation.png","null","","","prac","","","","","","","","","","","","","","","","","","","",""
"457.8999999999942","36168","SARL_v6","SARL_v6w9atktnj","5596a991fdf99b2d1e834690","infreqPrac","","","img/orange_2bandit_b2.png","68","img/orange_2bandit_b2.png","68","prac","1","2","","","","","","","","","","","","","","","","","",""
"457.8999999999942","36520","SARL_v6","SARL_v6w9atktnj","5596a991fdf99b2d1e834690","infreqPrac_resp","","","img/orange_2bandit_b.png","68","img/orange_2bandit_b.png","68","prac","","","","","","","","","","","","","","","","","","","",""
"null","36678","SARL_v6","SARL_v6w9atktnj","5596a991fdf99b2d1e834690","fixation","","","img/fixation.png","null","","","prac","","","","","","","","","","","","","","","","","","","",""
"327.19999999998254","37014","SARL_v6","SARL_v6w9atktnj","5596a991fdf99b2d1e834690","infreqPrac","","","img/orange_2bandit_b2.png","68","img/orange_2bandit_b2.png","68","prac","1","2","","","","","","","","","","","","","","","","","",""
"327.19999999998254","37495","SARL_v6","SARL_v6w9atktnj","5596a991fdf99b2d1e834690","infreqPrac_resp","","","img/orange_2bandit_b.png","68","img/orange_2bandit_b.png","68","prac","","","","","","","","","","","","","","","","","","","",""
"null","37655","SARL_v6","SARL_v6w9atktnj","5596a991fdf99b2d1e834690","fixation","","","img/fixation.png","null","","","prac","","","","","","","","","","","","","","","","","","","",""
"350.69999999998254","38018","SARL_v6","SARL_v6w9atktnj","5596a991fdf99b2d1e834690","infreqPrac","","","img/orange_2bandit_b2.png","68","img/orange_2bandit_b2.png","68","prac","1","2","","","","","","","","","","","","","","","","","",""
"350.69999999998254","38482","SARL_v6","SARL_v6w9atktnj","5596a991fdf99b2d1e834690","infreqPrac_resp","","","img/orange_2bandit_b.png","68","img/orange_2bandit_b.png","68","prac","","","","","","","","","","","","","","","","","","","",""
"null","38646","SARL_v6","SARL_v6w9atktnj","5596a991fdf99b2d1e834690","fixation","","","img/fixation.png","null","","","prac","","","","","","","","","","","","","","","","","","","",""
"412.5","39073","SARL_v6","SARL_v6w9atktnj","5596a991fdf99b2d1e834690","freqPrac","","","img/blue_2bandit_b2.png","70","img/blue_2bandit_b2.png","70","prac","1","2","","","","","","","","","","","","","","","","","",""
"412.5","39472","SARL_v6","SARL_v6w9atktnj","5596a991fdf99b2d1e834690","freqPrac_resp","","","img/blue_2bandit_b.png","70","img/blue_2bandit_b.png","70","prac","","","","","","","","","","","","","","","","","","","",""
"null","39632","SARL_v6","SARL_v6w9atktnj","5596a991fdf99b2d1e834690","fixation","","","img/fixation.png","null","","","prac","","","","","","","","","","","","","","","","","","","",""
"447.70000000001164","40091","SARL_v6","SARL_v6w9atktnj","5596a991fdf99b2d1e834690","infreqPrac","","","img/orange_2bandit_b2.png","68","img/orange_2bandit_b2.png","68","prac","1","2","","","","","","","","","","","","","","","","","",""
"447.70000000001164","40451","SARL_v6","SARL_v6w9atktnj","5596a991fdf99b2d1e834690","infreqPrac_resp","","","img/orange_2bandit_b.png","68","img/orange_2bandit_b.png","68","prac","","","","","","","","","","","","","","","","","","","",""
"null","40608","SARL_v6","SARL_v6w9atktnj","5596a991fdf99b2d1e834690","fixation","","","img/fixation.png","null","","","prac","","","","","","","","","","","","","","","","","","","",""
"358.9000000000233","40975","SARL_v6","SARL_v6w9atktnj","5596a991fdf99b2d1e834690","freqPrac","","","img/blue_2bandit_b2.png","68","img/blue_2bandit_b2.png","70","prac","0","3","","","","","","","","","","","","","","","","","",""
"358.9000000000233","41424","SARL_v6","SARL_v6w9atktnj","5596a991fdf99b2d1e834690","freqPrac_resp","","","img/blue_2bandit_b.png","68","img/blue_2bandit_b.png","70","prac","","","","","","","","","","","","","","","","","","","",""
"null","42434","SARL_v6","SARL_v6w9atktnj","5596a991fdf99b2d1e834690","feedback","","","img/wrongKey.png","null","","na","prac","","","","","","","","","","","","","","","","","","","",""
"null","42592","SARL_v6","SARL_v6w9atktnj","5596a991fdf99b2d1e834690","fixation","","","img/fixation.png","null","","","prac","","","","","","","","","","","","","","","","","","","",""
"462.8999999999942","43068","SARL_v6","SARL_v6w9atktnj","5596a991fdf99b2d1e834690","freqPrac","","","img/blue_2bandit_b2.png","70","img/blue_2bandit_b2.png","70","prac","1","3","","","","","","","","","","","","","","","","","",""
"462.8999999999942","43420","SARL_v6","SARL_v6w9atktnj","5596a991fdf99b2d1e834690","freqPrac_resp","","","img/blue_2bandit_b.png","70","img/blue_2bandit_b.png","70","prac","","","","","","","","","","","","","","","","","","","",""
"null","43579","SARL_v6","SARL_v6w9atktnj","5596a991fdf99b2d1e834690","fixation","","","img/fixation.png","null","","","prac","","","","","","","","","","","","","","","","","","","",""
"15331.5","58918","SARL_v6","SARL_v6w9atktnj","5596a991fdf99b2d1e834690","","","","","","","","prac","","","","","","","","","","","","","","","","","","","",""
"null","60430","SARL_v6","SARL_v6w9atktnj","5596a991fdf99b2d1e834690","rlPractice","","","img/black_2bandit_b2.png","null","img/black_2bandit_b2.png","","prac","","","0","","","","","","","","","","","","","","","","",""
"null","61190","SARL_v6","SARL_v6w9atktnj","5596a991fdf99b2d1e834690","feedback","","","<div font size = 80> TOO SLOW  </div>","null","","na","prac","","","1","10","-14","10","","","","","","","","","","","","","",""
"null","61349","SARL_v6","SARL_v6w9atktnj","5596a991fdf99b2d1e834690","fixation","","","img/fixation.png","null","","","prac","","","","","","","","","","","","","","","","","","","",""
"605.1000000000058","61966","SARL_v6","SARL_v6w9atktnj","5596a991fdf99b2d1e834690","rlPractice","","","img/black_2bandit_b2.png","74","img/black_2bandit_b2.png","","prac","","","1","","","","","","","","","","","","","","","","",""
"null","62726","SARL_v6","SARL_v6w9atktnj","5596a991fdf99b2d1e834690","feedback","","","<div class=""veryhighPoints""> 5 </div>","null","","na","prac","","","2","5","-5","5","","","","","","","","","","","","","",""
"null","62887","SARL_v6","SARL_v6w9atktnj","5596a991fdf99b2d1e834690","fixation","","","img/fixation.png","null","","","prac","","","","","","","","","","","","","","","","","","","",""
"628.5999999999767","63524","SARL_v6","SARL_v6w9atktnj","5596a991fdf99b2d1e834690","rlPractice","","","img/black_2bandit_b2.png","74","img/black_2bandit_b2.png","","prac","","","2","","","","","","","","","","","","","","","","",""
"null","64286","SARL_v6","SARL_v6w9atktnj","5596a991fdf99b2d1e834690","feedback","","","<div class=""veryhighPoints""> 30 </div>","null","","na","prac","","","3","30","2","30","","","","","","","","","","","","","",""
"null","64446","SARL_v6","SARL_v6w9atktnj","5596a991fdf99b2d1e834690","fixation","","","img/fixation.png","null","","","prac","","","","","","","","","","","","","","","","","","","",""
"434.5","64895","SARL_v6","SARL_v6w9atktnj","5596a991fdf99b2d1e834690","rlPractice","","","img/black_2bandit_b2.png","74","img/black_2bandit_b2.png","","prac","","","3","","","","","","","","","","","","","","","","",""
"null","65660","SARL_v6","SARL_v6w9atktnj","5596a991fdf99b2d1e834690","feedback","","","<div class=""verylowPoints""> -2 </div>","null","","na","prac","","","4","-2","20","-2","","","","","","","","","","","","","",""
"null","65821","SARL_v6","SARL_v6w9atktnj","5596a991fdf99b2d1e834690","fixation","","","img/fixation.png","null","","","prac","","","","","","","","","","","","","","","","","","","",""
"3143.2999999999884","68974","SARL_v6","SARL_v6w9atktnj","5596a991fdf99b2d1e834690","","","","","","","","prac","","","","","","","","","","","","","","","","","","","",""
"null","69789","SARL_v6","SARL_v6w9atktnj","5596a991fdf99b2d1e834690","mixAttFreqPrac","","","img/blue_2bandit_b2.png","null","img/blue_2bandit_b2.png","70","prac","","","1","","","","","","","","","","","","","","","","",""
"null","69947","SARL_v6","SARL_v6w9atktnj","5596a991fdf99b2d1e834690","fixation","","","img/fixation.png","null","","","prac","","","","","","","","","","","","","","","","","","","",""
"499.8999999999942","70460","SARL_v6","SARL_v6w9atktnj","5596a991fdf99b2d1e834690","mixAttInfreqPrac","","","img/orange_2bandit_b2.png","70","img/orange_2bandit_b2.png","68","prac","","","2","","","","","","","","","","","","","","","","",""
"499.8999999999942","70776","SARL_v6","SARL_v6w9atktnj","5596a991fdf99b2d1e834690","infreqPrac_resp","","","img/orange_2bandit_b.png","70","img/blue_2bandit_b.png","68","prac","","","2","","","","","","","","","","","","","","","","",""
"null","70935","SARL_v6","SARL_v6w9atktnj","5596a991fdf99b2d1e834690","fixation","","","img/fixation.png","null","","","prac","","","","","","","","","","","","","","","","","","","",""
"462.8999999999942","71407","SARL_v6","SARL_v6w9atktnj","5596a991fdf99b2d1e834690","mixAttInfreqPrac","","","img/orange_2bandit_b2.png","68","img/orange_2bandit_b2.png","68","prac","","","3","","","","","","","","","","","","","","","","",""
"462.8999999999942","71756","SARL_v6","SARL_v6w9atktnj","5596a991fdf99b2d1e834690","infreqPrac_resp","","","img/orange_2bandit_b.png","68","img/blue_2bandit_b.png","68","prac","","","3","","","","","","","","","","","","","","","","",""
"null","71917","SARL_v6","SARL_v6w9atktnj","5596a991fdf99b2d1e834690","fixation","","","img/fixation.png","null","","","prac","","","","","","","","","","","","","","","","","","","",""
"311.3999999999942","72236","SARL_v6","SARL_v6w9atktnj","5596a991fdf99b2d1e834690","mixAttInfreqPrac","","","img/orange_2bandit_b2.png","68","img/orange_2bandit_b2.png","68","prac","","","4","","","","","","","","","","","","","","","","",""
"311.3999999999942","72732","SARL_v6","SARL_v6w9atktnj","5596a991fdf99b2d1e834690","infreqPrac_resp","","","img/orange_2bandit_b.png","68","img/blue_2bandit_b.png","68","prac","","","4","","","","","","","","","","","","","","","","",""
"null","72890","SARL_v6","SARL_v6w9atktnj","5596a991fdf99b2d1e834690","fixation","","","img/fixation.png","null","","","prac","","","","","","","","","","","","","","","","","","","",""
"478.20000000001164","73376","SARL_v6","SARL_v6w9atktnj","5596a991fdf99b2d1e834690","mixAttFreqPrac","","","img/blue_2bandit_b2.png","70","img/blue_2bandit_b2.png","70","prac","","","5","","","","","","","","","","","","","","","","",""
"478.20000000001164","73707","SARL_v6","SARL_v6w9atktnj","5596a991fdf99b2d1e834690","freqPrac_resp","","","img/blue_2bandit_b.png","70","img/blue_2bandit_b.png","70","prac","","","5","","","","","","","","","","","","","","","","",""
"null","73868","SARL_v6","SARL_v6w9atktnj","5596a991fdf99b2d1e834690","fixation","","","img/fixation.png","null","","","prac","","","","","","","","","","","","","","","","","","","",""
"661.4000000000233","74538","SARL_v6","SARL_v6w9atktnj","5596a991fdf99b2d1e834690","mixRLPractice","","","img/black_2bandit_b2.png","74","img/black_2bandit_b2.png","","prac","","","5","","","","","","","","","","","","","","","","",""
"null","75303","SARL_v6","SARL_v6w9atktnj","5596a991fdf99b2d1e834690","feedback","","","<div class=""verylowPoints""> -14 </div>","null","","na","prac","","","6","-14","10","-14","","","","","","","","","","","","","",""
"null","75461","SARL_v6","SARL_v6w9atktnj","5596a991fdf99b2d1e834690","fixation","","","img/fixation.png","null","","","prac","","","","","","","","","","","","","","","","","","","",""
"647.7000000000116","76118","SARL_v6","SARL_v6w9atktnj","5596a991fdf99b2d1e834690","mixAttFreqPrac","","","img/blue_2bandit_b2.png","70","img/blue_2bandit_b2.png","70","prac","","","7","","","","","","","","","","","","","","","","",""
"647.7000000000116","76279","SARL_v6","SARL_v6w9atktnj","5596a991fdf99b2d1e834690","freqPrac_resp","","","img/blue_2bandit_b.png","70","img/blue_2bandit_b.png","70","prac","","","7","","","","","","","","","","","","","","","","",""
"null","76437","SARL_v6","SARL_v6w9atktnj","5596a991fdf99b2d1e834690","fixation","","","img/fixation.png","null","","","prac","","","","","","","","","","","","","","","","","","","",""
"466.1000000000058","76914","SARL_v6","SARL_v6w9atktnj","5596a991fdf99b2d1e834690","mixAttInfreqPrac","","","img/orange_2bandit_b2.png","68","img/orange_2bandit_b2.png","68","prac","","","8","","","","","","","","","","","","","","","","",""
"466.1000000000058","77264","SARL_v6","SARL_v6w9atktnj","5596a991fdf99b2d1e834690","infreqPrac_resp","","","img/orange_2bandit_b.png","68","img/blue_2bandit_b.png","68","prac","","","8","","","","","","","","","","","","","","","","",""
"null","77423","SARL_v6","SARL_v6w9atktnj","5596a991fdf99b2d1e834690","fixation","","","img/fixation.png","null","","","prac","","","","","","","","","","","","","","","","","","","",""
"498.1000000000058","77930","SARL_v6","SARL_v6w9atktnj","5596a991fdf99b2d1e834690","mixAttFreqPrac","","","img/blue_2bandit_b2.png","68","img/blue_2bandit_b2.png","70","prac","","","9","","","","","","","","","","","","","","","","",""
"498.1000000000058","78240","SARL_v6","SARL_v6w9atktnj","5596a991fdf99b2d1e834690","freqPrac_resp","","","img/blue_2bandit_b.png","68","img/blue_2bandit_b.png","70","prac","","","9","","","","","","","","","","","","","","","","",""
"null","78399","SARL_v6","SARL_v6w9atktnj","5596a991fdf99b2d1e834690","fixation","","","img/fixation.png","null","","","prac","","","","","","","","","","","","","","","","","","","",""
"455.8999999999942","78866","SARL_v6","SARL_v6w9atktnj","5596a991fdf99b2d1e834690","mixAttFreqPrac","","","img/blue_2bandit_b2.png","70","img/blue_2bandit_b2.png","70","prac","","","10","","","","","","","","","","","","","","","","",""
"455.8999999999942","79218","SARL_v6","SARL_v6w9atktnj","5596a991fdf99b2d1e834690","freqPrac_resp","","","img/blue_2bandit_b.png","70","img/blue_2bandit_b.png","70","prac","","","10","","","","","","","","","","","","","","","","",""
"null","79376","SARL_v6","SARL_v6w9atktnj","5596a991fdf99b2d1e834690","fixation","","","img/fixation.png","null","","","prac","","","","","","","","","","","","","","","","","","","",""
"417.5","79802","SARL_v6","SARL_v6w9atktnj","5596a991fdf99b2d1e834690","mixAttInfreqPrac","","","img/orange_2bandit_b2.png","68","img/orange_2bandit_b2.png","68","prac","","","11","","","","","","","","","","","","","","","","",""
"417.5","80193","SARL_v6","SARL_v6w9atktnj","5596a991fdf99b2d1e834690","infreqPrac_resp","","","img/orange_2bandit_b.png","68","img/blue_2bandit_b.png","68","prac","","","11","","","","","","","","","","","","","","","","",""
"null","80352","SARL_v6","SARL_v6w9atktnj","5596a991fdf99b2d1e834690","fixation","","","img/fixation.png","null","","","prac","","","","","","","","","","","","","","","","","","","",""
"682.8000000000175","81047","SARL_v6","SARL_v6w9atktnj","5596a991fdf99b2d1e834690","mixRLPractice","","","img/black_2bandit_b2.png","75","img/black_2bandit_b2.png","","prac","","","11","","","","","","","","","","","","","","","","",""
"null","81808","SARL_v6","SARL_v6w9atktnj","5596a991fdf99b2d1e834690","feedback","","","<div class=""verylowPoints_sq""> -5 </div>","null","","na","prac","","","12","5","-5","5","","","","","","","","","","","","","",""
"null","81969","SARL_v6","SARL_v6w9atktnj","5596a991fdf99b2d1e834690","fixation","","","img/fixation.png","null","","","prac","","","","","","","","","","","","","","","","","","","",""
"5237.5","87217","SARL_v6","SARL_v6w9atktnj","5596a991fdf99b2d1e834690","","","","","","","","prac","","","","","","","","","","","","","","","","","","","",""
"null","88031","SARL_v6","SARL_v6w9atktnj","5596a991fdf99b2d1e834690","freq","","","img/blue_2bandit_b2.png","null","","70","test","0","","1","","","","circle","square","1","1","1","0","","","","","","","",""
"null","88191","SARL_v6","SARL_v6w9atktnj","5596a991fdf99b2d1e834690","fixation","","","img/fixation.png","null","","","test","","","","","","","","","","","","","","","","","","","",""
"414.6000000000058","88619","SARL_v6","SARL_v6w9atktnj","5596a991fdf99b2d1e834690","freq","","","img/blue_2bandit_b2.png","70","","70","test","1","","2","","","","circle","square","2","2","1","0.5","","","","","","","",""
"null","89016","SARL_v6","SARL_v6w9atktnj","5596a991fdf99b2d1e834690","freq_resp","","","img/blue_2bandit_b.png","70","img/blue_2bandit_b.png","70","test","","","","","","","","","","","1","","","","","","","","",""
"null","89175","SARL_v6","SARL_v6w9atktnj","5596a991fdf99b2d1e834690","fixation","","","img/fixation.png","null","","","test","","","","","","","","","","","","","","","","","","","",""
"384.20000000001164","89567","SARL_v6","SARL_v6w9atktnj","5596a991fdf99b2d1e834690","freq","","","img/blue_2bandit_b2.png","70","","70","test","1","","3","","","","circle","square","3","3","1","0.6666666666666666","","","","","","","",""
"null","89995","SARL_v6","SARL_v6w9atktnj","5596a991fdf99b2d1e834690","freq_resp","","","img/blue_2bandit_b.png","70","img/blue_2bandit_b.png","70","test","","","","","","","","","","","1","","","","","","","","",""
"null","90155","SARL_v6","SARL_v6w9atktnj","5596a991fdf99b2d1e834690","fixation","","","img/fixation.png","null","","","test","","","","","","","","","","","","","","","","","","","",""
"322","90485","SARL_v6","SARL_v6w9atktnj","5596a991fdf99b2d1e834690","freq","","","img/blue_2bandit_b2.png","70","","70","test","1","","4","","","","circle","square","4","4","1","0.75","","","","","","","",""
"null","90972","SARL_v6","SARL_v6w9atktnj","5596a991fdf99b2d1e834690","freq_resp","","","img/blue_2bandit_b.png","70","img/blue_2bandit_b.png","70","test","","","","","","","","","","","1","","","","","","","","",""
"null","91133","SARL_v6","SARL_v6w9atktnj","5596a991fdf99b2d1e834690","fixation","","","img/fixation.png","null","","","test","","","","","","","","","","","","","","","","","","","",""
"301.3999999999942","91444","SARL_v6","SARL_v6w9atktnj","5596a991fdf99b2d1e834690","freq","","","img/blue_2bandit_b2.png","70","","70","test","1","","5","","","","circle","square","5","5","1","0.8","","","","","","","",""
"null","91957","SARL_v6","SARL_v6w9atktnj","5596a991fdf99b2d1e834690","freq_resp","","","img/blue_2bandit_b.png","70","img/blue_2bandit_b.png","70","test","","","","","","","","","","","1","","","","","","","","",""
"null","92120","SARL_v6","SARL_v6w9atktnj","5596a991fdf99b2d1e834690","fixation","","","img/fixation.png","null","","","test","","","","","","","","","","","","","","","","","","","",""
"324.3999999999942","92452","SARL_v6","SARL_v6w9atktnj","5596a991fdf99b2d1e834690","freq","","","img/blue_2bandit_b2.png","70","","70","test","1","","6","","","","circle","square","6","6","1","0.8333333333333334","","","","","","","",""
"null","92939","SARL_v6","SARL_v6w9atktnj","5596a991fdf99b2d1e834690","freq_resp","","","img/blue_2bandit_b.png","70","img/blue_2bandit_b.png","70","test","","","","","","","","","","","1","","","","","","","","",""
"null","93099","SARL_v6","SARL_v6w9atktnj","5596a991fdf99b2d1e834690","fixation","","","img/fixation.png","null","","","test","","","","","","","","","","","","","","","","","","","",""
"365.1000000000058","93477","SARL_v6","SARL_v6w9atktnj","5596a991fdf99b2d1e834690","freq","","","img/blue_2bandit_b2.png","70","","70","test","1","","7","","","","circle","square","7","7","1","0.8571428571428571","","","","","","","",""
"null","93919","SARL_v6","SARL_v6w9atktnj","5596a991fdf99b2d1e834690","freq_resp","","","img/blue_2bandit_b.png","70","img/blue_2bandit_b.png","70","test","","","","","","","","","","","1","","","","","","","","",""
"null","94077","SARL_v6","SARL_v6w9atktnj","5596a991fdf99b2d1e834690","fixation","","","img/fixation.png","null","","","test","","","","","","","","","","","","","","","","","","","",""
"345.29999999998836","94436","SARL_v6","SARL_v6w9atktnj","5596a991fdf99b2d1e834690","freq","","","img/blue_2bandit_b2.png","70","","70","test","1","","8","","","","circle","square","8","8","1","0.875","","","","","","","",""
"null","94900","SARL_v6","SARL_v6w9atktnj","5596a991fdf99b2d1e834690","freq_resp","","","img/blue_2bandit_b.png","70","img/blue_2bandit_b.png","70","test","","","","","","","","","","","1","","","","","","","","",""
"null","95060","SARL_v6","SARL_v6w9atktnj","5596a991fdf99b2d1e834690","fixation","","","img/fixation.png","null","","","test","","","","","","","","","","","","","","","","","","","",""
"293.8999999999942","95366","SARL_v6","SARL_v6w9atktnj","5596a991fdf99b2d1e834690","freq","","","img/blue_2bandit_b2.png","70","","70","test","1","","9","","","","circle","square","9","9","1","0.8888888888888888","","","","","","","",""
"null","95886","SARL_v6","SARL_v6w9atktnj","5596a991fdf99b2d1e834690","freq_resp","","","img/blue_2bandit_b.png","70","img/blue_2bandit_b.png","70","test","","","","","","","","","","","1","","","","","","","","",""
"null","96045","SARL_v6","SARL_v6w9atktnj","5596a991fdf99b2d1e834690","fixation","","","img/fixation.png","null","","","test","","","","","","","","","","","","","","","","","","","",""
"281","96339","SARL_v6","SARL_v6w9atktnj","5596a991fdf99b2d1e834690","freq","","","img/blue_2bandit_b2.png","70","","70","test","1","","10","","","","circle","square","10","10","1","0.9","","","","","","","",""
"null","96873","SARL_v6","SARL_v6w9atktnj","5596a991fdf99b2d1e834690","freq_resp","","","img/blue_2bandit_b.png","70","img/blue_2bandit_b.png","70","test","","","","","","","","","","","1","","","","","","","","",""
"null","97035","SARL_v6","SARL_v6w9atktnj","5596a991fdf99b2d1e834690","fixation","","","img/fixation.png","null","","","test","","","","","","","","","","","","","","","","","","","",""
"268.30000000001746","97312","SARL_v6","SARL_v6w9atktnj","5596a991fdf99b2d1e834690","freq","","","img/blue_2bandit_b2.png","70","","70","test","1","","11","","","","circle","square","11","11","1","0.9090909090909091","","","","","","","",""
"null","97853","SARL_v6","SARL_v6w9atktnj","5596a991fdf99b2d1e834690","freq_resp","","","img/blue_2bandit_b.png","70","img/blue_2bandit_b.png","70","test","","","","","","","","","","","1","","","","","","","","",""
"null","98013","SARL_v6","SARL_v6w9atktnj","5596a991fdf99b2d1e834690","fixation","","","img/fixation.png","null","","","test","","","","","","","","","","","","","","","","","","","",""
"238.90000000002328","98263","SARL_v6","SARL_v6w9atktnj","5596a991fdf99b2d1e834690","infreq","","","img/orange_2bandit_b2.png","70","","68","test","0","","12","","","","circle","square","12","12","1","0.8333333333333334","","","","","","","",""
"null","98838","SARL_v6","SARL_v6w9atktnj","5596a991fdf99b2d1e834690","infreq_resp","","","img/orange_2bandit_b.png","70","img/orange_2bandit_b.png","68","test","","","","","","","","","","","1","","","","","","","","",""
"null","99002","SARL_v6","SARL_v6w9atktnj","5596a991fdf99b2d1e834690","fixation","","","img/fixation.png","null","","","test","","","","","","","","","","","","","","","","","","","",""
"409.70000000001164","99423","SARL_v6","SARL_v6w9atktnj","5596a991fdf99b2d1e834690","freq","","","img/blue_2bandit_b2.png","70","","70","test","1","","13","","","","circle","square","13","13","1","0.8461538461538461","","","","","","","",""
"null","99824","SARL_v6","SARL_v6w9atktnj","5596a991fdf99b2d1e834690","freq_resp","","","img/blue_2bandit_b.png","70","img/blue_2bandit_b.png","70","test","","","","","","","","","","","1","","","","","","","","",""
"null","99984","SARL_v6","SARL_v6w9atktnj","5596a991fdf99b2d1e834690","fixation","","","img/fixation.png","null","","","test","","","","","","","","","","","","","","","","","","","",""
"317.30000000001746","100314","SARL_v6","SARL_v6w9atktnj","5596a991fdf99b2d1e834690","freq","","","img/blue_2bandit_b2.png","70","","70","test","1","","14","","","","circle","square","14","14","1","0.8571428571428571","","","","","","","",""
"null","100811","SARL_v6","SARL_v6w9atktnj","5596a991fdf99b2d1e834690","freq_resp","","","img/blue_2bandit_b.png","70","img/blue_2bandit_b.png","70","test","","","","","","","","","","","1","","","","","","","","",""
"null","100970","SARL_v6","SARL_v6w9atktnj","5596a991fdf99b2d1e834690","fixation","","","img/fixation.png","null","","","test","","","","","","","","","","","","","","","","","","","",""
"391.69999999998254","101376","SARL_v6","SARL_v6w9atktnj","5596a991fdf99b2d1e834690","freq","","","img/blue_2bandit_b2.png","70","","70","test","1","","15","","","","circle","square","15","15","1","0.8666666666666667","","","","","","","",""
"null","101796","SARL_v6","SARL_v6w9atktnj","5596a991fdf99b2d1e834690","freq_resp","","","img/blue_2bandit_b.png","70","img/blue_2bandit_b.png","70","test","","","","","","","","","","","1","","","","","","","","",""
"null","101955","SARL_v6","SARL_v6w9atktnj","5596a991fdf99b2d1e834690","fixation","","","img/fixation.png","null","","","test","","","","","","","","","","","","","","","","","","","",""
"380.4000000000233","102345","SARL_v6","SARL_v6w9atktnj","5596a991fdf99b2d1e834690","freq","","","img/blue_2bandit_b2.png","70","","70","test","1","","16","","","","circle","square","16","16","1","0.875","","","","","","","",""
"null","102773","SARL_v6","SARL_v6w9atktnj","5596a991fdf99b2d1e834690","freq_resp","","","img/blue_2bandit_b.png","70","img/blue_2bandit_b.png","70","test","","","","","","","","","","","1","","","","","","","","",""
"null","102933","SARL_v6","SARL_v6w9atktnj","5596a991fdf99b2d1e834690","fixation","","","img/fixation.png","null","","","test","","","","","","","","","","","","","","","","","","","",""
"385","103328","SARL_v6","SARL_v6w9atktnj","5596a991fdf99b2d1e834690","freq","","","img/blue_2bandit_b2.png","70","","70","test","1","","17","","","","circle","square","17","17","1","0.8823529411764706","","","","","","","",""
"null","103752","SARL_v6","SARL_v6w9atktnj","5596a991fdf99b2d1e834690","freq_resp","","","img/blue_2bandit_b.png","70","img/blue_2bandit_b.png","70","test","","","","","","","","","","","1","","","","","","","","",""
"null","103913","SARL_v6","SARL_v6w9atktnj","5596a991fdf99b2d1e834690","fixation","","","img/fixation.png","null","","","test","","","","","","","","","","","","","","","","","","","",""
"395.79999999998836","104323","SARL_v6","SARL_v6w9atktnj","5596a991fdf99b2d1e834690","freq","","","img/blue_2bandit_b2.png","70","","70","test","1","","18","","","","circle","square","18","18","1","0.8888888888888888","","","","","","","",""
"null","104743","SARL_v6","SARL_v6w9atktnj","5596a991fdf99b2d1e834690","freq_resp","","","img/blue_2bandit_b.png","70","img/blue_2bandit_b.png","70","test","","","","","","","","","","","1","","","","","","","","",""
"null","104905","SARL_v6","SARL_v6w9atktnj","5596a991fdf99b2d1e834690","fixation","","","img/fixation.png","null","","","test","","","","","","","","","","","","","","","","","","","",""
"341.6000000000058","105256","SARL_v6","SARL_v6w9atktnj","5596a991fdf99b2d1e834690","freq","","","img/blue_2bandit_b2.png","70","","70","test","1","","19","","","","circle","square","19","19","1","0.8947368421052632","","","","","","","",""
"null","105723","SARL_v6","SARL_v6w9atktnj","5596a991fdf99b2d1e834690","freq_resp","","","img/blue_2bandit_b.png","70","img/blue_2bandit_b.png","70","test","","","","","","","","","","","1","","","","","","","","",""
"null","105887","SARL_v6","SARL_v6w9atktnj","5596a991fdf99b2d1e834690","fixation","","","img/fixation.png","null","","","test","","","","","","","","","","","","","","","","","","","",""
"313.5","106209","SARL_v6","SARL_v6w9atktnj","5596a991fdf99b2d1e834690","freq","","","img/blue_2bandit_b2.png","70","","70","test","1","","20","","","","circle","square","20","20","1","0.9","","","","","","","",""
"null","106709","SARL_v6","SARL_v6w9atktnj","5596a991fdf99b2d1e834690","freq_resp","","","img/blue_2bandit_b.png","70","img/blue_2bandit_b.png","70","test","","","","","","","","","","","1","","","","","","","","",""
"null","106872","SARL_v6","SARL_v6w9atktnj","5596a991fdf99b2d1e834690","fixation","","","img/fixation.png","null","","","test","","","","","","","","","","","","","","","","","","","",""
"299.3999999999942","107186","SARL_v6","SARL_v6w9atktnj","5596a991fdf99b2d1e834690","freq","","","img/blue_2bandit_b2.png","70","","70","test","1","","21","","","","circle","square","21","21","1","0.9047619047619048","","","","","","","",""
"null","107695","SARL_v6","SARL_v6w9atktnj","5596a991fdf99b2d1e834690","freq_resp","","","img/blue_2bandit_b.png","70","img/blue_2bandit_b.png","70","test","","","","","","","","","","","1","","","","","","","","",""
"null","107859","SARL_v6","SARL_v6w9atktnj","5596a991fdf99b2d1e834690","fixation","","","img/fixation.png","null","","","test","","","","","","","","","","","","","","","","","","","",""
"373.19999999998254","108243","SARL_v6","SARL_v6w9atktnj","5596a991fdf99b2d1e834690","infreq","","","img/orange_2bandit_b2.png","68","","68","test","1","","22","","","","circle","square","22","22","1","0.9090909090909091","","","","","","","",""
"null","108685","SARL_v6","SARL_v6w9atktnj","5596a991fdf99b2d1e834690","infreq_resp","","","img/orange_2bandit_b.png","68","img/orange_2bandit_b.png","68","test","","","","","","","","","","","1","","","","","","","","",""
"null","108845","SARL_v6","SARL_v6w9atktnj","5596a991fdf99b2d1e834690","fixation","","","img/fixation.png","null","","","test","","","","","","","","","","","","","","","","","","","",""
"400.1000000000058","109254","SARL_v6","SARL_v6w9atktnj","5596a991fdf99b2d1e834690","freq","","","img/blue_2bandit_b2.png","70","","70","test","1","","23","","","","circle","square","23","23","1","0.9130434782608695","","","","","","","",""
"null","109666","SARL_v6","SARL_v6w9atktnj","5596a991fdf99b2d1e834690","freq_resp","","","img/blue_2bandit_b.png","70","img/blue_2bandit_b.png","70","test","","","","","","","","","","","1","","","","","","","","",""
"null","109832","SARL_v6","SARL_v6w9atktnj","5596a991fdf99b2d1e834690","fixation","","","img/fixation.png","null","","","test","","","","","","","","","","","","","","","","","","","",""
"369.1000000000058","110210","SARL_v6","SARL_v6w9atktnj","5596a991fdf99b2d1e834690","freq","","","img/blue_2bandit_b2.png","70","","70","test","1","","24","","","","circle","square","24","24","1","0.9166666666666666","","","","","","","",""
"null","110655","SARL_v6","SARL_v6w9atktnj","5596a991fdf99b2d1e834690","freq_resp","","","img/blue_2bandit_b.png","70","img/blue_2bandit_b.png","70","test","","","","","","","","","","","1","","","","","","","","",""
"null","110816","SARL_v6","SARL_v6w9atktnj","5596a991fdf99b2d1e834690","fixation","","","img/fixation.png","null","","","test","","","","","","","","","","","","","","","","","","","",""
"340.79999999998836","111166","SARL_v6","SARL_v6w9atktnj","5596a991fdf99b2d1e834690","freq","","","img/blue_2bandit_b2.png","70","","70","test","1","","25","","","","circle","square","25","25","1","0.92","","","","","","","",""
"null","111641","SARL_v6","SARL_v6w9atktnj","5596a991fdf99b2d1e834690","freq_resp","","","img/blue_2bandit_b.png","70","img/blue_2bandit_b.png","70","test","","","","","","","","","","","1","","","","","","","","",""
"null","111802","SARL_v6","SARL_v6w9atktnj","5596a991fdf99b2d1e834690","fixation","","","img/fixation.png","null","","","test","","","","","","","","","","","","","","","","","","","",""
"339.69999999998254","112150","SARL_v6","SARL_v6w9atktnj","5596a991fdf99b2d1e834690","freq","","","img/blue_2bandit_b2.png","70","","70","test","1","","26","","","","circle","square","26","26","1","0.9230769230769231","","","","","","","",""
"null","112621","SARL_v6","SARL_v6w9atktnj","5596a991fdf99b2d1e834690","freq_resp","","","img/blue_2bandit_b.png","70","img/blue_2bandit_b.png","70","test","","","","","","","","","","","1","","","","","","","","",""
"null","112784","SARL_v6","SARL_v6w9atktnj","5596a991fdf99b2d1e834690","fixation","","","img/fixation.png","null","","","test","","","","","","","","","","","","","","","","","","","",""
"512.5","113306","SARL_v6","SARL_v6w9atktnj","5596a991fdf99b2d1e834690","rl","","","img/black_2bandit_b2.png","75","","0","test","","","27","","","-3","circle","square","","0","1","","75","-3","-3","-3","-3","square","1","0"
"null","114068","SARL_v6","SARL_v6w9atktnj","5596a991fdf99b2d1e834690","feedback","","","<div class=""verylowPoints_sq""> -3 </div>","null","","na","test","","","NaN","","","","","","","","1","","75","","","","","","1",""
"483.9000000000233","114567","SARL_v6","SARL_v6w9atktnj","5596a991fdf99b2d1e834690","freq","","","img/blue_2bandit_b2.png","70","","70","test","1","","28","","","","circle","square","27","1","2","0.9259259259259259","","","","","","","",""
"null","114899","SARL_v6","SARL_v6w9atktnj","5596a991fdf99b2d1e834690","freq_resp","","","img/blue_2bandit_b.png","70","img/blue_2bandit_b.png","70","test","","","","","","","","","","","2","","","","","","","","",""
"null","115063","SARL_v6","SARL_v6w9atktnj","5596a991fdf99b2d1e834690","fixation","","","img/fixation.png","null","","","test","","","","","","","","","","","","","","","","","","","",""
"346.1000000000058","115422","SARL_v6","SARL_v6w9atktnj","5596a991fdf99b2d1e834690","freq","","","img/blue_2bandit_b2.png","70","","70","test","1","","29","","","","circle","square","28","2","2","0.9285714285714286","","","","","","","",""
"null","115891","SARL_v6","SARL_v6w9atktnj","5596a991fdf99b2d1e834690","freq_resp","","","img/blue_2bandit_b.png","70","img/blue_2bandit_b.png","70","test","","","","","","","","","","","2","","","","","","","","",""
"null","116057","SARL_v6","SARL_v6w9atktnj","5596a991fdf99b2d1e834690","fixation","","","img/fixation.png","null","","","test","","","","","","","","","","","","","","","","","","","",""
"312.1000000000058","116377","SARL_v6","SARL_v6w9atktnj","5596a991fdf99b2d1e834690","freq","","","img/blue_2bandit_b2.png","70","","70","test","1","","30","","","","circle","square","29","3","2","0.9310344827586207","","","","","","","",""
"null","116876","SARL_v6","SARL_v6w9atktnj","5596a991fdf99b2d1e834690","freq_resp","","","img/blue_2bandit_b.png","70","img/blue_2bandit_b.png","70","test","","","","","","","","","","","2","","","","","","","","",""
"null","117039","SARL_v6","SARL_v6w9atktnj","5596a991fdf99b2d1e834690","fixation","","","img/fixation.png","null","","","test","","","","","","","","","","","","","","","","","","","",""
"304.70000000001164","117356","SARL_v6","SARL_v6w9atktnj","5596a991fdf99b2d1e834690","freq","","","img/blue_2bandit_b2.png","70","","70","test","1","","31","","","","circle","square","30","4","2","0.9333333333333333","","","","","","","",""
"null","117866","SARL_v6","SARL_v6w9atktnj","5596a991fdf99b2d1e834690","freq_resp","","","img/blue_2bandit_b.png","70","img/blue_2bandit_b.png","70","test","","","","","","","","","","","2","","","","","","","","",""
"null","118028","SARL_v6","SARL_v6w9atktnj","5596a991fdf99b2d1e834690","fixation","","","img/fixation.png","null","","","test","","","","","","","","","","","","","","","","","","","",""
"320.4000000000233","118363","SARL_v6","SARL_v6w9atktnj","5596a991fdf99b2d1e834690","freq","","","img/blue_2bandit_b2.png","70","","70","test","1","","32","","","","circle","square","31","5","2","0.9354838709677419","","","","","","","",""
"null","118857","SARL_v6","SARL_v6w9atktnj","5596a991fdf99b2d1e834690","freq_resp","","","img/blue_2bandit_b.png","70","img/blue_2bandit_b.png","70","test","","","","","","","","","","","2","","","","","","","","",""
"null","119017","SARL_v6","SARL_v6w9atktnj","5596a991fdf99b2d1e834690","fixation","","","img/fixation.png","null","","","test","","","","","","","","","","","","","","","","","","","",""
"326.6000000000058","119354","SARL_v6","SARL_v6w9atktnj","5596a991fdf99b2d1e834690","freq","","","img/blue_2bandit_b2.png","70","","70","test","1","","33","","","","circle","square","32","6","2","0.9375","","","","","","","",""
"null","119840","SARL_v6","SARL_v6w9atktnj","5596a991fdf99b2d1e834690","freq_resp","","","img/blue_2bandit_b.png","70","img/blue_2bandit_b.png","70","test","","","","","","","","","","","2","","","","","","","","",""
"null","119999","SARL_v6","SARL_v6w9atktnj","5596a991fdf99b2d1e834690","fixation","","","img/fixation.png","null","","","test","","","","","","","","","","","","","","","","","","","",""
"297.5999999999767","120307","SARL_v6","SARL_v6w9atktnj","5596a991fdf99b2d1e834690","freq","","","img/blue_2bandit_b2.png","70","","70","test","1","","34","","","","circle","square","33","7","2","0.9393939393939394","","","","","","","",""
"null","120820","SARL_v6","SARL_v6w9atktnj","5596a991fdf99b2d1e834690","freq_resp","","","img/blue_2bandit_b.png","70","img/blue_2bandit_b.png","70","test","","","","","","","","","","","2","","","","","","","","",""
"null","120979","SARL_v6","SARL_v6w9atktnj","5596a991fdf99b2d1e834690","fixation","","","img/fixation.png","null","","","test","","","","","","","","","","","","","","","","","","","",""
"253.79999999998836","121243","SARL_v6","SARL_v6w9atktnj","5596a991fdf99b2d1e834690","infreq","","","img/orange_2bandit_b2.png","70","","68","test","0","","35","","","","circle","square","34","8","2","0.9117647058823529","","","","","","","",""
"null","121804","SARL_v6","SARL_v6w9atktnj","5596a991fdf99b2d1e834690","infreq_resp","","","img/orange_2bandit_b.png","70","img/orange_2bandit_b.png","68","test","","","","","","","","","","","2","","","","","","","","",""
"null","121963","SARL_v6","SARL_v6w9atktnj","5596a991fdf99b2d1e834690","fixation","","","img/fixation.png","null","","","test","","","","","","","","","","","","","","","","","","","",""
"317.79999999998836","122290","SARL_v6","SARL_v6w9atktnj","5596a991fdf99b2d1e834690","freq","","","img/blue_2bandit_b2.png","70","","70","test","1","","36","","","","circle","square","35","9","2","0.9142857142857143","","","","","","","",""
"null","122782","SARL_v6","SARL_v6w9atktnj","5596a991fdf99b2d1e834690","freq_resp","","","img/blue_2bandit_b.png","70","img/blue_2bandit_b.png","70","test","","","","","","","","","","","2","","","","","","","","",""
"null","122941","SARL_v6","SARL_v6w9atktnj","5596a991fdf99b2d1e834690","fixation","","","img/fixation.png","null","","","test","","","","","","","","","","","","","","","","","","","",""
"256.4000000000233","123206","SARL_v6","SARL_v6w9atktnj","5596a991fdf99b2d1e834690","freq","","","img/blue_2bandit_b2.png","70","","70","test","1","","37","","","","circle","square","36","10","2","0.9166666666666666","","","","","","","",""
"null","123764","SARL_v6","SARL_v6w9atktnj","5596a991fdf99b2d1e834690","freq_resp","","","img/blue_2bandit_b.png","70","img/blue_2bandit_b.png","70","test","","","","","","","","","","","2","","","","","","","","",""
"null","123927","SARL_v6","SARL_v6w9atktnj","5596a991fdf99b2d1e834690","fixation","","","img/fixation.png","null","","","test","","","","","","","","","","","","","","","","","","","",""
"295.8999999999651","124234","SARL_v6","SARL_v6w9atktnj","5596a991fdf99b2d1e834690","freq","","","img/blue_2bandit_b2.png","70","","70","test","1","","38","","","","circle","square","37","11","2","0.918918918918919","","","","","","","",""
"null","124753","SARL_v6","SARL_v6w9atktnj","5596a991fdf99b2d1e834690","freq_resp","","","img/blue_2bandit_b.png","70","img/blue_2bandit_b.png","70","test","","","","","","","","","","","2","","","","","","","","",""
"null","124916","SARL_v6","SARL_v6w9atktnj","5596a991fdf99b2d1e834690","fixation","","","img/fixation.png","null","","","test","","","","","","","","","","","","","","","","","","","",""
"215.40000000002328","125144","SARL_v6","SARL_v6w9atktnj","5596a991fdf99b2d1e834690","freq","","","img/blue_2bandit_b2.png","70","","70","test","1","","39","","","","circle","square","38","12","2","0.9210526315789473","","","","","","","",""
"null","125743","SARL_v6","SARL_v6w9atktnj","5596a991fdf99b2d1e834690","freq_resp","","","img/blue_2bandit_b.png","70","img/blue_2bandit_b.png","70","test","","","","","","","","","","","2","","","","","","","","",""
"null","125902","SARL_v6","SARL_v6w9atktnj","5596a991fdf99b2d1e834690","fixation","","","img/fixation.png","null","","","test","","","","","","","","","","","","","","","","","","","",""
"296.20000000001164","126207","SARL_v6","SARL_v6w9atktnj","5596a991fdf99b2d1e834690","freq","","","img/blue_2bandit_b2.png","70","","70","test","1","","40","","","","circle","square","39","13","2","0.9230769230769231","","","","","","","",""
"null","126725","SARL_v6","SARL_v6w9atktnj","5596a991fdf99b2d1e834690","freq_resp","","","img/blue_2bandit_b.png","70","img/blue_2bandit_b.png","70","test","","","","","","","","","","","2","","","","","","","","",""
"null","126886","SARL_v6","SARL_v6w9atktnj","5596a991fdf99b2d1e834690","fixation","","","img/fixation.png","null","","","test","","","","","","","","","","","","","","","","","","","",""
"251.59999999997672","127146","SARL_v6","SARL_v6w9atktnj","5596a991fdf99b2d1e834690","freq","","","img/blue_2bandit_b2.png","70","","70","test","1","","41","","","","circle","square","40","14","2","0.925","","","","","","","",""
"null","127704","SARL_v6","SARL_v6w9atktnj","5596a991fdf99b2d1e834690","freq_resp","","","img/blue_2bandit_b.png","70","img/blue_2bandit_b.png","70","test","","","","","","","","","","","2","","","","","","","","",""
"null","127863","SARL_v6","SARL_v6w9atktnj","5596a991fdf99b2d1e834690","fixation","","","img/fixation.png","null","","","test","","","","","","","","","","","","","","","","","","","",""
"617.4000000000233","128489","SARL_v6","SARL_v6w9atktnj","5596a991fdf99b2d1e834690","infreq","","","img/orange_2bandit_b2.png","68","","68","test","1","","42","","","","circle","square","41","15","2","0.926829268292683","","","","","","","",""
"null","128684","SARL_v6","SARL_v6w9atktnj","5596a991fdf99b2d1e834690","infreq_resp","","","img/orange_2bandit_b.png","68","img/orange_2bandit_b.png","68","test","","","","","","","","","","","2","","","","","","","","",""
"null","128843","SARL_v6","SARL_v6w9atktnj","5596a991fdf99b2d1e834690","fixation","","","img/fixation.png","null","","","test","","","","","","","","","","","","","","","","","","","",""
"417.79999999998836","129271","SARL_v6","SARL_v6w9atktnj","5596a991fdf99b2d1e834690","freq","","","img/blue_2bandit_b2.png","70","","70","test","1","","43","","","","circle","square","42","16","2","0.9285714285714286","","","","","","","",""
"null","129666","SARL_v6","SARL_v6w9atktnj","5596a991fdf99b2d1e834690","freq_resp","","","img/blue_2bandit_b.png","70","img/blue_2bandit_b.png","70","test","","","","","","","","","","","2","","","","","","","","",""
"null","129827","SARL_v6","SARL_v6w9atktnj","5596a991fdf99b2d1e834690","fixation","","","img/fixation.png","null","","","test","","","","","","","","","","","","","","","","","","","",""
"295.29999999998836","130135","SARL_v6","SARL_v6w9atktnj","5596a991fdf99b2d1e834690","freq","","","img/blue_2bandit_b2.png","70","","70","test","1","","44","","","","circle","square","43","17","2","0.9302325581395349","","","","","","","",""
"null","130648","SARL_v6","SARL_v6w9atktnj","5596a991fdf99b2d1e834690","freq_resp","","","img/blue_2bandit_b.png","70","img/blue_2bandit_b.png","70","test","","","","","","","","","","","2","","","","","","","","",""
"null","130806","SARL_v6","SARL_v6w9atktnj","5596a991fdf99b2d1e834690","fixation","","","img/fixation.png","null","","","test","","","","","","","","","","","","","","","","","","","",""
"306.79999999998836","131121","SARL_v6","SARL_v6w9atktnj","5596a991fdf99b2d1e834690","freq","","","img/blue_2bandit_b2.png","70","","70","test","1","","45","","","","circle","square","44","18","2","0.9318181818181818","","","","","","","",""
"null","131622","SARL_v6","SARL_v6w9atktnj","5596a991fdf99b2d1e834690","freq_resp","","","img/blue_2bandit_b.png","70","img/blue_2bandit_b.png","70","test","","","","","","","","","","","2","","","","","","","","",""
"null","131780","SARL_v6","SARL_v6w9atktnj","5596a991fdf99b2d1e834690","fixation","","","img/fixation.png","null","","","test","","","","","","","","","","","","","","","","","","","",""
"253.09999999997672","132042","SARL_v6","SARL_v6w9atktnj","5596a991fdf99b2d1e834690","freq","","","img/blue_2bandit_b2.png","70","","70","test","1","","46","","","","circle","square","45","19","2","0.9333333333333333","","","","","","","",""
"null","132596","SARL_v6","SARL_v6w9atktnj","5596a991fdf99b2d1e834690","freq_resp","","","img/blue_2bandit_b.png","70","img/blue_2bandit_b.png","70","test","","","","","","","","","","","2","","","","","","","","",""
"null","132754","SARL_v6","SARL_v6w9atktnj","5596a991fdf99b2d1e834690","fixation","","","img/fixation.png","null","","","test","","","","","","","","","","","","","","","","","","","",""
"262.6000000000349","133024","SARL_v6","SARL_v6w9atktnj","5596a991fdf99b2d1e834690","freq","","","img/blue_2bandit_b2.png","70","","70","test","1","","47","","","","circle","square","46","20","2","0.9347826086956522","","","","","","","",""
"null","133569","SARL_v6","SARL_v6w9atktnj","5596a991fdf99b2d1e834690","freq_resp","","","img/blue_2bandit_b.png","70","img/blue_2bandit_b.png","70","test","","","","","","","","","","","2","","","","","","","","",""
"null","133727","SARL_v6","SARL_v6w9atktnj","5596a991fdf99b2d1e834690","fixation","","","img/fixation.png","null","","","test","","","","","","","","","","","","","","","","","","","",""
"283.4000000000233","134019","SARL_v6","SARL_v6w9atktnj","5596a991fdf99b2d1e834690","freq","","","img/blue_2bandit_b2.png","70","","70","test","1","","48","","","","circle","square","47","21","2","0.9361702127659575","","","","","","","",""
"null","134543","SARL_v6","SARL_v6w9atktnj","5596a991fdf99b2d1e834690","freq_resp","","","img/blue_2bandit_b.png","70","img/blue_2bandit_b.png","70","test","","","","","","","","","","","2","","","","","","","","",""
"null","134703","SARL_v6","SARL_v6w9atktnj","5596a991fdf99b2d1e834690","fixation","","","img/fixation.png","null","","","test","","","","","","","","","","","","","","","","","","","",""
"265.30000000004657","134977","SARL_v6","SARL_v6w9atktnj","5596a991fdf99b2d1e834690","freq","","","img/blue_2bandit_b2.png","70","","70","test","1","","49","","","","circle","square","48","22","2","0.9375","","","","","","","",""
"null","135520","SARL_v6","SARL_v6w9atktnj","5596a991fdf99b2d1e834690","freq_resp","","","img/blue_2bandit_b.png","70","img/blue_2bandit_b.png","70","test","","","","","","","","","","","2","","","","","","","","",""
"null","135678","SARL_v6","SARL_v6w9atktnj","5596a991fdf99b2d1e834690","fixation","","","img/fixation.png","null","","","test","","","","","","","","","","","","","","","","","","","",""
"367.9000000000233","136054","SARL_v6","SARL_v6w9atktnj","5596a991fdf99b2d1e834690","freq","","","img/blue_2bandit_b2.png","70","","70","test","1","","50","","","","circle","square","49","23","2","0.9387755102040817","","","","","","","",""
"null","136497","SARL_v6","SARL_v6w9atktnj","5596a991fdf99b2d1e834690","freq_resp","","","img/blue_2bandit_b.png","70","img/blue_2bandit_b.png","70","test","","","","","","","","","","","2","","","","","","","","",""
"null","136658","SARL_v6","SARL_v6w9atktnj","5596a991fdf99b2d1e834690","fixation","","","img/fixation.png","null","","","test","","","","","","","","","","","","","","","","","","","",""
"418.9000000000233","137089","SARL_v6","SARL_v6w9atktnj","5596a991fdf99b2d1e834690","freq","","","img/blue_2bandit_b2.png","70","","70","test","1","","51","","","","circle","square","50","24","2","0.94","","","","","","","",""
"null","137485","SARL_v6","SARL_v6w9atktnj","5596a991fdf99b2d1e834690","freq_resp","","","img/blue_2bandit_b.png","70","img/blue_2bandit_b.png","70","test","","","","","","","","","","","2","","","","","","","","",""
"null","137646","SARL_v6","SARL_v6w9atktnj","5596a991fdf99b2d1e834690","fixation","","","img/fixation.png","null","","","test","","","","","","","","","","","","","","","","","","","",""
"553.4000000000233","138213","SARL_v6","SARL_v6w9atktnj","5596a991fdf99b2d1e834690","rl","","","img/black_2bandit_b2.png","75","","0","test","","","52","","","-8","circle","square","","0","2","","75","-5","-8","-5","-8","square","2","0"
"null","138975","SARL_v6","SARL_v6w9atktnj","5596a991fdf99b2d1e834690","feedback","","","<div class=""verylowPoints_sq""> -8 </div>","null","","na","test","","","NaN","","","","","","","","2","","75","","","","","","2",""
"756.2000000000116","139740","SARL_v6","SARL_v6w9atktnj","5596a991fdf99b2d1e834690","freq","","","img/blue_2bandit_b2.png","70","","70","test","1","","53","","","","circle","square","51","1","3","0.9411764705882353","","","","","","","",""
"null","139792","SARL_v6","SARL_v6w9atktnj","5596a991fdf99b2d1e834690","freq_resp","","","img/blue_2bandit_b.png","70","img/blue_2bandit_b.png","70","test","","","","","","","","","","","3","","","","","","","","",""
"null","139956","SARL_v6","SARL_v6w9atktnj","5596a991fdf99b2d1e834690","fixation","","","img/fixation.png","null","","","test","","","","","","","","","","","","","","","","","","","",""
"457.79999999998836","140426","SARL_v6","SARL_v6w9atktnj","5596a991fdf99b2d1e834690","freq","","","img/blue_2bandit_b2.png","70","","70","test","1","","54","","","","circle","square","52","2","3","0.9423076923076923","","","","","","","",""
"null","140782","SARL_v6","SARL_v6w9atktnj","5596a991fdf99b2d1e834690","freq_resp","","","img/blue_2bandit_b.png","70","img/blue_2bandit_b.png","70","test","","","","","","","","","","","3","","","","","","","","",""
"null","140942","SARL_v6","SARL_v6w9atktnj","5596a991fdf99b2d1e834690","fixation","","","img/fixation.png","null","","","test","","","","","","","","","","","","","","","","","","","",""
"332.20000000001164","141288","SARL_v6","SARL_v6w9atktnj","5596a991fdf99b2d1e834690","freq","","","img/blue_2bandit_b2.png","70","","70","test","1","","55","","","","circle","square","53","3","3","0.9433962264150944","","","","","","","",""
"null","141767","SARL_v6","SARL_v6w9atktnj","5596a991fdf99b2d1e834690","freq_resp","","","img/blue_2bandit_b.png","70","img/blue_2bandit_b.png","70","test","","","","","","","","","","","3","","","","","","","","",""
"null","141930","SARL_v6","SARL_v6w9atktnj","5596a991fdf99b2d1e834690","fixation","","","img/fixation.png","null","","","test","","","","","","","","","","","","","","","","","","","",""
"365","142311","SARL_v6","SARL_v6w9atktnj","5596a991fdf99b2d1e834690","freq","","","img/blue_2bandit_b2.png","70","","70","test","1","","56","","","","circle","square","54","4","3","0.9444444444444444","","","","","","","",""
"null","142761","SARL_v6","SARL_v6w9atktnj","5596a991fdf99b2d1e834690","freq_resp","","","img/blue_2bandit_b.png","70","img/blue_2bandit_b.png","70","test","","","","","","","","","","","3","","","","","","","","",""
"null","142925","SARL_v6","SARL_v6w9atktnj","5596a991fdf99b2d1e834690","fixation","","","img/fixation.png","null","","","test","","","","","","","","","","","","","","","","","","","",""
"247.40000000002328","143181","SARL_v6","SARL_v6w9atktnj","5596a991fdf99b2d1e834690","freq","","","img/blue_2bandit_b2.png","70","","70","test","1","","57","","","","circle","square","55","5","3","0.9454545454545454","","","","","","","",""
"null","143745","SARL_v6","SARL_v6w9atktnj","5596a991fdf99b2d1e834690","freq_resp","","","img/blue_2bandit_b.png","70","img/blue_2bandit_b.png","70","test","","","","","","","","","","","3","","","","","","","","",""
"null","143908","SARL_v6","SARL_v6w9atktnj","5596a991fdf99b2d1e834690","fixation","","","img/fixation.png","null","","","test","","","","","","","","","","","","","","","","","","","",""
"293.19999999995343","144211","SARL_v6","SARL_v6w9atktnj","5596a991fdf99b2d1e834690","freq","","","img/blue_2bandit_b2.png","70","","70","test","1","","58","","","","circle","square","56","6","3","0.9464285714285714","","","","","","","",""
"null","144727","SARL_v6","SARL_v6w9atktnj","5596a991fdf99b2d1e834690","freq_resp","","","img/blue_2bandit_b.png","70","img/blue_2bandit_b.png","70","test","","","","","","","","","","","3","","","","","","","","",""
"null","144890","SARL_v6","SARL_v6w9atktnj","5596a991fdf99b2d1e834690","fixation","","","img/fixation.png","null","","","test","","","","","","","","","","","","","","","","","","","",""
"346.3999999999651","145250","SARL_v6","SARL_v6w9atktnj","5596a991fdf99b2d1e834690","freq","","","img/blue_2bandit_b2.png","70","","70","test","1","","59","","","","circle","square","57","7","3","0.9473684210526315","","","","","","","",""
"null","145714","SARL_v6","SARL_v6w9atktnj","5596a991fdf99b2d1e834690","freq_resp","","","img/blue_2bandit_b.png","70","img/blue_2bandit_b.png","70","test","","","","","","","","","","","3","","","","","","","","",""
"null","145873","SARL_v6","SARL_v6w9atktnj","5596a991fdf99b2d1e834690","fixation","","","img/fixation.png","null","","","test","","","","","","","","","","","","","","","","","","","",""
"381.70000000001164","146264","SARL_v6","SARL_v6w9atktnj","5596a991fdf99b2d1e834690","infreq","","","img/orange_2bandit_b2.png","68","","68","test","1","","60","","","","circle","square","58","8","3","0.9482758620689655","","","","","","","",""
"null","146696","SARL_v6","SARL_v6w9atktnj","5596a991fdf99b2d1e834690","infreq_resp","","","img/orange_2bandit_b.png","68","img/orange_2bandit_b.png","68","test","","","","","","","","","","","3","","","","","","","","",""
"null","146859","SARL_v6","SARL_v6w9atktnj","5596a991fdf99b2d1e834690","fixation","","","img/fixation.png","null","","","test","","","","","","","","","","","","","","","","","","","",""
"456.5","147325","SARL_v6","SARL_v6w9atktnj","5596a991fdf99b2d1e834690","infreq","","","img/orange_2bandit_b2.png","68","","68","test","1","","61","","","","circle","square","59","9","3","0.9491525423728814","","","","","","","",""
"null","147677","SARL_v6","SARL_v6w9atktnj","5596a991fdf99b2d1e834690","infreq_resp","","","img/orange_2bandit_b.png","68","img/orange_2bandit_b.png","68","test","","","","","","","","","","","3","","","","","","","","",""
"null","147838","SARL_v6","SARL_v6w9atktnj","5596a991fdf99b2d1e834690","fixation","","","img/fixation.png","null","","","test","","","","","","","","","","","","","","","","","","","",""
"467.8999999999651","148317","SARL_v6","SARL_v6w9atktnj","5596a991fdf99b2d1e834690","freq","","","img/blue_2bandit_b2.png","70","","70","test","1","","62","","","","circle","square","60","10","3","0.95","","","","","","","",""
"null","148658","SARL_v6","SARL_v6w9atktnj","5596a991fdf99b2d1e834690","freq_resp","","","img/blue_2bandit_b.png","70","img/blue_2bandit_b.png","70","test","","","","","","","","","","","3","","","","","","","","",""
"null","148818","SARL_v6","SARL_v6w9atktnj","5596a991fdf99b2d1e834690","fixation","","","img/fixation.png","null","","","test","","","","","","","","","","","","","","","","","","","",""
"302.5","149134","SARL_v6","SARL_v6w9atktnj","5596a991fdf99b2d1e834690","freq","","","img/blue_2bandit_b2.png","70","","70","test","1","","63","","","","circle","square","61","11","3","0.9508196721311475","","","","","","","",""
"null","149642","SARL_v6","SARL_v6w9atktnj","5596a991fdf99b2d1e834690","freq_resp","","","img/blue_2bandit_b.png","70","img/blue_2bandit_b.png","70","test","","","","","","","","","","","3","","","","","","","","",""
"null","149801","SARL_v6","SARL_v6w9atktnj","5596a991fdf99b2d1e834690","fixation","","","img/fixation.png","null","","","test","","","","","","","","","","","","","","","","","","","",""
"300.30000000004657","150111","SARL_v6","SARL_v6w9atktnj","5596a991fdf99b2d1e834690","freq","","","img/blue_2bandit_b2.png","70","","70","test","1","","64","","","","circle","square","62","12","3","0.9516129032258065","","","","","","","",""
"null","150624","SARL_v6","SARL_v6w9atktnj","5596a991fdf99b2d1e834690","freq_resp","","","img/blue_2bandit_b.png","70","img/blue_2bandit_b.png","70","test","","","","","","","","","","","3","","","","","","","","",""
"null","150785","SARL_v6","SARL_v6w9atktnj","5596a991fdf99b2d1e834690","fixation","","","img/fixation.png","null","","","test","","","","","","","","","","","","","","","","","","","",""
"304.4000000000233","151103","SARL_v6","SARL_v6w9atktnj","5596a991fdf99b2d1e834690","freq","","","img/blue_2bandit_b2.png","70","","70","test","1","","65","","","","circle","square","63","13","3","0.9523809523809523","","","","","","","",""
"null","151613","SARL_v6","SARL_v6w9atktnj","5596a991fdf99b2d1e834690","freq_resp","","","img/blue_2bandit_b.png","70","img/blue_2bandit_b.png","70","test","","","","","","","","","","","3","","","","","","","","",""
"null","151775","SARL_v6","SARL_v6w9atktnj","5596a991fdf99b2d1e834690","fixation","","","img/fixation.png","null","","","test","","","","","","","","","","","","","","","","","","","",""
"290.79999999998836","152079","SARL_v6","SARL_v6w9atktnj","5596a991fdf99b2d1e834690","freq","","","img/blue_2bandit_b2.png","70","","70","test","1","","66","","","","circle","square","64","14","3","0.953125","","","","","","","",""
"null","152602","SARL_v6","SARL_v6w9atktnj","5596a991fdf99b2d1e834690","freq_resp","","","img/blue_2bandit_b.png","70","img/blue_2bandit_b.png","70","test","","","","","","","","","","","3","","","","","","","","",""
"null","152766","SARL_v6","SARL_v6w9atktnj","5596a991fdf99b2d1e834690","fixation","","","img/fixation.png","null","","","test","","","","","","","","","","","","","","","","","","","",""
"285.4000000000233","153062","SARL_v6","SARL_v6w9atktnj","5596a991fdf99b2d1e834690","freq","","","img/blue_2bandit_b2.png","70","","70","test","1","","67","","","","circle","square","65","15","3","0.9538461538461539","","","","","","","",""
"null","153588","SARL_v6","SARL_v6w9atktnj","5596a991fdf99b2d1e834690","freq_resp","","","img/blue_2bandit_b.png","70","img/blue_2bandit_b.png","70","test","","","","","","","","","","","3","","","","","","","","",""
"null","153748","SARL_v6","SARL_v6w9atktnj","5596a991fdf99b2d1e834690","fixation","","","img/fixation.png","null","","","test","","","","","","","","","","","","","","","","","","","",""
"281.6000000000349","154043","SARL_v6","SARL_v6w9atktnj","5596a991fdf99b2d1e834690","freq","","","img/blue_2bandit_b2.png","70","","70","test","1","","68","","","","circle","square","66","16","3","0.9545454545454546","","","","","","","",""
"null","154576","SARL_v6","SARL_v6w9atktnj","5596a991fdf99b2d1e834690","freq_resp","","","img/blue_2bandit_b.png","70","img/blue_2bandit_b.png","70","test","","","","","","","","","","","3","","","","","","","","",""
"null","154738","SARL_v6","SARL_v6w9atktnj","5596a991fdf99b2d1e834690","fixation","","","img/fixation.png","null","","","test","","","","","","","","","","","","","","","","","","","",""
"308.6000000000349","155060","SARL_v6","SARL_v6w9atktnj","5596a991fdf99b2d1e834690","freq","","","img/blue_2bandit_b2.png","70","","70","test","1","","69","","","","circle","square","67","17","3","0.9552238805970149","","","","","","","",""
"null","155562","SARL_v6","SARL_v6w9atktnj","5596a991fdf99b2d1e834690","freq_resp","","","img/blue_2bandit_b.png","70","img/blue_2bandit_b.png","70","test","","","","","","","","","","","3","","","","","","","","",""
"null","155724","SARL_v6","SARL_v6w9atktnj","5596a991fdf99b2d1e834690","fixation","","","img/fixation.png","null","","","test","","","","","","","","","","","","","","","","","","","",""
"225.29999999998836","155964","SARL_v6","SARL_v6w9atktnj","5596a991fdf99b2d1e834690","freq","","","img/blue_2bandit_b2.png","70","","70","test","1","","70","","","","circle","square","68","18","3","0.9558823529411765","","","","","","","",""
"null","156548","SARL_v6","SARL_v6w9atktnj","5596a991fdf99b2d1e834690","freq_resp","","","img/blue_2bandit_b.png","70","img/blue_2bandit_b.png","70","test","","","","","","","","","","","3","","","","","","","","",""
"null","156709","SARL_v6","SARL_v6w9atktnj","5596a991fdf99b2d1e834690","fixation","","","img/fixation.png","null","","","test","","","","","","","","","","","","","","","","","","","",""
"309.5","157034","SARL_v6","SARL_v6w9atktnj","5596a991fdf99b2d1e834690","freq","","","img/blue_2bandit_b2.png","70","","70","test","1","","71","","","","circle","square","69","19","3","0.9565217391304348","","","","","","","",""
"null","157539","SARL_v6","SARL_v6w9atktnj","5596a991fdf99b2d1e834690","freq_resp","","","img/blue_2bandit_b.png","70","img/blue_2bandit_b.png","70","test","","","","","","","","","","","3","","","","","","","","",""
"null","157699","SARL_v6","SARL_v6w9atktnj","5596a991fdf99b2d1e834690","fixation","","","img/fixation.png","null","","","test","","","","","","","","","","","","","","","","","","","",""
"279.20000000001164","157988","SARL_v6","SARL_v6w9atktnj","5596a991fdf99b2d1e834690","freq","","","img/blue_2bandit_b2.png","70","","70","test","1","","72","","","","circle","square","70","20","3","0.9571428571428572","","","","","","","",""
"null","158522","SARL_v6","SARL_v6w9atktnj","5596a991fdf99b2d1e834690","freq_resp","","","img/blue_2bandit_b.png","70","img/blue_2bandit_b.png","70","test","","","","","","","","","","","3","","","","","","","","",""
"null","158682","SARL_v6","SARL_v6w9atktnj","5596a991fdf99b2d1e834690","fixation","","","img/fixation.png","null","","","test","","","","","","","","","","","","","","","","","","","",""
"266.1000000000349","158959","SARL_v6","SARL_v6w9atktnj","5596a991fdf99b2d1e834690","freq","","","img/blue_2bandit_b2.png","70","","70","test","1","","73","","","","circle","square","71","21","3","0.9577464788732394","","","","","","","",""
"null","159502","SARL_v6","SARL_v6w9atktnj","5596a991fdf99b2d1e834690","freq_resp","","","img/blue_2bandit_b.png","70","img/blue_2bandit_b.png","70","test","","","","","","","","","","","3","","","","","","","","",""
"null","159667","SARL_v6","SARL_v6w9atktnj","5596a991fdf99b2d1e834690","fixation","","","img/fixation.png","null","","","test","","","","","","","","","","","","","","","","","","","",""
"230.5","159911","SARL_v6","SARL_v6w9atktnj","5596a991fdf99b2d1e834690","freq","","","img/blue_2bandit_b2.png","70","","70","test","1","","74","","","","circle","square","72","22","3","0.9583333333333334","","","","","","","",""
"null","160492","SARL_v6","SARL_v6w9atktnj","5596a991fdf99b2d1e834690","freq_resp","","","img/blue_2bandit_b.png","70","img/blue_2bandit_b.png","70","test","","","","","","","","","","","3","","","","","","","","",""
"null","160652","SARL_v6","SARL_v6w9atktnj","5596a991fdf99b2d1e834690","fixation","","","img/fixation.png","null","","","test","","","","","","","","","","","","","","","","","","","",""
"445.70000000001164","161111","SARL_v6","SARL_v6w9atktnj","5596a991fdf99b2d1e834690","rl","","","img/black_2bandit_b2.png","75","","0","test","","","75","","","-8","circle","square","","0","3","","75","-4","-8","-4","-8","square","3","0"
"null","161877","SARL_v6","SARL_v6w9atktnj","5596a991fdf99b2d1e834690","feedback","","","<div class=""verylowPoints_sq""> -8 </div>","null","","na","test","","","NaN","","","","","","","","3","","75","","","","","","3",""
"533.2999999999884","162424","SARL_v6","SARL_v6w9atktnj","5596a991fdf99b2d1e834690","freq","","","img/blue_2bandit_b2.png","70","","70","test","1","","76","","","","circle","square","73","1","4","0.958904109589041","","","","","","","",""
"null","162702","SARL_v6","SARL_v6w9atktnj","5596a991fdf99b2d1e834690","freq_resp","","","img/blue_2bandit_b.png","70","img/blue_2bandit_b.png","70","test","","","","","","","","","","","4","","","","","","","","",""
"null","162867","SARL_v6","SARL_v6w9atktnj","5596a991fdf99b2d1e834690","fixation","","","img/fixation.png","null","","","test","","","","","","","","","","","","","","","","","","","",""
"313.80000000004657","163193","SARL_v6","SARL_v6w9atktnj","5596a991fdf99b2d1e834690","freq","","","img/blue_2bandit_b2.png","70","","70","test","1","","77","","","","circle","square","74","2","4","0.9594594594594594","","","","","","","",""
"null","163693","SARL_v6","SARL_v6w9atktnj","5596a991fdf99b2d1e834690","freq_resp","","","img/blue_2bandit_b.png","70","img/blue_2bandit_b.png","70","test","","","","","","","","","","","4","","","","","","","","",""
"null","163852","SARL_v6","SARL_v6w9atktnj","5596a991fdf99b2d1e834690","fixation","","","img/fixation.png","null","","","test","","","","","","","","","","","","","","","","","","","",""
"214.5","164076","SARL_v6","SARL_v6w9atktnj","5596a991fdf99b2d1e834690","freq","","","img/blue_2bandit_b2.png","70","","70","test","1","","78","","","","circle","square","75","3","4","0.96","","","","","","","",""
"null","164671","SARL_v6","SARL_v6w9atktnj","5596a991fdf99b2d1e834690","freq_resp","","","img/blue_2bandit_b.png","70","img/blue_2bandit_b.png","70","test","","","","","","","","","","","4","","","","","","","","",""
"null","164830","SARL_v6","SARL_v6w9atktnj","5596a991fdf99b2d1e834690","fixation","","","img/fixation.png","null","","","test","","","","","","","","","","","","","","","","","","","",""
"148.59999999997672","164992","SARL_v6","SARL_v6w9atktnj","5596a991fdf99b2d1e834690","freq","","","img/blue_2bandit_b2.png","70","","70","test","1","","79","","","","circle","square","76","4","4","0.9605263157894737","","","","","","","",""
"null","165654","SARL_v6","SARL_v6w9atktnj","5596a991fdf99b2d1e834690","freq_resp","","","img/blue_2bandit_b.png","70","img/blue_2bandit_b.png","70","test","","","","","","","","","","","4","","","","","","","","",""
"null","165818","SARL_v6","SARL_v6w9atktnj","5596a991fdf99b2d1e834690","fixation","","","img/fixation.png","null","","","test","","","","","","","","","","","","","","","","","","","",""
"105.79999999998836","165936","SARL_v6","SARL_v6w9atktnj","5596a991fdf99b2d1e834690","freq","","","img/blue_2bandit_b2.png","70","","70","test","1","","80","","","","circle","square","77","5","4","0.961038961038961","","","","","","","",""
"null","166642","SARL_v6","SARL_v6w9atktnj","5596a991fdf99b2d1e834690","freq_resp","","","img/blue_2bandit_b.png","70","img/blue_2bandit_b.png","70","test","","","","","","","","","","","4","","","","","","","","",""
"null","166802","SARL_v6","SARL_v6w9atktnj","5596a991fdf99b2d1e834690","fixation","","","img/fixation.png","null","","","test","","","","","","","","","","","","","","","","","","","",""
"153.39999999996508","166963","SARL_v6","SARL_v6w9atktnj","5596a991fdf99b2d1e834690","infreq","","","img/orange_2bandit_b2.png","70","","68","test","0","","81","","","","circle","square","78","6","4","0.9487179487179487","","","","","","","",""
"null","167619","SARL_v6","SARL_v6w9atktnj","5596a991fdf99b2d1e834690","infreq_resp","","","img/orange_2bandit_b.png","70","img/orange_2bandit_b.png","68","test","","","","","","","","","","","4","","","","","","","","",""
"null","167782","SARL_v6","SARL_v6w9atktnj","5596a991fdf99b2d1e834690","fixation","","","img/fixation.png","null","","","test","","","","","","","","","","","","","","","","","","","",""
"301.29999999998836","168093","SARL_v6","SARL_v6w9atktnj","5596a991fdf99b2d1e834690","freq","","","img/blue_2bandit_b2.png","68","","70","test","0","","82","","","","circle","square","79","7","4","0.9367088607594937","","","","","","","",""
"null","168603","SARL_v6","SARL_v6w9atktnj","5596a991fdf99b2d1e834690","freq_resp","","","img/blue_2bandit_b.png","68","img/blue_2bandit_b.png","70","test","","","","","","","","","","","4","","","","","","","","",""
"null","168763","SARL_v6","SARL_v6w9atktnj","5596a991fdf99b2d1e834690","fixation","","","img/fixation.png","null","","","test","","","","","","","","","","","","","","","","","","","",""
"219","168995","SARL_v6","SARL_v6w9atktnj","5596a991fdf99b2d1e834690","freq","","","img/blue_2bandit_b2.png","70","","70","test","1","","83","","","","circle","square","80","8","4","0.9375","","","","","","","",""
"null","169585","SARL_v6","SARL_v6w9atktnj","5596a991fdf99b2d1e834690","freq_resp","","","img/blue_2bandit_b.png","70","img/blue_2bandit_b.png","70","test","","","","","","","","","","","4","","","","","","","","",""
"null","169746","SARL_v6","SARL_v6w9atktnj","5596a991fdf99b2d1e834690","fixation","","","img/fixation.png","null","","","test","","","","","","","","","","","","","","","","","","","",""
"148.40000000002328","169904","SARL_v6","SARL_v6w9atktnj","5596a991fdf99b2d1e834690","freq","","","img/blue_2bandit_b2.png","70","","70","test","1","","84","","","","circle","square","81","9","4","0.9382716049382716","","","","","","","",""
"null","170569","SARL_v6","SARL_v6w9atktnj","5596a991fdf99b2d1e834690","freq_resp","","","img/blue_2bandit_b.png","70","img/blue_2bandit_b.png","70","test","","","","","","","","","","","4","","","","","","","","",""
"null","170737","SARL_v6","SARL_v6w9atktnj","5596a991fdf99b2d1e834690","fixation","","","img/fixation.png","null","","","test","","","","","","","","","","","","","","","","","","","",""
"211.40000000002328","170964","SARL_v6","SARL_v6w9atktnj","5596a991fdf99b2d1e834690","freq","","","img/blue_2bandit_b2.png","70","","70","test","1","","85","","","","circle","square","82","10","4","0.9390243902439024","","","","","","","",""
"null","171563","SARL_v6","SARL_v6w9atktnj","5596a991fdf99b2d1e834690","freq_resp","","","img/blue_2bandit_b.png","70","img/blue_2bandit_b.png","70","test","","","","","","","","","","","4","","","","","","","","",""
"null","171727","SARL_v6","SARL_v6w9atktnj","5596a991fdf99b2d1e834690","fixation","","","img/fixation.png","null","","","test","","","","","","","","","","","","","","","","","","","",""
"272.79999999998836","172013","SARL_v6","SARL_v6w9atktnj","5596a991fdf99b2d1e834690","freq","","","img/blue_2bandit_b2.png","70","","70","test","1","","86","","","","circle","square","83","11","4","0.9397590361445783","","","","","","","",""
"null","172549","SARL_v6","SARL_v6w9atktnj","5596a991fdf99b2d1e834690","freq_resp","","","img/blue_2bandit_b.png","70","img/blue_2bandit_b.png","70","test","","","","","","","","","","","4","","","","","","","","",""
"null","172709","SARL_v6","SARL_v6w9atktnj","5596a991fdf99b2d1e834690","fixation","","","img/fixation.png","null","","","test","","","","","","","","","","","","","","","","","","","",""
"264.29999999998836","172988","SARL_v6","SARL_v6w9atktnj","5596a991fdf99b2d1e834690","freq","","","img/blue_2bandit_b2.png","70","","70","test","1","","87","","","","circle","square","84","12","4","0.9404761904761905","","","","","","","",""
"null","173536","SARL_v6","SARL_v6w9atktnj","5596a991fdf99b2d1e834690","freq_resp","","","img/blue_2bandit_b.png","70","img/blue_2bandit_b.png","70","test","","","","","","","","","","","4","","","","","","","","",""
"null","173700","SARL_v6","SARL_v6w9atktnj","5596a991fdf99b2d1e834690","fixation","","","img/fixation.png","null","","","test","","","","","","","","","","","","","","","","","","","",""
"278.3999999999651","173992","SARL_v6","SARL_v6w9atktnj","5596a991fdf99b2d1e834690","infreq","","","img/orange_2bandit_b2.png","70","","68","test","0","","88","","","","circle","square","85","13","4","0.9294117647058824","","","","","","","",""
"null","174522","SARL_v6","SARL_v6w9atktnj","5596a991fdf99b2d1e834690","infreq_resp","","","img/orange_2bandit_b.png","70","img/orange_2bandit_b.png","68","test","","","","","","","","","","","4","","","","","","","","",""
"null","174680","SARL_v6","SARL_v6w9atktnj","5596a991fdf99b2d1e834690","fixation","","","img/fixation.png","null","","","test","","","","","","","","","","","","","","","","","","","",""
"115","174805","SARL_v6","SARL_v6w9atktnj","5596a991fdf99b2d1e834690","freq","","","img/blue_2bandit_b2.png","70","","70","test","1","","89","","","","circle","square","86","14","4","0.9302325581395349","","","","","","","",""
"null","175499","SARL_v6","SARL_v6w9atktnj","5596a991fdf99b2d1e834690","freq_resp","","","img/blue_2bandit_b.png","70","img/blue_2bandit_b.png","70","test","","","","","","","","","","","4","","","","","","","","",""
"null","175659","SARL_v6","SARL_v6w9atktnj","5596a991fdf99b2d1e834690","fixation","","","img/fixation.png","null","","","test","","","","","","","","","","","","","","","","","","","",""
"249.90000000002328","175920","SARL_v6","SARL_v6w9atktnj","5596a991fdf99b2d1e834690","freq","","","img/blue_2bandit_b2.png","70","","70","test","1","","90","","","","circle","square","87","15","4","0.9310344827586207","","","","","","","",""
"null","176482","SARL_v6","SARL_v6w9atktnj","5596a991fdf99b2d1e834690","freq_resp","","","img/blue_2bandit_b.png","70","img/blue_2bandit_b.png","70","test","","","","","","","","","","","4","","","","","","","","",""
"null","176643","SARL_v6","SARL_v6w9atktnj","5596a991fdf99b2d1e834690","fixation","","","img/fixation.png","null","","","test","","","","","","","","","","","","","","","","","","","",""
"243.20000000001164","176900","SARL_v6","SARL_v6w9atktnj","5596a991fdf99b2d1e834690","freq","","","img/blue_2bandit_b2.png","70","","70","test","1","","91","","","","circle","square","88","16","4","0.9318181818181818","","","","","","","",""
"null","177465","SARL_v6","SARL_v6w9atktnj","5596a991fdf99b2d1e834690","freq_resp","","","img/blue_2bandit_b.png","70","img/blue_2bandit_b.png","70","test","","","","","","","","","","","4","","","","","","","","",""
"null","177623","SARL_v6","SARL_v6w9atktnj","5596a991fdf99b2d1e834690","fixation","","","img/fixation.png","null","","","test","","","","","","","","","","","","","","","","","","","",""
"306.1000000000349","177944","SARL_v6","SARL_v6w9atktnj","5596a991fdf99b2d1e834690","freq","","","img/blue_2bandit_b2.png","70","","70","test","1","","92","","","","circle","square","89","17","4","0.9325842696629213","","","","","","","",""
"null","178453","SARL_v6","SARL_v6w9atktnj","5596a991fdf99b2d1e834690","freq_resp","","","img/blue_2bandit_b.png","70","img/blue_2bandit_b.png","70","test","","","","","","","","","","","4","","","","","","","","",""
"null","178614","SARL_v6","SARL_v6w9atktnj","5596a991fdf99b2d1e834690","fixation","","","img/fixation.png","null","","","test","","","","","","","","","","","","","","","","","","","",""
"564.7000000000116","179193","SARL_v6","SARL_v6w9atktnj","5596a991fdf99b2d1e834690","freq","","","img/blue_2bandit_b2.png","70","","70","test","1","","93","","","","circle","square","90","18","4","0.9333333333333333","","","","","","","",""
"null","179440","SARL_v6","SARL_v6w9atktnj","5596a991fdf99b2d1e834690","freq_resp","","","img/blue_2bandit_b.png","70","img/blue_2bandit_b.png","70","test","","","","","","","","","","","4","","","","","","","","",""
"null","179601","SARL_v6","SARL_v6w9atktnj","5596a991fdf99b2d1e834690","fixation","","","img/fixation.png","null","","","test","","","","","","","","","","","","","","","","","","","",""
"621","180232","SARL_v6","SARL_v6w9atktnj","5596a991fdf99b2d1e834690","freq","","","img/blue_2bandit_b2.png","70","","70","test","1","","94","","","","circle","square","91","19","4","0.9340659340659341","","","","","","","",""
"null","180433","SARL_v6","SARL_v6w9atktnj","5596a991fdf99b2d1e834690","freq_resp","","","img/blue_2bandit_b.png","70","img/blue_2bandit_b.png","70","test","","","","","","","","","","","4","","","","","","","","",""
"null","180591","SARL_v6","SARL_v6w9atktnj","5596a991fdf99b2d1e834690","fixation","","","img/fixation.png","null","","","test","","","","","","","","","","","","","","","","","","","",""
"566.8999999999651","181168","SARL_v6","SARL_v6w9atktnj","5596a991fdf99b2d1e834690","rl","","","img/black_2bandit_b2.png","75","","0","test","","","95","","","-12","circle","square","","0","4","","75","0","-12","0","-12","square","4","0"
"null","181933","SARL_v6","SARL_v6w9atktnj","5596a991fdf99b2d1e834690","feedback","","","<div class=""verylowPoints_sq""> -12 </div>","null","","na","test","","","NaN","","","","","","","","4","","75","","","","","","4",""
"null","182745","SARL_v6","SARL_v6w9atktnj","5596a991fdf99b2d1e834690","freq","","","img/blue_2bandit_b2.png","null","","70","test","0","","96","","","","circle","square","92","1","5","0.9239130434782609","","","","","","","",""
"null","182905","SARL_v6","SARL_v6w9atktnj","5596a991fdf99b2d1e834690","fixation","","","img/fixation.png","null","","","test","","","","","","","","","","","","","","","","","","","",""
"102.40000000002328","183018","SARL_v6","SARL_v6w9atktnj","5596a991fdf99b2d1e834690","freq","","","img/blue_2bandit_b2.png","70","","70","test","1","","97","","","","circle","square","93","2","5","0.9247311827956989","","","","","","","",""
"null","183729","SARL_v6","SARL_v6w9atktnj","5596a991fdf99b2d1e834690","freq_resp","","","img/blue_2bandit_b.png","70","img/blue_2bandit_b.png","70","test","","","","","","","","","","","5","","","","","","","","",""
"null","183890","SARL_v6","SARL_v6w9atktnj","5596a991fdf99b2d1e834690","fixation","","","img/fixation.png","null","","","test","","","","","","","","","","","","","","","","","","","",""
"574.2000000000116","184479","SARL_v6","SARL_v6w9atktnj","5596a991fdf99b2d1e834690","freq","","","img/blue_2bandit_b2.png","70","","70","test","1","","98","","","","circle","square","94","3","5","0.925531914893617","","","","","","","",""
"null","184715","SARL_v6","SARL_v6w9atktnj","5596a991fdf99b2d1e834690","freq_resp","","","img/blue_2bandit_b.png","70","img/blue_2bandit_b.png","70","test","","","","","","","","","","","5","","","","","","","","",""
"null","184880","SARL_v6","SARL_v6w9atktnj","5596a991fdf99b2d1e834690","fixation","","","img/fixation.png","null","","","test","","","","","","","","","","","","","","","","","","","",""
"446.0999999999767","185337","SARL_v6","SARL_v6w9atktnj","5596a991fdf99b2d1e834690","freq","","","img/blue_2bandit_b2.png","70","","70","test","1","","99","","","","circle","square","95","4","5","0.9263157894736842","","","","","","","",""
"null","185699","SARL_v6","SARL_v6w9atktnj","5596a991fdf99b2d1e834690","freq_resp","","","img/blue_2bandit_b.png","70","img/blue_2bandit_b.png","70","test","","","","","","","","","","","5","","","","","","","","",""
"null","185859","SARL_v6","SARL_v6w9atktnj","5596a991fdf99b2d1e834690","fixation","","","img/fixation.png","null","","","test","","","","","","","","","","","","","","","","","","","",""
"191.60000000003492","186061","SARL_v6","SARL_v6w9atktnj","5596a991fdf99b2d1e834690","freq","","","img/blue_2bandit_b2.png","70","","70","test","1","","100","","","","circle","square","96","5","5","0.9270833333333334","","","","","","","",""
"null","186684","SARL_v6","SARL_v6w9atktnj","5596a991fdf99b2d1e834690","freq_resp","","","img/blue_2bandit_b.png","70","img/blue_2bandit_b.png","70","test","","","","","","","","","","","5","","","","","","","","",""
"null","186843","SARL_v6","SARL_v6w9atktnj","5596a991fdf99b2d1e834690","fixation","","","img/fixation.png","null","","","test","","","","","","","","","","","","","","","","","","","",""
"218.69999999995343","187071","SARL_v6","SARL_v6w9atktnj","5596a991fdf99b2d1e834690","freq","","","img/blue_2bandit_b2.png","70","","70","test","1","","101","","","","circle","square","97","6","5","0.9278350515463918","","","","","","","",""
"null","187666","SARL_v6","SARL_v6w9atktnj","5596a991fdf99b2d1e834690","freq_resp","","","img/blue_2bandit_b.png","70","img/blue_2bandit_b.png","70","test","","","","","","","","","","","5","","","","","","","","",""
"null","187830","SARL_v6","SARL_v6w9atktnj","5596a991fdf99b2d1e834690","fixation","","","img/fixation.png","null","","","test","","","","","","","","","","","","","","","","","","","",""
"274.5","188117","SARL_v6","SARL_v6w9atktnj","5596a991fdf99b2d1e834690","freq","","","img/blue_2bandit_b2.png","70","","70","test","1","","102","","","","circle","square","98","7","5","0.9285714285714286","","","","","","","",""
"null","188657","SARL_v6","SARL_v6w9atktnj","5596a991fdf99b2d1e834690","freq_resp","","","img/blue_2bandit_b.png","70","img/blue_2bandit_b.png","70","test","","","","","","","","","","","5","","","","","","","","",""
"null","188821","SARL_v6","SARL_v6w9atktnj","5596a991fdf99b2d1e834690","fixation","","","img/fixation.png","null","","","test","","","","","","","","","","","","","","","","","","","",""
"469.5","189301","SARL_v6","SARL_v6w9atktnj","5596a991fdf99b2d1e834690","freq","","","img/blue_2bandit_b2.png","70","","70","test","1","","103","","","","circle","square","99","8","5","0.9292929292929293","","","","","","","",""
"null","189646","SARL_v6","SARL_v6w9atktnj","5596a991fdf99b2d1e834690","freq_resp","","","img/blue_2bandit_b.png","70","img/blue_2bandit_b.png","70","test","","","","","","","","","","","5","","","","","","","","",""
"null","189805","SARL_v6","SARL_v6w9atktnj","5596a991fdf99b2d1e834690","fixation","","","img/fixation.png","null","","","test","","","","","","","","","","","","","","","","","","","",""
"494.79999999998836","190313","SARL_v6","SARL_v6w9atktnj","5596a991fdf99b2d1e834690","freq","","","img/blue_2bandit_b2.png","70","","70","test","1","","104","","","","circle","square","100","9","5","0.93","","","","","","","",""
"null","190632","SARL_v6","SARL_v6w9atktnj","5596a991fdf99b2d1e834690","freq_resp","","","img/blue_2bandit_b.png","70","img/blue_2bandit_b.png","70","test","","","","","","","","","","","5","","","","","","","","",""
"null","190793","SARL_v6","SARL_v6w9atktnj","5596a991fdf99b2d1e834690","fixation","","","img/fixation.png","null","","","test","","","","","","","","","","","","","","","","","","","",""
"443.4000000000233","191246","SARL_v6","SARL_v6w9atktnj","5596a991fdf99b2d1e834690","freq","","","img/blue_2bandit_b2.png","70","","70","test","1","","105","","","","circle","square","101","10","5","0.9306930693069307","","","","","","","",""
"null","191618","SARL_v6","SARL_v6w9atktnj","5596a991fdf99b2d1e834690","freq_resp","","","img/blue_2bandit_b.png","70","img/blue_2bandit_b.png","70","test","","","","","","","","","","","5","","","","","","","","",""
"null","191779","SARL_v6","SARL_v6w9atktnj","5596a991fdf99b2d1e834690","fixation","","","img/fixation.png","null","","","test","","","","","","","","","","","","","","","","","","","",""
"468.20000000001164","192260","SARL_v6","SARL_v6w9atktnj","5596a991fdf99b2d1e834690","infreq","","","img/orange_2bandit_b2.png","68","","68","test","1","","106","","","","circle","square","102","11","5","0.9313725490196079","","","","","","","",""
"null","192600","SARL_v6","SARL_v6w9atktnj","5596a991fdf99b2d1e834690","infreq_resp","","","img/orange_2bandit_b.png","68","img/orange_2bandit_b.png","68","test","","","","","","","","","","","5","","","","","","","","",""
"null","192760","SARL_v6","SARL_v6w9atktnj","5596a991fdf99b2d1e834690","fixation","","","img/fixation.png","null","","","test","","","","","","","","","","","","","","","","","","","",""
"447","193218","SARL_v6","SARL_v6w9atktnj","5596a991fdf99b2d1e834690","freq","","","img/blue_2bandit_b2.png","70","","70","test","1","","107","","","","circle","square","103","12","5","0.9320388349514563","","","","","","","",""
"null","193581","SARL_v6","SARL_v6w9atktnj","5596a991fdf99b2d1e834690","freq_resp","","","img/blue_2bandit_b.png","70","img/blue_2bandit_b.png","70","test","","","","","","","","","","","5","","","","","","","","",""
"null","193740","SARL_v6","SARL_v6w9atktnj","5596a991fdf99b2d1e834690","fixation","","","img/fixation.png","null","","","test","","","","","","","","","","","","","","","","","","","",""
"438.20000000001164","194190","SARL_v6","SARL_v6w9atktnj","5596a991fdf99b2d1e834690","freq","","","img/blue_2bandit_b2.png","70","","70","test","1","","108","","","","circle","square","104","13","5","0.9326923076923077","","","","","","","",""
"null","194562","SARL_v6","SARL_v6w9atktnj","5596a991fdf99b2d1e834690","freq_resp","","","img/blue_2bandit_b.png","70","img/blue_2bandit_b.png","70","test","","","","","","","","","","","5","","","","","","","","",""
"null","194722","SARL_v6","SARL_v6w9atktnj","5596a991fdf99b2d1e834690","fixation","","","img/fixation.png","null","","","test","","","","","","","","","","","","","","","","","","","",""
"579.2000000000116","195313","SARL_v6","SARL_v6w9atktnj","5596a991fdf99b2d1e834690","freq","","","img/blue_2bandit_b2.png","70","","70","test","1","","109","","","","circle","square","105","14","5","0.9333333333333333","","","","","","","",""
"null","195545","SARL_v6","SARL_v6w9atktnj","5596a991fdf99b2d1e834690","freq_resp","","","img/blue_2bandit_b.png","70","img/blue_2bandit_b.png","70","test","","","","","","","","","","","5","","","","","","","","",""
"null","195704","SARL_v6","SARL_v6w9atktnj","5596a991fdf99b2d1e834690","fixation","","","img/fixation.png","null","","","test","","","","","","","","","","","","","","","","","","","",""
"394","196107","SARL_v6","SARL_v6w9atktnj","5596a991fdf99b2d1e834690","freq","","","img/blue_2bandit_b2.png","70","","70","test","1","","110","","","","circle","square","106","15","5","0.9339622641509434","","","","","","","",""
"null","196523","SARL_v6","SARL_v6w9atktnj","5596a991fdf99b2d1e834690","freq_resp","","","img/blue_2bandit_b.png","70","img/blue_2bandit_b.png","70","test","","","","","","","","","","","5","","","","","","","","",""
"null","196682","SARL_v6","SARL_v6w9atktnj","5596a991fdf99b2d1e834690","fixation","","","img/fixation.png","null","","","test","","","","","","","","","","","","","","","","","","","",""
"480","197174","SARL_v6","SARL_v6w9atktnj","5596a991fdf99b2d1e834690","infreq","","","img/orange_2bandit_b2.png","68","","68","test","1","","111","","","","circle","square","107","16","5","0.9345794392523364","","","","","","","",""
"null","197506","SARL_v6","SARL_v6w9atktnj","5596a991fdf99b2d1e834690","infreq_resp","","","img/orange_2bandit_b.png","68","img/orange_2bandit_b.png","68","test","","","","","","","","","","","5","","","","","","","","",""
"null","197668","SARL_v6","SARL_v6w9atktnj","5596a991fdf99b2d1e834690","fixation","","","img/fixation.png","null","","","test","","","","","","","","","","","","","","","","","","","",""
"447","198129","SARL_v6","SARL_v6w9atktnj","5596a991fdf99b2d1e834690","freq","","","img/blue_2bandit_b2.png","70","","70","test","1","","112","","","","circle","square","108","17","5","0.9351851851851852","","","","","","","",""
"null","198493","SARL_v6","SARL_v6w9atktnj","5596a991fdf99b2d1e834690","freq_resp","","","img/blue_2bandit_b.png","70","img/blue_2bandit_b.png","70","test","","","","","","","","","","","5","","","","","","","","",""
"null","198656","SARL_v6","SARL_v6w9atktnj","5596a991fdf99b2d1e834690","fixation","","","img/fixation.png","null","","","test","","","","","","","","","","","","","","","","","","","",""
"343.70000000001164","199014","SARL_v6","SARL_v6w9atktnj","5596a991fdf99b2d1e834690","freq","","","img/blue_2bandit_b2.png","70","","70","test","1","","113","","","","circle","square","109","18","5","0.9357798165137615","","","","","","","",""
"null","199482","SARL_v6","SARL_v6w9atktnj","5596a991fdf99b2d1e834690","freq_resp","","","img/blue_2bandit_b.png","70","img/blue_2bandit_b.png","70","test","","","","","","","","","","","5","","","","","","","","",""
"null","199643","SARL_v6","SARL_v6w9atktnj","5596a991fdf99b2d1e834690","fixation","","","img/fixation.png","null","","","test","","","","","","","","","","","","","","","","","","","",""
"312.6000000000349","199968","SARL_v6","SARL_v6w9atktnj","5596a991fdf99b2d1e834690","freq","","","img/blue_2bandit_b2.png","70","","70","test","1","","114","","","","circle","square","110","19","5","0.9363636363636364","","","","","","","",""
"null","200469","SARL_v6","SARL_v6w9atktnj","5596a991fdf99b2d1e834690","freq_resp","","","img/blue_2bandit_b.png","70","img/blue_2bandit_b.png","70","test","","","","","","","","","","","5","","","","","","","","",""
"null","200633","SARL_v6","SARL_v6w9atktnj","5596a991fdf99b2d1e834690","fixation","","","img/fixation.png","null","","","test","","","","","","","","","","","","","","","","","","","",""
"264.79999999998836","200911","SARL_v6","SARL_v6w9atktnj","5596a991fdf99b2d1e834690","freq","","","img/blue_2bandit_b2.png","70","","70","test","1","","115","","","","circle","square","111","20","5","0.9369369369369369","","","","","","","",""
"null","201458","SARL_v6","SARL_v6w9atktnj","5596a991fdf99b2d1e834690","freq_resp","","","img/blue_2bandit_b.png","70","img/blue_2bandit_b.png","70","test","","","","","","","","","","","5","","","","","","","","",""
"null","201617","SARL_v6","SARL_v6w9atktnj","5596a991fdf99b2d1e834690","fixation","","","img/fixation.png","null","","","test","","","","","","","","","","","","","","","","","","","",""
"270.29999999998836","201900","SARL_v6","SARL_v6w9atktnj","5596a991fdf99b2d1e834690","freq","","","img/blue_2bandit_b2.png","70","","70","test","1","","116","","","","circle","square","112","21","5","0.9375","","","","","","","",""
"null","202439","SARL_v6","SARL_v6w9atktnj","5596a991fdf99b2d1e834690","freq_resp","","","img/blue_2bandit_b.png","70","img/blue_2bandit_b.png","70","test","","","","","","","","","","","5","","","","","","","","",""
"null","202603","SARL_v6","SARL_v6w9atktnj","5596a991fdf99b2d1e834690","fixation","","","img/fixation.png","null","","","test","","","","","","","","","","","","","","","","","","","",""
"163.79999999998836","202777","SARL_v6","SARL_v6w9atktnj","5596a991fdf99b2d1e834690","freq","","","img/blue_2bandit_b2.png","70","","70","test","1","","117","","","","circle","square","113","22","5","0.9380530973451328","","","","","","","",""
"null","203428","SARL_v6","SARL_v6w9atktnj","5596a991fdf99b2d1e834690","freq_resp","","","img/blue_2bandit_b.png","70","img/blue_2bandit_b.png","70","test","","","","","","","","","","","5","","","","","","","","",""
"null","203592","SARL_v6","SARL_v6w9atktnj","5596a991fdf99b2d1e834690","fixation","","","img/fixation.png","null","","","test","","","","","","","","","","","","","","","","","","","",""
"186","203789","SARL_v6","SARL_v6w9atktnj","5596a991fdf99b2d1e834690","freq","","","img/blue_2bandit_b2.png","70","","70","test","1","","118","","","","circle","square","114","23","5","0.9385964912280702","","","","","","","",""
"null","204417","SARL_v6","SARL_v6w9atktnj","5596a991fdf99b2d1e834690","freq_resp","","","img/blue_2bandit_b.png","70","img/blue_2bandit_b.png","70","test","","","","","","","","","","","5","","","","","","","","",""
"null","204581","SARL_v6","SARL_v6w9atktnj","5596a991fdf99b2d1e834690","fixation","","","img/fixation.png","null","","","test","","","","","","","","","","","","","","","","","","","",""
"543.9000000000233","205139","SARL_v6","SARL_v6w9atktnj","5596a991fdf99b2d1e834690","rl","","","img/black_2bandit_b2.png","75","","0","test","","","119","","","-7","circle","square","","0","5","","75","4","-7","4","-7","square","5","0"
"null","205906","SARL_v6","SARL_v6w9atktnj","5596a991fdf99b2d1e834690","feedback","","","<div class=""verylowPoints_sq""> -7 </div>","null","","na","test","","","NaN","","","","","","","","5","","75","","","","","","5",""
"609.9000000000233","206531","SARL_v6","SARL_v6w9atktnj","5596a991fdf99b2d1e834690","freq","","","img/blue_2bandit_b2.png","70","","70","test","1","","120","","","","circle","square","115","1","6","0.9391304347826087","","","","","","","",""
"null","206735","SARL_v6","SARL_v6w9atktnj","5596a991fdf99b2d1e834690","freq_resp","","","img/blue_2bandit_b.png","70","img/blue_2bandit_b.png","70","test","","","","","","","","","","","6","","","","","","","","",""
"null","206895","SARL_v6","SARL_v6w9atktnj","5596a991fdf99b2d1e834690","fixation","","","img/fixation.png","null","","","test","","","","","","","","","","","","","","","","","","","",""
"446.1000000000349","207354","SARL_v6","SARL_v6w9atktnj","5596a991fdf99b2d1e834690","freq","","","img/blue_2bandit_b2.png","70","","70","test","1","","121","","","","circle","square","116","2","6","0.9396551724137931","","","","","","","",""
"null","207717","SARL_v6","SARL_v6w9atktnj","5596a991fdf99b2d1e834690","freq_resp","","","img/blue_2bandit_b.png","70","img/blue_2bandit_b.png","70","test","","","","","","","","","","","6","","","","","","","","",""
"null","207877","SARL_v6","SARL_v6w9atktnj","5596a991fdf99b2d1e834690","fixation","","","img/fixation.png","null","","","test","","","","","","","","","","","","","","","","","","","",""
"309.5","208199","SARL_v6","SARL_v6w9atktnj","5596a991fdf99b2d1e834690","freq","","","img/blue_2bandit_b2.png","70","","70","test","1","","122","","","","circle","square","117","3","6","0.9401709401709402","","","","","","","",""
"null","208699","SARL_v6","SARL_v6w9atktnj","5596a991fdf99b2d1e834690","freq_resp","","","img/blue_2bandit_b.png","70","img/blue_2bandit_b.png","70","test","","","","","","","","","","","6","","","","","","","","",""
"null","208858","SARL_v6","SARL_v6w9atktnj","5596a991fdf99b2d1e834690","fixation","","","img/fixation.png","null","","","test","","","","","","","","","","","","","","","","","","","",""
"180.70000000001164","209050","SARL_v6","SARL_v6w9atktnj","5596a991fdf99b2d1e834690","freq","","","img/blue_2bandit_b2.png","70","","70","test","1","","123","","","","circle","square","118","4","6","0.940677966101695","","","","","","","",""
"null","209685","SARL_v6","SARL_v6w9atktnj","5596a991fdf99b2d1e834690","freq_resp","","","img/blue_2bandit_b.png","70","img/blue_2bandit_b.png","70","test","","","","","","","","","","","6","","","","","","","","",""
"null","209845","SARL_v6","SARL_v6w9atktnj","5596a991fdf99b2d1e834690","fixation","","","img/fixation.png","null","","","test","","","","","","","","","","","","","","","","","","","",""
"245.09999999997672","210102","SARL_v6","SARL_v6w9atktnj","5596a991fdf99b2d1e834690","freq","","","img/blue_2bandit_b2.png","70","","70","test","1","","124","","","","circle","square","119","5","6","0.9411764705882353","","","","","","","",""
"null","210668","SARL_v6","SARL_v6w9atktnj","5596a991fdf99b2d1e834690","freq_resp","","","img/blue_2bandit_b.png","70","img/blue_2bandit_b.png","70","test","","","","","","","","","","","6","","","","","","","","",""
"null","210832","SARL_v6","SARL_v6w9atktnj","5596a991fdf99b2d1e834690","fixation","","","img/fixation.png","null","","","test","","","","","","","","","","","","","","","","","","","",""
"225.39999999996508","211071","SARL_v6","SARL_v6w9atktnj","5596a991fdf99b2d1e834690","freq","","","img/blue_2bandit_b2.png","70","","70","test","1","","125","","","","circle","square","120","6","6","0.9416666666666667","","","","","","","",""
"null","211660","SARL_v6","SARL_v6w9atktnj","5596a991fdf99b2d1e834690","freq_resp","","","img/blue_2bandit_b.png","70","img/blue_2bandit_b.png","70","test","","","","","","","","","","","6","","","","","","","","",""
"null","211821","SARL_v6","SARL_v6w9atktnj","5596a991fdf99b2d1e834690","fixation","","","img/fixation.png","null","","","test","","","","","","","","","","","","","","","","","","","",""
"180.79999999998836","212015","SARL_v6","SARL_v6w9atktnj","5596a991fdf99b2d1e834690","freq","","","img/blue_2bandit_b2.png","70","","70","test","1","","126","","","","circle","square","121","7","6","0.9421487603305785","","","","","","","",""
"null","212649","SARL_v6","SARL_v6w9atktnj","5596a991fdf99b2d1e834690","freq_resp","","","img/blue_2bandit_b.png","70","img/blue_2bandit_b.png","70","test","","","","","","","","","","","6","","","","","","","","",""
"null","212813","SARL_v6","SARL_v6w9atktnj","5596a991fdf99b2d1e834690","fixation","","","img/fixation.png","null","","","test","","","","","","","","","","","","","","","","","","","",""
"251.29999999998836","213077","SARL_v6","SARL_v6w9atktnj","5596a991fdf99b2d1e834690","freq","","","img/blue_2bandit_b2.png","70","","70","test","1","","127","","","","circle","square","122","8","6","0.9426229508196722","","","","","","","",""
"null","213638","SARL_v6","SARL_v6w9atktnj","5596a991fdf99b2d1e834690","freq_resp","","","img/blue_2bandit_b.png","70","img/blue_2bandit_b.png","70","test","","","","","","","","","","","6","","","","","","","","",""
"null","213800","SARL_v6","SARL_v6w9atktnj","5596a991fdf99b2d1e834690","fixation","","","img/fixation.png","null","","","test","","","","","","","","","","","","","","","","","","","",""
"253.10000000003492","214068","SARL_v6","SARL_v6w9atktnj","5596a991fdf99b2d1e834690","freq","","","img/blue_2bandit_b2.png","70","","70","test","1","","128","","","","circle","square","123","9","6","0.943089430894309","","","","","","","",""
"null","214628","SARL_v6","SARL_v6w9atktnj","5596a991fdf99b2d1e834690","freq_resp","","","img/blue_2bandit_b.png","70","img/blue_2bandit_b.png","70","test","","","","","","","","","","","6","","","","","","","","",""
"null","214790","SARL_v6","SARL_v6w9atktnj","5596a991fdf99b2d1e834690","fixation","","","img/fixation.png","null","","","test","","","","","","","","","","","","","","","","","","","",""
"489.29999999998836","215294","SARL_v6","SARL_v6w9atktnj","5596a991fdf99b2d1e834690","infreq","","","img/orange_2bandit_b2.png","68","","68","test","1","","129","","","","circle","square","124","10","6","0.9435483870967742","","","","","","","",""
"null","215614","SARL_v6","SARL_v6w9atktnj","5596a991fdf99b2d1e834690","infreq_resp","","","img/orange_2bandit_b.png","68","img/orange_2bandit_b.png","68","test","","","","","","","","","","","6","","","","","","","","",""
"null","215773","SARL_v6","SARL_v6w9atktnj","5596a991fdf99b2d1e834690","fixation","","","img/fixation.png","null","","","test","","","","","","","","","","","","","","","","","","","",""
"376.80000000004657","216161","SARL_v6","SARL_v6w9atktnj","5596a991fdf99b2d1e834690","freq","","","img/blue_2bandit_b2.png","70","","70","test","1","","130","","","","circle","square","125","11","6","0.944","","","","","","","",""
