"rt","time_elapsed","expId","subject","prolificID","trialType","rlType","attType","stimulus","key_press","stim","corrresp","phase","corr","pracCounter","trialNum","rewardOne","rewardTwo","reward","bandOne","bandTwo","attentionNum","attentionRunNum","blockNum","performance","bandChosen","circleVal","squareVal","bandOneVal","bandTwoVal","shapeChosen","rlNum","badFlag"
"226122.90000003576","226130","SARL_v6","SARL_v6nq0gnmgo","647652cb5644044df439e1fb","","","","","","","","","","","","","","","","","","","","","","","","","","","",""
"","229252","SARL_v6","SARL_v6nq0gnmgo","647652cb5644044df439e1fb","fullscreen","fullscreen","fullscreen","","","","","","","","","","","","","","","","","","","","","","","","",""
"183922","413181","SARL_v6","SARL_v6nq0gnmgo","647652cb5644044df439e1fb","","","","","","","","","","","","","","","","","","","","","","","","","","","",""
"701.3999999761581","413889","SARL_v6","SARL_v6nq0gnmgo","647652cb5644044df439e1fb","freqPrac","","","img/orange_2bandit_a2.png","70","img/orange_2bandit_a2.png","70","prac","1","0","","","","","","","","","","","","","","","","","",""
"701.3999999761581","413996","SARL_v6","SARL_v6nq0gnmgo","647652cb5644044df439e1fb","freqPrac_resp","","","img/orange_2bandit_a.png","70","img/orange_2bandit_a.png","70","prac","","","","","","","","","","","","","","","","","","","",""
"null","414158","SARL_v6","SARL_v6nq0gnmgo","647652cb5644044df439e1fb","fixation","","","img/fixation.png","null","","","prac","","","","","","","","","","","","","","","","","","","",""
"515.5999999642372","414678","SARL_v6","SARL_v6nq0gnmgo","647652cb5644044df439e1fb","infreqPrac","","","img/blue_2bandit_a2.png","68","img/blue_2bandit_a2.png","68","prac","1","0","","","","","","","","","","","","","","","","","",""
"515.5999999642372","414981","SARL_v6","SARL_v6nq0gnmgo","647652cb5644044df439e1fb","infreqPrac_resp","","","img/blue_2bandit_a.png","68","img/blue_2bandit_a.png","68","prac","","","","","","","","","","","","","","","","","","","",""
"null","415138","SARL_v6","SARL_v6nq0gnmgo","647652cb5644044df439e1fb","fixation","","","img/fixation.png","null","","","prac","","","","","","","","","","","","","","","","","","","",""
"487.5","415629","SARL_v6","SARL_v6nq0gnmgo","647652cb5644044df439e1fb","freqPrac","","","img/orange_2bandit_a2.png","70","img/orange_2bandit_a2.png","70","prac","1","0","","","","","","","","","","","","","","","","","",""
"487.5","415959","SARL_v6","SARL_v6nq0gnmgo","647652cb5644044df439e1fb","freqPrac_resp","","","img/orange_2bandit_a.png","70","img/orange_2bandit_a.png","70","prac","","","","","","","","","","","","","","","","","","","",""
"null","416119","SARL_v6","SARL_v6nq0gnmgo","647652cb5644044df439e1fb","fixation","","","img/fixation.png","null","","","prac","","","","","","","","","","","","","","","","","","","",""
"411.39999997615814","416534","SARL_v6","SARL_v6nq0gnmgo","647652cb5644044df439e1fb","infreqPrac","","","img/blue_2bandit_a2.png","68","img/blue_2bandit_a2.png","68","prac","1","0","","","","","","","","","","","","","","","","","",""
"411.39999997615814","416936","SARL_v6","SARL_v6nq0gnmgo","647652cb5644044df439e1fb","infreqPrac_resp","","","img/blue_2bandit_a.png","68","img/blue_2bandit_a.png","68","prac","","","","","","","","","","","","","","","","","","","",""
"null","417101","SARL_v6","SARL_v6nq0gnmgo","647652cb5644044df439e1fb","fixation","","","img/fixation.png","null","","","prac","","","","","","","","","","","","","","","","","","","",""
"347.10000002384186","417452","SARL_v6","SARL_v6nq0gnmgo","647652cb5644044df439e1fb","infreqPrac","","","img/blue_2bandit_a2.png","68","img/blue_2bandit_a2.png","68","prac","1","0","","","","","","","","","","","","","","","","","",""
"347.10000002384186","417913","SARL_v6","SARL_v6nq0gnmgo","647652cb5644044df439e1fb","infreqPrac_resp","","","img/blue_2bandit_a.png","68","img/blue_2bandit_a.png","68","prac","","","","","","","","","","","","","","","","","","","",""
"null","418080","SARL_v6","SARL_v6nq0gnmgo","647652cb5644044df439e1fb","fixation","","","img/fixation.png","null","","","prac","","","","","","","","","","","","","","","","","","","",""
"333.10000002384186","418417","SARL_v6","SARL_v6nq0gnmgo","647652cb5644044df439e1fb","infreqPrac","","","img/blue_2bandit_a2.png","68","img/blue_2bandit_a2.png","68","prac","1","0","","","","","","","","","","","","","","","","","",""
"333.10000002384186","418894","SARL_v6","SARL_v6nq0gnmgo","647652cb5644044df439e1fb","infreqPrac_resp","","","img/blue_2bandit_a.png","68","img/blue_2bandit_a.png","68","prac","","","","","","","","","","","","","","","","","","","",""
"null","419062","SARL_v6","SARL_v6nq0gnmgo","647652cb5644044df439e1fb","fixation","","","img/fixation.png","null","","","prac","","","","","","","","","","","","","","","","","","","",""
"483.0999999642372","419549","SARL_v6","SARL_v6nq0gnmgo","647652cb5644044df439e1fb","freqPrac","","","img/orange_2bandit_a2.png","70","img/orange_2bandit_a2.png","70","prac","1","0","","","","","","","","","","","","","","","","","",""
"483.0999999642372","419882","SARL_v6","SARL_v6nq0gnmgo","647652cb5644044df439e1fb","freqPrac_resp","","","img/orange_2bandit_a.png","70","img/orange_2bandit_a.png","70","prac","","","","","","","","","","","","","","","","","","","",""
"null","420041","SARL_v6","SARL_v6nq0gnmgo","647652cb5644044df439e1fb","fixation","","","img/fixation.png","null","","","prac","","","","","","","","","","","","","","","","","","","",""
"454.4000000357628","420499","SARL_v6","SARL_v6nq0gnmgo","647652cb5644044df439e1fb","infreqPrac","","","img/blue_2bandit_a2.png","68","img/blue_2bandit_a2.png","68","prac","1","0","","","","","","","","","","","","","","","","","",""
"454.4000000357628","420861","SARL_v6","SARL_v6nq0gnmgo","647652cb5644044df439e1fb","infreqPrac_resp","","","img/blue_2bandit_a.png","68","img/blue_2bandit_a.png","68","prac","","","","","","","","","","","","","","","","","","","",""
"null","421023","SARL_v6","SARL_v6nq0gnmgo","647652cb5644044df439e1fb","fixation","","","img/fixation.png","null","","","prac","","","","","","","","","","","","","","","","","","","",""
"373.39999997615814","421400","SARL_v6","SARL_v6nq0gnmgo","647652cb5644044df439e1fb","freqPrac","","","img/orange_2bandit_a2.png","68","img/orange_2bandit_a2.png","70","prac","0","1","","","","","","","","","","","","","","","","","",""
"373.39999997615814","421836","SARL_v6","SARL_v6nq0gnmgo","647652cb5644044df439e1fb","freqPrac_resp","","","img/orange_2bandit_a.png","68","img/orange_2bandit_a.png","70","prac","","","","","","","","","","","","","","","","","","","",""
"null","422850","SARL_v6","SARL_v6nq0gnmgo","647652cb5644044df439e1fb","feedback","","","img/wrongKey.png","null","","na","prac","","","","","","","","","","","","","","","","","","","",""
"null","423018","SARL_v6","SARL_v6nq0gnmgo","647652cb5644044df439e1fb","fixation","","","img/fixation.png","null","","","prac","","","","","","","","","","","","","","","","","","","",""
"666.1000000238419","423689","SARL_v6","SARL_v6nq0gnmgo","647652cb5644044df439e1fb","freqPrac","","","img/orange_2bandit_a2.png","70","img/orange_2bandit_a2.png","70","prac","1","1","","","","","","","","","","","","","","","","","",""
"666.1000000238419","423833","SARL_v6","SARL_v6nq0gnmgo","647652cb5644044df439e1fb","freqPrac_resp","","","img/orange_2bandit_a.png","70","img/orange_2bandit_a.png","70","prac","","","","","","","","","","","","","","","","","","","",""
"null","423999","SARL_v6","SARL_v6nq0gnmgo","647652cb5644044df439e1fb","fixation","","","img/fixation.png","null","","","prac","","","","","","","","","","","","","","","","","","","",""
"80241.80000001192","504242","SARL_v6","SARL_v6nq0gnmgo","647652cb5644044df439e1fb","","","","","","","","prac","","","","","","","","","","","","","","","","","","","",""
"857.2999999523163","505104","SARL_v6","SARL_v6nq0gnmgo","647652cb5644044df439e1fb","rlPractice","","","img/black_2bandit_a2.png","75","img/black_2bandit_a2.png","","prac","","","0","","","","","","","","","","","","","","","","",""
"null","505864","SARL_v6","SARL_v6nq0gnmgo","647652cb5644044df439e1fb","feedback","","","<div class=""veryhighPoints""> 10 </div>","null","","na","prac","","","1","10","-14","10","","","","","","","","","","","","","",""
"null","506032","SARL_v6","SARL_v6nq0gnmgo","647652cb5644044df439e1fb","fixation","","","img/fixation.png","null","","","prac","","","","","","","","","","","","","","","","","","","",""
"388.60000002384186","506424","SARL_v6","SARL_v6nq0gnmgo","647652cb5644044df439e1fb","rlPractice","","","img/black_2bandit_a2.png","75","img/black_2bandit_a2.png","","prac","","","1","","","","","","","","","","","","","","","","",""
"null","507192","SARL_v6","SARL_v6nq0gnmgo","647652cb5644044df439e1fb","feedback","","","<div class=""veryhighPoints""> 5 </div>","null","","na","prac","","","2","5","-5","5","","","","","","","","","","","","","",""
"null","507364","SARL_v6","SARL_v6nq0gnmgo","647652cb5644044df439e1fb","fixation","","","img/fixation.png","null","","","prac","","","","","","","","","","","","","","","","","","","",""
"418.2000000476837","507786","SARL_v6","SARL_v6nq0gnmgo","647652cb5644044df439e1fb","rlPractice","","","img/black_2bandit_a2.png","75","img/black_2bandit_a2.png","","prac","","","2","","","","","","","","","","","","","","","","",""
"null","508540","SARL_v6","SARL_v6nq0gnmgo","647652cb5644044df439e1fb","feedback","","","<div class=""veryhighPoints""> 30 </div>","null","","na","prac","","","3","30","2","30","","","","","","","","","","","","","",""
"null","508709","SARL_v6","SARL_v6nq0gnmgo","647652cb5644044df439e1fb","fixation","","","img/fixation.png","null","","","prac","","","","","","","","","","","","","","","","","","","",""
"391.10000002384186","509103","SARL_v6","SARL_v6nq0gnmgo","647652cb5644044df439e1fb","rlPractice","","","img/black_2bandit_a2.png","75","img/black_2bandit_a2.png","","prac","","","3","","","","","","","","","","","","","","","","",""
"null","509869","SARL_v6","SARL_v6nq0gnmgo","647652cb5644044df439e1fb","feedback","","","<div class=""verylowPoints""> -2 </div>","null","","na","prac","","","4","-2","20","-2","","","","","","","","","","","","","",""
"null","510038","SARL_v6","SARL_v6nq0gnmgo","647652cb5644044df439e1fb","fixation","","","img/fixation.png","null","","","prac","","","","","","","","","","","","","","","","","","","",""
"9032.800000011921","519073","SARL_v6","SARL_v6nq0gnmgo","647652cb5644044df439e1fb","","","","","","","","prac","","","","","","","","","","","","","","","","","","","",""
"460.19999998807907","519538","SARL_v6","SARL_v6nq0gnmgo","647652cb5644044df439e1fb","mixAttFreqPrac","","","img/orange_2bandit_a2.png","70","img/orange_2bandit_a2.png","70","prac","","","1","","","","","","","","","","","","","","","","",""
"460.19999998807907","519894","SARL_v6","SARL_v6nq0gnmgo","647652cb5644044df439e1fb","freqPrac_resp","","","img/orange_2bandit_a.png","70","img/orange_2bandit_a.png","70","prac","","","1","","","","","","","","","","","","","","","","",""
"null","520052","SARL_v6","SARL_v6nq0gnmgo","647652cb5644044df439e1fb","fixation","","","img/fixation.png","null","","","prac","","","","","","","","","","","","","","","","","","","",""
"393.5","520449","SARL_v6","SARL_v6nq0gnmgo","647652cb5644044df439e1fb","mixAttInfreqPrac","","","img/blue_2bandit_a2.png","68","img/blue_2bandit_a2.png","68","prac","","","2","","","","","","","","","","","","","","","","",""
"393.5","520867","SARL_v6","SARL_v6nq0gnmgo","647652cb5644044df439e1fb","infreqPrac_resp","","","img/blue_2bandit_a.png","68","img/orange_2bandit_a.png","68","prac","","","2","","","","","","","","","","","","","","","","",""
"null","521034","SARL_v6","SARL_v6nq0gnmgo","647652cb5644044df439e1fb","fixation","","","img/fixation.png","null","","","prac","","","","","","","","","","","","","","","","","","","",""
"321.0999999642372","521359","SARL_v6","SARL_v6nq0gnmgo","647652cb5644044df439e1fb","mixAttInfreqPrac","","","img/blue_2bandit_a2.png","68","img/blue_2bandit_a2.png","68","prac","","","3","","","","","","","","","","","","","","","","",""
"321.0999999642372","521846","SARL_v6","SARL_v6nq0gnmgo","647652cb5644044df439e1fb","infreqPrac_resp","","","img/blue_2bandit_a.png","68","img/orange_2bandit_a.png","68","prac","","","3","","","","","","","","","","","","","","","","",""
"null","522014","SARL_v6","SARL_v6nq0gnmgo","647652cb5644044df439e1fb","fixation","","","img/fixation.png","null","","","prac","","","","","","","","","","","","","","","","","","","",""
"387.39999997615814","522405","SARL_v6","SARL_v6nq0gnmgo","647652cb5644044df439e1fb","mixAttInfreqPrac","","","img/blue_2bandit_a2.png","68","img/blue_2bandit_a2.png","68","prac","","","4","","","","","","","","","","","","","","","","",""
"387.39999997615814","522829","SARL_v6","SARL_v6nq0gnmgo","647652cb5644044df439e1fb","infreqPrac_resp","","","img/blue_2bandit_a.png","68","img/orange_2bandit_a.png","68","prac","","","4","","","","","","","","","","","","","","","","",""
"null","522995","SARL_v6","SARL_v6nq0gnmgo","647652cb5644044df439e1fb","fixation","","","img/fixation.png","null","","","prac","","","","","","","","","","","","","","","","","","","",""
"446.5","523445","SARL_v6","SARL_v6nq0gnmgo","647652cb5644044df439e1fb","mixAttFreqPrac","","","img/orange_2bandit_a2.png","70","img/orange_2bandit_a2.png","70","prac","","","5","","","","","","","","","","","","","","","","",""
"446.5","523814","SARL_v6","SARL_v6nq0gnmgo","647652cb5644044df439e1fb","freqPrac_resp","","","img/orange_2bandit_a.png","70","img/orange_2bandit_a.png","70","prac","","","5","","","","","","","","","","","","","","","","",""
"null","523975","SARL_v6","SARL_v6nq0gnmgo","647652cb5644044df439e1fb","fixation","","","img/fixation.png","null","","","prac","","","","","","","","","","","","","","","","","","","",""
"345.80000001192093","524324","SARL_v6","SARL_v6nq0gnmgo","647652cb5644044df439e1fb","mixRLPractice","","","img/black_2bandit_a2.png","75","img/black_2bandit_a2.png","","prac","","","5","","","","","","","","","","","","","","","","",""
"null","525084","SARL_v6","SARL_v6nq0gnmgo","647652cb5644044df439e1fb","feedback","","","<div class=""verylowPoints""> -14 </div>","null","","na","prac","","","6","-14","10","-14","","","","","","","","","","","","","",""
"null","525253","SARL_v6","SARL_v6nq0gnmgo","647652cb5644044df439e1fb","fixation","","","img/fixation.png","null","","","prac","","","","","","","","","","","","","","","","","","","",""
"791","526047","SARL_v6","SARL_v6nq0gnmgo","647652cb5644044df439e1fb","mixAttFreqPrac","","","img/orange_2bandit_a2.png","68","img/orange_2bandit_a2.png","70","prac","","","7","","","","","","","","","","","","","","","","",""
"791","526061","SARL_v6","SARL_v6nq0gnmgo","647652cb5644044df439e1fb","freqPrac_resp","","","img/orange_2bandit_a.png","68","img/orange_2bandit_a.png","70","prac","","","7","","","","","","","","","","","","","","","","",""
"null","526225","SARL_v6","SARL_v6nq0gnmgo","647652cb5644044df439e1fb","fixation","","","img/fixation.png","null","","","prac","","","","","","","","","","","","","","","","","","","",""
"609.8000000119209","526838","SARL_v6","SARL_v6nq0gnmgo","647652cb5644044df439e1fb","mixAttInfreqPrac","","","img/blue_2bandit_a2.png","68","img/blue_2bandit_a2.png","68","prac","","","8","","","","","","","","","","","","","","","","",""
"609.8000000119209","527032","SARL_v6","SARL_v6nq0gnmgo","647652cb5644044df439e1fb","infreqPrac_resp","","","img/blue_2bandit_a.png","68","img/orange_2bandit_a.png","68","prac","","","8","","","","","","","","","","","","","","","","",""
"null","527197","SARL_v6","SARL_v6nq0gnmgo","647652cb5644044df439e1fb","fixation","","","img/fixation.png","null","","","prac","","","","","","","","","","","","","","","","","","","",""
"464.2000000476837","527665","SARL_v6","SARL_v6nq0gnmgo","647652cb5644044df439e1fb","mixAttFreqPrac","","","img/orange_2bandit_a2.png","70","img/orange_2bandit_a2.png","70","prac","","","9","","","","","","","","","","","","","","","","",""
"464.2000000476837","528005","SARL_v6","SARL_v6nq0gnmgo","647652cb5644044df439e1fb","freqPrac_resp","","","img/orange_2bandit_a.png","70","img/orange_2bandit_a.png","70","prac","","","9","","","","","","","","","","","","","","","","",""
"null","528163","SARL_v6","SARL_v6nq0gnmgo","647652cb5644044df439e1fb","fixation","","","img/fixation.png","null","","","prac","","","","","","","","","","","","","","","","","","","",""
"500.10000002384186","528666","SARL_v6","SARL_v6nq0gnmgo","647652cb5644044df439e1fb","mixAttFreqPrac","","","img/orange_2bandit_a2.png","70","img/orange_2bandit_a2.png","70","prac","","","10","","","","","","","","","","","","","","","","",""
"500.10000002384186","528972","SARL_v6","SARL_v6nq0gnmgo","647652cb5644044df439e1fb","freqPrac_resp","","","img/orange_2bandit_a.png","70","img/orange_2bandit_a.png","70","prac","","","10","","","","","","","","","","","","","","","","",""
"null","529126","SARL_v6","SARL_v6nq0gnmgo","647652cb5644044df439e1fb","fixation","","","img/fixation.png","null","","","prac","","","","","","","","","","","","","","","","","","","",""
"518.6000000238419","529648","SARL_v6","SARL_v6nq0gnmgo","647652cb5644044df439e1fb","mixAttInfreqPrac","","","img/blue_2bandit_a2.png","68","img/blue_2bandit_a2.png","68","prac","","","11","","","","","","","","","","","","","","","","",""
"518.6000000238419","529933","SARL_v6","SARL_v6nq0gnmgo","647652cb5644044df439e1fb","infreqPrac_resp","","","img/blue_2bandit_a.png","68","img/orange_2bandit_a.png","68","prac","","","11","","","","","","","","","","","","","","","","",""
"null","530092","SARL_v6","SARL_v6nq0gnmgo","647652cb5644044df439e1fb","fixation","","","img/fixation.png","null","","","prac","","","","","","","","","","","","","","","","","","","",""
"458.69999998807907","530554","SARL_v6","SARL_v6nq0gnmgo","647652cb5644044df439e1fb","mixRLPractice","","","img/black_2bandit_a2.png","74","img/black_2bandit_a2.png","","prac","","","11","","","","","","","","","","","","","","","","",""
"null","531319","SARL_v6","SARL_v6nq0gnmgo","647652cb5644044df439e1fb","feedback","","","<div class=""verylowPoints_sq""> -5 </div>","null","","na","prac","","","12","5","-5","5","","","","","","","","","","","","","",""
"null","531487","SARL_v6","SARL_v6nq0gnmgo","647652cb5644044df439e1fb","fixation","","","img/fixation.png","null","","","prac","","","","","","","","","","","","","","","","","","","",""
"16235.399999976158","547725","SARL_v6","SARL_v6nq0gnmgo","647652cb5644044df439e1fb","","","","","","","","prac","","","","","","","","","","","","","","","","","","","",""
"477.80000001192093","548207","SARL_v6","SARL_v6nq0gnmgo","647652cb5644044df439e1fb","freq","","","img/orange_2bandit_a2.png","70","","70","test","1","","1","","","","square","circle","1","1","1","1","","","","","","","",""
"null","548534","SARL_v6","SARL_v6nq0gnmgo","647652cb5644044df439e1fb","freq_resp","","","img/orange_2bandit_a.png","70","img/orange_2bandit_a.png","70","test","","","","","","","","","","","1","","","","","","","","",""
"null","548694","SARL_v6","SARL_v6nq0gnmgo","647652cb5644044df439e1fb","fixation","","","img/fixation.png","null","","","test","","","","","","","","","","","","","","","","","","","",""
"340.5","549037","SARL_v6","SARL_v6nq0gnmgo","647652cb5644044df439e1fb","freq","","","img/orange_2bandit_a2.png","70","","70","test","1","","2","","","","square","circle","2","2","1","1","","","","","","","",""
"null","549507","SARL_v6","SARL_v6nq0gnmgo","647652cb5644044df439e1fb","freq_resp","","","img/orange_2bandit_a.png","70","img/orange_2bandit_a.png","70","test","","","","","","","","","","","1","","","","","","","","",""
"null","549674","SARL_v6","SARL_v6nq0gnmgo","647652cb5644044df439e1fb","fixation","","","img/fixation.png","null","","","test","","","","","","","","","","","","","","","","","","","",""
"390.5","550068","SARL_v6","SARL_v6nq0gnmgo","647652cb5644044df439e1fb","infreq","","","img/blue_2bandit_a2.png","70","","68","test","0","","3","","","","square","circle","3","3","1","0.6666666666666666","","","","","","","",""
"null","550490","SARL_v6","SARL_v6nq0gnmgo","647652cb5644044df439e1fb","infreq_resp","","","img/blue_2bandit_a.png","70","img/blue_2bandit_a.png","68","test","","","","","","","","","","","1","","","","","","","","",""
"null","550657","SARL_v6","SARL_v6nq0gnmgo","647652cb5644044df439e1fb","fixation","","","img/fixation.png","null","","","test","","","","","","","","","","","","","","","","","","","",""
"633.1999999880791","551293","SARL_v6","SARL_v6nq0gnmgo","647652cb5644044df439e1fb","freq","","","img/orange_2bandit_a2.png","70","","70","test","1","","4","","","","square","circle","4","4","1","0.75","","","","","","","",""
"null","551470","SARL_v6","SARL_v6nq0gnmgo","647652cb5644044df439e1fb","freq_resp","","","img/orange_2bandit_a.png","70","img/orange_2bandit_a.png","70","test","","","","","","","","","","","1","","","","","","","","",""
"null","551637","SARL_v6","SARL_v6nq0gnmgo","647652cb5644044df439e1fb","fixation","","","img/fixation.png","null","","","test","","","","","","","","","","","","","","","","","","","",""
"539.3999999761581","552180","SARL_v6","SARL_v6nq0gnmgo","647652cb5644044df439e1fb","freq","","","img/orange_2bandit_a2.png","70","","70","test","1","","5","","","","square","circle","5","5","1","0.8","","","","","","","",""
"null","552446","SARL_v6","SARL_v6nq0gnmgo","647652cb5644044df439e1fb","freq_resp","","","img/orange_2bandit_a.png","70","img/orange_2bandit_a.png","70","test","","","","","","","","","","","1","","","","","","","","",""
"null","552616","SARL_v6","SARL_v6nq0gnmgo","647652cb5644044df439e1fb","fixation","","","img/fixation.png","null","","","test","","","","","","","","","","","","","","","","","","","",""
"439.9000000357628","553059","SARL_v6","SARL_v6nq0gnmgo","647652cb5644044df439e1fb","freq","","","img/orange_2bandit_a2.png","70","","70","test","1","","6","","","","square","circle","6","6","1","0.8333333333333334","","","","","","","",""
"null","553437","SARL_v6","SARL_v6nq0gnmgo","647652cb5644044df439e1fb","freq_resp","","","img/orange_2bandit_a.png","70","img/orange_2bandit_a.png","70","test","","","","","","","","","","","1","","","","","","","","",""
"null","553597","SARL_v6","SARL_v6nq0gnmgo","647652cb5644044df439e1fb","fixation","","","img/fixation.png","null","","","test","","","","","","","","","","","","","","","","","","","",""
"462.0999999642372","554063","SARL_v6","SARL_v6nq0gnmgo","647652cb5644044df439e1fb","freq","","","img/orange_2bandit_a2.png","70","","70","test","1","","7","","","","square","circle","7","7","1","0.8571428571428571","","","","","","","",""
"null","554419","SARL_v6","SARL_v6nq0gnmgo","647652cb5644044df439e1fb","freq_resp","","","img/orange_2bandit_a.png","70","img/orange_2bandit_a.png","70","test","","","","","","","","","","","1","","","","","","","","",""
"null","554578","SARL_v6","SARL_v6nq0gnmgo","647652cb5644044df439e1fb","fixation","","","img/fixation.png","null","","","test","","","","","","","","","","","","","","","","","","","",""
"360.5999999642372","554943","SARL_v6","SARL_v6nq0gnmgo","647652cb5644044df439e1fb","freq","","","img/orange_2bandit_a2.png","70","","70","test","1","","8","","","","square","circle","8","8","1","0.875","","","","","","","",""
"null","555395","SARL_v6","SARL_v6nq0gnmgo","647652cb5644044df439e1fb","freq_resp","","","img/orange_2bandit_a.png","70","img/orange_2bandit_a.png","70","test","","","","","","","","","","","1","","","","","","","","",""
"null","555558","SARL_v6","SARL_v6nq0gnmgo","647652cb5644044df439e1fb","fixation","","","img/fixation.png","null","","","test","","","","","","","","","","","","","","","","","","","",""
"378.89999997615814","555941","SARL_v6","SARL_v6nq0gnmgo","647652cb5644044df439e1fb","freq","","","img/orange_2bandit_a2.png","70","","70","test","1","","9","","","","square","circle","9","9","1","0.8888888888888888","","","","","","","",""
"null","556375","SARL_v6","SARL_v6nq0gnmgo","647652cb5644044df439e1fb","freq_resp","","","img/orange_2bandit_a.png","70","img/orange_2bandit_a.png","70","test","","","","","","","","","","","1","","","","","","","","",""
"null","556539","SARL_v6","SARL_v6nq0gnmgo","647652cb5644044df439e1fb","fixation","","","img/fixation.png","null","","","test","","","","","","","","","","","","","","","","","","","",""
"364.60000002384186","556908","SARL_v6","SARL_v6nq0gnmgo","647652cb5644044df439e1fb","infreq","","","img/blue_2bandit_a2.png","68","","68","test","1","","10","","","","square","circle","10","10","1","0.9","","","","","","","",""
"null","557354","SARL_v6","SARL_v6nq0gnmgo","647652cb5644044df439e1fb","infreq_resp","","","img/blue_2bandit_a.png","68","img/blue_2bandit_a.png","68","test","","","","","","","","","","","1","","","","","","","","",""
"null","557520","SARL_v6","SARL_v6nq0gnmgo","647652cb5644044df439e1fb","fixation","","","img/fixation.png","null","","","test","","","","","","","","","","","","","","","","","","","",""
"431","557955","SARL_v6","SARL_v6nq0gnmgo","647652cb5644044df439e1fb","freq","","","img/orange_2bandit_a2.png","70","","70","test","1","","11","","","","square","circle","11","11","1","0.9090909090909091","","","","","","","",""
"null","558339","SARL_v6","SARL_v6nq0gnmgo","647652cb5644044df439e1fb","freq_resp","","","img/orange_2bandit_a.png","70","img/orange_2bandit_a.png","70","test","","","","","","","","","","","1","","","","","","","","",""
"null","558505","SARL_v6","SARL_v6nq0gnmgo","647652cb5644044df439e1fb","fixation","","","img/fixation.png","null","","","test","","","","","","","","","","","","","","","","","","","",""
"774.1000000238419","559283","SARL_v6","SARL_v6nq0gnmgo","647652cb5644044df439e1fb","freq","","","img/orange_2bandit_a2.png","70","","70","test","1","","12","","","","square","circle","12","12","1","0.9166666666666666","","","","","","","",""
"null","559313","SARL_v6","SARL_v6nq0gnmgo","647652cb5644044df439e1fb","freq_resp","","","img/orange_2bandit_a.png","70","img/orange_2bandit_a.png","70","test","","","","","","","","","","","1","","","","","","","","",""
"null","559485","SARL_v6","SARL_v6nq0gnmgo","647652cb5644044df439e1fb","fixation","","","img/fixation.png","null","","","test","","","","","","","","","","","","","","","","","","","",""
"536","560025","SARL_v6","SARL_v6nq0gnmgo","647652cb5644044df439e1fb","freq","","","img/orange_2bandit_a2.png","70","","70","test","1","","13","","","","square","circle","13","13","1","0.9230769230769231","","","","","","","",""
"null","560306","SARL_v6","SARL_v6nq0gnmgo","647652cb5644044df439e1fb","freq_resp","","","img/orange_2bandit_a.png","70","img/orange_2bandit_a.png","70","test","","","","","","","","","","","1","","","","","","","","",""
"null","560462","SARL_v6","SARL_v6nq0gnmgo","647652cb5644044df439e1fb","fixation","","","img/fixation.png","null","","","test","","","","","","","","","","","","","","","","","","","",""
"434.5999999642372","560900","SARL_v6","SARL_v6nq0gnmgo","647652cb5644044df439e1fb","infreq","","","img/blue_2bandit_a2.png","70","","68","test","0","","14","","","","square","circle","14","14","1","0.8571428571428571","","","","","","","",""
"null","561282","SARL_v6","SARL_v6nq0gnmgo","647652cb5644044df439e1fb","infreq_resp","","","img/blue_2bandit_a.png","70","img/blue_2bandit_a.png","68","test","","","","","","","","","","","1","","","","","","","","",""
"null","561443","SARL_v6","SARL_v6nq0gnmgo","647652cb5644044df439e1fb","fixation","","","img/fixation.png","null","","","test","","","","","","","","","","","","","","","","","","","",""
"442","561889","SARL_v6","SARL_v6nq0gnmgo","647652cb5644044df439e1fb","freq","","","img/orange_2bandit_a2.png","70","","70","test","1","","15","","","","square","circle","15","15","1","0.8666666666666667","","","","","","","",""
"null","562262","SARL_v6","SARL_v6nq0gnmgo","647652cb5644044df439e1fb","freq_resp","","","img/orange_2bandit_a.png","70","img/orange_2bandit_a.png","70","test","","","","","","","","","","","1","","","","","","","","",""
"null","562424","SARL_v6","SARL_v6nq0gnmgo","647652cb5644044df439e1fb","fixation","","","img/fixation.png","null","","","test","","","","","","","","","","","","","","","","","","","",""
"503.60000002384186","562932","SARL_v6","SARL_v6nq0gnmgo","647652cb5644044df439e1fb","freq","","","img/orange_2bandit_a2.png","70","","70","test","1","","16","","","","square","circle","16","16","1","0.875","","","","","","","",""
"null","563247","SARL_v6","SARL_v6nq0gnmgo","647652cb5644044df439e1fb","freq_resp","","","img/orange_2bandit_a.png","70","img/orange_2bandit_a.png","70","test","","","","","","","","","","","1","","","","","","","","",""
"null","563403","SARL_v6","SARL_v6nq0gnmgo","647652cb5644044df439e1fb","fixation","","","img/fixation.png","null","","","test","","","","","","","","","","","","","","","","","","","",""
"469.5","563876","SARL_v6","SARL_v6nq0gnmgo","647652cb5644044df439e1fb","freq","","","img/orange_2bandit_a2.png","70","","70","test","1","","17","","","","square","circle","17","17","1","0.8823529411764706","","","","","","","",""
"null","564224","SARL_v6","SARL_v6nq0gnmgo","647652cb5644044df439e1fb","freq_resp","","","img/orange_2bandit_a.png","70","img/orange_2bandit_a.png","70","test","","","","","","","","","","","1","","","","","","","","",""
"null","564385","SARL_v6","SARL_v6nq0gnmgo","647652cb5644044df439e1fb","fixation","","","img/fixation.png","null","","","test","","","","","","","","","","","","","","","","","","","",""
"425.2000000476837","564814","SARL_v6","SARL_v6nq0gnmgo","647652cb5644044df439e1fb","freq","","","img/orange_2bandit_a2.png","70","","70","test","1","","18","","","","square","circle","18","18","1","0.8888888888888888","","","","","","","",""
"null","565203","SARL_v6","SARL_v6nq0gnmgo","647652cb5644044df439e1fb","freq_resp","","","img/orange_2bandit_a.png","70","img/orange_2bandit_a.png","70","test","","","","","","","","","","","1","","","","","","","","",""
"null","565366","SARL_v6","SARL_v6nq0gnmgo","647652cb5644044df439e1fb","fixation","","","img/fixation.png","null","","","test","","","","","","","","","","","","","","","","","","","",""
"437.80000001192093","565807","SARL_v6","SARL_v6nq0gnmgo","647652cb5644044df439e1fb","freq","","","img/orange_2bandit_a2.png","70","","70","test","1","","19","","","","square","circle","19","19","1","0.8947368421052632","","","","","","","",""
"null","566185","SARL_v6","SARL_v6nq0gnmgo","647652cb5644044df439e1fb","freq_resp","","","img/orange_2bandit_a.png","70","img/orange_2bandit_a.png","70","test","","","","","","","","","","","1","","","","","","","","",""
"null","566347","SARL_v6","SARL_v6nq0gnmgo","647652cb5644044df439e1fb","fixation","","","img/fixation.png","null","","","test","","","","","","","","","","","","","","","","","","","",""
"543.6000000238419","566893","SARL_v6","SARL_v6nq0gnmgo","647652cb5644044df439e1fb","freq","","","img/orange_2bandit_a2.png","70","","70","test","1","","20","","","","square","circle","20","20","1","0.9","","","","","","","",""
"null","567156","SARL_v6","SARL_v6nq0gnmgo","647652cb5644044df439e1fb","freq_resp","","","img/orange_2bandit_a.png","70","img/orange_2bandit_a.png","70","test","","","","","","","","","","","1","","","","","","","","",""
"null","567310","SARL_v6","SARL_v6nq0gnmgo","647652cb5644044df439e1fb","fixation","","","img/fixation.png","null","","","test","","","","","","","","","","","","","","","","","","","",""
"479","567793","SARL_v6","SARL_v6nq0gnmgo","647652cb5644044df439e1fb","freq","","","img/orange_2bandit_a2.png","70","","70","test","1","","21","","","","square","circle","21","21","1","0.9047619047619048","","","","","","","",""
"null","568132","SARL_v6","SARL_v6nq0gnmgo","647652cb5644044df439e1fb","freq_resp","","","img/orange_2bandit_a.png","70","img/orange_2bandit_a.png","70","test","","","","","","","","","","","1","","","","","","","","",""
"null","568290","SARL_v6","SARL_v6nq0gnmgo","647652cb5644044df439e1fb","fixation","","","img/fixation.png","null","","","test","","","","","","","","","","","","","","","","","","","",""
"541.8000000119209","568835","SARL_v6","SARL_v6nq0gnmgo","647652cb5644044df439e1fb","freq","","","img/orange_2bandit_a2.png","70","","70","test","1","","22","","","","square","circle","22","22","1","0.9090909090909091","","","","","","","",""
"null","569099","SARL_v6","SARL_v6nq0gnmgo","647652cb5644044df439e1fb","freq_resp","","","img/orange_2bandit_a.png","70","img/orange_2bandit_a.png","70","test","","","","","","","","","","","1","","","","","","","","",""
"null","569254","SARL_v6","SARL_v6nq0gnmgo","647652cb5644044df439e1fb","fixation","","","img/fixation.png","null","","","test","","","","","","","","","","","","","","","","","","","",""
"407.89999997615814","569666","SARL_v6","SARL_v6nq0gnmgo","647652cb5644044df439e1fb","freq","","","img/orange_2bandit_a2.png","70","","70","test","1","","23","","","","square","circle","23","23","1","0.9130434782608695","","","","","","","",""
"null","570072","SARL_v6","SARL_v6nq0gnmgo","647652cb5644044df439e1fb","freq_resp","","","img/orange_2bandit_a.png","70","img/orange_2bandit_a.png","70","test","","","","","","","","","","","1","","","","","","","","",""
"null","570236","SARL_v6","SARL_v6nq0gnmgo","647652cb5644044df439e1fb","fixation","","","img/fixation.png","null","","","test","","","","","","","","","","","","","","","","","","","",""
"882.4000000357628","571122","SARL_v6","SARL_v6nq0gnmgo","647652cb5644044df439e1fb","rl","","","img/black_2bandit_a2.png","75","","0","test","","","24","","","-3","square","circle","","0","1","","75","-3","-3","-3","-3","circle","1","0"
"null","571883","SARL_v6","SARL_v6nq0gnmgo","647652cb5644044df439e1fb","feedback","","","<div class=""verylowPoints""> -3 </div>","null","","na","test","","","NaN","","","","","","","","1","","75","","","","","","1",""
"null","572690","SARL_v6","SARL_v6nq0gnmgo","647652cb5644044df439e1fb","freq","","","img/orange_2bandit_a2.png","null","","70","test","0","","25","","","","square","circle","24","1","2","0.875","","","","","","","",""
"null","572848","SARL_v6","SARL_v6nq0gnmgo","647652cb5644044df439e1fb","fixation","","","img/fixation.png","null","","","test","","","","","","","","","","","","","","","","","","","",""
"603.1000000238419","573455","SARL_v6","SARL_v6nq0gnmgo","647652cb5644044df439e1fb","freq","","","img/orange_2bandit_a2.png","70","","70","test","1","","26","","","","square","circle","25","2","2","0.88","","","","","","","",""
"null","573656","SARL_v6","SARL_v6nq0gnmgo","647652cb5644044df439e1fb","freq_resp","","","img/orange_2bandit_a.png","70","img/orange_2bandit_a.png","70","test","","","","","","","","","","","2","","","","","","","","",""
"null","573811","SARL_v6","SARL_v6nq0gnmgo","647652cb5644044df439e1fb","fixation","","","img/fixation.png","null","","","test","","","","","","","","","","","","","","","","","","","",""
"467.30000001192093","574282","SARL_v6","SARL_v6nq0gnmgo","647652cb5644044df439e1fb","infreq","","","img/blue_2bandit_a2.png","68","","68","test","1","","27","","","","square","circle","26","3","2","0.8846153846153846","","","","","","","",""
"null","574628","SARL_v6","SARL_v6nq0gnmgo","647652cb5644044df439e1fb","infreq_resp","","","img/blue_2bandit_a.png","68","img/blue_2bandit_a.png","68","test","","","","","","","","","","","2","","","","","","","","",""
"null","574790","SARL_v6","SARL_v6nq0gnmgo","647652cb5644044df439e1fb","fixation","","","img/fixation.png","null","","","test","","","","","","","","","","","","","","","","","","","",""
"415.80000001192093","575209","SARL_v6","SARL_v6nq0gnmgo","647652cb5644044df439e1fb","freq","","","img/orange_2bandit_a2.png","70","","70","test","1","","28","","","","square","circle","27","4","2","0.8888888888888888","","","","","","","",""
"null","575608","SARL_v6","SARL_v6nq0gnmgo","647652cb5644044df439e1fb","freq_resp","","","img/orange_2bandit_a.png","70","img/orange_2bandit_a.png","70","test","","","","","","","","","","","2","","","","","","","","",""
"null","575772","SARL_v6","SARL_v6nq0gnmgo","647652cb5644044df439e1fb","fixation","","","img/fixation.png","null","","","test","","","","","","","","","","","","","","","","","","","",""
"551.6999999880791","576328","SARL_v6","SARL_v6nq0gnmgo","647652cb5644044df439e1fb","freq","","","img/orange_2bandit_a2.png","70","","70","test","1","","29","","","","square","circle","28","5","2","0.8928571428571429","","","","","","","",""
"null","576580","SARL_v6","SARL_v6nq0gnmgo","647652cb5644044df439e1fb","freq_resp","","","img/orange_2bandit_a.png","70","img/orange_2bandit_a.png","70","test","","","","","","","","","","","2","","","","","","","","",""
"null","576734","SARL_v6","SARL_v6nq0gnmgo","647652cb5644044df439e1fb","fixation","","","img/fixation.png","null","","","test","","","","","","","","","","","","","","","","","","","",""
"423.7000000476837","577161","SARL_v6","SARL_v6nq0gnmgo","647652cb5644044df439e1fb","freq","","","img/orange_2bandit_a2.png","70","","70","test","1","","30","","","","square","circle","29","6","2","0.896551724137931","","","","","","","",""
"null","577544","SARL_v6","SARL_v6nq0gnmgo","647652cb5644044df439e1fb","freq_resp","","","img/orange_2bandit_a.png","70","img/orange_2bandit_a.png","70","test","","","","","","","","","","","2","","","","","","","","",""
"null","577698","SARL_v6","SARL_v6nq0gnmgo","647652cb5644044df439e1fb","fixation","","","img/fixation.png","null","","","test","","","","","","","","","","","","","","","","","","","",""
"354.2000000476837","578056","SARL_v6","SARL_v6nq0gnmgo","647652cb5644044df439e1fb","freq","","","img/orange_2bandit_a2.png","70","","70","test","1","","31","","","","square","circle","30","7","2","0.9","","","","","","","",""
"null","578512","SARL_v6","SARL_v6nq0gnmgo","647652cb5644044df439e1fb","freq_resp","","","img/orange_2bandit_a.png","70","img/orange_2bandit_a.png","70","test","","","","","","","","","","","2","","","","","","","","",""
"null","578680","SARL_v6","SARL_v6nq0gnmgo","647652cb5644044df439e1fb","fixation","","","img/fixation.png","null","","","test","","","","","","","","","","","","","","","","","","","",""
"514.3999999761581","579198","SARL_v6","SARL_v6nq0gnmgo","647652cb5644044df439e1fb","freq","","","img/orange_2bandit_a2.png","70","","70","test","1","","32","","","","square","circle","31","8","2","0.9032258064516129","","","","","","","",""
"null","579502","SARL_v6","SARL_v6nq0gnmgo","647652cb5644044df439e1fb","freq_resp","","","img/orange_2bandit_a.png","70","img/orange_2bandit_a.png","70","test","","","","","","","","","","","2","","","","","","","","",""
"null","579660","SARL_v6","SARL_v6nq0gnmgo","647652cb5644044df439e1fb","fixation","","","img/fixation.png","null","","","test","","","","","","","","","","","","","","","","","","","",""
"370.10000002384186","580033","SARL_v6","SARL_v6nq0gnmgo","647652cb5644044df439e1fb","freq","","","img/orange_2bandit_a2.png","70","","70","test","1","","33","","","","square","circle","32","9","2","0.90625","","","","","","","",""
"null","580477","SARL_v6","SARL_v6nq0gnmgo","647652cb5644044df439e1fb","freq_resp","","","img/orange_2bandit_a.png","70","img/orange_2bandit_a.png","70","test","","","","","","","","","","","2","","","","","","","","",""
"null","580639","SARL_v6","SARL_v6nq0gnmgo","647652cb5644044df439e1fb","fixation","","","img/fixation.png","null","","","test","","","","","","","","","","","","","","","","","","","",""
"537.6999999880791","581180","SARL_v6","SARL_v6nq0gnmgo","647652cb5644044df439e1fb","freq","","","img/orange_2bandit_a2.png","70","","70","test","1","","34","","","","square","circle","33","10","2","0.9090909090909091","","","","","","","",""
"null","581452","SARL_v6","SARL_v6nq0gnmgo","647652cb5644044df439e1fb","freq_resp","","","img/orange_2bandit_a.png","70","img/orange_2bandit_a.png","70","test","","","","","","","","","","","2","","","","","","","","",""
"null","581620","SARL_v6","SARL_v6nq0gnmgo","647652cb5644044df439e1fb","fixation","","","img/fixation.png","null","","","test","","","","","","","","","","","","","","","","","","","",""
"478.30000001192093","582102","SARL_v6","SARL_v6nq0gnmgo","647652cb5644044df439e1fb","freq","","","img/orange_2bandit_a2.png","70","","70","test","1","","35","","","","square","circle","34","11","2","0.9117647058823529","","","","","","","",""
"null","582428","SARL_v6","SARL_v6nq0gnmgo","647652cb5644044df439e1fb","freq_resp","","","img/orange_2bandit_a.png","70","img/orange_2bandit_a.png","70","test","","","","","","","","","","","2","","","","","","","","",""
"null","582585","SARL_v6","SARL_v6nq0gnmgo","647652cb5644044df439e1fb","fixation","","","img/fixation.png","null","","","test","","","","","","","","","","","","","","","","","","","",""
"531.6999999880791","583121","SARL_v6","SARL_v6nq0gnmgo","647652cb5644044df439e1fb","freq","","","img/orange_2bandit_a2.png","70","","70","test","1","","36","","","","square","circle","35","12","2","0.9142857142857143","","","","","","","",""
"null","583394","SARL_v6","SARL_v6nq0gnmgo","647652cb5644044df439e1fb","freq_resp","","","img/orange_2bandit_a.png","70","img/orange_2bandit_a.png","70","test","","","","","","","","","","","2","","","","","","","","",""
"null","583551","SARL_v6","SARL_v6nq0gnmgo","647652cb5644044df439e1fb","fixation","","","img/fixation.png","null","","","test","","","","","","","","","","","","","","","","","","","",""
"415.0999999642372","583970","SARL_v6","SARL_v6nq0gnmgo","647652cb5644044df439e1fb","freq","","","img/orange_2bandit_a2.png","70","","70","test","1","","37","","","","square","circle","36","13","2","0.9166666666666666","","","","","","","",""
"null","584367","SARL_v6","SARL_v6nq0gnmgo","647652cb5644044df439e1fb","freq_resp","","","img/orange_2bandit_a.png","70","img/orange_2bandit_a.png","70","test","","","","","","","","","","","2","","","","","","","","",""
"null","584529","SARL_v6","SARL_v6nq0gnmgo","647652cb5644044df439e1fb","fixation","","","img/fixation.png","null","","","test","","","","","","","","","","","","","","","","","","","",""
"375.80000001192093","584908","SARL_v6","SARL_v6nq0gnmgo","647652cb5644044df439e1fb","freq","","","img/orange_2bandit_a2.png","70","","70","test","1","","38","","","","square","circle","37","14","2","0.918918918918919","","","","","","","",""
"null","585344","SARL_v6","SARL_v6nq0gnmgo","647652cb5644044df439e1fb","freq_resp","","","img/orange_2bandit_a.png","70","img/orange_2bandit_a.png","70","test","","","","","","","","","","","2","","","","","","","","",""
"null","585511","SARL_v6","SARL_v6nq0gnmgo","647652cb5644044df439e1fb","fixation","","","img/fixation.png","null","","","test","","","","","","","","","","","","","","","","","","","",""
"289.5999999642372","585805","SARL_v6","SARL_v6nq0gnmgo","647652cb5644044df439e1fb","freq","","","img/orange_2bandit_a2.png","70","","70","test","1","","39","","","","square","circle","38","15","2","0.9210526315789473","","","","","","","",""
"null","586323","SARL_v6","SARL_v6nq0gnmgo","647652cb5644044df439e1fb","freq_resp","","","img/orange_2bandit_a.png","70","img/orange_2bandit_a.png","70","test","","","","","","","","","","","2","","","","","","","","",""
"null","586478","SARL_v6","SARL_v6nq0gnmgo","647652cb5644044df439e1fb","fixation","","","img/fixation.png","null","","","test","","","","","","","","","","","","","","","","","","","",""
"381.69999998807907","586864","SARL_v6","SARL_v6nq0gnmgo","647652cb5644044df439e1fb","freq","","","img/orange_2bandit_a2.png","70","","70","test","1","","40","","","","square","circle","39","16","2","0.9230769230769231","","","","","","","",""
"null","587293","SARL_v6","SARL_v6nq0gnmgo","647652cb5644044df439e1fb","freq_resp","","","img/orange_2bandit_a.png","70","img/orange_2bandit_a.png","70","test","","","","","","","","","","","2","","","","","","","","",""
"null","587456","SARL_v6","SARL_v6nq0gnmgo","647652cb5644044df439e1fb","fixation","","","img/fixation.png","null","","","test","","","","","","","","","","","","","","","","","","","",""
"338.19999998807907","587798","SARL_v6","SARL_v6nq0gnmgo","647652cb5644044df439e1fb","freq","","","img/orange_2bandit_a2.png","70","","70","test","1","","41","","","","square","circle","40","17","2","0.925","","","","","","","",""
"null","588267","SARL_v6","SARL_v6nq0gnmgo","647652cb5644044df439e1fb","freq_resp","","","img/orange_2bandit_a.png","70","img/orange_2bandit_a.png","70","test","","","","","","","","","","","2","","","","","","","","",""
"null","588436","SARL_v6","SARL_v6nq0gnmgo","647652cb5644044df439e1fb","fixation","","","img/fixation.png","null","","","test","","","","","","","","","","","","","","","","","","","",""
"382.5999999642372","588823","SARL_v6","SARL_v6nq0gnmgo","647652cb5644044df439e1fb","freq","","","img/orange_2bandit_a2.png","70","","70","test","1","","42","","","","square","circle","41","18","2","0.926829268292683","","","","","","","",""
"null","589253","SARL_v6","SARL_v6nq0gnmgo","647652cb5644044df439e1fb","freq_resp","","","img/orange_2bandit_a.png","70","img/orange_2bandit_a.png","70","test","","","","","","","","","","","2","","","","","","","","",""
"null","589423","SARL_v6","SARL_v6nq0gnmgo","647652cb5644044df439e1fb","fixation","","","img/fixation.png","null","","","test","","","","","","","","","","","","","","","","","","","",""
"677.0999999642372","590104","SARL_v6","SARL_v6nq0gnmgo","647652cb5644044df439e1fb","infreq","","","img/blue_2bandit_a2.png","68","","68","test","1","","43","","","","square","circle","42","19","2","0.9285714285714286","","","","","","","",""
"null","590234","SARL_v6","SARL_v6nq0gnmgo","647652cb5644044df439e1fb","infreq_resp","","","img/blue_2bandit_a.png","68","img/blue_2bandit_a.png","68","test","","","","","","","","","","","2","","","","","","","","",""
"null","590399","SARL_v6","SARL_v6nq0gnmgo","647652cb5644044df439e1fb","fixation","","","img/fixation.png","null","","","test","","","","","","","","","","","","","","","","","","","",""
"538.6000000238419","590941","SARL_v6","SARL_v6nq0gnmgo","647652cb5644044df439e1fb","freq","","","img/orange_2bandit_a2.png","70","","70","test","1","","44","","","","square","circle","43","20","2","0.9302325581395349","","","","","","","",""
"null","591221","SARL_v6","SARL_v6nq0gnmgo","647652cb5644044df439e1fb","freq_resp","","","img/orange_2bandit_a.png","70","img/orange_2bandit_a.png","70","test","","","","","","","","","","","2","","","","","","","","",""
"null","591379","SARL_v6","SARL_v6nq0gnmgo","647652cb5644044df439e1fb","fixation","","","img/fixation.png","null","","","test","","","","","","","","","","","","","","","","","","","",""
"654.2999999523163","592037","SARL_v6","SARL_v6nq0gnmgo","647652cb5644044df439e1fb","rl","","","img/black_2bandit_a2.png","75","","0","test","","","45","","","-5","square","circle","","0","2","","75","-5","-8","-8","-5","circle","2","0"
"null","592804","SARL_v6","SARL_v6nq0gnmgo","647652cb5644044df439e1fb","feedback","","","<div class=""verylowPoints""> -5 </div>","null","","na","test","","","NaN","","","","","","","","2","","75","","","","","","2",""
"767.1000000238419","593575","SARL_v6","SARL_v6nq0gnmgo","647652cb5644044df439e1fb","freq","","","img/orange_2bandit_a2.png","70","","70","test","1","","46","","","","square","circle","44","1","3","0.9318181818181818","","","","","","","",""
"null","593613","SARL_v6","SARL_v6nq0gnmgo","647652cb5644044df439e1fb","freq_resp","","","img/orange_2bandit_a.png","70","img/orange_2bandit_a.png","70","test","","","","","","","","","","","3","","","","","","","","",""
"null","593774","SARL_v6","SARL_v6nq0gnmgo","647652cb5644044df439e1fb","fixation","","","img/fixation.png","null","","","test","","","","","","","","","","","","","","","","","","","",""
"542.6999999880791","594320","SARL_v6","SARL_v6nq0gnmgo","647652cb5644044df439e1fb","freq","","","img/orange_2bandit_a2.png","70","","70","test","1","","47","","","","square","circle","45","2","3","0.9333333333333333","","","","","","","",""
"null","594596","SARL_v6","SARL_v6nq0gnmgo","647652cb5644044df439e1fb","freq_resp","","","img/orange_2bandit_a.png","70","img/orange_2bandit_a.png","70","test","","","","","","","","","","","3","","","","","","","","",""
"null","594755","SARL_v6","SARL_v6nq0gnmgo","647652cb5644044df439e1fb","fixation","","","img/fixation.png","null","","","test","","","","","","","","","","","","","","","","","","","",""
"381.60000002384186","595140","SARL_v6","SARL_v6nq0gnmgo","647652cb5644044df439e1fb","freq","","","img/orange_2bandit_a2.png","70","","70","test","1","","48","","","","square","circle","46","3","3","0.9347826086956522","","","","","","","",""
"null","595569","SARL_v6","SARL_v6nq0gnmgo","647652cb5644044df439e1fb","freq_resp","","","img/orange_2bandit_a.png","70","img/orange_2bandit_a.png","70","test","","","","","","","","","","","3","","","","","","","","",""
"null","595733","SARL_v6","SARL_v6nq0gnmgo","647652cb5644044df439e1fb","fixation","","","img/fixation.png","null","","","test","","","","","","","","","","","","","","","","","","","",""
"454.80000001192093","596191","SARL_v6","SARL_v6nq0gnmgo","647652cb5644044df439e1fb","infreq","","","img/blue_2bandit_a2.png","68","","68","test","1","","49","","","","square","circle","47","4","3","0.9361702127659575","","","","","","","",""
"null","596553","SARL_v6","SARL_v6nq0gnmgo","647652cb5644044df439e1fb","infreq_resp","","","img/blue_2bandit_a.png","68","img/blue_2bandit_a.png","68","test","","","","","","","","","","","3","","","","","","","","",""
"null","596714","SARL_v6","SARL_v6nq0gnmgo","647652cb5644044df439e1fb","fixation","","","img/fixation.png","null","","","test","","","","","","","","","","","","","","","","","","","",""
"425.2999999523163","597143","SARL_v6","SARL_v6nq0gnmgo","647652cb5644044df439e1fb","freq","","","img/orange_2bandit_a2.png","70","","70","test","1","","50","","","","square","circle","48","5","3","0.9375","","","","","","","",""
"null","597532","SARL_v6","SARL_v6nq0gnmgo","647652cb5644044df439e1fb","freq_resp","","","img/orange_2bandit_a.png","70","img/orange_2bandit_a.png","70","test","","","","","","","","","","","3","","","","","","","","",""
"null","597693","SARL_v6","SARL_v6nq0gnmgo","647652cb5644044df439e1fb","fixation","","","img/fixation.png","null","","","test","","","","","","","","","","","","","","","","","","","",""
"325.80000001192093","598023","SARL_v6","SARL_v6nq0gnmgo","647652cb5644044df439e1fb","freq","","","img/orange_2bandit_a2.png","70","","70","test","1","","51","","","","square","circle","49","6","3","0.9387755102040817","","","","","","","",""
"null","598506","SARL_v6","SARL_v6nq0gnmgo","647652cb5644044df439e1fb","freq_resp","","","img/orange_2bandit_a.png","70","img/orange_2bandit_a.png","70","test","","","","","","","","","","","3","","","","","","","","",""
"null","598676","SARL_v6","SARL_v6nq0gnmgo","647652cb5644044df439e1fb","fixation","","","img/fixation.png","null","","","test","","","","","","","","","","","","","","","","","","","",""
"334","599014","SARL_v6","SARL_v6nq0gnmgo","647652cb5644044df439e1fb","freq","","","img/orange_2bandit_a2.png","70","","70","test","1","","52","","","","square","circle","50","7","3","0.94","","","","","","","",""
"null","599487","SARL_v6","SARL_v6nq0gnmgo","647652cb5644044df439e1fb","freq_resp","","","img/orange_2bandit_a.png","70","img/orange_2bandit_a.png","70","test","","","","","","","","","","","3","","","","","","","","",""
"null","599655","SARL_v6","SARL_v6nq0gnmgo","647652cb5644044df439e1fb","fixation","","","img/fixation.png","null","","","test","","","","","","","","","","","","","","","","","","","",""
"317.69999998807907","599976","SARL_v6","SARL_v6nq0gnmgo","647652cb5644044df439e1fb","freq","","","img/orange_2bandit_a2.png","70","","70","test","1","","53","","","","square","circle","51","8","3","0.9411764705882353","","","","","","","",""
"null","600469","SARL_v6","SARL_v6nq0gnmgo","647652cb5644044df439e1fb","freq_resp","","","img/orange_2bandit_a.png","70","img/orange_2bandit_a.png","70","test","","","","","","","","","","","3","","","","","","","","",""
"null","600636","SARL_v6","SARL_v6nq0gnmgo","647652cb5644044df439e1fb","fixation","","","img/fixation.png","null","","","test","","","","","","","","","","","","","","","","","","","",""
"298.30000001192093","600938","SARL_v6","SARL_v6nq0gnmgo","647652cb5644044df439e1fb","freq","","","img/orange_2bandit_a2.png","70","","70","test","1","","54","","","","square","circle","52","9","3","0.9423076923076923","","","","","","","",""
"null","601449","SARL_v6","SARL_v6nq0gnmgo","647652cb5644044df439e1fb","freq_resp","","","img/orange_2bandit_a.png","70","img/orange_2bandit_a.png","70","test","","","","","","","","","","","3","","","","","","","","",""
"null","601616","SARL_v6","SARL_v6nq0gnmgo","647652cb5644044df439e1fb","fixation","","","img/fixation.png","null","","","test","","","","","","","","","","","","","","","","","","","",""
"327.7999999523163","601948","SARL_v6","SARL_v6nq0gnmgo","647652cb5644044df439e1fb","freq","","","img/orange_2bandit_a2.png","70","","70","test","1","","55","","","","square","circle","53","10","3","0.9433962264150944","","","","","","","",""
"null","602429","SARL_v6","SARL_v6nq0gnmgo","647652cb5644044df439e1fb","freq_resp","","","img/orange_2bandit_a.png","70","img/orange_2bandit_a.png","70","test","","","","","","","","","","","3","","","","","","","","",""
"null","602597","SARL_v6","SARL_v6nq0gnmgo","647652cb5644044df439e1fb","fixation","","","img/fixation.png","null","","","test","","","","","","","","","","","","","","","","","","","",""
"241.70000004768372","602843","SARL_v6","SARL_v6nq0gnmgo","647652cb5644044df439e1fb","freq","","","img/orange_2bandit_a2.png","70","","70","test","1","","56","","","","square","circle","54","11","3","0.9444444444444444","","","","","","","",""
"null","603421","SARL_v6","SARL_v6nq0gnmgo","647652cb5644044df439e1fb","freq_resp","","","img/orange_2bandit_a.png","70","img/orange_2bandit_a.png","70","test","","","","","","","","","","","3","","","","","","","","",""
"null","603580","SARL_v6","SARL_v6nq0gnmgo","647652cb5644044df439e1fb","fixation","","","img/fixation.png","null","","","test","","","","","","","","","","","","","","","","","","","",""
"205.5","603789","SARL_v6","SARL_v6nq0gnmgo","647652cb5644044df439e1fb","freq","","","img/orange_2bandit_a2.png","70","","70","test","1","","57","","","","square","circle","55","12","3","0.9454545454545454","","","","","","","",""
"null","604397","SARL_v6","SARL_v6nq0gnmgo","647652cb5644044df439e1fb","freq_resp","","","img/orange_2bandit_a.png","70","img/orange_2bandit_a.png","70","test","","","","","","","","","","","3","","","","","","","","",""
"null","604563","SARL_v6","SARL_v6nq0gnmgo","647652cb5644044df439e1fb","fixation","","","img/fixation.png","null","","","test","","","","","","","","","","","","","","","","","","","",""
"367.9000000357628","604934","SARL_v6","SARL_v6nq0gnmgo","647652cb5644044df439e1fb","freq","","","img/orange_2bandit_a2.png","70","","70","test","1","","58","","","","square","circle","56","13","3","0.9464285714285714","","","","","","","",""
"null","605374","SARL_v6","SARL_v6nq0gnmgo","647652cb5644044df439e1fb","freq_resp","","","img/orange_2bandit_a.png","70","img/orange_2bandit_a.png","70","test","","","","","","","","","","","3","","","","","","","","",""
"null","605544","SARL_v6","SARL_v6nq0gnmgo","647652cb5644044df439e1fb","fixation","","","img/fixation.png","null","","","test","","","","","","","","","","","","","","","","","","","",""
"450.69999998807907","605998","SARL_v6","SARL_v6nq0gnmgo","647652cb5644044df439e1fb","freq","","","img/orange_2bandit_a2.png","70","","70","test","1","","59","","","","square","circle","57","14","3","0.9473684210526315","","","","","","","",""
"null","606357","SARL_v6","SARL_v6nq0gnmgo","647652cb5644044df439e1fb","freq_resp","","","img/orange_2bandit_a.png","70","img/orange_2bandit_a.png","70","test","","","","","","","","","","","3","","","","","","","","",""
"null","606521","SARL_v6","SARL_v6nq0gnmgo","647652cb5644044df439e1fb","fixation","","","img/fixation.png","null","","","test","","","","","","","","","","","","","","","","","","","",""
"453.2999999523163","606979","SARL_v6","SARL_v6nq0gnmgo","647652cb5644044df439e1fb","freq","","","img/orange_2bandit_a2.png","70","","70","test","1","","60","","","","square","circle","58","15","3","0.9482758620689655","","","","","","","",""
"null","607337","SARL_v6","SARL_v6nq0gnmgo","647652cb5644044df439e1fb","freq_resp","","","img/orange_2bandit_a.png","70","img/orange_2bandit_a.png","70","test","","","","","","","","","","","3","","","","","","","","",""
"null","607502","SARL_v6","SARL_v6nq0gnmgo","647652cb5644044df439e1fb","fixation","","","img/fixation.png","null","","","test","","","","","","","","","","","","","","","","","","","",""
"353.0999999642372","607859","SARL_v6","SARL_v6nq0gnmgo","647652cb5644044df439e1fb","freq","","","img/orange_2bandit_a2.png","70","","70","test","1","","61","","","","square","circle","59","16","3","0.9491525423728814","","","","","","","",""
"null","608313","SARL_v6","SARL_v6nq0gnmgo","647652cb5644044df439e1fb","freq_resp","","","img/orange_2bandit_a.png","70","img/orange_2bandit_a.png","70","test","","","","","","","","","","","3","","","","","","","","",""
"null","608482","SARL_v6","SARL_v6nq0gnmgo","647652cb5644044df439e1fb","fixation","","","img/fixation.png","null","","","test","","","","","","","","","","","","","","","","","","","",""
"322.30000001192093","608808","SARL_v6","SARL_v6nq0gnmgo","647652cb5644044df439e1fb","freq","","","img/orange_2bandit_a2.png","70","","70","test","1","","62","","","","square","circle","60","17","3","0.95","","","","","","","",""
"null","609293","SARL_v6","SARL_v6nq0gnmgo","647652cb5644044df439e1fb","freq_resp","","","img/orange_2bandit_a.png","70","img/orange_2bandit_a.png","70","test","","","","","","","","","","","3","","","","","","","","",""
"null","609461","SARL_v6","SARL_v6nq0gnmgo","647652cb5644044df439e1fb","fixation","","","img/fixation.png","null","","","test","","","","","","","","","","","","","","","","","","","",""
"309.60000002384186","609774","SARL_v6","SARL_v6nq0gnmgo","647652cb5644044df439e1fb","freq","","","img/orange_2bandit_a2.png","70","","70","test","1","","63","","","","square","circle","61","18","3","0.9508196721311475","","","","","","","",""
"null","610275","SARL_v6","SARL_v6nq0gnmgo","647652cb5644044df439e1fb","freq_resp","","","img/orange_2bandit_a.png","70","img/orange_2bandit_a.png","70","test","","","","","","","","","","","3","","","","","","","","",""
"null","610444","SARL_v6","SARL_v6nq0gnmgo","647652cb5644044df439e1fb","fixation","","","img/fixation.png","null","","","test","","","","","","","","","","","","","","","","","","","",""
"263.39999997615814","610711","SARL_v6","SARL_v6nq0gnmgo","647652cb5644044df439e1fb","freq","","","img/orange_2bandit_a2.png","70","","70","test","1","","64","","","","square","circle","62","19","3","0.9516129032258065","","","","","","","",""
"null","611253","SARL_v6","SARL_v6nq0gnmgo","647652cb5644044df439e1fb","freq_resp","","","img/orange_2bandit_a.png","70","img/orange_2bandit_a.png","70","test","","","","","","","","","","","3","","","","","","","","",""
"null","611409","SARL_v6","SARL_v6nq0gnmgo","647652cb5644044df439e1fb","fixation","","","img/fixation.png","null","","","test","","","","","","","","","","","","","","","","","","","",""
"277.89999997615814","611691","SARL_v6","SARL_v6nq0gnmgo","647652cb5644044df439e1fb","freq","","","img/orange_2bandit_a2.png","70","","70","test","1","","65","","","","square","circle","63","20","3","0.9523809523809523","","","","","","","",""
"null","612220","SARL_v6","SARL_v6nq0gnmgo","647652cb5644044df439e1fb","freq_resp","","","img/orange_2bandit_a.png","70","img/orange_2bandit_a.png","70","test","","","","","","","","","","","3","","","","","","","","",""
"null","612387","SARL_v6","SARL_v6nq0gnmgo","647652cb5644044df439e1fb","fixation","","","img/fixation.png","null","","","test","","","","","","","","","","","","","","","","","","","",""
"320.80000001192093","612711","SARL_v6","SARL_v6nq0gnmgo","647652cb5644044df439e1fb","freq","","","img/orange_2bandit_a2.png","70","","70","test","1","","66","","","","square","circle","64","21","3","0.953125","","","","","","","",""
"null","613198","SARL_v6","SARL_v6nq0gnmgo","647652cb5644044df439e1fb","freq_resp","","","img/orange_2bandit_a.png","70","img/orange_2bandit_a.png","70","test","","","","","","","","","","","3","","","","","","","","",""
"null","613353","SARL_v6","SARL_v6nq0gnmgo","647652cb5644044df439e1fb","fixation","","","img/fixation.png","null","","","test","","","","","","","","","","","","","","","","","","","",""
"284.5","613641","SARL_v6","SARL_v6nq0gnmgo","647652cb5644044df439e1fb","freq","","","img/orange_2bandit_a2.png","70","","70","test","1","","67","","","","square","circle","65","22","3","0.9538461538461539","","","","","","","",""
"null","614165","SARL_v6","SARL_v6nq0gnmgo","647652cb5644044df439e1fb","freq_resp","","","img/orange_2bandit_a.png","70","img/orange_2bandit_a.png","70","test","","","","","","","","","","","3","","","","","","","","",""
"null","614333","SARL_v6","SARL_v6nq0gnmgo","647652cb5644044df439e1fb","fixation","","","img/fixation.png","null","","","test","","","","","","","","","","","","","","","","","","","",""
"289.39999997615814","614627","SARL_v6","SARL_v6nq0gnmgo","647652cb5644044df439e1fb","freq","","","img/orange_2bandit_a2.png","70","","70","test","1","","68","","","","square","circle","66","23","3","0.9545454545454546","","","","","","","",""
"null","615143","SARL_v6","SARL_v6nq0gnmgo","647652cb5644044df439e1fb","freq_resp","","","img/orange_2bandit_a.png","70","img/orange_2bandit_a.png","70","test","","","","","","","","","","","3","","","","","","","","",""
"null","615297","SARL_v6","SARL_v6nq0gnmgo","647652cb5644044df439e1fb","fixation","","","img/fixation.png","null","","","test","","","","","","","","","","","","","","","","","","","",""
"299.80000001192093","615601","SARL_v6","SARL_v6nq0gnmgo","647652cb5644044df439e1fb","infreq","","","img/blue_2bandit_a2.png","70","","68","test","0","","69","","","","square","circle","67","24","3","0.9402985074626866","","","","","","","",""
"null","616106","SARL_v6","SARL_v6nq0gnmgo","647652cb5644044df439e1fb","infreq_resp","","","img/blue_2bandit_a.png","70","img/blue_2bandit_a.png","68","test","","","","","","","","","","","3","","","","","","","","",""
"null","616266","SARL_v6","SARL_v6nq0gnmgo","647652cb5644044df439e1fb","fixation","","","img/fixation.png","null","","","test","","","","","","","","","","","","","","","","","","","",""
"591","616861","SARL_v6","SARL_v6nq0gnmgo","647652cb5644044df439e1fb","freq","","","img/orange_2bandit_a2.png","70","","70","test","1","","70","","","","square","circle","68","25","3","0.9411764705882353","","","","","","","",""
"null","617088","SARL_v6","SARL_v6nq0gnmgo","647652cb5644044df439e1fb","freq_resp","","","img/orange_2bandit_a.png","70","img/orange_2bandit_a.png","70","test","","","","","","","","","","","3","","","","","","","","",""
"null","617257","SARL_v6","SARL_v6nq0gnmgo","647652cb5644044df439e1fb","fixation","","","img/fixation.png","null","","","test","","","","","","","","","","","","","","","","","","","",""
"717.3999999761581","617978","SARL_v6","SARL_v6nq0gnmgo","647652cb5644044df439e1fb","freq","","","img/orange_2bandit_a2.png","70","","70","test","1","","71","","","","square","circle","69","26","3","0.9420289855072463","","","","","","","",""
"null","618076","SARL_v6","SARL_v6nq0gnmgo","647652cb5644044df439e1fb","freq_resp","","","img/orange_2bandit_a.png","70","img/orange_2bandit_a.png","70","test","","","","","","","","","","","3","","","","","","","","",""
"null","618241","SARL_v6","SARL_v6nq0gnmgo","647652cb5644044df439e1fb","fixation","","","img/fixation.png","null","","","test","","","","","","","","","","","","","","","","","","","",""
"748.1000000238419","618993","SARL_v6","SARL_v6nq0gnmgo","647652cb5644044df439e1fb","rl","","","img/black_2bandit_a2.png","75","","0","test","","","72","","","-4","square","circle","","0","3","","75","-4","-8","-8","-4","circle","3","0"
"null","619748","SARL_v6","SARL_v6nq0gnmgo","647652cb5644044df439e1fb","feedback","","","<div class=""verylowPoints""> -4 </div>","null","","na","test","","","NaN","","","","","","","","3","","75","","","","","","3",""
"679.0999999642372","620431","SARL_v6","SARL_v6nq0gnmgo","647652cb5644044df439e1fb","freq","","","img/orange_2bandit_a2.png","68","","70","test","0","","73","","","","square","circle","70","1","4","0.9285714285714286","","","","","","","",""
"null","620566","SARL_v6","SARL_v6nq0gnmgo","647652cb5644044df439e1fb","freq_resp","","","img/orange_2bandit_a.png","68","img/orange_2bandit_a.png","70","test","","","","","","","","","","","4","","","","","","","","",""
"null","620733","SARL_v6","SARL_v6nq0gnmgo","647652cb5644044df439e1fb","fixation","","","img/fixation.png","null","","","test","","","","","","","","","","","","","","","","","","","",""
"509.4000000357628","621245","SARL_v6","SARL_v6nq0gnmgo","647652cb5644044df439e1fb","infreq","","","img/blue_2bandit_a2.png","68","","68","test","1","","74","","","","square","circle","71","2","4","0.9295774647887324","","","","","","","",""
"null","621554","SARL_v6","SARL_v6nq0gnmgo","647652cb5644044df439e1fb","infreq_resp","","","img/blue_2bandit_a.png","68","img/blue_2bandit_a.png","68","test","","","","","","","","","","","4","","","","","","","","",""
"null","621713","SARL_v6","SARL_v6nq0gnmgo","647652cb5644044df439e1fb","fixation","","","img/fixation.png","null","","","test","","","","","","","","","","","","","","","","","","","",""
"554.1999999880791","622271","SARL_v6","SARL_v6nq0gnmgo","647652cb5644044df439e1fb","freq","","","img/orange_2bandit_a2.png","70","","70","test","1","","75","","","","square","circle","72","3","4","0.9305555555555556","","","","","","","",""
"null","622521","SARL_v6","SARL_v6nq0gnmgo","647652cb5644044df439e1fb","freq_resp","","","img/orange_2bandit_a.png","70","img/orange_2bandit_a.png","70","test","","","","","","","","","","","4","","","","","","","","",""
"null","622677","SARL_v6","SARL_v6nq0gnmgo","647652cb5644044df439e1fb","fixation","","","img/fixation.png","null","","","test","","","","","","","","","","","","","","","","","","","",""
"412.2000000476837","623093","SARL_v6","SARL_v6nq0gnmgo","647652cb5644044df439e1fb","freq","","","img/orange_2bandit_a2.png","70","","70","test","1","","76","","","","square","circle","73","4","4","0.9315068493150684","","","","","","","",""
"null","623496","SARL_v6","SARL_v6nq0gnmgo","647652cb5644044df439e1fb","freq_resp","","","img/orange_2bandit_a.png","70","img/orange_2bandit_a.png","70","test","","","","","","","","","","","4","","","","","","","","",""
"null","623658","SARL_v6","SARL_v6nq0gnmgo","647652cb5644044df439e1fb","fixation","","","img/fixation.png","null","","","test","","","","","","","","","","","","","","","","","","","",""
"318.19999998807907","623980","SARL_v6","SARL_v6nq0gnmgo","647652cb5644044df439e1fb","freq","","","img/orange_2bandit_a2.png","70","","70","test","1","","77","","","","square","circle","74","5","4","0.9324324324324325","","","","","","","",""
"null","624470","SARL_v6","SARL_v6nq0gnmgo","647652cb5644044df439e1fb","freq_resp","","","img/orange_2bandit_a.png","70","img/orange_2bandit_a.png","70","test","","","","","","","","","","","4","","","","","","","","",""
"null","624637","SARL_v6","SARL_v6nq0gnmgo","647652cb5644044df439e1fb","fixation","","","img/fixation.png","null","","","test","","","","","","","","","","","","","","","","","","","",""
"598.4000000357628","625240","SARL_v6","SARL_v6nq0gnmgo","647652cb5644044df439e1fb","freq","","","img/orange_2bandit_a2.png","68","","70","test","0","","78","","","","square","circle","75","6","4","0.92","","","","","","","",""
"null","625449","SARL_v6","SARL_v6nq0gnmgo","647652cb5644044df439e1fb","freq_resp","","","img/orange_2bandit_a.png","68","img/orange_2bandit_a.png","70","test","","","","","","","","","","","4","","","","","","","","",""
"null","625617","SARL_v6","SARL_v6nq0gnmgo","647652cb5644044df439e1fb","fixation","","","img/fixation.png","null","","","test","","","","","","","","","","","","","","","","","","","",""
"506.80000001192093","626127","SARL_v6","SARL_v6nq0gnmgo","647652cb5644044df439e1fb","freq","","","img/orange_2bandit_a2.png","70","","70","test","1","","79","","","","square","circle","76","7","4","0.9210526315789473","","","","","","","",""
"null","626426","SARL_v6","SARL_v6nq0gnmgo","647652cb5644044df439e1fb","freq_resp","","","img/orange_2bandit_a.png","70","img/orange_2bandit_a.png","70","test","","","","","","","","","","","4","","","","","","","","",""
"null","626582","SARL_v6","SARL_v6nq0gnmgo","647652cb5644044df439e1fb","fixation","","","img/fixation.png","null","","","test","","","","","","","","","","","","","","","","","","","",""
"385.19999998807907","626969","SARL_v6","SARL_v6nq0gnmgo","647652cb5644044df439e1fb","freq","","","img/orange_2bandit_a2.png","70","","70","test","1","","80","","","","square","circle","77","8","4","0.922077922077922","","","","","","","",""
"null","627399","SARL_v6","SARL_v6nq0gnmgo","647652cb5644044df439e1fb","freq_resp","","","img/orange_2bandit_a.png","70","img/orange_2bandit_a.png","70","test","","","","","","","","","","","4","","","","","","","","",""
"null","627564","SARL_v6","SARL_v6nq0gnmgo","647652cb5644044df439e1fb","fixation","","","img/fixation.png","null","","","test","","","","","","","","","","","","","","","","","","","",""
"222.69999998807907","627790","SARL_v6","SARL_v6nq0gnmgo","647652cb5644044df439e1fb","freq","","","img/orange_2bandit_a2.png","70","","70","test","1","","81","","","","square","circle","78","9","4","0.9230769230769231","","","","","","","",""
"null","628387","SARL_v6","SARL_v6nq0gnmgo","647652cb5644044df439e1fb","freq_resp","","","img/orange_2bandit_a.png","70","img/orange_2bandit_a.png","70","test","","","","","","","","","","","4","","","","","","","","",""
"null","628544","SARL_v6","SARL_v6nq0gnmgo","647652cb5644044df439e1fb","fixation","","","img/fixation.png","null","","","test","","","","","","","","","","","","","","","","","","","",""
"370.7999999523163","628918","SARL_v6","SARL_v6nq0gnmgo","647652cb5644044df439e1fb","freq","","","img/orange_2bandit_a2.png","70","","70","test","1","","82","","","","square","circle","79","10","4","0.9240506329113924","","","","","","","",""
"null","629358","SARL_v6","SARL_v6nq0gnmgo","647652cb5644044df439e1fb","freq_resp","","","img/orange_2bandit_a.png","70","img/orange_2bandit_a.png","70","test","","","","","","","","","","","4","","","","","","","","",""
"null","629524","SARL_v6","SARL_v6nq0gnmgo","647652cb5644044df439e1fb","fixation","","","img/fixation.png","null","","","test","","","","","","","","","","","","","","","","","","","",""
"414.2000000476837","629941","SARL_v6","SARL_v6nq0gnmgo","647652cb5644044df439e1fb","freq","","","img/orange_2bandit_a2.png","70","","70","test","1","","83","","","","square","circle","80","11","4","0.925","","","","","","","",""
"null","630342","SARL_v6","SARL_v6nq0gnmgo","647652cb5644044df439e1fb","freq_resp","","","img/orange_2bandit_a.png","70","img/orange_2bandit_a.png","70","test","","","","","","","","","","","4","","","","","","","","",""
"null","630504","SARL_v6","SARL_v6nq0gnmgo","647652cb5644044df439e1fb","fixation","","","img/fixation.png","null","","","test","","","","","","","","","","","","","","","","","","","",""
"381.10000002384186","630889","SARL_v6","SARL_v6nq0gnmgo","647652cb5644044df439e1fb","freq","","","img/orange_2bandit_a2.png","70","","70","test","1","","84","","","","square","circle","81","12","4","0.9259259259259259","","","","","","","",""
"null","631325","SARL_v6","SARL_v6nq0gnmgo","647652cb5644044df439e1fb","freq_resp","","","img/orange_2bandit_a.png","70","img/orange_2bandit_a.png","70","test","","","","","","","","","","","4","","","","","","","","",""
"null","631487","SARL_v6","SARL_v6nq0gnmgo","647652cb5644044df439e1fb","fixation","","","img/fixation.png","null","","","test","","","","","","","","","","","","","","","","","","","",""
"443.10000002384186","631934","SARL_v6","SARL_v6nq0gnmgo","647652cb5644044df439e1fb","freq","","","img/orange_2bandit_a2.png","70","","70","test","1","","85","","","","square","circle","82","13","4","0.926829268292683","","","","","","","",""
"null","632308","SARL_v6","SARL_v6nq0gnmgo","647652cb5644044df439e1fb","freq_resp","","","img/orange_2bandit_a.png","70","img/orange_2bandit_a.png","70","test","","","","","","","","","","","4","","","","","","","","",""
"null","632467","SARL_v6","SARL_v6nq0gnmgo","647652cb5644044df439e1fb","fixation","","","img/fixation.png","null","","","test","","","","","","","","","","","","","","","","","","","",""
"365.89999997615814","632837","SARL_v6","SARL_v6nq0gnmgo","647652cb5644044df439e1fb","infreq","","","img/blue_2bandit_a2.png","68","","68","test","1","","86","","","","square","circle","83","14","4","0.927710843373494","","","","","","","",""
"null","633281","SARL_v6","SARL_v6nq0gnmgo","647652cb5644044df439e1fb","infreq_resp","","","img/blue_2bandit_a.png","68","img/blue_2bandit_a.png","68","test","","","","","","","","","","","4","","","","","","","","",""
"null","633446","SARL_v6","SARL_v6nq0gnmgo","647652cb5644044df439e1fb","fixation","","","img/fixation.png","null","","","test","","","","","","","","","","","","","","","","","","","",""
"411.10000002384186","633861","SARL_v6","SARL_v6nq0gnmgo","647652cb5644044df439e1fb","freq","","","img/orange_2bandit_a2.png","70","","70","test","1","","87","","","","square","circle","84","15","4","0.9285714285714286","","","","","","","",""
"null","634265","SARL_v6","SARL_v6nq0gnmgo","647652cb5644044df439e1fb","freq_resp","","","img/orange_2bandit_a.png","70","img/orange_2bandit_a.png","70","test","","","","","","","","","","","4","","","","","","","","",""
"null","634427","SARL_v6","SARL_v6nq0gnmgo","647652cb5644044df439e1fb","fixation","","","img/fixation.png","null","","","test","","","","","","","","","","","","","","","","","","","",""
"272.5","634705","SARL_v6","SARL_v6nq0gnmgo","647652cb5644044df439e1fb","freq","","","img/orange_2bandit_a2.png","70","","70","test","1","","88","","","","square","circle","85","16","4","0.9294117647058824","","","","","","","",""
"null","635238","SARL_v6","SARL_v6nq0gnmgo","647652cb5644044df439e1fb","freq_resp","","","img/orange_2bandit_a.png","70","img/orange_2bandit_a.png","70","test","","","","","","","","","","","4","","","","","","","","",""
"null","635407","SARL_v6","SARL_v6nq0gnmgo","647652cb5644044df439e1fb","fixation","","","img/fixation.png","null","","","test","","","","","","","","","","","","","","","","","","","",""
"398.2999999523163","635810","SARL_v6","SARL_v6nq0gnmgo","647652cb5644044df439e1fb","freq","","","img/orange_2bandit_a2.png","70","","70","test","1","","89","","","","square","circle","86","17","4","0.9302325581395349","","","","","","","",""
"null","636225","SARL_v6","SARL_v6nq0gnmgo","647652cb5644044df439e1fb","freq_resp","","","img/orange_2bandit_a.png","70","img/orange_2bandit_a.png","70","test","","","","","","","","","","","4","","","","","","","","",""
"null","636389","SARL_v6","SARL_v6nq0gnmgo","647652cb5644044df439e1fb","fixation","","","img/fixation.png","null","","","test","","","","","","","","","","","","","","","","","","","",""
"354.0999999642372","636747","SARL_v6","SARL_v6nq0gnmgo","647652cb5644044df439e1fb","freq","","","img/orange_2bandit_a2.png","70","","70","test","1","","90","","","","square","circle","87","18","4","0.9310344827586207","","","","","","","",""
"null","637202","SARL_v6","SARL_v6nq0gnmgo","647652cb5644044df439e1fb","freq_resp","","","img/orange_2bandit_a.png","70","img/orange_2bandit_a.png","70","test","","","","","","","","","","","4","","","","","","","","",""
"null","637371","SARL_v6","SARL_v6nq0gnmgo","647652cb5644044df439e1fb","fixation","","","img/fixation.png","null","","","test","","","","","","","","","","","","","","","","","","","",""
"329.60000002384186","637705","SARL_v6","SARL_v6nq0gnmgo","647652cb5644044df439e1fb","freq","","","img/orange_2bandit_a2.png","70","","70","test","1","","91","","","","square","circle","88","19","4","0.9318181818181818","","","","","","","",""
"null","638181","SARL_v6","SARL_v6nq0gnmgo","647652cb5644044df439e1fb","freq_resp","","","img/orange_2bandit_a.png","70","img/orange_2bandit_a.png","70","test","","","","","","","","","","","4","","","","","","","","",""
"null","638350","SARL_v6","SARL_v6nq0gnmgo","647652cb5644044df439e1fb","fixation","","","img/fixation.png","null","","","test","","","","","","","","","","","","","","","","","","","",""
"244.79999995231628","638598","SARL_v6","SARL_v6nq0gnmgo","647652cb5644044df439e1fb","freq","","","img/orange_2bandit_a2.png","70","","70","test","1","","92","","","","square","circle","89","20","4","0.9325842696629213","","","","","","","",""
"null","639158","SARL_v6","SARL_v6nq0gnmgo","647652cb5644044df439e1fb","freq_resp","","","img/orange_2bandit_a.png","70","img/orange_2bandit_a.png","70","test","","","","","","","","","","","4","","","","","","","","",""
"null","639313","SARL_v6","SARL_v6nq0gnmgo","647652cb5644044df439e1fb","fixation","","","img/fixation.png","null","","","test","","","","","","","","","","","","","","","","","","","",""
"842.6999999880791","640159","SARL_v6","SARL_v6nq0gnmgo","647652cb5644044df439e1fb","rl","","","img/black_2bandit_a2.png","74","","0","test","","","93","","","-12","square","circle","","0","4","","74","0","-12","-12","0","square","4","0"
"null","640925","SARL_v6","SARL_v6nq0gnmgo","647652cb5644044df439e1fb","feedback","","","<div class=""verylowPoints_sq""> -12 </div>","null","","na","test","","","NaN","","","","","","","","4","","74","","","","","","4",""
"null","641737","SARL_v6","SARL_v6nq0gnmgo","647652cb5644044df439e1fb","freq","","","img/orange_2bandit_a2.png","null","","70","test","0","","94","","","","square","circle","90","1","5","0.9222222222222223","","","","","","","",""
"null","641891","SARL_v6","SARL_v6nq0gnmgo","647652cb5644044df439e1fb","fixation","","","img/fixation.png","null","","","test","","","","","","","","","","","","","","","","","","","",""
"10.800000011920929","641906","SARL_v6","SARL_v6nq0gnmgo","647652cb5644044df439e1fb","freq","","","img/orange_2bandit_a2.png","70","","70","test","1","","95","","","","square","circle","91","2","5","0.9230769230769231","","","","","","","",""
"null","642702","SARL_v6","SARL_v6nq0gnmgo","647652cb5644044df439e1fb","freq_resp","","","img/orange_2bandit_a.png","70","img/orange_2bandit_a.png","70","test","","","","","","","","","","","5","","","","","","","","",""
"null","642872","SARL_v6","SARL_v6nq0gnmgo","647652cb5644044df439e1fb","fixation","","","img/fixation.png","null","","","test","","","","","","","","","","","","","","","","","","","",""
"414.19999998807907","643290","SARL_v6","SARL_v6nq0gnmgo","647652cb5644044df439e1fb","freq","","","img/orange_2bandit_a2.png","70","","70","test","1","","96","","","","square","circle","92","3","5","0.9239130434782609","","","","","","","",""
"null","643687","SARL_v6","SARL_v6nq0gnmgo","647652cb5644044df439e1fb","freq_resp","","","img/orange_2bandit_a.png","70","img/orange_2bandit_a.png","70","test","","","","","","","","","","","5","","","","","","","","",""
"null","643853","SARL_v6","SARL_v6nq0gnmgo","647652cb5644044df439e1fb","fixation","","","img/fixation.png","null","","","test","","","","","","","","","","","","","","","","","","","",""
"269.9000000357628","644127","SARL_v6","SARL_v6nq0gnmgo","647652cb5644044df439e1fb","freq","","","img/orange_2bandit_a2.png","70","","70","test","1","","97","","","","square","circle","93","4","5","0.9247311827956989","","","","","","","",""
"null","644676","SARL_v6","SARL_v6nq0gnmgo","647652cb5644044df439e1fb","freq_resp","","","img/orange_2bandit_a.png","70","img/orange_2bandit_a.png","70","test","","","","","","","","","","","5","","","","","","","","",""
"null","644833","SARL_v6","SARL_v6nq0gnmgo","647652cb5644044df439e1fb","fixation","","","img/fixation.png","null","","","test","","","","","","","","","","","","","","","","","","","",""
"336.9000000357628","645174","SARL_v6","SARL_v6nq0gnmgo","647652cb5644044df439e1fb","freq","","","img/orange_2bandit_a2.png","70","","70","test","1","","98","","","","square","circle","94","5","5","0.925531914893617","","","","","","","",""
"null","645644","SARL_v6","SARL_v6nq0gnmgo","647652cb5644044df439e1fb","freq_resp","","","img/orange_2bandit_a.png","70","img/orange_2bandit_a.png","70","test","","","","","","","","","","","5","","","","","","","","",""
"null","645813","SARL_v6","SARL_v6nq0gnmgo","647652cb5644044df439e1fb","fixation","","","img/fixation.png","null","","","test","","","","","","","","","","","","","","","","","","","",""
"180.5","645998","SARL_v6","SARL_v6nq0gnmgo","647652cb5644044df439e1fb","infreq","","","img/blue_2bandit_a2.png","70","","68","test","0","","99","","","","square","circle","95","6","5","0.9157894736842105","","","","","","","",""
"null","646635","SARL_v6","SARL_v6nq0gnmgo","647652cb5644044df439e1fb","infreq_resp","","","img/blue_2bandit_a.png","70","img/blue_2bandit_a.png","68","test","","","","","","","","","","","5","","","","","","","","",""
"null","646794","SARL_v6","SARL_v6nq0gnmgo","647652cb5644044df439e1fb","fixation","","","img/fixation.png","null","","","test","","","","","","","","","","","","","","","","","","","",""
"370","647168","SARL_v6","SARL_v6nq0gnmgo","647652cb5644044df439e1fb","freq","","","img/orange_2bandit_a2.png","70","","70","test","1","","100","","","","square","circle","96","7","5","0.9166666666666666","","","","","","","",""
"null","647608","SARL_v6","SARL_v6nq0gnmgo","647652cb5644044df439e1fb","freq_resp","","","img/orange_2bandit_a.png","70","img/orange_2bandit_a.png","70","test","","","","","","","","","","","5","","","","","","","","",""
"null","647777","SARL_v6","SARL_v6nq0gnmgo","647652cb5644044df439e1fb","fixation","","","img/fixation.png","null","","","test","","","","","","","","","","","","","","","","","","","",""
"431.5","648212","SARL_v6","SARL_v6nq0gnmgo","647652cb5644044df439e1fb","freq","","","img/orange_2bandit_a2.png","70","","70","test","1","","101","","","","square","circle","97","8","5","0.9175257731958762","","","","","","","",""
"null","648593","SARL_v6","SARL_v6nq0gnmgo","647652cb5644044df439e1fb","freq_resp","","","img/orange_2bandit_a.png","70","img/orange_2bandit_a.png","70","test","","","","","","","","","","","5","","","","","","","","",""
"null","648755","SARL_v6","SARL_v6nq0gnmgo","647652cb5644044df439e1fb","fixation","","","img/fixation.png","null","","","test","","","","","","","","","","","","","","","","","","","",""
"345.9000000357628","649104","SARL_v6","SARL_v6nq0gnmgo","647652cb5644044df439e1fb","freq","","","img/orange_2bandit_a2.png","70","","70","test","1","","102","","","","square","circle","98","9","5","0.9183673469387755","","","","","","","",""
"null","649569","SARL_v6","SARL_v6nq0gnmgo","647652cb5644044df439e1fb","freq_resp","","","img/orange_2bandit_a.png","70","img/orange_2bandit_a.png","70","test","","","","","","","","","","","5","","","","","","","","",""
"null","649736","SARL_v6","SARL_v6nq0gnmgo","647652cb5644044df439e1fb","fixation","","","img/fixation.png","null","","","test","","","","","","","","","","","","","","","","","","","",""
"532.6999999880791","650272","SARL_v6","SARL_v6nq0gnmgo","647652cb5644044df439e1fb","infreq","","","img/blue_2bandit_a2.png","68","","68","test","1","","103","","","","square","circle","99","10","5","0.9191919191919192","","","","","","","",""
"null","650546","SARL_v6","SARL_v6nq0gnmgo","647652cb5644044df439e1fb","infreq_resp","","","img/blue_2bandit_a.png","68","img/blue_2bandit_a.png","68","test","","","","","","","","","","","5","","","","","","","","",""
"null","650714","SARL_v6","SARL_v6nq0gnmgo","647652cb5644044df439e1fb","fixation","","","img/fixation.png","null","","","test","","","","","","","","","","","","","","","","","","","",""
"443.4000000357628","651161","SARL_v6","SARL_v6nq0gnmgo","647652cb5644044df439e1fb","freq","","","img/orange_2bandit_a2.png","70","","70","test","1","","104","","","","square","circle","100","11","5","0.92","","","","","","","",""
"null","651537","SARL_v6","SARL_v6nq0gnmgo","647652cb5644044df439e1fb","freq_resp","","","img/orange_2bandit_a.png","70","img/orange_2bandit_a.png","70","test","","","","","","","","","","","5","","","","","","","","",""
"null","651698","SARL_v6","SARL_v6nq0gnmgo","647652cb5644044df439e1fb","fixation","","","img/fixation.png","null","","","test","","","","","","","","","","","","","","","","","","","",""
"415.30000001192093","652117","SARL_v6","SARL_v6nq0gnmgo","647652cb5644044df439e1fb","freq","","","img/orange_2bandit_a2.png","70","","70","test","1","","105","","","","square","circle","101","12","5","0.9207920792079208","","","","","","","",""
"null","652515","SARL_v6","SARL_v6nq0gnmgo","647652cb5644044df439e1fb","freq_resp","","","img/orange_2bandit_a.png","70","img/orange_2bandit_a.png","70","test","","","","","","","","","","","5","","","","","","","","",""
"null","652678","SARL_v6","SARL_v6nq0gnmgo","647652cb5644044df439e1fb","fixation","","","img/fixation.png","null","","","test","","","","","","","","","","","","","","","","","","","",""
"225.30000001192093","652907","SARL_v6","SARL_v6nq0gnmgo","647652cb5644044df439e1fb","freq","","","img/orange_2bandit_a2.png","70","","70","test","1","","106","","","","square","circle","102","13","5","0.9215686274509803","","","","","","","",""
"null","653484","SARL_v6","SARL_v6nq0gnmgo","647652cb5644044df439e1fb","freq_resp","","","img/orange_2bandit_a.png","70","img/orange_2bandit_a.png","70","test","","","","","","","","","","","5","","","","","","","","",""
"null","653642","SARL_v6","SARL_v6nq0gnmgo","647652cb5644044df439e1fb","fixation","","","img/fixation.png","null","","","test","","","","","","","","","","","","","","","","","","","",""
"399.39999997615814","654045","SARL_v6","SARL_v6nq0gnmgo","647652cb5644044df439e1fb","freq","","","img/orange_2bandit_a2.png","70","","70","test","1","","107","","","","square","circle","103","14","5","0.9223300970873787","","","","","","","",""
"null","654462","SARL_v6","SARL_v6nq0gnmgo","647652cb5644044df439e1fb","freq_resp","","","img/orange_2bandit_a.png","70","img/orange_2bandit_a.png","70","test","","","","","","","","","","","5","","","","","","","","",""
"null","654624","SARL_v6","SARL_v6nq0gnmgo","647652cb5644044df439e1fb","fixation","","","img/fixation.png","null","","","test","","","","","","","","","","","","","","","","","","","",""
"542","655171","SARL_v6","SARL_v6nq0gnmgo","647652cb5644044df439e1fb","freq","","","img/orange_2bandit_a2.png","70","","70","test","1","","108","","","","square","circle","104","15","5","0.9230769230769231","","","","","","","",""
"null","655447","SARL_v6","SARL_v6nq0gnmgo","647652cb5644044df439e1fb","freq_resp","","","img/orange_2bandit_a.png","70","img/orange_2bandit_a.png","70","test","","","","","","","","","","","5","","","","","","","","",""
"null","655603","SARL_v6","SARL_v6nq0gnmgo","647652cb5644044df439e1fb","fixation","","","img/fixation.png","null","","","test","","","","","","","","","","","","","","","","","","","",""
"450.89999997615814","656059","SARL_v6","SARL_v6nq0gnmgo","647652cb5644044df439e1fb","freq","","","img/orange_2bandit_a2.png","70","","70","test","1","","109","","","","square","circle","105","16","5","0.9238095238095239","","","","","","","",""
"null","656423","SARL_v6","SARL_v6nq0gnmgo","647652cb5644044df439e1fb","freq_resp","","","img/orange_2bandit_a.png","70","img/orange_2bandit_a.png","70","test","","","","","","","","","","","5","","","","","","","","",""
"null","656587","SARL_v6","SARL_v6nq0gnmgo","647652cb5644044df439e1fb","fixation","","","img/fixation.png","null","","","test","","","","","","","","","","","","","","","","","","","",""
"434.69999998807907","657025","SARL_v6","SARL_v6nq0gnmgo","647652cb5644044df439e1fb","freq","","","img/orange_2bandit_a2.png","70","","70","test","1","","110","","","","square","circle","106","17","5","0.9245283018867925","","","","","","","",""
"null","657403","SARL_v6","SARL_v6nq0gnmgo","647652cb5644044df439e1fb","freq_resp","","","img/orange_2bandit_a.png","70","img/orange_2bandit_a.png","70","test","","","","","","","","","","","5","","","","","","","","",""
"null","657565","SARL_v6","SARL_v6nq0gnmgo","647652cb5644044df439e1fb","fixation","","","img/fixation.png","null","","","test","","","","","","","","","","","","","","","","","","","",""
"442.69999998807907","658012","SARL_v6","SARL_v6nq0gnmgo","647652cb5644044df439e1fb","infreq","","","img/blue_2bandit_a2.png","68","","68","test","1","","111","","","","square","circle","107","18","5","0.9252336448598131","","","","","","","",""
"null","658383","SARL_v6","SARL_v6nq0gnmgo","647652cb5644044df439e1fb","infreq_resp","","","img/blue_2bandit_a.png","68","img/blue_2bandit_a.png","68","test","","","","","","","","","","","5","","","","","","","","",""
"null","658547","SARL_v6","SARL_v6nq0gnmgo","647652cb5644044df439e1fb","fixation","","","img/fixation.png","null","","","test","","","","","","","","","","","","","","","","","","","",""
"367.5999999642372","658919","SARL_v6","SARL_v6nq0gnmgo","647652cb5644044df439e1fb","freq","","","img/orange_2bandit_a2.png","70","","70","test","1","","112","","","","square","circle","108","19","5","0.9259259259259259","","","","","","","",""
"null","659361","SARL_v6","SARL_v6nq0gnmgo","647652cb5644044df439e1fb","freq_resp","","","img/orange_2bandit_a.png","70","img/orange_2bandit_a.png","70","test","","","","","","","","","","","5","","","","","","","","",""
"null","659527","SARL_v6","SARL_v6nq0gnmgo","647652cb5644044df439e1fb","fixation","","","img/fixation.png","null","","","test","","","","","","","","","","","","","","","","","","","",""
"333.80000001192093","659865","SARL_v6","SARL_v6nq0gnmgo","647652cb5644044df439e1fb","freq","","","img/orange_2bandit_a2.png","70","","70","test","1","","113","","","","square","circle","109","20","5","0.926605504587156","","","","","","","",""
"null","660339","SARL_v6","SARL_v6nq0gnmgo","647652cb5644044df439e1fb","freq_resp","","","img/orange_2bandit_a.png","70","img/orange_2bandit_a.png","70","test","","","","","","","","","","","5","","","","","","","","",""
"null","660507","SARL_v6","SARL_v6nq0gnmgo","647652cb5644044df439e1fb","fixation","","","img/fixation.png","null","","","test","","","","","","","","","","","","","","","","","","","",""
"343.80000001192093","660855","SARL_v6","SARL_v6nq0gnmgo","647652cb5644044df439e1fb","freq","","","img/orange_2bandit_a2.png","70","","70","test","1","","114","","","","square","circle","110","21","5","0.9272727272727272","","","","","","","",""
"null","661330","SARL_v6","SARL_v6nq0gnmgo","647652cb5644044df439e1fb","freq_resp","","","img/orange_2bandit_a.png","70","img/orange_2bandit_a.png","70","test","","","","","","","","","","","5","","","","","","","","",""
"null","661486","SARL_v6","SARL_v6nq0gnmgo","647652cb5644044df439e1fb","fixation","","","img/fixation.png","null","","","test","","","","","","","","","","","","","","","","","","","",""
"317.19999998807907","661808","SARL_v6","SARL_v6nq0gnmgo","647652cb5644044df439e1fb","freq","","","img/orange_2bandit_a2.png","70","","70","test","1","","115","","","","square","circle","111","22","5","0.9279279279279279","","","","","","","",""
"null","662299","SARL_v6","SARL_v6nq0gnmgo","647652cb5644044df439e1fb","freq_resp","","","img/orange_2bandit_a.png","70","img/orange_2bandit_a.png","70","test","","","","","","","","","","","5","","","","","","","","",""
"null","662467","SARL_v6","SARL_v6nq0gnmgo","647652cb5644044df439e1fb","fixation","","","img/fixation.png","null","","","test","","","","","","","","","","","","","","","","","","","",""
"309","662780","SARL_v6","SARL_v6nq0gnmgo","647652cb5644044df439e1fb","freq","","","img/orange_2bandit_a2.png","70","","70","test","1","","116","","","","square","circle","112","23","5","0.9285714285714286","","","","","","","",""
"null","663279","SARL_v6","SARL_v6nq0gnmgo","647652cb5644044df439e1fb","freq_resp","","","img/orange_2bandit_a.png","70","img/orange_2bandit_a.png","70","test","","","","","","","","","","","5","","","","","","","","",""
"null","663447","SARL_v6","SARL_v6nq0gnmgo","647652cb5644044df439e1fb","fixation","","","img/fixation.png","null","","","test","","","","","","","","","","","","","","","","","","","",""
"978.2000000476837","664429","SARL_v6","SARL_v6nq0gnmgo","647652cb5644044df439e1fb","rl","","","img/black_2bandit_a2.png","74","","0","test","","","117","","","-7","square","circle","","0","5","","74","4","-7","-7","4","square","5","0"
"null","665195","SARL_v6","SARL_v6nq0gnmgo","647652cb5644044df439e1fb","feedback","","","<div class=""verylowPoints_sq""> -7 </div>","null","","na","test","","","NaN","","","","","","","","5","","74","","","","","","5",""
"null","666003","SARL_v6","SARL_v6nq0gnmgo","647652cb5644044df439e1fb","freq","","","img/orange_2bandit_a2.png","null","","70","test","0","","118","","","","square","circle","113","1","6","0.9203539823008849","","","","","","","",""
"null","666159","SARL_v6","SARL_v6nq0gnmgo","647652cb5644044df439e1fb","fixation","","","img/fixation.png","null","","","test","","","","","","","","","","","","","","","","","","","",""
"454.69999998807907","666616","SARL_v6","SARL_v6nq0gnmgo","647652cb5644044df439e1fb","freq","","","img/orange_2bandit_a2.png","70","","70","test","1","","119","","","","square","circle","114","2","6","0.9210526315789473","","","","","","","",""
"null","666977","SARL_v6","SARL_v6nq0gnmgo","647652cb5644044df439e1fb","freq_resp","","","img/orange_2bandit_a.png","70","img/orange_2bandit_a.png","70","test","","","","","","","","","","","6","","","","","","","","",""
"null","667142","SARL_v6","SARL_v6nq0gnmgo","647652cb5644044df439e1fb","fixation","","","img/fixation.png","null","","","test","","","","","","","","","","","","","","","","","","","",""
"309.5","667455","SARL_v6","SARL_v6nq0gnmgo","647652cb5644044df439e1fb","freq","","","img/orange_2bandit_a2.png","70","","70","test","1","","120","","","","square","circle","115","3","6","0.9217391304347826","","","","","","","",""
"null","667951","SARL_v6","SARL_v6nq0gnmgo","647652cb5644044df439e1fb","freq_resp","","","img/orange_2bandit_a.png","70","img/orange_2bandit_a.png","70","test","","","","","","","","","","","6","","","","","","","","",""
"null","668117","SARL_v6","SARL_v6nq0gnmgo","647652cb5644044df439e1fb","fixation","","","img/fixation.png","null","","","test","","","","","","","","","","","","","","","","","","","",""
"324.89999997615814","668446","SARL_v6","SARL_v6nq0gnmgo","647652cb5644044df439e1fb","freq","","","img/orange_2bandit_a2.png","70","","70","test","1","","121","","","","square","circle","116","4","6","0.9224137931034483","","","","","","","",""
"null","668928","SARL_v6","SARL_v6nq0gnmgo","647652cb5644044df439e1fb","freq_resp","","","img/orange_2bandit_a.png","70","img/orange_2bandit_a.png","70","test","","","","","","","","","","","6","","","","","","","","",""
"null","669084","SARL_v6","SARL_v6nq0gnmgo","647652cb5644044df439e1fb","fixation","","","img/fixation.png","null","","","test","","","","","","","","","","","","","","","","","","","",""
"442.80000001192093","669530","SARL_v6","SARL_v6nq0gnmgo","647652cb5644044df439e1fb","infreq","","","img/blue_2bandit_a2.png","68","","68","test","1","","122","","","","square","circle","117","5","6","0.9230769230769231","","","","","","","",""
"null","669903","SARL_v6","SARL_v6nq0gnmgo","647652cb5644044df439e1fb","infreq_resp","","","img/blue_2bandit_a.png","68","img/blue_2bandit_a.png","68","test","","","","","","","","","","","6","","","","","","","","",""
"null","670066","SARL_v6","SARL_v6nq0gnmgo","647652cb5644044df439e1fb","fixation","","","img/fixation.png","null","","","test","","","","","","","","","","","","","","","","","","","",""
"417.89999997615814","670488","SARL_v6","SARL_v6nq0gnmgo","647652cb5644044df439e1fb","infreq","","","img/blue_2bandit_a2.png","68","","68","test","1","","123","","","","square","circle","118","6","6","0.923728813559322","","","","","","","",""
"null","670881","SARL_v6","SARL_v6nq0gnmgo","647652cb5644044df439e1fb","infreq_resp","","","img/blue_2bandit_a.png","68","img/blue_2bandit_a.png","68","test","","","","","","","","","","","6","","","","","","","","",""
"null","671046","SARL_v6","SARL_v6nq0gnmgo","647652cb5644044df439e1fb","fixation","","","img/fixation.png","null","","","test","","","","","","","","","","","","","","","","","","","",""
"498.80000001192093","671549","SARL_v6","SARL_v6nq0gnmgo","647652cb5644044df439e1fb","freq","","","img/orange_2bandit_a2.png","70","","70","test","1","","124","","","","square","circle","119","7","6","0.9243697478991597","","","","","","","",""
"null","671867","SARL_v6","SARL_v6nq0gnmgo","647652cb5644044df439e1fb","freq_resp","","","img/orange_2bandit_a.png","70","img/orange_2bandit_a.png","70","test","","","","","","","","","","","6","","","","","","","","",""
"null","672026","SARL_v6","SARL_v6nq0gnmgo","647652cb5644044df439e1fb","fixation","","","img/fixation.png","null","","","test","","","","","","","","","","","","","","","","","","","",""
"344.60000002384186","672374","SARL_v6","SARL_v6nq0gnmgo","647652cb5644044df439e1fb","freq","","","img/orange_2bandit_a2.png","70","","70","test","1","","125","","","","square","circle","120","8","6","0.925","","","","","","","",""
"null","672838","SARL_v6","SARL_v6nq0gnmgo","647652cb5644044df439e1fb","freq_resp","","","img/orange_2bandit_a.png","70","img/orange_2bandit_a.png","70","test","","","","","","","","","","","6","","","","","","","","",""
"null","673007","SARL_v6","SARL_v6nq0gnmgo","647652cb5644044df439e1fb","fixation","","","img/fixation.png","null","","","test","","","","","","","","","","","","","","","","","","","",""
"350.69999998807907","673361","SARL_v6","SARL_v6nq0gnmgo","647652cb5644044df439e1fb","freq","","","img/orange_2bandit_a2.png","70","","70","test","1","","126","","","","square","circle","121","9","6","0.9256198347107438","","","","","","","",""
"null","673820","SARL_v6","SARL_v6nq0gnmgo","647652cb5644044df439e1fb","freq_resp","","","img/orange_2bandit_a.png","70","img/orange_2bandit_a.png","70","test","","","","","","","","","","","6","","","","","","","","",""
"null","673985","SARL_v6","SARL_v6nq0gnmgo","647652cb5644044df439e1fb","fixation","","","img/fixation.png","null","","","test","","","","","","","","","","","","","","","","","","","",""
"438.60000002384186","674427","SARL_v6","SARL_v6nq0gnmgo","647652cb5644044df439e1fb","freq","","","img/orange_2bandit_a2.png","70","","70","test","1","","127","","","","square","circle","122","10","6","0.9262295081967213","","","","","","","",""
"null","674804","SARL_v6","SARL_v6nq0gnmgo","647652cb5644044df439e1fb","freq_resp","","","img/orange_2bandit_a.png","70","img/orange_2bandit_a.png","70","test","","","","","","","","","","","6","","","","","","","","",""
"null","674966","SARL_v6","SARL_v6nq0gnmgo","647652cb5644044df439e1fb","fixation","","","img/fixation.png","null","","","test","","","","","","","","","","","","","","","","","","","",""
"415.80000001192093","675386","SARL_v6","SARL_v6nq0gnmgo","647652cb5644044df439e1fb","freq","","","img/orange_2bandit_a2.png","70","","70","test","1","","128","","","","square","circle","123","11","6","0.926829268292683","","","","","","","",""
"null","675785","SARL_v6","SARL_v6nq0gnmgo","647652cb5644044df439e1fb","freq_resp","","","img/orange_2bandit_a.png","70","img/orange_2bandit_a.png","70","test","","","","","","","","","","","6","","","","","","","","",""
"null","675947","SARL_v6","SARL_v6nq0gnmgo","647652cb5644044df439e1fb","fixation","","","img/fixation.png","null","","","test","","","","","","","","","","","","","","","","","","","",""
"321.7000000476837","676272","SARL_v6","SARL_v6nq0gnmgo","647652cb5644044df439e1fb","freq","","","img/orange_2bandit_a2.png","70","","70","test","1","","129","","","","square","circle","124","12","6","0.9274193548387096","","","","","","","",""
