"rt","time_elapsed","expId","subject","prolificID","trialType","rlType","attType","stimulus","key_press","stim","corrresp","phase","corr","pracCounter","trialNum","rewardOne","rewardTwo","reward","bandOne","bandTwo","attentionNum","attentionRunNum","blockNum","performance","bandChosen","circleVal","squareVal","bandOneVal","bandTwoVal","shapeChosen","rlNum","badFlag"
"938.0999999940395","940","SARL_v6","SARL_v64th38ap0","5dcb685070d51c8275d7bd54","","","","","","","","","","","","","","","","","","","","","","","","","","","",""
"","3246","SARL_v6","SARL_v64th38ap0","5dcb685070d51c8275d7bd54","fullscreen","fullscreen","fullscreen","","","","","","","","","","","","","","","","","","","","","","","","",""
"5107.0999999940395","8356","SARL_v6","SARL_v64th38ap0","5dcb685070d51c8275d7bd54","","","","","","","","","","","","","","","","","","","","","","","","","","","",""
"null","9161","SARL_v6","SARL_v64th38ap0","5dcb685070d51c8275d7bd54","freqPrac","","","img/orange_2bandit_b2.png","null","img/orange_2bandit_b2.png","70","prac","0","1","","","","","","","","","","","","","","","","","",""
"null","10165","SARL_v6","SARL_v64th38ap0","5dcb685070d51c8275d7bd54","feedback","","","img/tooSlow.png","null","","na","prac","","","","","","","","","","","","","","","","","","","",""
"null","10318","SARL_v6","SARL_v64th38ap0","5dcb685070d51c8275d7bd54","fixation","","","img/fixation.png","null","","","prac","","","","","","","","","","","","","","","","","","","",""
"465.6000000089407","10786","SARL_v6","SARL_v64th38ap0","5dcb685070d51c8275d7bd54","infreqPrac","","","img/blue_2bandit_b2.png","70","img/blue_2bandit_b2.png","68","prac","0","2","","","","","","","","","","","","","","","","","",""
"465.6000000089407","11126","SARL_v6","SARL_v64th38ap0","5dcb685070d51c8275d7bd54","infreqPrac_resp","","","img/blue_2bandit_b.png","70","img/blue_2bandit_b.png","68","prac","","","","","","","","","","","","","","","","","","","",""
"null","12141","SARL_v6","SARL_v64th38ap0","5dcb685070d51c8275d7bd54","feedback","","","img/wrongKey.png","null","","na","prac","","","","","","","","","","","","","","","","","","","",""
"null","12296","SARL_v6","SARL_v64th38ap0","5dcb685070d51c8275d7bd54","fixation","","","img/fixation.png","null","","","prac","","","","","","","","","","","","","","","","","","","",""
"623.5999999940395","12921","SARL_v6","SARL_v64th38ap0","5dcb685070d51c8275d7bd54","freqPrac","","","img/orange_2bandit_b2.png","68","img/orange_2bandit_b2.png","70","prac","0","3","","","","","","","","","","","","","","","","","",""
"623.5999999940395","13108","SARL_v6","SARL_v64th38ap0","5dcb685070d51c8275d7bd54","freqPrac_resp","","","img/orange_2bandit_b.png","68","img/orange_2bandit_b.png","70","prac","","","","","","","","","","","","","","","","","","","",""
"null","14124","SARL_v6","SARL_v64th38ap0","5dcb685070d51c8275d7bd54","feedback","","","img/wrongKey.png","null","","na","prac","","","","","","","","","","","","","","","","","","","",""
"null","14281","SARL_v6","SARL_v64th38ap0","5dcb685070d51c8275d7bd54","fixation","","","img/fixation.png","null","","","prac","","","","","","","","","","","","","","","","","","","",""
"null","15089","SARL_v6","SARL_v64th38ap0","5dcb685070d51c8275d7bd54","infreqPrac","","","img/blue_2bandit_b2.png","null","img/blue_2bandit_b2.png","68","prac","0","4","","","","","","","","","","","","","","","","","",""
"null","16103","SARL_v6","SARL_v64th38ap0","5dcb685070d51c8275d7bd54","feedback","","","img/tooSlow.png","null","","na","prac","","","","","","","","","","","","","","","","","","","",""
"null","16259","SARL_v6","SARL_v64th38ap0","5dcb685070d51c8275d7bd54","fixation","","","img/fixation.png","null","","","prac","","","","","","","","","","","","","","","","","","","",""
"372.80000001192093","16635","SARL_v6","SARL_v64th38ap0","5dcb685070d51c8275d7bd54","infreqPrac","","","img/blue_2bandit_b2.png","70","img/blue_2bandit_b2.png","68","prac","0","5","","","","","","","","","","","","","","","","","",""
"372.80000001192093","17071","SARL_v6","SARL_v64th38ap0","5dcb685070d51c8275d7bd54","infreqPrac_resp","","","img/blue_2bandit_b.png","70","img/blue_2bandit_b.png","68","prac","","","","","","","","","","","","","","","","","","","",""
"null","18073","SARL_v6","SARL_v64th38ap0","5dcb685070d51c8275d7bd54","feedback","","","img/wrongKey.png","null","","na","prac","","","","","","","","","","","","","","","","","","","",""
"null","18228","SARL_v6","SARL_v64th38ap0","5dcb685070d51c8275d7bd54","fixation","","","img/fixation.png","null","","","prac","","","","","","","","","","","","","","","","","","","",""
"null","19042","SARL_v6","SARL_v64th38ap0","5dcb685070d51c8275d7bd54","infreqPrac","","","img/blue_2bandit_b2.png","null","img/blue_2bandit_b2.png","68","prac","0","6","","","","","","","","","","","","","","","","","",""
"null","20059","SARL_v6","SARL_v64th38ap0","5dcb685070d51c8275d7bd54","feedback","","","img/tooSlow.png","null","","na","prac","","","","","","","","","","","","","","","","","","","",""
"null","20216","SARL_v6","SARL_v64th38ap0","5dcb685070d51c8275d7bd54","fixation","","","img/fixation.png","null","","","prac","","","","","","","","","","","","","","","","","","","",""
"551.4000000059605","20769","SARL_v6","SARL_v64th38ap0","5dcb685070d51c8275d7bd54","freqPrac","","","img/orange_2bandit_b2.png","68","img/orange_2bandit_b2.png","70","prac","0","7","","","","","","","","","","","","","","","","","",""
"551.4000000059605","21027","SARL_v6","SARL_v64th38ap0","5dcb685070d51c8275d7bd54","freqPrac_resp","","","img/orange_2bandit_b.png","68","img/orange_2bandit_b.png","70","prac","","","","","","","","","","","","","","","","","","","",""
"null","22041","SARL_v6","SARL_v64th38ap0","5dcb685070d51c8275d7bd54","feedback","","","img/wrongKey.png","null","","na","prac","","","","","","","","","","","","","","","","","","","",""
"null","22195","SARL_v6","SARL_v64th38ap0","5dcb685070d51c8275d7bd54","fixation","","","img/fixation.png","null","","","prac","","","","","","","","","","","","","","","","","","","",""
"365","22562","SARL_v6","SARL_v64th38ap0","5dcb685070d51c8275d7bd54","infreqPrac","","","img/blue_2bandit_b2.png","70","img/blue_2bandit_b2.png","68","prac","0","8","","","","","","","","","","","","","","","","","",""
"365","23010","SARL_v6","SARL_v64th38ap0","5dcb685070d51c8275d7bd54","infreqPrac_resp","","","img/blue_2bandit_b.png","70","img/blue_2bandit_b.png","68","prac","","","","","","","","","","","","","","","","","","","",""
"null","24022","SARL_v6","SARL_v64th38ap0","5dcb685070d51c8275d7bd54","feedback","","","img/wrongKey.png","null","","na","prac","","","","","","","","","","","","","","","","","","","",""
"null","24175","SARL_v6","SARL_v64th38ap0","5dcb685070d51c8275d7bd54","fixation","","","img/fixation.png","null","","","prac","","","","","","","","","","","","","","","","","","","",""
"352.8999999910593","24530","SARL_v6","SARL_v64th38ap0","5dcb685070d51c8275d7bd54","freqPrac","","","img/orange_2bandit_b2.png","68","img/orange_2bandit_b2.png","70","prac","0","9","","","","","","","","","","","","","","","","","",""
"352.8999999910593","24986","SARL_v6","SARL_v64th38ap0","5dcb685070d51c8275d7bd54","freqPrac_resp","","","img/orange_2bandit_b.png","68","img/orange_2bandit_b.png","70","prac","","","","","","","","","","","","","","","","","","","",""
"null","25989","SARL_v6","SARL_v64th38ap0","5dcb685070d51c8275d7bd54","feedback","","","img/wrongKey.png","null","","na","prac","","","","","","","","","","","","","","","","","","","",""
"null","26142","SARL_v6","SARL_v64th38ap0","5dcb685070d51c8275d7bd54","fixation","","","img/fixation.png","null","","","prac","","","","","","","","","","","","","","","","","","","",""
"697.6999999880791","26842","SARL_v6","SARL_v64th38ap0","5dcb685070d51c8275d7bd54","freqPrac","","","img/orange_2bandit_b2.png","68","img/orange_2bandit_b2.png","70","prac","0","10","","","","","","","","","","","","","","","","","",""
"697.6999999880791","26948","SARL_v6","SARL_v64th38ap0","5dcb685070d51c8275d7bd54","freqPrac_resp","","","img/orange_2bandit_b.png","68","img/orange_2bandit_b.png","70","prac","","","","","","","","","","","","","","","","","","","",""
"null","27951","SARL_v6","SARL_v64th38ap0","5dcb685070d51c8275d7bd54","feedback","","","img/wrongKey.png","null","","na","prac","","","","","","","","","","","","","","","","","","","",""
"null","28104","SARL_v6","SARL_v64th38ap0","5dcb685070d51c8275d7bd54","fixation","","","img/fixation.png","null","","","prac","","","","","","","","","","","","","","","","","","","",""
"11936.90000000596","40042","SARL_v6","SARL_v64th38ap0","5dcb685070d51c8275d7bd54","","","","","","","","prac","","","","","","","","","","","","","","","","","","","",""
"845.4000000059605","40889","SARL_v6","SARL_v64th38ap0","5dcb685070d51c8275d7bd54","rlPractice","","","img/black_2bandit_b2.png","74","img/black_2bandit_b2.png","","prac","","","0","","","","","","","","","","","","","","","","",""
"null","41642","SARL_v6","SARL_v64th38ap0","5dcb685070d51c8275d7bd54","feedback","","","<div class=""veryhighPoints""> 10 </div>","null","","na","prac","","","1","10","-14","10","","","","","","","","","","","","","",""
"null","41795","SARL_v6","SARL_v64th38ap0","5dcb685070d51c8275d7bd54","fixation","","","img/fixation.png","null","","","prac","","","","","","","","","","","","","","","","","","","",""
"724.5999999940395","42522","SARL_v6","SARL_v64th38ap0","5dcb685070d51c8275d7bd54","rlPractice","","","img/black_2bandit_b2.png","74","img/black_2bandit_b2.png","","prac","","","1","","","","","","","","","","","","","","","","",""
"null","43275","SARL_v6","SARL_v64th38ap0","5dcb685070d51c8275d7bd54","feedback","","","<div class=""veryhighPoints""> 5 </div>","null","","na","prac","","","2","5","-5","5","","","","","","","","","","","","","",""
"null","43429","SARL_v6","SARL_v64th38ap0","5dcb685070d51c8275d7bd54","fixation","","","img/fixation.png","null","","","prac","","","","","","","","","","","","","","","","","","","",""
"460.90000000596046","43893","SARL_v6","SARL_v64th38ap0","5dcb685070d51c8275d7bd54","rlPractice","","","img/black_2bandit_b2.png","75","img/black_2bandit_b2.png","","prac","","","2","","","","","","","","","","","","","","","","",""
"null","44647","SARL_v6","SARL_v64th38ap0","5dcb685070d51c8275d7bd54","feedback","","","<div class=""veryhighPoints_sq""> 2 </div>","null","","na","prac","","","3","30","2","30","","","","","","","","","","","","","",""
"null","44800","SARL_v6","SARL_v64th38ap0","5dcb685070d51c8275d7bd54","fixation","","","img/fixation.png","null","","","prac","","","","","","","","","","","","","","","","","","","",""
"492","45294","SARL_v6","SARL_v64th38ap0","5dcb685070d51c8275d7bd54","rlPractice","","","img/black_2bandit_b2.png","74","img/black_2bandit_b2.png","","prac","","","3","","","","","","","","","","","","","","","","",""
"null","46048","SARL_v6","SARL_v64th38ap0","5dcb685070d51c8275d7bd54","feedback","","","<div class=""verylowPoints""> -2 </div>","null","","na","prac","","","4","-2","20","-2","","","","","","","","","","","","","",""
"null","46201","SARL_v6","SARL_v64th38ap0","5dcb685070d51c8275d7bd54","fixation","","","img/fixation.png","null","","","prac","","","","","","","","","","","","","","","","","","","",""
"13111.79999999702","59315","SARL_v6","SARL_v64th38ap0","5dcb685070d51c8275d7bd54","","","","","","","","prac","","","","","","","","","","","","","","","","","","","",""
"733","60051","SARL_v6","SARL_v64th38ap0","5dcb685070d51c8275d7bd54","mixAttFreqPrac","","","img/orange_2bandit_b2.png","70","img/orange_2bandit_b2.png","70","prac","","","1","","","","","","","","","","","","","","","","",""
"733","60122","SARL_v6","SARL_v64th38ap0","5dcb685070d51c8275d7bd54","freqPrac_resp","","","img/orange_2bandit_b.png","70","img/orange_2bandit_b.png","70","prac","","","1","","","","","","","","","","","","","","","","",""
"null","60274","SARL_v6","SARL_v64th38ap0","5dcb685070d51c8275d7bd54","fixation","","","img/fixation.png","null","","","prac","","","","","","","","","","","","","","","","","","","",""
"597.3000000119209","60873","SARL_v6","SARL_v64th38ap0","5dcb685070d51c8275d7bd54","mixAttInfreqPrac","","","img/blue_2bandit_b2.png","68","img/blue_2bandit_b2.png","68","prac","","","2","","","","","","","","","","","","","","","","",""
"597.3000000119209","61079","SARL_v6","SARL_v64th38ap0","5dcb685070d51c8275d7bd54","infreqPrac_resp","","","img/blue_2bandit_b.png","68","img/orange_2bandit_b.png","68","prac","","","2","","","","","","","","","","","","","","","","",""
"null","61231","SARL_v6","SARL_v64th38ap0","5dcb685070d51c8275d7bd54","fixation","","","img/fixation.png","null","","","prac","","","","","","","","","","","","","","","","","","","",""
"544.5999999940395","61778","SARL_v6","SARL_v64th38ap0","5dcb685070d51c8275d7bd54","mixAttInfreqPrac","","","img/blue_2bandit_b2.png","68","img/blue_2bandit_b2.png","68","prac","","","3","","","","","","","","","","","","","","","","",""
"544.5999999940395","62036","SARL_v6","SARL_v64th38ap0","5dcb685070d51c8275d7bd54","infreqPrac_resp","","","img/blue_2bandit_b.png","68","img/orange_2bandit_b.png","68","prac","","","3","","","","","","","","","","","","","","","","",""
"null","62190","SARL_v6","SARL_v64th38ap0","5dcb685070d51c8275d7bd54","fixation","","","img/fixation.png","null","","","prac","","","","","","","","","","","","","","","","","","","",""
"394.5","62586","SARL_v6","SARL_v64th38ap0","5dcb685070d51c8275d7bd54","mixAttInfreqPrac","","","img/blue_2bandit_b2.png","68","img/blue_2bandit_b2.png","68","prac","","","4","","","","","","","","","","","","","","","","",""
"394.5","62995","SARL_v6","SARL_v64th38ap0","5dcb685070d51c8275d7bd54","infreqPrac_resp","","","img/blue_2bandit_b.png","68","img/orange_2bandit_b.png","68","prac","","","4","","","","","","","","","","","","","","","","",""
"null","63159","SARL_v6","SARL_v64th38ap0","5dcb685070d51c8275d7bd54","fixation","","","img/fixation.png","null","","","prac","","","","","","","","","","","","","","","","","","","",""
"489.1000000089407","63650","SARL_v6","SARL_v64th38ap0","5dcb685070d51c8275d7bd54","mixAttFreqPrac","","","img/orange_2bandit_b2.png","70","img/orange_2bandit_b2.png","70","prac","","","5","","","","","","","","","","","","","","","","",""
"489.1000000089407","63962","SARL_v6","SARL_v64th38ap0","5dcb685070d51c8275d7bd54","freqPrac_resp","","","img/orange_2bandit_b.png","70","img/orange_2bandit_b.png","70","prac","","","5","","","","","","","","","","","","","","","","",""
"null","64115","SARL_v6","SARL_v64th38ap0","5dcb685070d51c8275d7bd54","fixation","","","img/fixation.png","null","","","prac","","","","","","","","","","","","","","","","","","","",""
"1148.5","65266","SARL_v6","SARL_v64th38ap0","5dcb685070d51c8275d7bd54","mixRLPractice","","","img/black_2bandit_b2.png","74","img/black_2bandit_b2.png","","prac","","","5","","","","","","","","","","","","","","","","",""
"null","66020","SARL_v6","SARL_v64th38ap0","5dcb685070d51c8275d7bd54","feedback","","","<div class=""verylowPoints""> -14 </div>","null","","na","prac","","","6","-14","10","-14","","","","","","","","","","","","","",""
"null","66173","SARL_v6","SARL_v64th38ap0","5dcb685070d51c8275d7bd54","fixation","","","img/fixation.png","null","","","prac","","","","","","","","","","","","","","","","","","","",""
"null","66976","SARL_v6","SARL_v64th38ap0","5dcb685070d51c8275d7bd54","mixAttFreqPrac","","","img/orange_2bandit_b2.png","null","img/orange_2bandit_b2.png","70","prac","","","7","","","","","","","","","","","","","","","","",""
"null","67129","SARL_v6","SARL_v64th38ap0","5dcb685070d51c8275d7bd54","fixation","","","img/fixation.png","null","","","prac","","","","","","","","","","","","","","","","","","","",""
"774.2000000029802","67905","SARL_v6","SARL_v64th38ap0","5dcb685070d51c8275d7bd54","mixAttInfreqPrac","","","img/blue_2bandit_b2.png","70","img/blue_2bandit_b2.png","68","prac","","","8","","","","","","","","","","","","","","","","",""
"774.2000000029802","67934","SARL_v6","SARL_v64th38ap0","5dcb685070d51c8275d7bd54","infreqPrac_resp","","","img/blue_2bandit_b.png","70","img/orange_2bandit_b.png","68","prac","","","8","","","","","","","","","","","","","","","","",""
"null","68087","SARL_v6","SARL_v64th38ap0","5dcb685070d51c8275d7bd54","fixation","","","img/fixation.png","null","","","prac","","","","","","","","","","","","","","","","","","","",""
"729.5","68819","SARL_v6","SARL_v64th38ap0","5dcb685070d51c8275d7bd54","mixAttFreqPrac","","","img/orange_2bandit_b2.png","68","img/orange_2bandit_b2.png","70","prac","","","9","","","","","","","","","","","","","","","","",""
"729.5","68892","SARL_v6","SARL_v64th38ap0","5dcb685070d51c8275d7bd54","freqPrac_resp","","","img/orange_2bandit_b.png","68","img/orange_2bandit_b.png","70","prac","","","9","","","","","","","","","","","","","","","","",""
"null","69045","SARL_v6","SARL_v64th38ap0","5dcb685070d51c8275d7bd54","fixation","","","img/fixation.png","null","","","prac","","","","","","","","","","","","","","","","","","","",""
"null","69849","SARL_v6","SARL_v64th38ap0","5dcb685070d51c8275d7bd54","mixAttFreqPrac","","","img/orange_2bandit_b2.png","null","img/orange_2bandit_b2.png","70","prac","","","10","","","","","","","","","","","","","","","","",""
"null","70003","SARL_v6","SARL_v64th38ap0","5dcb685070d51c8275d7bd54","fixation","","","img/fixation.png","null","","","prac","","","","","","","","","","","","","","","","","","","",""
"21.099999994039536","70026","SARL_v6","SARL_v64th38ap0","5dcb685070d51c8275d7bd54","mixAttInfreqPrac","","","img/blue_2bandit_b2.png","70","img/blue_2bandit_b2.png","68","prac","","","11","","","","","","","","","","","","","","","","",""
"21.099999994039536","70806","SARL_v6","SARL_v64th38ap0","5dcb685070d51c8275d7bd54","infreqPrac_resp","","","img/blue_2bandit_b.png","70","img/orange_2bandit_b.png","68","prac","","","11","","","","","","","","","","","","","","","","",""
"null","70958","SARL_v6","SARL_v64th38ap0","5dcb685070d51c8275d7bd54","fixation","","","img/fixation.png","null","","","prac","","","","","","","","","","","","","","","","","","","",""
"866.1999999880791","71827","SARL_v6","SARL_v64th38ap0","5dcb685070d51c8275d7bd54","mixRLPractice","","","img/black_2bandit_b2.png","75","img/black_2bandit_b2.png","","prac","","","11","","","","","","","","","","","","","","","","",""
"null","72581","SARL_v6","SARL_v64th38ap0","5dcb685070d51c8275d7bd54","feedback","","","<div class=""verylowPoints_sq""> -5 </div>","null","","na","prac","","","12","5","-5","5","","","","","","","","","","","","","",""
"null","72735","SARL_v6","SARL_v64th38ap0","5dcb685070d51c8275d7bd54","fixation","","","img/fixation.png","null","","","prac","","","","","","","","","","","","","","","","","","","",""
"9306.29999999702","82043","SARL_v6","SARL_v64th38ap0","5dcb685070d51c8275d7bd54","","","","","","","","prac","","","","","","","","","","","","","","","","","","","",""
"509.5","82555","SARL_v6","SARL_v64th38ap0","5dcb685070d51c8275d7bd54","freq","","","img/orange_2bandit_b2.png","70","","70","test","1","","1","","","","circle","square","1","1","1","1","","","","","","","",""
"null","82848","SARL_v6","SARL_v64th38ap0","5dcb685070d51c8275d7bd54","freq_resp","","","img/orange_2bandit_b.png","70","img/orange_2bandit_b.png","70","test","","","","","","","","","","","1","","","","","","","","",""
"null","83003","SARL_v6","SARL_v64th38ap0","5dcb685070d51c8275d7bd54","fixation","","","img/fixation.png","null","","","test","","","","","","","","","","","","","","","","","","","",""
"348.70000000298023","83353","SARL_v6","SARL_v64th38ap0","5dcb685070d51c8275d7bd54","freq","","","img/orange_2bandit_b2.png","70","","70","test","1","","2","","","","circle","square","2","2","1","1","","","","","","","",""
"null","83806","SARL_v6","SARL_v64th38ap0","5dcb685070d51c8275d7bd54","freq_resp","","","img/orange_2bandit_b.png","70","img/orange_2bandit_b.png","70","test","","","","","","","","","","","1","","","","","","","","",""
"null","83959","SARL_v6","SARL_v64th38ap0","5dcb685070d51c8275d7bd54","fixation","","","img/fixation.png","null","","","test","","","","","","","","","","","","","","","","","","","",""
"320.09999999403954","84283","SARL_v6","SARL_v64th38ap0","5dcb685070d51c8275d7bd54","freq","","","img/orange_2bandit_b2.png","70","","70","test","1","","3","","","","circle","square","3","3","1","1","","","","","","","",""
"null","84767","SARL_v6","SARL_v64th38ap0","5dcb685070d51c8275d7bd54","freq_resp","","","img/orange_2bandit_b.png","70","img/orange_2bandit_b.png","70","test","","","","","","","","","","","1","","","","","","","","",""
"null","84918","SARL_v6","SARL_v64th38ap0","5dcb685070d51c8275d7bd54","fixation","","","img/fixation.png","null","","","test","","","","","","","","","","","","","","","","","","","",""
"330.79999999701977","85251","SARL_v6","SARL_v64th38ap0","5dcb685070d51c8275d7bd54","freq","","","img/orange_2bandit_b2.png","70","","70","test","1","","4","","","","circle","square","4","4","1","1","","","","","","","",""
"null","85726","SARL_v6","SARL_v64th38ap0","5dcb685070d51c8275d7bd54","freq_resp","","","img/orange_2bandit_b.png","70","img/orange_2bandit_b.png","70","test","","","","","","","","","","","1","","","","","","","","",""
"null","85880","SARL_v6","SARL_v64th38ap0","5dcb685070d51c8275d7bd54","fixation","","","img/fixation.png","null","","","test","","","","","","","","","","","","","","","","","","","",""
"293.70000000298023","86178","SARL_v6","SARL_v64th38ap0","5dcb685070d51c8275d7bd54","freq","","","img/orange_2bandit_b2.png","70","","70","test","1","","5","","","","circle","square","5","5","1","1","","","","","","","",""
"null","86687","SARL_v6","SARL_v64th38ap0","5dcb685070d51c8275d7bd54","freq_resp","","","img/orange_2bandit_b.png","70","img/orange_2bandit_b.png","70","test","","","","","","","","","","","1","","","","","","","","",""
"null","86839","SARL_v6","SARL_v64th38ap0","5dcb685070d51c8275d7bd54","fixation","","","img/fixation.png","null","","","test","","","","","","","","","","","","","","","","","","","",""
"296.79999999701977","87138","SARL_v6","SARL_v64th38ap0","5dcb685070d51c8275d7bd54","freq","","","img/orange_2bandit_b2.png","70","","70","test","1","","6","","","","circle","square","6","6","1","1","","","","","","","",""
"null","87643","SARL_v6","SARL_v64th38ap0","5dcb685070d51c8275d7bd54","freq_resp","","","img/orange_2bandit_b.png","70","img/orange_2bandit_b.png","70","test","","","","","","","","","","","1","","","","","","","","",""
"null","87795","SARL_v6","SARL_v64th38ap0","5dcb685070d51c8275d7bd54","fixation","","","img/fixation.png","null","","","test","","","","","","","","","","","","","","","","","","","",""
"276.29999999701977","88073","SARL_v6","SARL_v64th38ap0","5dcb685070d51c8275d7bd54","freq","","","img/orange_2bandit_b2.png","70","","70","test","1","","7","","","","circle","square","7","7","1","1","","","","","","","",""
"null","88598","SARL_v6","SARL_v64th38ap0","5dcb685070d51c8275d7bd54","freq_resp","","","img/orange_2bandit_b.png","70","img/orange_2bandit_b.png","70","test","","","","","","","","","","","1","","","","","","","","",""
"null","88751","SARL_v6","SARL_v64th38ap0","5dcb685070d51c8275d7bd54","fixation","","","img/fixation.png","null","","","test","","","","","","","","","","","","","","","","","","","",""
"384.70000000298023","89137","SARL_v6","SARL_v64th38ap0","5dcb685070d51c8275d7bd54","freq","","","img/orange_2bandit_b2.png","70","","70","test","1","","8","","","","circle","square","8","8","1","1","","","","","","","",""
"null","89557","SARL_v6","SARL_v64th38ap0","5dcb685070d51c8275d7bd54","freq_resp","","","img/orange_2bandit_b.png","70","img/orange_2bandit_b.png","70","test","","","","","","","","","","","1","","","","","","","","",""
"null","89709","SARL_v6","SARL_v64th38ap0","5dcb685070d51c8275d7bd54","fixation","","","img/fixation.png","null","","","test","","","","","","","","","","","","","","","","","","","",""
"577.8999999910593","90289","SARL_v6","SARL_v64th38ap0","5dcb685070d51c8275d7bd54","freq","","","img/orange_2bandit_b2.png","70","","70","test","1","","9","","","","circle","square","9","9","1","1","","","","","","","",""
"null","90515","SARL_v6","SARL_v64th38ap0","5dcb685070d51c8275d7bd54","freq_resp","","","img/orange_2bandit_b.png","70","img/orange_2bandit_b.png","70","test","","","","","","","","","","","1","","","","","","","","",""
"null","90669","SARL_v6","SARL_v64th38ap0","5dcb685070d51c8275d7bd54","fixation","","","img/fixation.png","null","","","test","","","","","","","","","","","","","","","","","","","",""
"378.5","91050","SARL_v6","SARL_v64th38ap0","5dcb685070d51c8275d7bd54","infreq","","","img/blue_2bandit_b2.png","68","","68","test","1","","10","","","","circle","square","10","10","1","1","","","","","","","",""
"null","91474","SARL_v6","SARL_v64th38ap0","5dcb685070d51c8275d7bd54","infreq_resp","","","img/blue_2bandit_b.png","68","img/blue_2bandit_b.png","68","test","","","","","","","","","","","1","","","","","","","","",""
"null","91627","SARL_v6","SARL_v64th38ap0","5dcb685070d51c8275d7bd54","fixation","","","img/fixation.png","null","","","test","","","","","","","","","","","","","","","","","","","",""
"468.79999999701977","92098","SARL_v6","SARL_v64th38ap0","5dcb685070d51c8275d7bd54","freq","","","img/orange_2bandit_b2.png","70","","70","test","1","","11","","","","circle","square","11","11","1","1","","","","","","","",""
"null","92434","SARL_v6","SARL_v64th38ap0","5dcb685070d51c8275d7bd54","freq_resp","","","img/orange_2bandit_b.png","70","img/orange_2bandit_b.png","70","test","","","","","","","","","","","1","","","","","","","","",""
"null","92587","SARL_v6","SARL_v64th38ap0","5dcb685070d51c8275d7bd54","fixation","","","img/fixation.png","null","","","test","","","","","","","","","","","","","","","","","","","",""
"724.9000000059605","93314","SARL_v6","SARL_v64th38ap0","5dcb685070d51c8275d7bd54","freq","","","img/orange_2bandit_b2.png","70","","70","test","1","","12","","","","circle","square","12","12","1","1","","","","","","","",""
"null","93392","SARL_v6","SARL_v64th38ap0","5dcb685070d51c8275d7bd54","freq_resp","","","img/orange_2bandit_b.png","70","img/orange_2bandit_b.png","70","test","","","","","","","","","","","1","","","","","","","","",""
"null","93546","SARL_v6","SARL_v64th38ap0","5dcb685070d51c8275d7bd54","fixation","","","img/fixation.png","null","","","test","","","","","","","","","","","","","","","","","","","",""
"501.6000000089407","94050","SARL_v6","SARL_v64th38ap0","5dcb685070d51c8275d7bd54","freq","","","img/orange_2bandit_b2.png","70","","70","test","1","","13","","","","circle","square","13","13","1","1","","","","","","","",""
"null","94352","SARL_v6","SARL_v64th38ap0","5dcb685070d51c8275d7bd54","freq_resp","","","img/orange_2bandit_b.png","70","img/orange_2bandit_b.png","70","test","","","","","","","","","","","1","","","","","","","","",""
"null","94506","SARL_v6","SARL_v64th38ap0","5dcb685070d51c8275d7bd54","fixation","","","img/fixation.png","null","","","test","","","","","","","","","","","","","","","","","","","",""
"389.09999999403954","94899","SARL_v6","SARL_v64th38ap0","5dcb685070d51c8275d7bd54","infreq","","","img/blue_2bandit_b2.png","68","","68","test","1","","14","","","","circle","square","14","14","1","1","","","","","","","",""
"null","95313","SARL_v6","SARL_v64th38ap0","5dcb685070d51c8275d7bd54","infreq_resp","","","img/blue_2bandit_b.png","68","img/blue_2bandit_b.png","68","test","","","","","","","","","","","1","","","","","","","","",""
"null","95467","SARL_v6","SARL_v64th38ap0","5dcb685070d51c8275d7bd54","fixation","","","img/fixation.png","null","","","test","","","","","","","","","","","","","","","","","","","",""
"524.6000000089407","95994","SARL_v6","SARL_v64th38ap0","5dcb685070d51c8275d7bd54","freq","","","img/orange_2bandit_b2.png","70","","70","test","1","","15","","","","circle","square","15","15","1","1","","","","","","","",""
"null","96271","SARL_v6","SARL_v64th38ap0","5dcb685070d51c8275d7bd54","freq_resp","","","img/orange_2bandit_b.png","70","img/orange_2bandit_b.png","70","test","","","","","","","","","","","1","","","","","","","","",""
"null","96424","SARL_v6","SARL_v64th38ap0","5dcb685070d51c8275d7bd54","fixation","","","img/fixation.png","null","","","test","","","","","","","","","","","","","","","","","","","",""
"455.3999999910593","96882","SARL_v6","SARL_v64th38ap0","5dcb685070d51c8275d7bd54","freq","","","img/orange_2bandit_b2.png","70","","70","test","1","","16","","","","circle","square","16","16","1","1","","","","","","","",""
"null","97229","SARL_v6","SARL_v64th38ap0","5dcb685070d51c8275d7bd54","freq_resp","","","img/orange_2bandit_b.png","70","img/orange_2bandit_b.png","70","test","","","","","","","","","","","1","","","","","","","","",""
"null","97382","SARL_v6","SARL_v64th38ap0","5dcb685070d51c8275d7bd54","fixation","","","img/fixation.png","null","","","test","","","","","","","","","","","","","","","","","","","",""
"490","97874","SARL_v6","SARL_v64th38ap0","5dcb685070d51c8275d7bd54","freq","","","img/orange_2bandit_b2.png","70","","70","test","1","","17","","","","circle","square","17","17","1","1","","","","","","","",""
"null","98187","SARL_v6","SARL_v64th38ap0","5dcb685070d51c8275d7bd54","freq_resp","","","img/orange_2bandit_b.png","70","img/orange_2bandit_b.png","70","test","","","","","","","","","","","1","","","","","","","","",""
"null","98340","SARL_v6","SARL_v64th38ap0","5dcb685070d51c8275d7bd54","fixation","","","img/fixation.png","null","","","test","","","","","","","","","","","","","","","","","","","",""
"692","99034","SARL_v6","SARL_v64th38ap0","5dcb685070d51c8275d7bd54","freq","","","img/orange_2bandit_b2.png","70","","70","test","1","","18","","","","circle","square","18","18","1","1","","","","","","","",""
"null","99147","SARL_v6","SARL_v64th38ap0","5dcb685070d51c8275d7bd54","freq_resp","","","img/orange_2bandit_b.png","70","img/orange_2bandit_b.png","70","test","","","","","","","","","","","1","","","","","","","","",""
"null","99301","SARL_v6","SARL_v64th38ap0","5dcb685070d51c8275d7bd54","fixation","","","img/fixation.png","null","","","test","","","","","","","","","","","","","","","","","","","",""
"763","100067","SARL_v6","SARL_v64th38ap0","5dcb685070d51c8275d7bd54","freq","","","img/orange_2bandit_b2.png","70","","70","test","1","","19","","","","circle","square","19","19","1","1","","","","","","","",""
"null","100107","SARL_v6","SARL_v64th38ap0","5dcb685070d51c8275d7bd54","freq_resp","","","img/orange_2bandit_b.png","70","img/orange_2bandit_b.png","70","test","","","","","","","","","","","1","","","","","","","","",""
"null","100260","SARL_v6","SARL_v64th38ap0","5dcb685070d51c8275d7bd54","fixation","","","img/fixation.png","null","","","test","","","","","","","","","","","","","","","","","","","",""
"756.5999999940395","101019","SARL_v6","SARL_v64th38ap0","5dcb685070d51c8275d7bd54","freq","","","img/orange_2bandit_b2.png","70","","70","test","1","","20","","","","circle","square","20","20","1","1","","","","","","","",""
"null","101064","SARL_v6","SARL_v64th38ap0","5dcb685070d51c8275d7bd54","freq_resp","","","img/orange_2bandit_b.png","70","img/orange_2bandit_b.png","70","test","","","","","","","","","","","1","","","","","","","","",""
"null","101218","SARL_v6","SARL_v64th38ap0","5dcb685070d51c8275d7bd54","fixation","","","img/fixation.png","null","","","test","","","","","","","","","","","","","","","","","","","",""
"766","101986","SARL_v6","SARL_v64th38ap0","5dcb685070d51c8275d7bd54","freq","","","img/orange_2bandit_b2.png","70","","70","test","1","","21","","","","circle","square","21","21","1","1","","","","","","","",""
"null","102025","SARL_v6","SARL_v64th38ap0","5dcb685070d51c8275d7bd54","freq_resp","","","img/orange_2bandit_b.png","70","img/orange_2bandit_b.png","70","test","","","","","","","","","","","1","","","","","","","","",""
"null","102185","SARL_v6","SARL_v64th38ap0","5dcb685070d51c8275d7bd54","fixation","","","img/fixation.png","null","","","test","","","","","","","","","","","","","","","","","","","",""
"727.2999999970198","102914","SARL_v6","SARL_v64th38ap0","5dcb685070d51c8275d7bd54","freq","","","img/orange_2bandit_b2.png","70","","70","test","1","","22","","","","circle","square","22","22","1","1","","","","","","","",""
"null","102989","SARL_v6","SARL_v64th38ap0","5dcb685070d51c8275d7bd54","freq_resp","","","img/orange_2bandit_b.png","70","img/orange_2bandit_b.png","70","test","","","","","","","","","","","1","","","","","","","","",""
"null","103143","SARL_v6","SARL_v64th38ap0","5dcb685070d51c8275d7bd54","fixation","","","img/fixation.png","null","","","test","","","","","","","","","","","","","","","","","","","",""
"704","103851","SARL_v6","SARL_v64th38ap0","5dcb685070d51c8275d7bd54","rl","","","img/black_2bandit_b2.png","74","","0","test","","","23","","","-3","circle","square","","0","1","","74","-3","-3","-3","-3","circle","1","0"
"null","104605","SARL_v6","SARL_v64th38ap0","5dcb685070d51c8275d7bd54","feedback","","","<div class=""verylowPoints""> -3 </div>","null","","na","test","","","NaN","","","","","","","","1","","74","","","","","","1",""
"570.5999999940395","105178","SARL_v6","SARL_v64th38ap0","5dcb685070d51c8275d7bd54","freq","","","img/orange_2bandit_b2.png","70","","70","test","1","","24","","","","circle","square","23","1","2","1","","","","","","","",""
"null","105411","SARL_v6","SARL_v64th38ap0","5dcb685070d51c8275d7bd54","freq_resp","","","img/orange_2bandit_b.png","70","img/orange_2bandit_b.png","70","test","","","","","","","","","","","2","","","","","","","","",""
"null","105564","SARL_v6","SARL_v64th38ap0","5dcb685070d51c8275d7bd54","fixation","","","img/fixation.png","null","","","test","","","","","","","","","","","","","","","","","","","",""
"468.80000001192093","106036","SARL_v6","SARL_v64th38ap0","5dcb685070d51c8275d7bd54","freq","","","img/orange_2bandit_b2.png","70","","70","test","1","","25","","","","circle","square","24","2","2","1","","","","","","","",""
"null","106378","SARL_v6","SARL_v64th38ap0","5dcb685070d51c8275d7bd54","freq_resp","","","img/orange_2bandit_b.png","70","img/orange_2bandit_b.png","70","test","","","","","","","","","","","2","","","","","","","","",""
"null","106531","SARL_v6","SARL_v64th38ap0","5dcb685070d51c8275d7bd54","fixation","","","img/fixation.png","null","","","test","","","","","","","","","","","","","","","","","","","",""
"356.09999999403954","106890","SARL_v6","SARL_v64th38ap0","5dcb685070d51c8275d7bd54","infreq","","","img/blue_2bandit_b2.png","68","","68","test","1","","26","","","","circle","square","25","3","2","1","","","","","","","",""
"null","107351","SARL_v6","SARL_v64th38ap0","5dcb685070d51c8275d7bd54","infreq_resp","","","img/blue_2bandit_b.png","68","img/blue_2bandit_b.png","68","test","","","","","","","","","","","2","","","","","","","","",""
"null","107505","SARL_v6","SARL_v64th38ap0","5dcb685070d51c8275d7bd54","fixation","","","img/fixation.png","null","","","test","","","","","","","","","","","","","","","","","","","",""
"406.6000000089407","107914","SARL_v6","SARL_v64th38ap0","5dcb685070d51c8275d7bd54","freq","","","img/orange_2bandit_b2.png","70","","70","test","1","","27","","","","circle","square","26","4","2","1","","","","","","","",""
"null","108310","SARL_v6","SARL_v64th38ap0","5dcb685070d51c8275d7bd54","freq_resp","","","img/orange_2bandit_b.png","70","img/orange_2bandit_b.png","70","test","","","","","","","","","","","2","","","","","","","","",""
"null","108463","SARL_v6","SARL_v64th38ap0","5dcb685070d51c8275d7bd54","fixation","","","img/fixation.png","null","","","test","","","","","","","","","","","","","","","","","","","",""
"386","108851","SARL_v6","SARL_v64th38ap0","5dcb685070d51c8275d7bd54","freq","","","img/orange_2bandit_b2.png","70","","70","test","1","","28","","","","circle","square","27","5","2","1","","","","","","","",""
"null","109268","SARL_v6","SARL_v64th38ap0","5dcb685070d51c8275d7bd54","freq_resp","","","img/orange_2bandit_b.png","70","img/orange_2bandit_b.png","70","test","","","","","","","","","","","2","","","","","","","","",""
"null","109420","SARL_v6","SARL_v64th38ap0","5dcb685070d51c8275d7bd54","fixation","","","img/fixation.png","null","","","test","","","","","","","","","","","","","","","","","","","",""
"466.90000000596046","109889","SARL_v6","SARL_v64th38ap0","5dcb685070d51c8275d7bd54","freq","","","img/orange_2bandit_b2.png","70","","70","test","1","","29","","","","circle","square","28","6","2","1","","","","","","","",""
"null","110225","SARL_v6","SARL_v64th38ap0","5dcb685070d51c8275d7bd54","freq_resp","","","img/orange_2bandit_b.png","70","img/orange_2bandit_b.png","70","test","","","","","","","","","","","2","","","","","","","","",""
"null","110378","SARL_v6","SARL_v64th38ap0","5dcb685070d51c8275d7bd54","fixation","","","img/fixation.png","null","","","test","","","","","","","","","","","","","","","","","","","",""
"422.20000000298023","110802","SARL_v6","SARL_v64th38ap0","5dcb685070d51c8275d7bd54","freq","","","img/orange_2bandit_b2.png","70","","70","test","1","","30","","","","circle","square","29","7","2","1","","","","","","","",""
"null","111183","SARL_v6","SARL_v64th38ap0","5dcb685070d51c8275d7bd54","freq_resp","","","img/orange_2bandit_b.png","70","img/orange_2bandit_b.png","70","test","","","","","","","","","","","2","","","","","","","","",""
"null","111336","SARL_v6","SARL_v64th38ap0","5dcb685070d51c8275d7bd54","fixation","","","img/fixation.png","null","","","test","","","","","","","","","","","","","","","","","","","",""
"439.29999999701977","111779","SARL_v6","SARL_v64th38ap0","5dcb685070d51c8275d7bd54","infreq","","","img/blue_2bandit_b2.png","68","","68","test","1","","31","","","","circle","square","30","8","2","1","","","","","","","",""
"null","112142","SARL_v6","SARL_v64th38ap0","5dcb685070d51c8275d7bd54","infreq_resp","","","img/blue_2bandit_b.png","68","img/blue_2bandit_b.png","68","test","","","","","","","","","","","2","","","","","","","","",""
"null","112296","SARL_v6","SARL_v64th38ap0","5dcb685070d51c8275d7bd54","fixation","","","img/fixation.png","null","","","test","","","","","","","","","","","","","","","","","","","",""
"454.8999999910593","112753","SARL_v6","SARL_v64th38ap0","5dcb685070d51c8275d7bd54","freq","","","img/orange_2bandit_b2.png","70","","70","test","1","","32","","","","circle","square","31","9","2","1","","","","","","","",""
"null","113101","SARL_v6","SARL_v64th38ap0","5dcb685070d51c8275d7bd54","freq_resp","","","img/orange_2bandit_b.png","70","img/orange_2bandit_b.png","70","test","","","","","","","","","","","2","","","","","","","","",""
"null","113253","SARL_v6","SARL_v64th38ap0","5dcb685070d51c8275d7bd54","fixation","","","img/fixation.png","null","","","test","","","","","","","","","","","","","","","","","","","",""
"513.7999999970198","113770","SARL_v6","SARL_v64th38ap0","5dcb685070d51c8275d7bd54","freq","","","img/orange_2bandit_b2.png","70","","70","test","1","","33","","","","circle","square","32","10","2","1","","","","","","","",""
"null","114059","SARL_v6","SARL_v64th38ap0","5dcb685070d51c8275d7bd54","freq_resp","","","img/orange_2bandit_b.png","70","img/orange_2bandit_b.png","70","test","","","","","","","","","","","2","","","","","","","","",""
"null","114211","SARL_v6","SARL_v64th38ap0","5dcb685070d51c8275d7bd54","fixation","","","img/fixation.png","null","","","test","","","","","","","","","","","","","","","","","","","",""
"437.59999999403954","114652","SARL_v6","SARL_v64th38ap0","5dcb685070d51c8275d7bd54","freq","","","img/orange_2bandit_b2.png","70","","70","test","1","","34","","","","circle","square","33","11","2","1","","","","","","","",""
"null","115018","SARL_v6","SARL_v64th38ap0","5dcb685070d51c8275d7bd54","freq_resp","","","img/orange_2bandit_b.png","70","img/orange_2bandit_b.png","70","test","","","","","","","","","","","2","","","","","","","","",""
"null","115171","SARL_v6","SARL_v64th38ap0","5dcb685070d51c8275d7bd54","fixation","","","img/fixation.png","null","","","test","","","","","","","","","","","","","","","","","","","",""
"348.70000000298023","115521","SARL_v6","SARL_v64th38ap0","5dcb685070d51c8275d7bd54","freq","","","img/orange_2bandit_b2.png","70","","70","test","1","","35","","","","circle","square","34","12","2","1","","","","","","","",""
"null","115975","SARL_v6","SARL_v64th38ap0","5dcb685070d51c8275d7bd54","freq_resp","","","img/orange_2bandit_b.png","70","img/orange_2bandit_b.png","70","test","","","","","","","","","","","2","","","","","","","","",""
"null","116127","SARL_v6","SARL_v64th38ap0","5dcb685070d51c8275d7bd54","fixation","","","img/fixation.png","null","","","test","","","","","","","","","","","","","","","","","","","",""
"401","116530","SARL_v6","SARL_v64th38ap0","5dcb685070d51c8275d7bd54","freq","","","img/orange_2bandit_b2.png","70","","70","test","1","","36","","","","circle","square","35","13","2","1","","","","","","","",""
"null","116933","SARL_v6","SARL_v64th38ap0","5dcb685070d51c8275d7bd54","freq_resp","","","img/orange_2bandit_b.png","70","img/orange_2bandit_b.png","70","test","","","","","","","","","","","2","","","","","","","","",""
"null","117086","SARL_v6","SARL_v64th38ap0","5dcb685070d51c8275d7bd54","fixation","","","img/fixation.png","null","","","test","","","","","","","","","","","","","","","","","","","",""
"480.90000000596046","117570","SARL_v6","SARL_v64th38ap0","5dcb685070d51c8275d7bd54","freq","","","img/orange_2bandit_b2.png","70","","70","test","1","","37","","","","circle","square","36","14","2","1","","","","","","","",""
"null","117901","SARL_v6","SARL_v64th38ap0","5dcb685070d51c8275d7bd54","freq_resp","","","img/orange_2bandit_b.png","70","img/orange_2bandit_b.png","70","test","","","","","","","","","","","2","","","","","","","","",""
"null","118053","SARL_v6","SARL_v64th38ap0","5dcb685070d51c8275d7bd54","fixation","","","img/fixation.png","null","","","test","","","","","","","","","","","","","","","","","","","",""
"419.09999999403954","118475","SARL_v6","SARL_v64th38ap0","5dcb685070d51c8275d7bd54","freq","","","img/orange_2bandit_b2.png","70","","70","test","1","","38","","","","circle","square","37","15","2","1","","","","","","","",""
"null","118858","SARL_v6","SARL_v64th38ap0","5dcb685070d51c8275d7bd54","freq_resp","","","img/orange_2bandit_b.png","70","img/orange_2bandit_b.png","70","test","","","","","","","","","","","2","","","","","","","","",""
"null","119010","SARL_v6","SARL_v64th38ap0","5dcb685070d51c8275d7bd54","fixation","","","img/fixation.png","null","","","test","","","","","","","","","","","","","","","","","","","",""
"397.90000000596046","119411","SARL_v6","SARL_v64th38ap0","5dcb685070d51c8275d7bd54","freq","","","img/orange_2bandit_b2.png","70","","70","test","1","","39","","","","circle","square","38","16","2","1","","","","","","","",""
"null","119818","SARL_v6","SARL_v64th38ap0","5dcb685070d51c8275d7bd54","freq_resp","","","img/orange_2bandit_b.png","70","img/orange_2bandit_b.png","70","test","","","","","","","","","","","2","","","","","","","","",""
"null","119971","SARL_v6","SARL_v64th38ap0","5dcb685070d51c8275d7bd54","fixation","","","img/fixation.png","null","","","test","","","","","","","","","","","","","","","","","","","",""
"405.80000001192093","120379","SARL_v6","SARL_v64th38ap0","5dcb685070d51c8275d7bd54","freq","","","img/orange_2bandit_b2.png","70","","70","test","1","","40","","","","circle","square","39","17","2","1","","","","","","","",""
"null","120776","SARL_v6","SARL_v64th38ap0","5dcb685070d51c8275d7bd54","freq_resp","","","img/orange_2bandit_b.png","70","img/orange_2bandit_b.png","70","test","","","","","","","","","","","2","","","","","","","","",""
"null","120929","SARL_v6","SARL_v64th38ap0","5dcb685070d51c8275d7bd54","fixation","","","img/fixation.png","null","","","test","","","","","","","","","","","","","","","","","","","",""
"343.70000000298023","121275","SARL_v6","SARL_v64th38ap0","5dcb685070d51c8275d7bd54","freq","","","img/orange_2bandit_b2.png","70","","70","test","1","","41","","","","circle","square","40","18","2","1","","","","","","","",""
"null","121734","SARL_v6","SARL_v64th38ap0","5dcb685070d51c8275d7bd54","freq_resp","","","img/orange_2bandit_b.png","70","img/orange_2bandit_b.png","70","test","","","","","","","","","","","2","","","","","","","","",""
"null","121887","SARL_v6","SARL_v64th38ap0","5dcb685070d51c8275d7bd54","fixation","","","img/fixation.png","null","","","test","","","","","","","","","","","","","","","","","","","",""
"705.9000000059605","122595","SARL_v6","SARL_v64th38ap0","5dcb685070d51c8275d7bd54","freq","","","img/orange_2bandit_b2.png","70","","70","test","1","","42","","","","circle","square","41","19","2","1","","","","","","","",""
"null","122693","SARL_v6","SARL_v64th38ap0","5dcb685070d51c8275d7bd54","freq_resp","","","img/orange_2bandit_b.png","70","img/orange_2bandit_b.png","70","test","","","","","","","","","","","2","","","","","","","","",""
"null","122849","SARL_v6","SARL_v64th38ap0","5dcb685070d51c8275d7bd54","fixation","","","img/fixation.png","null","","","test","","","","","","","","","","","","","","","","","","","",""
"614.4000000059605","123468","SARL_v6","SARL_v64th38ap0","5dcb685070d51c8275d7bd54","freq","","","img/orange_2bandit_b2.png","70","","70","test","1","","43","","","","circle","square","42","20","2","1","","","","","","","",""
"null","123657","SARL_v6","SARL_v64th38ap0","5dcb685070d51c8275d7bd54","freq_resp","","","img/orange_2bandit_b.png","70","img/orange_2bandit_b.png","70","test","","","","","","","","","","","2","","","","","","","","",""
"null","123817","SARL_v6","SARL_v64th38ap0","5dcb685070d51c8275d7bd54","fixation","","","img/fixation.png","null","","","test","","","","","","","","","","","","","","","","","","","",""
"543.3000000119209","124363","SARL_v6","SARL_v64th38ap0","5dcb685070d51c8275d7bd54","freq","","","img/orange_2bandit_b2.png","70","","70","test","1","","44","","","","circle","square","43","21","2","1","","","","","","","",""
"null","124622","SARL_v6","SARL_v64th38ap0","5dcb685070d51c8275d7bd54","freq_resp","","","img/orange_2bandit_b.png","70","img/orange_2bandit_b.png","70","test","","","","","","","","","","","2","","","","","","","","",""
"null","124774","SARL_v6","SARL_v64th38ap0","5dcb685070d51c8275d7bd54","fixation","","","img/fixation.png","null","","","test","","","","","","","","","","","","","","","","","","","",""
"1281.5999999940395","126059","SARL_v6","SARL_v64th38ap0","5dcb685070d51c8275d7bd54","rl","","","img/black_2bandit_b2.png","74","","0","test","","","45","","","-5","circle","square","","0","2","","74","-5","-8","-5","-8","circle","2","0"
"null","126812","SARL_v6","SARL_v64th38ap0","5dcb685070d51c8275d7bd54","feedback","","","<div class=""verylowPoints""> -5 </div>","null","","na","test","","","NaN","","","","","","","","2","","74","","","","","","2",""
"null","127616","SARL_v6","SARL_v64th38ap0","5dcb685070d51c8275d7bd54","freq","","","img/orange_2bandit_b2.png","null","","70","test","0","","46","","","","circle","square","44","1","3","0.9772727272727273","","","","","","","",""
"null","127769","SARL_v6","SARL_v64th38ap0","5dcb685070d51c8275d7bd54","fixation","","","img/fixation.png","null","","","test","","","","","","","","","","","","","","","","","","","",""
"543.5999999940395","128314","SARL_v6","SARL_v64th38ap0","5dcb685070d51c8275d7bd54","freq","","","img/orange_2bandit_b2.png","70","","70","test","1","","47","","","","circle","square","45","2","3","0.9777777777777777","","","","","","","",""
"null","128574","SARL_v6","SARL_v64th38ap0","5dcb685070d51c8275d7bd54","freq_resp","","","img/orange_2bandit_b.png","70","img/orange_2bandit_b.png","70","test","","","","","","","","","","","3","","","","","","","","",""
"null","128727","SARL_v6","SARL_v64th38ap0","5dcb685070d51c8275d7bd54","fixation","","","img/fixation.png","null","","","test","","","","","","","","","","","","","","","","","","","",""
"473.09999999403954","129202","SARL_v6","SARL_v64th38ap0","5dcb685070d51c8275d7bd54","freq","","","img/orange_2bandit_b2.png","70","","70","test","1","","48","","","","circle","square","46","3","3","0.9782608695652174","","","","","","","",""
"null","129531","SARL_v6","SARL_v64th38ap0","5dcb685070d51c8275d7bd54","freq_resp","","","img/orange_2bandit_b.png","70","img/orange_2bandit_b.png","70","test","","","","","","","","","","","3","","","","","","","","",""
"null","129685","SARL_v6","SARL_v64th38ap0","5dcb685070d51c8275d7bd54","fixation","","","img/fixation.png","null","","","test","","","","","","","","","","","","","","","","","","","",""
"322.59999999403954","130011","SARL_v6","SARL_v64th38ap0","5dcb685070d51c8275d7bd54","freq","","","img/orange_2bandit_b2.png","70","","70","test","1","","49","","","","circle","square","47","4","3","0.9787234042553191","","","","","","","",""
"null","130491","SARL_v6","SARL_v64th38ap0","5dcb685070d51c8275d7bd54","freq_resp","","","img/orange_2bandit_b.png","70","img/orange_2bandit_b.png","70","test","","","","","","","","","","","3","","","","","","","","",""
"null","130644","SARL_v6","SARL_v64th38ap0","5dcb685070d51c8275d7bd54","fixation","","","img/fixation.png","null","","","test","","","","","","","","","","","","","","","","","","","",""
"251.70000000298023","130900","SARL_v6","SARL_v64th38ap0","5dcb685070d51c8275d7bd54","freq","","","img/orange_2bandit_b2.png","70","","70","test","1","","50","","","","circle","square","48","5","3","0.9791666666666666","","","","","","","",""
"null","131453","SARL_v6","SARL_v64th38ap0","5dcb685070d51c8275d7bd54","freq_resp","","","img/orange_2bandit_b.png","70","img/orange_2bandit_b.png","70","test","","","","","","","","","","","3","","","","","","","","",""
"null","131605","SARL_v6","SARL_v64th38ap0","5dcb685070d51c8275d7bd54","fixation","","","img/fixation.png","null","","","test","","","","","","","","","","","","","","","","","","","",""
"266.80000001192093","131875","SARL_v6","SARL_v64th38ap0","5dcb685070d51c8275d7bd54","freq","","","img/orange_2bandit_b2.png","70","","70","test","1","","51","","","","circle","square","49","6","3","0.9795918367346939","","","","","","","",""
"null","132411","SARL_v6","SARL_v64th38ap0","5dcb685070d51c8275d7bd54","freq_resp","","","img/orange_2bandit_b.png","70","img/orange_2bandit_b.png","70","test","","","","","","","","","","","3","","","","","","","","",""
"null","132565","SARL_v6","SARL_v64th38ap0","5dcb685070d51c8275d7bd54","fixation","","","img/fixation.png","null","","","test","","","","","","","","","","","","","","","","","","","",""
"250.6000000089407","132819","SARL_v6","SARL_v64th38ap0","5dcb685070d51c8275d7bd54","freq","","","img/orange_2bandit_b2.png","70","","70","test","1","","52","","","","circle","square","50","7","3","0.98","","","","","","","",""
"null","133372","SARL_v6","SARL_v64th38ap0","5dcb685070d51c8275d7bd54","freq_resp","","","img/orange_2bandit_b.png","70","img/orange_2bandit_b.png","70","test","","","","","","","","","","","3","","","","","","","","",""
"null","133524","SARL_v6","SARL_v64th38ap0","5dcb685070d51c8275d7bd54","fixation","","","img/fixation.png","null","","","test","","","","","","","","","","","","","","","","","","","",""
"179.59999999403954","133706","SARL_v6","SARL_v64th38ap0","5dcb685070d51c8275d7bd54","freq","","","img/orange_2bandit_b2.png","70","","70","test","1","","53","","","","circle","square","51","8","3","0.9803921568627451","","","","","","","",""
"null","134329","SARL_v6","SARL_v64th38ap0","5dcb685070d51c8275d7bd54","freq_resp","","","img/orange_2bandit_b.png","70","img/orange_2bandit_b.png","70","test","","","","","","","","","","","3","","","","","","","","",""
"null","134483","SARL_v6","SARL_v64th38ap0","5dcb685070d51c8275d7bd54","fixation","","","img/fixation.png","null","","","test","","","","","","","","","","","","","","","","","","","",""
"333.1000000089407","134819","SARL_v6","SARL_v64th38ap0","5dcb685070d51c8275d7bd54","freq","","","img/orange_2bandit_b2.png","70","","70","test","1","","54","","","","circle","square","52","9","3","0.9807692307692307","","","","","","","",""
"null","135303","SARL_v6","SARL_v64th38ap0","5dcb685070d51c8275d7bd54","freq_resp","","","img/orange_2bandit_b.png","70","img/orange_2bandit_b.png","70","test","","","","","","","","","","","3","","","","","","","","",""
"null","135455","SARL_v6","SARL_v64th38ap0","5dcb685070d51c8275d7bd54","fixation","","","img/fixation.png","null","","","test","","","","","","","","","","","","","","","","","","","",""
"297","135754","SARL_v6","SARL_v64th38ap0","5dcb685070d51c8275d7bd54","freq","","","img/orange_2bandit_b2.png","70","","70","test","1","","55","","","","circle","square","53","10","3","0.9811320754716981","","","","","","","",""
"null","136261","SARL_v6","SARL_v64th38ap0","5dcb685070d51c8275d7bd54","freq_resp","","","img/orange_2bandit_b.png","70","img/orange_2bandit_b.png","70","test","","","","","","","","","","","3","","","","","","","","",""
"null","136414","SARL_v6","SARL_v64th38ap0","5dcb685070d51c8275d7bd54","fixation","","","img/fixation.png","null","","","test","","","","","","","","","","","","","","","","","","","",""
"330.80000001192093","136747","SARL_v6","SARL_v64th38ap0","5dcb685070d51c8275d7bd54","freq","","","img/orange_2bandit_b2.png","70","","70","test","1","","56","","","","circle","square","54","11","3","0.9814814814814815","","","","","","","",""
"null","137219","SARL_v6","SARL_v64th38ap0","5dcb685070d51c8275d7bd54","freq_resp","","","img/orange_2bandit_b.png","70","img/orange_2bandit_b.png","70","test","","","","","","","","","","","3","","","","","","","","",""
"null","137372","SARL_v6","SARL_v64th38ap0","5dcb685070d51c8275d7bd54","fixation","","","img/fixation.png","null","","","test","","","","","","","","","","","","","","","","","","","",""
"347.29999999701977","137722","SARL_v6","SARL_v64th38ap0","5dcb685070d51c8275d7bd54","freq","","","img/orange_2bandit_b2.png","70","","70","test","1","","57","","","","circle","square","55","12","3","0.9818181818181818","","","","","","","",""
"null","138177","SARL_v6","SARL_v64th38ap0","5dcb685070d51c8275d7bd54","freq_resp","","","img/orange_2bandit_b.png","70","img/orange_2bandit_b.png","70","test","","","","","","","","","","","3","","","","","","","","",""
"null","138330","SARL_v6","SARL_v64th38ap0","5dcb685070d51c8275d7bd54","fixation","","","img/fixation.png","null","","","test","","","","","","","","","","","","","","","","","","","",""
"303.59999999403954","138636","SARL_v6","SARL_v64th38ap0","5dcb685070d51c8275d7bd54","freq","","","img/orange_2bandit_b2.png","70","","70","test","1","","58","","","","circle","square","56","13","3","0.9821428571428571","","","","","","","",""
"null","139135","SARL_v6","SARL_v64th38ap0","5dcb685070d51c8275d7bd54","freq_resp","","","img/orange_2bandit_b.png","70","img/orange_2bandit_b.png","70","test","","","","","","","","","","","3","","","","","","","","",""
"null","139288","SARL_v6","SARL_v64th38ap0","5dcb685070d51c8275d7bd54","fixation","","","img/fixation.png","null","","","test","","","","","","","","","","","","","","","","","","","",""
"432.1000000089407","139722","SARL_v6","SARL_v64th38ap0","5dcb685070d51c8275d7bd54","infreq","","","img/blue_2bandit_b2.png","68","","68","test","1","","59","","","","circle","square","57","14","3","0.9824561403508771","","","","","","","",""
"null","140093","SARL_v6","SARL_v64th38ap0","5dcb685070d51c8275d7bd54","infreq_resp","","","img/blue_2bandit_b.png","68","img/blue_2bandit_b.png","68","test","","","","","","","","","","","3","","","","","","","","",""
"null","140246","SARL_v6","SARL_v64th38ap0","5dcb685070d51c8275d7bd54","fixation","","","img/fixation.png","null","","","test","","","","","","","","","","","","","","","","","","","",""
"403.20000000298023","140652","SARL_v6","SARL_v64th38ap0","5dcb685070d51c8275d7bd54","freq","","","img/orange_2bandit_b2.png","70","","70","test","1","","60","","","","circle","square","58","15","3","0.9827586206896551","","","","","","","",""
"null","141051","SARL_v6","SARL_v64th38ap0","5dcb685070d51c8275d7bd54","freq_resp","","","img/orange_2bandit_b.png","70","img/orange_2bandit_b.png","70","test","","","","","","","","","","","3","","","","","","","","",""
"null","141205","SARL_v6","SARL_v64th38ap0","5dcb685070d51c8275d7bd54","fixation","","","img/fixation.png","null","","","test","","","","","","","","","","","","","","","","","","","",""
"371.6000000089407","141579","SARL_v6","SARL_v64th38ap0","5dcb685070d51c8275d7bd54","freq","","","img/orange_2bandit_b2.png","70","","70","test","1","","61","","","","circle","square","59","16","3","0.9830508474576272","","","","","","","",""
"null","142009","SARL_v6","SARL_v64th38ap0","5dcb685070d51c8275d7bd54","freq_resp","","","img/orange_2bandit_b.png","70","img/orange_2bandit_b.png","70","test","","","","","","","","","","","3","","","","","","","","",""
"null","142162","SARL_v6","SARL_v64th38ap0","5dcb685070d51c8275d7bd54","fixation","","","img/fixation.png","null","","","test","","","","","","","","","","","","","","","","","","","",""
"454.3999999910593","142619","SARL_v6","SARL_v64th38ap0","5dcb685070d51c8275d7bd54","freq","","","img/orange_2bandit_b2.png","70","","70","test","1","","62","","","","circle","square","60","17","3","0.9833333333333333","","","","","","","",""
"null","142968","SARL_v6","SARL_v64th38ap0","5dcb685070d51c8275d7bd54","freq_resp","","","img/orange_2bandit_b.png","70","img/orange_2bandit_b.png","70","test","","","","","","","","","","","3","","","","","","","","",""
"null","143121","SARL_v6","SARL_v64th38ap0","5dcb685070d51c8275d7bd54","fixation","","","img/fixation.png","null","","","test","","","","","","","","","","","","","","","","","","","",""
"351.30000001192093","143474","SARL_v6","SARL_v64th38ap0","5dcb685070d51c8275d7bd54","freq","","","img/orange_2bandit_b2.png","70","","70","test","1","","63","","","","circle","square","61","18","3","0.9836065573770492","","","","","","","",""
"null","143925","SARL_v6","SARL_v64th38ap0","5dcb685070d51c8275d7bd54","freq_resp","","","img/orange_2bandit_b.png","70","img/orange_2bandit_b.png","70","test","","","","","","","","","","","3","","","","","","","","",""
"null","144078","SARL_v6","SARL_v64th38ap0","5dcb685070d51c8275d7bd54","fixation","","","img/fixation.png","null","","","test","","","","","","","","","","","","","","","","","","","",""
"451.5","144531","SARL_v6","SARL_v64th38ap0","5dcb685070d51c8275d7bd54","freq","","","img/orange_2bandit_b2.png","70","","70","test","1","","64","","","","circle","square","62","19","3","0.9838709677419355","","","","","","","",""
"null","144882","SARL_v6","SARL_v64th38ap0","5dcb685070d51c8275d7bd54","freq_resp","","","img/orange_2bandit_b.png","70","img/orange_2bandit_b.png","70","test","","","","","","","","","","","3","","","","","","","","",""
"null","145037","SARL_v6","SARL_v64th38ap0","5dcb685070d51c8275d7bd54","fixation","","","img/fixation.png","null","","","test","","","","","","","","","","","","","","","","","","","",""
"580.5","145619","SARL_v6","SARL_v64th38ap0","5dcb685070d51c8275d7bd54","freq","","","img/orange_2bandit_b2.png","70","","70","test","1","","65","","","","circle","square","63","20","3","0.9841269841269841","","","","","","","",""
"null","145841","SARL_v6","SARL_v64th38ap0","5dcb685070d51c8275d7bd54","freq_resp","","","img/orange_2bandit_b.png","70","img/orange_2bandit_b.png","70","test","","","","","","","","","","","3","","","","","","","","",""
"null","145995","SARL_v6","SARL_v64th38ap0","5dcb685070d51c8275d7bd54","fixation","","","img/fixation.png","null","","","test","","","","","","","","","","","","","","","","","","","",""
"581.7999999970198","146579","SARL_v6","SARL_v64th38ap0","5dcb685070d51c8275d7bd54","infreq","","","img/blue_2bandit_b2.png","68","","68","test","1","","66","","","","circle","square","64","21","3","0.984375","","","","","","","",""
"null","146801","SARL_v6","SARL_v64th38ap0","5dcb685070d51c8275d7bd54","infreq_resp","","","img/blue_2bandit_b.png","68","img/blue_2bandit_b.png","68","test","","","","","","","","","","","3","","","","","","","","",""
"null","146954","SARL_v6","SARL_v64th38ap0","5dcb685070d51c8275d7bd54","fixation","","","img/fixation.png","null","","","test","","","","","","","","","","","","","","","","","","","",""
"null","147757","SARL_v6","SARL_v64th38ap0","5dcb685070d51c8275d7bd54","freq","","","img/orange_2bandit_b2.png","null","","70","test","0","","67","","","","circle","square","65","22","3","0.9692307692307692","","","","","","","",""
"null","147909","SARL_v6","SARL_v64th38ap0","5dcb685070d51c8275d7bd54","fixation","","","img/fixation.png","null","","","test","","","","","","","","","","","","","","","","","","","",""
"1122","149034","SARL_v6","SARL_v64th38ap0","5dcb685070d51c8275d7bd54","rl","","","img/black_2bandit_b2.png","74","","0","test","","","68","","","-4","circle","square","","0","3","","74","-4","-8","-4","-8","circle","3","0"
"null","149789","SARL_v6","SARL_v64th38ap0","5dcb685070d51c8275d7bd54","feedback","","","<div class=""verylowPoints""> -4 </div>","null","","na","test","","","NaN","","","","","","","","3","","74","","","","","","3",""
"null","150591","SARL_v6","SARL_v64th38ap0","5dcb685070d51c8275d7bd54","freq","","","img/orange_2bandit_b2.png","null","","70","test","0","","69","","","","circle","square","66","1","4","0.9545454545454546","","","","","","","",""
"null","150744","SARL_v6","SARL_v64th38ap0","5dcb685070d51c8275d7bd54","fixation","","","img/fixation.png","null","","","test","","","","","","","","","","","","","","","","","","","",""
"32.5","150779","SARL_v6","SARL_v64th38ap0","5dcb685070d51c8275d7bd54","freq","","","img/orange_2bandit_b2.png","70","","70","test","1","","70","","","","circle","square","67","2","4","0.9552238805970149","","","","","","","",""
"null","151549","SARL_v6","SARL_v64th38ap0","5dcb685070d51c8275d7bd54","freq_resp","","","img/orange_2bandit_b.png","70","img/orange_2bandit_b.png","70","test","","","","","","","","","","","4","","","","","","","","",""
"null","151702","SARL_v6","SARL_v64th38ap0","5dcb685070d51c8275d7bd54","fixation","","","img/fixation.png","null","","","test","","","","","","","","","","","","","","","","","","","",""
"474","152179","SARL_v6","SARL_v64th38ap0","5dcb685070d51c8275d7bd54","freq","","","img/orange_2bandit_b2.png","70","","70","test","1","","71","","","","circle","square","68","3","4","0.9558823529411765","","","","","","","",""
"null","152508","SARL_v6","SARL_v64th38ap0","5dcb685070d51c8275d7bd54","freq_resp","","","img/orange_2bandit_b.png","70","img/orange_2bandit_b.png","70","test","","","","","","","","","","","4","","","","","","","","",""
"null","152661","SARL_v6","SARL_v64th38ap0","5dcb685070d51c8275d7bd54","fixation","","","img/fixation.png","null","","","test","","","","","","","","","","","","","","","","","","","",""
"395.5","153058","SARL_v6","SARL_v64th38ap0","5dcb685070d51c8275d7bd54","freq","","","img/orange_2bandit_b2.png","70","","70","test","1","","72","","","","circle","square","69","4","4","0.9565217391304348","","","","","","","",""
"null","153466","SARL_v6","SARL_v64th38ap0","5dcb685070d51c8275d7bd54","freq_resp","","","img/orange_2bandit_b.png","70","img/orange_2bandit_b.png","70","test","","","","","","","","","","","4","","","","","","","","",""
"null","153620","SARL_v6","SARL_v64th38ap0","5dcb685070d51c8275d7bd54","fixation","","","img/fixation.png","null","","","test","","","","","","","","","","","","","","","","","","","",""
"412.5","154034","SARL_v6","SARL_v64th38ap0","5dcb685070d51c8275d7bd54","freq","","","img/orange_2bandit_b2.png","70","","70","test","1","","73","","","","circle","square","70","5","4","0.9571428571428572","","","","","","","",""
"null","154425","SARL_v6","SARL_v64th38ap0","5dcb685070d51c8275d7bd54","freq_resp","","","img/orange_2bandit_b.png","70","img/orange_2bandit_b.png","70","test","","","","","","","","","","","4","","","","","","","","",""
"null","154578","SARL_v6","SARL_v64th38ap0","5dcb685070d51c8275d7bd54","fixation","","","img/fixation.png","null","","","test","","","","","","","","","","","","","","","","","","","",""
"614.9000000059605","155195","SARL_v6","SARL_v64th38ap0","5dcb685070d51c8275d7bd54","freq","","","img/orange_2bandit_b2.png","70","","70","test","1","","74","","","","circle","square","71","6","4","0.9577464788732394","","","","","","","",""
"null","155384","SARL_v6","SARL_v64th38ap0","5dcb685070d51c8275d7bd54","freq_resp","","","img/orange_2bandit_b.png","70","img/orange_2bandit_b.png","70","test","","","","","","","","","","","4","","","","","","","","",""
"null","155551","SARL_v6","SARL_v64th38ap0","5dcb685070d51c8275d7bd54","fixation","","","img/fixation.png","null","","","test","","","","","","","","","","","","","","","","","","","",""
"392.90000000596046","155946","SARL_v6","SARL_v64th38ap0","5dcb685070d51c8275d7bd54","freq","","","img/orange_2bandit_b2.png","70","","70","test","1","","75","","","","circle","square","72","7","4","0.9583333333333334","","","","","","","",""
"null","156357","SARL_v6","SARL_v64th38ap0","5dcb685070d51c8275d7bd54","freq_resp","","","img/orange_2bandit_b.png","70","img/orange_2bandit_b.png","70","test","","","","","","","","","","","4","","","","","","","","",""
"null","156509","SARL_v6","SARL_v64th38ap0","5dcb685070d51c8275d7bd54","fixation","","","img/fixation.png","null","","","test","","","","","","","","","","","","","","","","","","","",""
"275.70000000298023","156787","SARL_v6","SARL_v64th38ap0","5dcb685070d51c8275d7bd54","freq","","","img/orange_2bandit_b2.png","70","","70","test","1","","76","","","","circle","square","73","8","4","0.958904109589041","","","","","","","",""
"null","157316","SARL_v6","SARL_v64th38ap0","5dcb685070d51c8275d7bd54","freq_resp","","","img/orange_2bandit_b.png","70","img/orange_2bandit_b.png","70","test","","","","","","","","","","","4","","","","","","","","",""
"null","157470","SARL_v6","SARL_v64th38ap0","5dcb685070d51c8275d7bd54","fixation","","","img/fixation.png","null","","","test","","","","","","","","","","","","","","","","","","","",""
"474.5","157947","SARL_v6","SARL_v64th38ap0","5dcb685070d51c8275d7bd54","freq","","","img/orange_2bandit_b2.png","70","","70","test","1","","77","","","","circle","square","74","9","4","0.9594594594594594","","","","","","","",""
"null","158289","SARL_v6","SARL_v64th38ap0","5dcb685070d51c8275d7bd54","freq_resp","","","img/orange_2bandit_b.png","70","img/orange_2bandit_b.png","70","test","","","","","","","","","","","4","","","","","","","","",""
"null","158442","SARL_v6","SARL_v64th38ap0","5dcb685070d51c8275d7bd54","fixation","","","img/fixation.png","null","","","test","","","","","","","","","","","","","","","","","","","",""
"430.70000000298023","158874","SARL_v6","SARL_v64th38ap0","5dcb685070d51c8275d7bd54","freq","","","img/orange_2bandit_b2.png","70","","70","test","1","","78","","","","circle","square","75","10","4","0.96","","","","","","","",""
"null","159247","SARL_v6","SARL_v64th38ap0","5dcb685070d51c8275d7bd54","freq_resp","","","img/orange_2bandit_b.png","70","img/orange_2bandit_b.png","70","test","","","","","","","","","","","4","","","","","","","","",""
"null","159401","SARL_v6","SARL_v64th38ap0","5dcb685070d51c8275d7bd54","fixation","","","img/fixation.png","null","","","test","","","","","","","","","","","","","","","","","","","",""
"607","160011","SARL_v6","SARL_v64th38ap0","5dcb685070d51c8275d7bd54","freq","","","img/orange_2bandit_b2.png","70","","70","test","1","","79","","","","circle","square","76","11","4","0.9605263157894737","","","","","","","",""
"null","160207","SARL_v6","SARL_v64th38ap0","5dcb685070d51c8275d7bd54","freq_resp","","","img/orange_2bandit_b.png","70","img/orange_2bandit_b.png","70","test","","","","","","","","","","","4","","","","","","","","",""
"null","160361","SARL_v6","SARL_v64th38ap0","5dcb685070d51c8275d7bd54","fixation","","","img/fixation.png","null","","","test","","","","","","","","","","","","","","","","","","","",""
"null","161165","SARL_v6","SARL_v64th38ap0","5dcb685070d51c8275d7bd54","freq","","","img/orange_2bandit_b2.png","null","","70","test","0","","80","","","","circle","square","77","12","4","0.948051948051948","","","","","","","",""
"null","161318","SARL_v6","SARL_v64th38ap0","5dcb685070d51c8275d7bd54","fixation","","","img/fixation.png","null","","","test","","","","","","","","","","","","","","","","","","","",""
"754","162075","SARL_v6","SARL_v64th38ap0","5dcb685070d51c8275d7bd54","freq","","","img/orange_2bandit_b2.png","70","","70","test","1","","81","","","","circle","square","78","13","4","0.9487179487179487","","","","","","","",""
"null","162124","SARL_v6","SARL_v64th38ap0","5dcb685070d51c8275d7bd54","freq_resp","","","img/orange_2bandit_b.png","70","img/orange_2bandit_b.png","70","test","","","","","","","","","","","4","","","","","","","","",""
"null","162277","SARL_v6","SARL_v64th38ap0","5dcb685070d51c8275d7bd54","fixation","","","img/fixation.png","null","","","test","","","","","","","","","","","","","","","","","","","",""
"690.8999999910593","162970","SARL_v6","SARL_v64th38ap0","5dcb685070d51c8275d7bd54","freq","","","img/orange_2bandit_b2.png","70","","70","test","1","","82","","","","circle","square","79","14","4","0.9493670886075949","","","","","","","",""
"null","163083","SARL_v6","SARL_v64th38ap0","5dcb685070d51c8275d7bd54","freq_resp","","","img/orange_2bandit_b.png","70","img/orange_2bandit_b.png","70","test","","","","","","","","","","","4","","","","","","","","",""
"null","163235","SARL_v6","SARL_v64th38ap0","5dcb685070d51c8275d7bd54","fixation","","","img/fixation.png","null","","","test","","","","","","","","","","","","","","","","","","","",""
"725.5","163963","SARL_v6","SARL_v64th38ap0","5dcb685070d51c8275d7bd54","freq","","","img/orange_2bandit_b2.png","70","","70","test","1","","83","","","","circle","square","80","15","4","0.95","","","","","","","",""
"null","164040","SARL_v6","SARL_v64th38ap0","5dcb685070d51c8275d7bd54","freq_resp","","","img/orange_2bandit_b.png","70","img/orange_2bandit_b.png","70","test","","","","","","","","","","","4","","","","","","","","",""
"null","164203","SARL_v6","SARL_v64th38ap0","5dcb685070d51c8275d7bd54","fixation","","","img/fixation.png","null","","","test","","","","","","","","","","","","","","","","","","","",""
"469.79999999701977","164675","SARL_v6","SARL_v64th38ap0","5dcb685070d51c8275d7bd54","freq","","","img/orange_2bandit_b2.png","70","","70","test","1","","84","","","","circle","square","81","16","4","0.9506172839506173","","","","","","","",""
"null","165008","SARL_v6","SARL_v64th38ap0","5dcb685070d51c8275d7bd54","freq_resp","","","img/orange_2bandit_b.png","70","img/orange_2bandit_b.png","70","test","","","","","","","","","","","4","","","","","","","","",""
"null","165160","SARL_v6","SARL_v64th38ap0","5dcb685070d51c8275d7bd54","fixation","","","img/fixation.png","null","","","test","","","","","","","","","","","","","","","","","","","",""
"688.2000000029802","165852","SARL_v6","SARL_v64th38ap0","5dcb685070d51c8275d7bd54","freq","","","img/orange_2bandit_b2.png","70","","70","test","1","","85","","","","circle","square","82","17","4","0.9512195121951219","","","","","","","",""
"null","165968","SARL_v6","SARL_v64th38ap0","5dcb685070d51c8275d7bd54","freq_resp","","","img/orange_2bandit_b.png","70","img/orange_2bandit_b.png","70","test","","","","","","","","","","","4","","","","","","","","",""
"null","166121","SARL_v6","SARL_v64th38ap0","5dcb685070d51c8275d7bd54","fixation","","","img/fixation.png","null","","","test","","","","","","","","","","","","","","","","","","","",""
"null","166924","SARL_v6","SARL_v64th38ap0","5dcb685070d51c8275d7bd54","freq","","","img/orange_2bandit_b2.png","null","","70","test","0","","86","","","","circle","square","83","18","4","0.9397590361445783","","","","","","","",""
"null","167077","SARL_v6","SARL_v64th38ap0","5dcb685070d51c8275d7bd54","fixation","","","img/fixation.png","null","","","test","","","","","","","","","","","","","","","","","","","",""
"634.5999999940395","167715","SARL_v6","SARL_v64th38ap0","5dcb685070d51c8275d7bd54","freq","","","img/orange_2bandit_b2.png","70","","70","test","1","","87","","","","circle","square","84","19","4","0.9404761904761905","","","","","","","",""
"null","167883","SARL_v6","SARL_v64th38ap0","5dcb685070d51c8275d7bd54","freq_resp","","","img/orange_2bandit_b.png","70","img/orange_2bandit_b.png","70","test","","","","","","","","","","","4","","","","","","","","",""
"null","168036","SARL_v6","SARL_v64th38ap0","5dcb685070d51c8275d7bd54","fixation","","","img/fixation.png","null","","","test","","","","","","","","","","","","","","","","","","","",""
"731.2000000029802","168770","SARL_v6","SARL_v64th38ap0","5dcb685070d51c8275d7bd54","freq","","","img/orange_2bandit_b2.png","70","","70","test","1","","88","","","","circle","square","85","20","4","0.9411764705882353","","","","","","","",""
"null","168841","SARL_v6","SARL_v64th38ap0","5dcb685070d51c8275d7bd54","freq_resp","","","img/orange_2bandit_b.png","70","img/orange_2bandit_b.png","70","test","","","","","","","","","","","4","","","","","","","","",""
"null","168994","SARL_v6","SARL_v64th38ap0","5dcb685070d51c8275d7bd54","fixation","","","img/fixation.png","null","","","test","","","","","","","","","","","","","","","","","","","",""
"606.7999999970198","169604","SARL_v6","SARL_v64th38ap0","5dcb685070d51c8275d7bd54","infreq","","","img/blue_2bandit_b2.png","68","","68","test","1","","89","","","","circle","square","86","21","4","0.9418604651162791","","","","","","","",""
"null","169801","SARL_v6","SARL_v64th38ap0","5dcb685070d51c8275d7bd54","infreq_resp","","","img/blue_2bandit_b.png","68","img/blue_2bandit_b.png","68","test","","","","","","","","","","","4","","","","","","","","",""
"null","169954","SARL_v6","SARL_v64th38ap0","5dcb685070d51c8275d7bd54","fixation","","","img/fixation.png","null","","","test","","","","","","","","","","","","","","","","","","","",""
"null","170759","SARL_v6","SARL_v64th38ap0","5dcb685070d51c8275d7bd54","freq","","","img/orange_2bandit_b2.png","null","","70","test","0","","90","","","","circle","square","87","22","4","0.9310344827586207","","","","","","","",""
"null","170911","SARL_v6","SARL_v64th38ap0","5dcb685070d51c8275d7bd54","fixation","","","img/fixation.png","null","","","test","","","","","","","","","","","","","","","","","","","",""
"56.70000000298023","170970","SARL_v6","SARL_v64th38ap0","5dcb685070d51c8275d7bd54","infreq","","","img/blue_2bandit_b2.png","68","","68","test","1","","91","","","","circle","square","88","23","4","0.9318181818181818","","","","","","","",""
"null","171717","SARL_v6","SARL_v64th38ap0","5dcb685070d51c8275d7bd54","infreq_resp","","","img/blue_2bandit_b.png","68","img/blue_2bandit_b.png","68","test","","","","","","","","","","","4","","","","","","","","",""
"null","171870","SARL_v6","SARL_v64th38ap0","5dcb685070d51c8275d7bd54","fixation","","","img/fixation.png","null","","","test","","","","","","","","","","","","","","","","","","","",""
"null","172672","SARL_v6","SARL_v64th38ap0","5dcb685070d51c8275d7bd54","freq","","","img/orange_2bandit_b2.png","null","","70","test","0","","92","","","","circle","square","89","24","4","0.9213483146067416","","","","","","","",""
"null","172825","SARL_v6","SARL_v64th38ap0","5dcb685070d51c8275d7bd54","fixation","","","img/fixation.png","null","","","test","","","","","","","","","","","","","","","","","","","",""
"111.29999999701977","172938","SARL_v6","SARL_v64th38ap0","5dcb685070d51c8275d7bd54","freq","","","img/orange_2bandit_b2.png","70","","70","test","1","","93","","","","circle","square","90","25","4","0.9222222222222223","","","","","","","",""
"null","173630","SARL_v6","SARL_v64th38ap0","5dcb685070d51c8275d7bd54","freq_resp","","","img/orange_2bandit_b.png","70","img/orange_2bandit_b.png","70","test","","","","","","","","","","","4","","","","","","","","",""
"null","173783","SARL_v6","SARL_v64th38ap0","5dcb685070d51c8275d7bd54","fixation","","","img/fixation.png","null","","","test","","","","","","","","","","","","","","","","","","","",""
"null","175288","SARL_v6","SARL_v64th38ap0","5dcb685070d51c8275d7bd54","rl","","","img/black_2bandit_b2.png","null","","0","test","","","94","","","0","circle","square","","0","4","","null","0","-12","0","-12","too slow","4","0"
"null","176042","SARL_v6","SARL_v64th38ap0","5dcb685070d51c8275d7bd54","feedback","","","<div font size = 80> TOO SLOW  </div>","null","","na","test","","","NaN","","","","","","","","4","","null","","","","","","4",""
"null","176844","SARL_v6","SARL_v64th38ap0","5dcb685070d51c8275d7bd54","freq","","","img/orange_2bandit_b2.png","null","","70","test","0","","95","","","","circle","square","91","1","5","0.9120879120879121","","","","","","","",""
"null","176997","SARL_v6","SARL_v64th38ap0","5dcb685070d51c8275d7bd54","fixation","","","img/fixation.png","null","","","test","","","","","","","","","","","","","","","","","","","",""
"378.90000000596046","177379","SARL_v6","SARL_v64th38ap0","5dcb685070d51c8275d7bd54","freq","","","img/orange_2bandit_b2.png","70","","70","test","1","","96","","","","circle","square","92","2","5","0.9130434782608695","","","","","","","",""
"null","177804","SARL_v6","SARL_v64th38ap0","5dcb685070d51c8275d7bd54","freq_resp","","","img/orange_2bandit_b.png","70","img/orange_2bandit_b.png","70","test","","","","","","","","","","","5","","","","","","","","",""
"null","177956","SARL_v6","SARL_v64th38ap0","5dcb685070d51c8275d7bd54","fixation","","","img/fixation.png","null","","","test","","","","","","","","","","","","","","","","","","","",""
"364","178322","SARL_v6","SARL_v64th38ap0","5dcb685070d51c8275d7bd54","freq","","","img/orange_2bandit_b2.png","70","","70","test","1","","97","","","","circle","square","93","3","5","0.9139784946236559","","","","","","","",""
"null","178761","SARL_v6","SARL_v64th38ap0","5dcb685070d51c8275d7bd54","freq_resp","","","img/orange_2bandit_b.png","70","img/orange_2bandit_b.png","70","test","","","","","","","","","","","5","","","","","","","","",""
"null","178916","SARL_v6","SARL_v64th38ap0","5dcb685070d51c8275d7bd54","fixation","","","img/fixation.png","null","","","test","","","","","","","","","","","","","","","","","","","",""
"564.5","179484","SARL_v6","SARL_v64th38ap0","5dcb685070d51c8275d7bd54","freq","","","img/orange_2bandit_b2.png","70","","70","test","1","","98","","","","circle","square","94","4","5","0.9148936170212766","","","","","","","",""
"null","179722","SARL_v6","SARL_v64th38ap0","5dcb685070d51c8275d7bd54","freq_resp","","","img/orange_2bandit_b.png","70","img/orange_2bandit_b.png","70","test","","","","","","","","","","","5","","","","","","","","",""
"null","179874","SARL_v6","SARL_v64th38ap0","5dcb685070d51c8275d7bd54","fixation","","","img/fixation.png","null","","","test","","","","","","","","","","","","","","","","","","","",""
"null","180677","SARL_v6","SARL_v64th38ap0","5dcb685070d51c8275d7bd54","freq","","","img/orange_2bandit_b2.png","null","","70","test","0","","99","","","","circle","square","95","5","5","0.9052631578947369","","","","","","","",""
"null","180830","SARL_v6","SARL_v64th38ap0","5dcb685070d51c8275d7bd54","fixation","","","img/fixation.png","null","","","test","","","","","","","","","","","","","","","","","","","",""
"345.5","181178","SARL_v6","SARL_v64th38ap0","5dcb685070d51c8275d7bd54","freq","","","img/orange_2bandit_b2.png","70","","70","test","1","","100","","","","circle","square","96","6","5","0.90625","","","","","","","",""
"null","181635","SARL_v6","SARL_v64th38ap0","5dcb685070d51c8275d7bd54","freq_resp","","","img/orange_2bandit_b.png","70","img/orange_2bandit_b.png","70","test","","","","","","","","","","","5","","","","","","","","",""
"null","181788","SARL_v6","SARL_v64th38ap0","5dcb685070d51c8275d7bd54","fixation","","","img/fixation.png","null","","","test","","","","","","","","","","","","","","","","","","","",""
"375.29999999701977","182165","SARL_v6","SARL_v64th38ap0","5dcb685070d51c8275d7bd54","freq","","","img/orange_2bandit_b2.png","70","","70","test","1","","101","","","","circle","square","97","7","5","0.9072164948453608","","","","","","","",""
"null","182592","SARL_v6","SARL_v64th38ap0","5dcb685070d51c8275d7bd54","freq_resp","","","img/orange_2bandit_b.png","70","img/orange_2bandit_b.png","70","test","","","","","","","","","","","5","","","","","","","","",""
"null","182744","SARL_v6","SARL_v64th38ap0","5dcb685070d51c8275d7bd54","fixation","","","img/fixation.png","null","","","test","","","","","","","","","","","","","","","","","","","",""
"null","183548","SARL_v6","SARL_v64th38ap0","5dcb685070d51c8275d7bd54","freq","","","img/orange_2bandit_b2.png","null","","70","test","0","","102","","","","circle","square","98","8","5","0.8979591836734694","","","","","","","",""
"null","183701","SARL_v6","SARL_v64th38ap0","5dcb685070d51c8275d7bd54","fixation","","","img/fixation.png","null","","","test","","","","","","","","","","","","","","","","","","","",""
"108.30000001192093","183812","SARL_v6","SARL_v64th38ap0","5dcb685070d51c8275d7bd54","freq","","","img/orange_2bandit_b2.png","70","","70","test","1","","103","","","","circle","square","99","9","5","0.898989898989899","","","","","","","",""
"null","184505","SARL_v6","SARL_v64th38ap0","5dcb685070d51c8275d7bd54","freq_resp","","","img/orange_2bandit_b.png","70","img/orange_2bandit_b.png","70","test","","","","","","","","","","","5","","","","","","","","",""
"null","184658","SARL_v6","SARL_v64th38ap0","5dcb685070d51c8275d7bd54","fixation","","","img/fixation.png","null","","","test","","","","","","","","","","","","","","","","","","","",""
"598.5","185259","SARL_v6","SARL_v64th38ap0","5dcb685070d51c8275d7bd54","freq","","","img/orange_2bandit_b2.png","70","","70","test","1","","104","","","","circle","square","100","10","5","0.9","","","","","","","",""
"null","185464","SARL_v6","SARL_v64th38ap0","5dcb685070d51c8275d7bd54","freq_resp","","","img/orange_2bandit_b.png","70","img/orange_2bandit_b.png","70","test","","","","","","","","","","","5","","","","","","","","",""
"null","185618","SARL_v6","SARL_v64th38ap0","5dcb685070d51c8275d7bd54","fixation","","","img/fixation.png","null","","","test","","","","","","","","","","","","","","","","","","","",""
"727.0999999940395","186348","SARL_v6","SARL_v64th38ap0","5dcb685070d51c8275d7bd54","freq","","","img/orange_2bandit_b2.png","70","","70","test","1","","105","","","","circle","square","101","11","5","0.900990099009901","","","","","","","",""
"null","186424","SARL_v6","SARL_v64th38ap0","5dcb685070d51c8275d7bd54","freq_resp","","","img/orange_2bandit_b.png","70","img/orange_2bandit_b.png","70","test","","","","","","","","","","","5","","","","","","","","",""
"null","186577","SARL_v6","SARL_v64th38ap0","5dcb685070d51c8275d7bd54","fixation","","","img/fixation.png","null","","","test","","","","","","","","","","","","","","","","","","","",""
"null","187381","SARL_v6","SARL_v64th38ap0","5dcb685070d51c8275d7bd54","freq","","","img/orange_2bandit_b2.png","null","","70","test","0","","106","","","","circle","square","102","12","5","0.8921568627450981","","","","","","","",""
"null","187535","SARL_v6","SARL_v64th38ap0","5dcb685070d51c8275d7bd54","fixation","","","img/fixation.png","null","","","test","","","","","","","","","","","","","","","","","","","",""
"162","187699","SARL_v6","SARL_v64th38ap0","5dcb685070d51c8275d7bd54","freq","","","img/orange_2bandit_b2.png","70","","70","test","1","","107","","","","circle","square","103","13","5","0.8932038834951457","","","","","","","",""
"null","188341","SARL_v6","SARL_v64th38ap0","5dcb685070d51c8275d7bd54","freq_resp","","","img/orange_2bandit_b.png","70","img/orange_2bandit_b.png","70","test","","","","","","","","","","","5","","","","","","","","",""
"null","188494","SARL_v6","SARL_v64th38ap0","5dcb685070d51c8275d7bd54","fixation","","","img/fixation.png","null","","","test","","","","","","","","","","","","","","","","","","","",""
"362.5","188859","SARL_v6","SARL_v64th38ap0","5dcb685070d51c8275d7bd54","freq","","","img/orange_2bandit_b2.png","70","","70","test","1","","108","","","","circle","square","104","14","5","0.8942307692307693","","","","","","","",""
"null","189299","SARL_v6","SARL_v64th38ap0","5dcb685070d51c8275d7bd54","freq_resp","","","img/orange_2bandit_b.png","70","img/orange_2bandit_b.png","70","test","","","","","","","","","","","5","","","","","","","","",""
"null","189454","SARL_v6","SARL_v64th38ap0","5dcb685070d51c8275d7bd54","fixation","","","img/fixation.png","null","","","test","","","","","","","","","","","","","","","","","","","",""
"523.1000000089407","189979","SARL_v6","SARL_v64th38ap0","5dcb685070d51c8275d7bd54","freq","","","img/orange_2bandit_b2.png","70","","70","test","1","","109","","","","circle","square","105","15","5","0.8952380952380953","","","","","","","",""
"null","190259","SARL_v6","SARL_v64th38ap0","5dcb685070d51c8275d7bd54","freq_resp","","","img/orange_2bandit_b.png","70","img/orange_2bandit_b.png","70","test","","","","","","","","","","","5","","","","","","","","",""
"null","190412","SARL_v6","SARL_v64th38ap0","5dcb685070d51c8275d7bd54","fixation","","","img/fixation.png","null","","","test","","","","","","","","","","","","","","","","","","","",""
"null","191215","SARL_v6","SARL_v64th38ap0","5dcb685070d51c8275d7bd54","freq","","","img/orange_2bandit_b2.png","null","","70","test","0","","110","","","","circle","square","106","16","5","0.8867924528301887","","","","","","","",""
"null","191369","SARL_v6","SARL_v64th38ap0","5dcb685070d51c8275d7bd54","fixation","","","img/fixation.png","null","","","test","","","","","","","","","","","","","","","","","","","",""
"487.8999999910593","191858","SARL_v6","SARL_v64th38ap0","5dcb685070d51c8275d7bd54","freq","","","img/orange_2bandit_b2.png","70","","70","test","1","","111","","","","circle","square","107","17","5","0.8878504672897196","","","","","","","",""
"null","192174","SARL_v6","SARL_v64th38ap0","5dcb685070d51c8275d7bd54","freq_resp","","","img/orange_2bandit_b.png","70","img/orange_2bandit_b.png","70","test","","","","","","","","","","","5","","","","","","","","",""
"null","192327","SARL_v6","SARL_v64th38ap0","5dcb685070d51c8275d7bd54","fixation","","","img/fixation.png","null","","","test","","","","","","","","","","","","","","","","","","","",""
"625.1000000089407","192955","SARL_v6","SARL_v64th38ap0","5dcb685070d51c8275d7bd54","freq","","","img/orange_2bandit_b2.png","70","","70","test","1","","112","","","","circle","square","108","18","5","0.8888888888888888","","","","","","","",""
"null","193132","SARL_v6","SARL_v64th38ap0","5dcb685070d51c8275d7bd54","freq_resp","","","img/orange_2bandit_b.png","70","img/orange_2bandit_b.png","70","test","","","","","","","","","","","5","","","","","","","","",""
"null","193297","SARL_v6","SARL_v64th38ap0","5dcb685070d51c8275d7bd54","fixation","","","img/fixation.png","null","","","test","","","","","","","","","","","","","","","","","","","",""
"639.2000000029802","193938","SARL_v6","SARL_v64th38ap0","5dcb685070d51c8275d7bd54","freq","","","img/orange_2bandit_b2.png","70","","70","test","1","","113","","","","circle","square","109","19","5","0.8899082568807339","","","","","","","",""
"null","194102","SARL_v6","SARL_v64th38ap0","5dcb685070d51c8275d7bd54","freq_resp","","","img/orange_2bandit_b.png","70","img/orange_2bandit_b.png","70","test","","","","","","","","","","","5","","","","","","","","",""
"null","194254","SARL_v6","SARL_v64th38ap0","5dcb685070d51c8275d7bd54","fixation","","","img/fixation.png","null","","","test","","","","","","","","","","","","","","","","","","","",""
"746.2999999970198","195003","SARL_v6","SARL_v64th38ap0","5dcb685070d51c8275d7bd54","freq","","","img/orange_2bandit_b2.png","70","","70","test","1","","114","","","","circle","square","110","20","5","0.8909090909090909","","","","","","","",""
"null","195059","SARL_v6","SARL_v64th38ap0","5dcb685070d51c8275d7bd54","freq_resp","","","img/orange_2bandit_b.png","70","img/orange_2bandit_b.png","70","test","","","","","","","","","","","5","","","","","","","","",""
"null","195213","SARL_v6","SARL_v64th38ap0","5dcb685070d51c8275d7bd54","fixation","","","img/fixation.png","null","","","test","","","","","","","","","","","","","","","","","","","",""
"659.6000000089407","195876","SARL_v6","SARL_v64th38ap0","5dcb685070d51c8275d7bd54","infreq","","","img/blue_2bandit_b2.png","68","","68","test","1","","115","","","","circle","square","111","21","5","0.8918918918918919","","","","","","","",""
"null","196019","SARL_v6","SARL_v64th38ap0","5dcb685070d51c8275d7bd54","infreq_resp","","","img/blue_2bandit_b.png","68","img/blue_2bandit_b.png","68","test","","","","","","","","","","","5","","","","","","","","",""
"null","196172","SARL_v6","SARL_v64th38ap0","5dcb685070d51c8275d7bd54","fixation","","","img/fixation.png","null","","","test","","","","","","","","","","","","","","","","","","","",""
"null","196984","SARL_v6","SARL_v64th38ap0","5dcb685070d51c8275d7bd54","infreq","","","img/blue_2bandit_b2.png","null","","68","test","0","","116","","","","circle","square","112","22","5","0.8839285714285714","","","","","","","",""
"null","197137","SARL_v6","SARL_v64th38ap0","5dcb685070d51c8275d7bd54","fixation","","","img/fixation.png","null","","","test","","","","","","","","","","","","","","","","","","","",""
"null","197940","SARL_v6","SARL_v64th38ap0","5dcb685070d51c8275d7bd54","freq","","","img/orange_2bandit_b2.png","null","","70","test","0","","117","","","","circle","square","113","23","5","0.8761061946902655","","","","","","","",""
"null","198093","SARL_v6","SARL_v64th38ap0","5dcb685070d51c8275d7bd54","fixation","","","img/fixation.png","null","","","test","","","","","","","","","","","","","","","","","","","",""
"739.1999999880791","198835","SARL_v6","SARL_v64th38ap0","5dcb685070d51c8275d7bd54","freq","","","img/orange_2bandit_b2.png","70","","70","test","1","","118","","","","circle","square","114","24","5","0.8771929824561403","","","","","","","",""
"null","198898","SARL_v6","SARL_v64th38ap0","5dcb685070d51c8275d7bd54","freq_resp","","","img/orange_2bandit_b.png","70","img/orange_2bandit_b.png","70","test","","","","","","","","","","","5","","","","","","","","",""
"null","199051","SARL_v6","SARL_v64th38ap0","5dcb685070d51c8275d7bd54","fixation","","","img/fixation.png","null","","","test","","","","","","","","","","","","","","","","","","","",""
"1077.7999999970198","200132","SARL_v6","SARL_v64th38ap0","5dcb685070d51c8275d7bd54","rl","","","img/black_2bandit_b2.png","74","","0","test","","","119","","","4","circle","square","","0","5","","74","4","-7","4","-7","circle","5","0"
"null","200887","SARL_v6","SARL_v64th38ap0","5dcb685070d51c8275d7bd54","feedback","","","<div class=""veryhighPoints""> 4 </div>","null","","na","test","","","NaN","","","","","","","","5","","74","","","","","","5",""
"674","201564","SARL_v6","SARL_v64th38ap0","5dcb685070d51c8275d7bd54","freq","","","img/orange_2bandit_b2.png","70","","70","test","1","","120","","","","circle","square","115","1","6","0.8782608695652174","","","","","","","",""
"null","201693","SARL_v6","SARL_v64th38ap0","5dcb685070d51c8275d7bd54","freq_resp","","","img/orange_2bandit_b.png","70","img/orange_2bandit_b.png","70","test","","","","","","","","","","","6","","","","","","","","",""
"null","201845","SARL_v6","SARL_v64th38ap0","5dcb685070d51c8275d7bd54","fixation","","","img/fixation.png","null","","","test","","","","","","","","","","","","","","","","","","","",""
"null","202648","SARL_v6","SARL_v64th38ap0","5dcb685070d51c8275d7bd54","freq","","","img/orange_2bandit_b2.png","null","","70","test","0","","121","","","","circle","square","116","2","6","0.8706896551724138","","","","","","","",""
"null","202802","SARL_v6","SARL_v64th38ap0","5dcb685070d51c8275d7bd54","fixation","","","img/fixation.png","null","","","test","","","","","","","","","","","","","","","","","","","",""
"694.4000000059605","203500","SARL_v6","SARL_v64th38ap0","5dcb685070d51c8275d7bd54","freq","","","img/orange_2bandit_b2.png","70","","70","test","1","","122","","","","circle","square","117","3","6","0.8717948717948718","","","","","","","",""
"null","203608","SARL_v6","SARL_v64th38ap0","5dcb685070d51c8275d7bd54","freq_resp","","","img/orange_2bandit_b.png","70","img/orange_2bandit_b.png","70","test","","","","","","","","","","","6","","","","","","","","",""
"null","203768","SARL_v6","SARL_v64th38ap0","5dcb685070d51c8275d7bd54","fixation","","","img/fixation.png","null","","","test","","","","","","","","","","","","","","","","","","","",""
"512.4000000059605","204284","SARL_v6","SARL_v64th38ap0","5dcb685070d51c8275d7bd54","infreq","","","img/blue_2bandit_b2.png","68","","68","test","1","","123","","","","circle","square","118","4","6","0.8728813559322034","","","","","","","",""
"null","204575","SARL_v6","SARL_v64th38ap0","5dcb685070d51c8275d7bd54","infreq_resp","","","img/blue_2bandit_b.png","68","img/blue_2bandit_b.png","68","test","","","","","","","","","","","6","","","","","","","","",""
"null","204729","SARL_v6","SARL_v64th38ap0","5dcb685070d51c8275d7bd54","fixation","","","img/fixation.png","null","","","test","","","","","","","","","","","","","","","","","","","",""
"631.2999999970198","205362","SARL_v6","SARL_v64th38ap0","5dcb685070d51c8275d7bd54","freq","","","img/orange_2bandit_b2.png","68","","70","test","0","","124","","","","circle","square","119","5","6","0.865546218487395","","","","","","","",""
"null","205535","SARL_v6","SARL_v64th38ap0","5dcb685070d51c8275d7bd54","freq_resp","","","img/orange_2bandit_b.png","68","img/orange_2bandit_b.png","70","test","","","","","","","","","","","6","","","","","","","","",""
"null","205688","SARL_v6","SARL_v64th38ap0","5dcb685070d51c8275d7bd54","fixation","","","img/fixation.png","null","","","test","","","","","","","","","","","","","","","","","","","",""
"440.79999999701977","206131","SARL_v6","SARL_v64th38ap0","5dcb685070d51c8275d7bd54","freq","","","img/orange_2bandit_b2.png","70","","70","test","1","","125","","","","circle","square","120","6","6","0.8666666666666667","","","","","","","",""
"null","206494","SARL_v6","SARL_v64th38ap0","5dcb685070d51c8275d7bd54","freq_resp","","","img/orange_2bandit_b.png","70","img/orange_2bandit_b.png","70","test","","","","","","","","","","","6","","","","","","","","",""
"null","206647","SARL_v6","SARL_v64th38ap0","5dcb685070d51c8275d7bd54","fixation","","","img/fixation.png","null","","","test","","","","","","","","","","","","","","","","","","","",""
"377.59999999403954","207027","SARL_v6","SARL_v64th38ap0","5dcb685070d51c8275d7bd54","freq","","","img/orange_2bandit_b2.png","70","","70","test","1","","126","","","","circle","square","121","7","6","0.8677685950413223","","","","","","","",""
"null","207453","SARL_v6","SARL_v64th38ap0","5dcb685070d51c8275d7bd54","freq_resp","","","img/orange_2bandit_b.png","70","img/orange_2bandit_b.png","70","test","","","","","","","","","","","6","","","","","","","","",""
"null","207606","SARL_v6","SARL_v64th38ap0","5dcb685070d51c8275d7bd54","fixation","","","img/fixation.png","null","","","test","","","","","","","","","","","","","","","","","","","",""
"354","207962","SARL_v6","SARL_v64th38ap0","5dcb685070d51c8275d7bd54","freq","","","img/orange_2bandit_b2.png","70","","70","test","1","","127","","","","circle","square","122","8","6","0.8688524590163934","","","","","","","",""
"null","208412","SARL_v6","SARL_v64th38ap0","5dcb685070d51c8275d7bd54","freq_resp","","","img/orange_2bandit_b.png","70","img/orange_2bandit_b.png","70","test","","","","","","","","","","","6","","","","","","","","",""
"null","208566","SARL_v6","SARL_v64th38ap0","5dcb685070d51c8275d7bd54","fixation","","","img/fixation.png","null","","","test","","","","","","","","","","","","","","","","","","","",""
"273.70000000298023","208843","SARL_v6","SARL_v64th38ap0","5dcb685070d51c8275d7bd54","infreq","","","img/blue_2bandit_b2.png","70","","68","test","0","","128","","","","circle","square","123","9","6","0.8617886178861789","","","","","","","",""
"null","209371","SARL_v6","SARL_v64th38ap0","5dcb685070d51c8275d7bd54","infreq_resp","","","img/blue_2bandit_b.png","70","img/blue_2bandit_b.png","68","test","","","","","","","","","","","6","","","","","","","","",""
"null","209525","SARL_v6","SARL_v64th38ap0","5dcb685070d51c8275d7bd54","fixation","","","img/fixation.png","null","","","test","","","","","","","","","","","","","","","","","","","",""
"467.6000000089407","209994","SARL_v6","SARL_v64th38ap0","5dcb685070d51c8275d7bd54","freq","","","img/orange_2bandit_b2.png","70","","70","test","1","","129","","","","circle","square","124","10","6","0.8629032258064516","","","","","","","",""
"null","210329","SARL_v6","SARL_v64th38ap0","5dcb685070d51c8275d7bd54","freq_resp","","","img/orange_2bandit_b.png","70","img/orange_2bandit_b.png","70","test","","","","","","","","","","","6","","","","","","","","",""
"null","210482","SARL_v6","SARL_v64th38ap0","5dcb685070d51c8275d7bd54","fixation","","","img/fixation.png","null","","","test","","","","","","","","","","","","","","","","","","","",""
"453.6000000089407","210939","SARL_v6","SARL_v64th38ap0","5dcb685070d51c8275d7bd54","freq","","","img/orange_2bandit_b2.png","70","","70","test","1","","130","","","","circle","square","125","11","6","0.864","","","","","","","",""
"null","211289","SARL_v6","SARL_v64th38ap0","5dcb685070d51c8275d7bd54","freq_resp","","","img/orange_2bandit_b.png","70","img/orange_2bandit_b.png","70","test","","","","","","","","","","","6","","","","","","","","",""
"null","211442","SARL_v6","SARL_v64th38ap0","5dcb685070d51c8275d7bd54","fixation","","","img/fixation.png","null","","","test","","","","","","","","","","","","","","","","","","","",""
"382.79999999701977","211827","SARL_v6","SARL_v64th38ap0","5dcb685070d51c8275d7bd54","freq","","","img/orange_2bandit_b2.png","70","","70","test","1","","131","","","","circle","square","126","12","6","0.8650793650793651","","","","","","","",""
"null","212248","SARL_v6","SARL_v64th38ap0","5dcb685070d51c8275d7bd54","freq_resp","","","img/orange_2bandit_b.png","70","img/orange_2bandit_b.png","70","test","","","","","","","","","","","6","","","","","","","","",""
"null","212403","SARL_v6","SARL_v64th38ap0","5dcb685070d51c8275d7bd54","fixation","","","img/fixation.png","null","","","test","","","","","","","","","","","","","","","","","","","",""
"349.5","212755","SARL_v6","SARL_v64th38ap0","5dcb685070d51c8275d7bd54","freq","","","img/orange_2bandit_b2.png","70","","70","test","1","","132","","","","circle","square","127","13","6","0.8661417322834646","","","","","","","",""
"null","213207","SARL_v6","SARL_v64th38ap0","5dcb685070d51c8275d7bd54","freq_resp","","","img/orange_2bandit_b.png","70","img/orange_2bandit_b.png","70","test","","","","","","","","","","","6","","","","","","","","",""
"null","213361","SARL_v6","SARL_v64th38ap0","5dcb685070d51c8275d7bd54","fixation","","","img/fixation.png","null","","","test","","","","","","","","","","","","","","","","","","","",""
"568.2999999970198","213932","SARL_v6","SARL_v64th38ap0","5dcb685070d51c8275d7bd54","freq","","","img/orange_2bandit_b2.png","70","","70","test","1","","133","","","","circle","square","128","14","6","0.8671875","","","","","","","",""
"null","214167","SARL_v6","SARL_v64th38ap0","5dcb685070d51c8275d7bd54","freq_resp","","","img/orange_2bandit_b.png","70","img/orange_2bandit_b.png","70","test","","","","","","","","","","","6","","","","","","","","",""
"null","214320","SARL_v6","SARL_v64th38ap0","5dcb685070d51c8275d7bd54","fixation","","","img/fixation.png","null","","","test","","","","","","","","","","","","","","","","","","","",""
