"rt","time_elapsed","expId","subject","prolificID","trialType","rlType","attType","stimulus","key_press","stim","corrresp","phase","corr","pracCounter","trialNum","rewardOne","rewardTwo","reward","bandOne","bandTwo","attentionNum","attentionRunNum","blockNum","performance","bandChosen","circleVal","squareVal","bandOneVal","bandTwoVal","shapeChosen","rlNum","badFlag"
"2470.0999999046326","2474","SARL_v6","SARL_v6wxc86p4j","60c12fe6ca8c4aa6d0185190","","","","","","","","","","","","","","","","","","","","","","","","","","","",""
"","4302","SARL_v6","SARL_v6wxc86p4j","60c12fe6ca8c4aa6d0185190","fullscreen","fullscreen","fullscreen","","","","","","","","","","","","","","","","","","","","","","","","",""
"14530.600000023842","18835","SARL_v6","SARL_v6wxc86p4j","60c12fe6ca8c4aa6d0185190","","","","","","","","","","","","","","","","","","","","","","","","","","","",""
"652.5","19490","SARL_v6","SARL_v6wxc86p4j","60c12fe6ca8c4aa6d0185190","freqPrac","","","img/blue_2bandit_b2.png","70","img/blue_2bandit_b2.png","70","prac","1","0","","","","","","","","","","","","","","","","","",""
"652.5","19645","SARL_v6","SARL_v6wxc86p4j","60c12fe6ca8c4aa6d0185190","freqPrac_resp","","","img/blue_2bandit_b.png","70","img/blue_2bandit_b.png","70","prac","","","","","","","","","","","","","","","","","","","",""
"null","19801","SARL_v6","SARL_v6wxc86p4j","60c12fe6ca8c4aa6d0185190","fixation","","","img/fixation.png","null","","","prac","","","","","","","","","","","","","","","","","","","",""
"569","20372","SARL_v6","SARL_v6wxc86p4j","60c12fe6ca8c4aa6d0185190","infreqPrac","","","img/orange_2bandit_b2.png","68","img/orange_2bandit_b2.png","68","prac","1","0","","","","","","","","","","","","","","","","","",""
"569","20615","SARL_v6","SARL_v6wxc86p4j","60c12fe6ca8c4aa6d0185190","infreqPrac_resp","","","img/orange_2bandit_b.png","68","img/orange_2bandit_b.png","68","prac","","","","","","","","","","","","","","","","","","","",""
"null","20772","SARL_v6","SARL_v6wxc86p4j","60c12fe6ca8c4aa6d0185190","fixation","","","img/fixation.png","null","","","prac","","","","","","","","","","","","","","","","","","","",""
"562.5999999046326","21336","SARL_v6","SARL_v6wxc86p4j","60c12fe6ca8c4aa6d0185190","freqPrac","","","img/blue_2bandit_b2.png","70","img/blue_2bandit_b2.png","70","prac","1","0","","","","","","","","","","","","","","","","","",""
"562.5999999046326","21589","SARL_v6","SARL_v6wxc86p4j","60c12fe6ca8c4aa6d0185190","freqPrac_resp","","","img/blue_2bandit_b.png","70","img/blue_2bandit_b.png","70","prac","","","","","","","","","","","","","","","","","","","",""
"null","21746","SARL_v6","SARL_v6wxc86p4j","60c12fe6ca8c4aa6d0185190","fixation","","","img/fixation.png","null","","","prac","","","","","","","","","","","","","","","","","","","",""
"676.8999999761581","22425","SARL_v6","SARL_v6wxc86p4j","60c12fe6ca8c4aa6d0185190","infreqPrac","","","img/orange_2bandit_b2.png","68","img/orange_2bandit_b2.png","68","prac","1","0","","","","","","","","","","","","","","","","","",""
"676.8999999761581","22565","SARL_v6","SARL_v6wxc86p4j","60c12fe6ca8c4aa6d0185190","infreqPrac_resp","","","img/orange_2bandit_b.png","68","img/orange_2bandit_b.png","68","prac","","","","","","","","","","","","","","","","","","","",""
"null","22722","SARL_v6","SARL_v6wxc86p4j","60c12fe6ca8c4aa6d0185190","fixation","","","img/fixation.png","null","","","prac","","","","","","","","","","","","","","","","","","","",""
"527.7999999523163","23251","SARL_v6","SARL_v6wxc86p4j","60c12fe6ca8c4aa6d0185190","infreqPrac","","","img/orange_2bandit_b2.png","68","img/orange_2bandit_b2.png","68","prac","1","0","","","","","","","","","","","","","","","","","",""
"527.7999999523163","23540","SARL_v6","SARL_v6wxc86p4j","60c12fe6ca8c4aa6d0185190","infreqPrac_resp","","","img/orange_2bandit_b.png","68","img/orange_2bandit_b.png","68","prac","","","","","","","","","","","","","","","","","","","",""
"null","23693","SARL_v6","SARL_v6wxc86p4j","60c12fe6ca8c4aa6d0185190","fixation","","","img/fixation.png","null","","","prac","","","","","","","","","","","","","","","","","","","",""
"566.3999999761581","24262","SARL_v6","SARL_v6wxc86p4j","60c12fe6ca8c4aa6d0185190","infreqPrac","","","img/orange_2bandit_b2.png","68","img/orange_2bandit_b2.png","68","prac","1","0","","","","","","","","","","","","","","","","","",""
"566.3999999761581","24499","SARL_v6","SARL_v6wxc86p4j","60c12fe6ca8c4aa6d0185190","infreqPrac_resp","","","img/orange_2bandit_b.png","68","img/orange_2bandit_b.png","68","prac","","","","","","","","","","","","","","","","","","","",""
"null","24657","SARL_v6","SARL_v6wxc86p4j","60c12fe6ca8c4aa6d0185190","fixation","","","img/fixation.png","null","","","prac","","","","","","","","","","","","","","","","","","","",""
"536.0999999046326","25195","SARL_v6","SARL_v6wxc86p4j","60c12fe6ca8c4aa6d0185190","freqPrac","","","img/blue_2bandit_b2.png","70","img/blue_2bandit_b2.png","70","prac","1","0","","","","","","","","","","","","","","","","","",""
"536.0999999046326","25472","SARL_v6","SARL_v6wxc86p4j","60c12fe6ca8c4aa6d0185190","freqPrac_resp","","","img/blue_2bandit_b.png","70","img/blue_2bandit_b.png","70","prac","","","","","","","","","","","","","","","","","","","",""
"null","25628","SARL_v6","SARL_v6wxc86p4j","60c12fe6ca8c4aa6d0185190","fixation","","","img/fixation.png","null","","","prac","","","","","","","","","","","","","","","","","","","",""
"726.7000000476837","26356","SARL_v6","SARL_v6wxc86p4j","60c12fe6ca8c4aa6d0185190","infreqPrac","","","img/orange_2bandit_b2.png","68","img/orange_2bandit_b2.png","68","prac","1","0","","","","","","","","","","","","","","","","","",""
"726.7000000476837","26440","SARL_v6","SARL_v6wxc86p4j","60c12fe6ca8c4aa6d0185190","infreqPrac_resp","","","img/orange_2bandit_b.png","68","img/orange_2bandit_b.png","68","prac","","","","","","","","","","","","","","","","","","","",""
"null","26597","SARL_v6","SARL_v6wxc86p4j","60c12fe6ca8c4aa6d0185190","fixation","","","img/fixation.png","null","","","prac","","","","","","","","","","","","","","","","","","","",""
"527.5999999046326","27126","SARL_v6","SARL_v6wxc86p4j","60c12fe6ca8c4aa6d0185190","freqPrac","","","img/blue_2bandit_b2.png","70","img/blue_2bandit_b2.png","70","prac","1","0","","","","","","","","","","","","","","","","","",""
"527.5999999046326","27416","SARL_v6","SARL_v6wxc86p4j","60c12fe6ca8c4aa6d0185190","freqPrac_resp","","","img/blue_2bandit_b.png","70","img/blue_2bandit_b.png","70","prac","","","","","","","","","","","","","","","","","","","",""
"null","27573","SARL_v6","SARL_v6wxc86p4j","60c12fe6ca8c4aa6d0185190","fixation","","","img/fixation.png","null","","","prac","","","","","","","","","","","","","","","","","","","",""
"623.3999999761581","28199","SARL_v6","SARL_v6wxc86p4j","60c12fe6ca8c4aa6d0185190","freqPrac","","","img/blue_2bandit_b2.png","70","img/blue_2bandit_b2.png","70","prac","1","0","","","","","","","","","","","","","","","","","",""
"623.3999999761581","28389","SARL_v6","SARL_v6wxc86p4j","60c12fe6ca8c4aa6d0185190","freqPrac_resp","","","img/blue_2bandit_b.png","70","img/blue_2bandit_b.png","70","prac","","","","","","","","","","","","","","","","","","","",""
"null","28545","SARL_v6","SARL_v6wxc86p4j","60c12fe6ca8c4aa6d0185190","fixation","","","img/fixation.png","null","","","prac","","","","","","","","","","","","","","","","","","","",""
"18686","47233","SARL_v6","SARL_v6wxc86p4j","60c12fe6ca8c4aa6d0185190","","","","","","","","prac","","","","","","","","","","","","","","","","","","","",""
"602.7999999523163","47838","SARL_v6","SARL_v6wxc86p4j","60c12fe6ca8c4aa6d0185190","rlPractice","","","img/black_2bandit_b2.png","74","img/black_2bandit_b2.png","","prac","","","0","","","","","","","","","","","","","","","","",""
"null","48594","SARL_v6","SARL_v6wxc86p4j","60c12fe6ca8c4aa6d0185190","feedback","","","<div class=""veryhighPoints""> 10 </div>","null","","na","prac","","","1","10","-14","10","","","","","","","","","","","","","",""
"null","48751","SARL_v6","SARL_v6wxc86p4j","60c12fe6ca8c4aa6d0185190","fixation","","","img/fixation.png","null","","","prac","","","","","","","","","","","","","","","","","","","",""
"518.5","49271","SARL_v6","SARL_v6wxc86p4j","60c12fe6ca8c4aa6d0185190","rlPractice","","","img/black_2bandit_b2.png","75","img/black_2bandit_b2.png","","prac","","","1","","","","","","","","","","","","","","","","",""
"null","50038","SARL_v6","SARL_v6wxc86p4j","60c12fe6ca8c4aa6d0185190","feedback","","","<div class=""verylowPoints_sq""> -5 </div>","null","","na","prac","","","2","5","-5","5","","","","","","","","","","","","","",""
"null","50195","SARL_v6","SARL_v6wxc86p4j","60c12fe6ca8c4aa6d0185190","fixation","","","img/fixation.png","null","","","prac","","","","","","","","","","","","","","","","","","","",""
"413","50610","SARL_v6","SARL_v6wxc86p4j","60c12fe6ca8c4aa6d0185190","rlPractice","","","img/black_2bandit_b2.png","74","img/black_2bandit_b2.png","","prac","","","2","","","","","","","","","","","","","","","","",""
"null","51373","SARL_v6","SARL_v6wxc86p4j","60c12fe6ca8c4aa6d0185190","feedback","","","<div class=""veryhighPoints""> 30 </div>","null","","na","prac","","","3","30","2","30","","","","","","","","","","","","","",""
"null","51531","SARL_v6","SARL_v6wxc86p4j","60c12fe6ca8c4aa6d0185190","fixation","","","img/fixation.png","null","","","prac","","","","","","","","","","","","","","","","","","","",""
"413.60000002384186","51946","SARL_v6","SARL_v6wxc86p4j","60c12fe6ca8c4aa6d0185190","rlPractice","","","img/black_2bandit_b2.png","74","img/black_2bandit_b2.png","","prac","","","3","","","","","","","","","","","","","","","","",""
"null","52706","SARL_v6","SARL_v6wxc86p4j","60c12fe6ca8c4aa6d0185190","feedback","","","<div class=""verylowPoints""> -2 </div>","null","","na","prac","","","4","-2","20","-2","","","","","","","","","","","","","",""
"null","52863","SARL_v6","SARL_v6wxc86p4j","60c12fe6ca8c4aa6d0185190","fixation","","","img/fixation.png","null","","","prac","","","","","","","","","","","","","","","","","","","",""
"4199.800000071526","57064","SARL_v6","SARL_v6wxc86p4j","60c12fe6ca8c4aa6d0185190","","","","","","","","prac","","","","","","","","","","","","","","","","","","","",""
"714.7999999523163","57781","SARL_v6","SARL_v6wxc86p4j","60c12fe6ca8c4aa6d0185190","mixAttFreqPrac","","","img/blue_2bandit_b2.png","70","img/blue_2bandit_b2.png","70","prac","","","1","","","","","","","","","","","","","","","","",""
"714.7999999523163","57876","SARL_v6","SARL_v6wxc86p4j","60c12fe6ca8c4aa6d0185190","freqPrac_resp","","","img/blue_2bandit_b.png","70","img/blue_2bandit_b.png","70","prac","","","1","","","","","","","","","","","","","","","","",""
"null","58033","SARL_v6","SARL_v6wxc86p4j","60c12fe6ca8c4aa6d0185190","fixation","","","img/fixation.png","null","","","prac","","","","","","","","","","","","","","","","","","","",""
"691.5999999046326","58727","SARL_v6","SARL_v6wxc86p4j","60c12fe6ca8c4aa6d0185190","mixAttInfreqPrac","","","img/orange_2bandit_b2.png","68","img/orange_2bandit_b2.png","68","prac","","","2","","","","","","","","","","","","","","","","",""
"691.5999999046326","58850","SARL_v6","SARL_v6wxc86p4j","60c12fe6ca8c4aa6d0185190","infreqPrac_resp","","","img/orange_2bandit_b.png","68","img/blue_2bandit_b.png","68","prac","","","2","","","","","","","","","","","","","","","","",""
"null","59007","SARL_v6","SARL_v6wxc86p4j","60c12fe6ca8c4aa6d0185190","fixation","","","img/fixation.png","null","","","prac","","","","","","","","","","","","","","","","","","","",""
"706.3999999761581","59715","SARL_v6","SARL_v6wxc86p4j","60c12fe6ca8c4aa6d0185190","mixAttInfreqPrac","","","img/orange_2bandit_b2.png","68","img/orange_2bandit_b2.png","68","prac","","","3","","","","","","","","","","","","","","","","",""
"706.3999999761581","59820","SARL_v6","SARL_v6wxc86p4j","60c12fe6ca8c4aa6d0185190","infreqPrac_resp","","","img/orange_2bandit_b.png","68","img/blue_2bandit_b.png","68","prac","","","3","","","","","","","","","","","","","","","","",""
"null","59975","SARL_v6","SARL_v6wxc86p4j","60c12fe6ca8c4aa6d0185190","fixation","","","img/fixation.png","null","","","prac","","","","","","","","","","","","","","","","","","","",""
"654.5","60632","SARL_v6","SARL_v6wxc86p4j","60c12fe6ca8c4aa6d0185190","mixAttInfreqPrac","","","img/orange_2bandit_b2.png","68","img/orange_2bandit_b2.png","68","prac","","","4","","","","","","","","","","","","","","","","",""
"654.5","60787","SARL_v6","SARL_v6wxc86p4j","60c12fe6ca8c4aa6d0185190","infreqPrac_resp","","","img/orange_2bandit_b.png","68","img/blue_2bandit_b.png","68","prac","","","4","","","","","","","","","","","","","","","","",""
"null","60944","SARL_v6","SARL_v6wxc86p4j","60c12fe6ca8c4aa6d0185190","fixation","","","img/fixation.png","null","","","prac","","","","","","","","","","","","","","","","","","","",""
"596.1000000238419","61542","SARL_v6","SARL_v6wxc86p4j","60c12fe6ca8c4aa6d0185190","mixAttFreqPrac","","","img/blue_2bandit_b2.png","70","img/blue_2bandit_b2.png","70","prac","","","5","","","","","","","","","","","","","","","","",""
"596.1000000238419","61757","SARL_v6","SARL_v6wxc86p4j","60c12fe6ca8c4aa6d0185190","freqPrac_resp","","","img/blue_2bandit_b.png","70","img/blue_2bandit_b.png","70","prac","","","5","","","","","","","","","","","","","","","","",""
"null","61910","SARL_v6","SARL_v6wxc86p4j","60c12fe6ca8c4aa6d0185190","fixation","","","img/fixation.png","null","","","prac","","","","","","","","","","","","","","","","","","","",""
"750.8000000715256","62663","SARL_v6","SARL_v6wxc86p4j","60c12fe6ca8c4aa6d0185190","mixRLPractice","","","img/black_2bandit_b2.png","74","img/black_2bandit_b2.png","","prac","","","5","","","","","","","","","","","","","","","","",""
"null","63416","SARL_v6","SARL_v6wxc86p4j","60c12fe6ca8c4aa6d0185190","feedback","","","<div class=""verylowPoints""> -14 </div>","null","","na","prac","","","6","-14","10","-14","","","","","","","","","","","","","",""
"null","63572","SARL_v6","SARL_v6wxc86p4j","60c12fe6ca8c4aa6d0185190","fixation","","","img/fixation.png","null","","","prac","","","","","","","","","","","","","","","","","","","",""
"719.1000000238419","64293","SARL_v6","SARL_v6wxc86p4j","60c12fe6ca8c4aa6d0185190","mixAttFreqPrac","","","img/blue_2bandit_b2.png","70","img/blue_2bandit_b2.png","70","prac","","","7","","","","","","","","","","","","","","","","",""
"719.1000000238419","64385","SARL_v6","SARL_v6wxc86p4j","60c12fe6ca8c4aa6d0185190","freqPrac_resp","","","img/blue_2bandit_b.png","70","img/blue_2bandit_b.png","70","prac","","","7","","","","","","","","","","","","","","","","",""
"null","64539","SARL_v6","SARL_v6wxc86p4j","60c12fe6ca8c4aa6d0185190","fixation","","","img/fixation.png","null","","","prac","","","","","","","","","","","","","","","","","","","",""
"554.8999999761581","65096","SARL_v6","SARL_v6wxc86p4j","60c12fe6ca8c4aa6d0185190","mixAttInfreqPrac","","","img/orange_2bandit_b2.png","68","img/orange_2bandit_b2.png","68","prac","","","8","","","","","","","","","","","","","","","","",""
"554.8999999761581","65357","SARL_v6","SARL_v6wxc86p4j","60c12fe6ca8c4aa6d0185190","infreqPrac_resp","","","img/orange_2bandit_b.png","68","img/blue_2bandit_b.png","68","prac","","","8","","","","","","","","","","","","","","","","",""
"null","65515","SARL_v6","SARL_v6wxc86p4j","60c12fe6ca8c4aa6d0185190","fixation","","","img/fixation.png","null","","","prac","","","","","","","","","","","","","","","","","","","",""
"640.0999999046326","66157","SARL_v6","SARL_v6wxc86p4j","60c12fe6ca8c4aa6d0185190","mixAttFreqPrac","","","img/blue_2bandit_b2.png","70","img/blue_2bandit_b2.png","70","prac","","","9","","","","","","","","","","","","","","","","",""
"640.0999999046326","66326","SARL_v6","SARL_v6wxc86p4j","60c12fe6ca8c4aa6d0185190","freqPrac_resp","","","img/blue_2bandit_b.png","70","img/blue_2bandit_b.png","70","prac","","","9","","","","","","","","","","","","","","","","",""
"null","66482","SARL_v6","SARL_v6wxc86p4j","60c12fe6ca8c4aa6d0185190","fixation","","","img/fixation.png","null","","","prac","","","","","","","","","","","","","","","","","","","",""
"703.5","67188","SARL_v6","SARL_v6wxc86p4j","60c12fe6ca8c4aa6d0185190","mixAttFreqPrac","","","img/blue_2bandit_b2.png","70","img/blue_2bandit_b2.png","70","prac","","","10","","","","","","","","","","","","","","","","",""
"703.5","67294","SARL_v6","SARL_v6wxc86p4j","60c12fe6ca8c4aa6d0185190","freqPrac_resp","","","img/blue_2bandit_b.png","70","img/blue_2bandit_b.png","70","prac","","","10","","","","","","","","","","","","","","","","",""
"null","67449","SARL_v6","SARL_v6wxc86p4j","60c12fe6ca8c4aa6d0185190","fixation","","","img/fixation.png","null","","","prac","","","","","","","","","","","","","","","","","","","",""
"587","68038","SARL_v6","SARL_v6wxc86p4j","60c12fe6ca8c4aa6d0185190","mixAttInfreqPrac","","","img/orange_2bandit_b2.png","68","img/orange_2bandit_b2.png","68","prac","","","11","","","","","","","","","","","","","","","","",""
"587","68266","SARL_v6","SARL_v6wxc86p4j","60c12fe6ca8c4aa6d0185190","infreqPrac_resp","","","img/orange_2bandit_b.png","68","img/blue_2bandit_b.png","68","prac","","","11","","","","","","","","","","","","","","","","",""
"null","68419","SARL_v6","SARL_v6wxc86p4j","60c12fe6ca8c4aa6d0185190","fixation","","","img/fixation.png","null","","","prac","","","","","","","","","","","","","","","","","","","",""
"826.8999999761581","69248","SARL_v6","SARL_v6wxc86p4j","60c12fe6ca8c4aa6d0185190","mixRLPractice","","","img/black_2bandit_b2.png","75","img/black_2bandit_b2.png","","prac","","","11","","","","","","","","","","","","","","","","",""
"null","70007","SARL_v6","SARL_v6wxc86p4j","60c12fe6ca8c4aa6d0185190","feedback","","","<div class=""verylowPoints_sq""> -5 </div>","null","","na","prac","","","12","5","-5","5","","","","","","","","","","","","","",""
"null","70164","SARL_v6","SARL_v6wxc86p4j","60c12fe6ca8c4aa6d0185190","fixation","","","img/fixation.png","null","","","prac","","","","","","","","","","","","","","","","","","","",""
"4034.2000000476837","74200","SARL_v6","SARL_v6wxc86p4j","60c12fe6ca8c4aa6d0185190","","","","","","","","prac","","","","","","","","","","","","","","","","","","","",""
"611.1000000238419","74813","SARL_v6","SARL_v6wxc86p4j","60c12fe6ca8c4aa6d0185190","freq","","","img/blue_2bandit_b2.png","70","","70","test","1","","1","","","","circle","square","1","1","1","1","","","","","","","",""
"null","75014","SARL_v6","SARL_v6wxc86p4j","60c12fe6ca8c4aa6d0185190","freq_resp","","","img/blue_2bandit_b.png","70","img/blue_2bandit_b.png","70","test","","","","","","","","","","","1","","","","","","","","",""
"null","75172","SARL_v6","SARL_v6wxc86p4j","60c12fe6ca8c4aa6d0185190","fixation","","","img/fixation.png","null","","","test","","","","","","","","","","","","","","","","","","","",""
"734.8999999761581","75909","SARL_v6","SARL_v6wxc86p4j","60c12fe6ca8c4aa6d0185190","freq","","","img/blue_2bandit_b2.png","70","","70","test","1","","2","","","","circle","square","2","2","1","1","","","","","","","",""
"null","75986","SARL_v6","SARL_v6wxc86p4j","60c12fe6ca8c4aa6d0185190","freq_resp","","","img/blue_2bandit_b.png","70","img/blue_2bandit_b.png","70","test","","","","","","","","","","","1","","","","","","","","",""
"null","76143","SARL_v6","SARL_v6wxc86p4j","60c12fe6ca8c4aa6d0185190","fixation","","","img/fixation.png","null","","","test","","","","","","","","","","","","","","","","","","","",""
"764","76908","SARL_v6","SARL_v6wxc86p4j","60c12fe6ca8c4aa6d0185190","freq","","","img/blue_2bandit_b2.png","70","","70","test","1","","3","","","","circle","square","3","3","1","1","","","","","","","",""
"null","76947","SARL_v6","SARL_v6wxc86p4j","60c12fe6ca8c4aa6d0185190","freq_resp","","","img/blue_2bandit_b.png","70","img/blue_2bandit_b.png","70","test","","","","","","","","","","","1","","","","","","","","",""
"null","77115","SARL_v6","SARL_v6wxc86p4j","60c12fe6ca8c4aa6d0185190","fixation","","","img/fixation.png","null","","","test","","","","","","","","","","","","","","","","","","","",""
"null","77930","SARL_v6","SARL_v6wxc86p4j","60c12fe6ca8c4aa6d0185190","freq","","","img/blue_2bandit_b2.png","null","","70","test","0","","4","","","","circle","square","4","4","1","0.75","","","","","","","",""
"null","78082","SARL_v6","SARL_v6wxc86p4j","60c12fe6ca8c4aa6d0185190","fixation","","","img/fixation.png","null","","","test","","","","","","","","","","","","","","","","","","","",""
"null","78887","SARL_v6","SARL_v6wxc86p4j","60c12fe6ca8c4aa6d0185190","freq","","","img/blue_2bandit_b2.png","null","","70","test","0","","5","","","","circle","square","5","5","1","0.6","","","","","","","",""
"null","79045","SARL_v6","SARL_v6wxc86p4j","60c12fe6ca8c4aa6d0185190","fixation","","","img/fixation.png","null","","","test","","","","","","","","","","","","","","","","","","","",""
"86.80000007152557","79134","SARL_v6","SARL_v6wxc86p4j","60c12fe6ca8c4aa6d0185190","freq","","","img/blue_2bandit_b2.png","70","","70","test","1","","6","","","","circle","square","6","6","1","0.6666666666666666","","","","","","","",""
"null","79861","SARL_v6","SARL_v6wxc86p4j","60c12fe6ca8c4aa6d0185190","freq_resp","","","img/blue_2bandit_b.png","70","img/blue_2bandit_b.png","70","test","","","","","","","","","","","1","","","","","","","","",""
"null","80017","SARL_v6","SARL_v6wxc86p4j","60c12fe6ca8c4aa6d0185190","fixation","","","img/fixation.png","null","","","test","","","","","","","","","","","","","","","","","","","",""
"626.8000000715256","80646","SARL_v6","SARL_v6wxc86p4j","60c12fe6ca8c4aa6d0185190","freq","","","img/blue_2bandit_b2.png","70","","70","test","1","","7","","","","circle","square","7","7","1","0.7142857142857143","","","","","","","",""
"null","80833","SARL_v6","SARL_v6wxc86p4j","60c12fe6ca8c4aa6d0185190","freq_resp","","","img/blue_2bandit_b.png","70","img/blue_2bandit_b.png","70","test","","","","","","","","","","","1","","","","","","","","",""
"null","80989","SARL_v6","SARL_v6wxc86p4j","60c12fe6ca8c4aa6d0185190","fixation","","","img/fixation.png","null","","","test","","","","","","","","","","","","","","","","","","","",""
"545.1000000238419","81535","SARL_v6","SARL_v6wxc86p4j","60c12fe6ca8c4aa6d0185190","freq","","","img/blue_2bandit_b2.png","70","","70","test","1","","8","","","","circle","square","8","8","1","0.75","","","","","","","",""
"null","81801","SARL_v6","SARL_v6wxc86p4j","60c12fe6ca8c4aa6d0185190","freq_resp","","","img/blue_2bandit_b.png","70","img/blue_2bandit_b.png","70","test","","","","","","","","","","","1","","","","","","","","",""
"null","81957","SARL_v6","SARL_v6wxc86p4j","60c12fe6ca8c4aa6d0185190","fixation","","","img/fixation.png","null","","","test","","","","","","","","","","","","","","","","","","","",""
"544.5","82503","SARL_v6","SARL_v6wxc86p4j","60c12fe6ca8c4aa6d0185190","freq","","","img/blue_2bandit_b2.png","70","","70","test","1","","9","","","","circle","square","9","9","1","0.7777777777777778","","","","","","","",""
"null","82761","SARL_v6","SARL_v6wxc86p4j","60c12fe6ca8c4aa6d0185190","freq_resp","","","img/blue_2bandit_b.png","70","img/blue_2bandit_b.png","70","test","","","","","","","","","","","1","","","","","","","","",""
"null","82920","SARL_v6","SARL_v6wxc86p4j","60c12fe6ca8c4aa6d0185190","fixation","","","img/fixation.png","null","","","test","","","","","","","","","","","","","","","","","","","",""
"621.5","83543","SARL_v6","SARL_v6wxc86p4j","60c12fe6ca8c4aa6d0185190","freq","","","img/blue_2bandit_b2.png","70","","70","test","1","","10","","","","circle","square","10","10","1","0.8","","","","","","","",""
"null","83724","SARL_v6","SARL_v6wxc86p4j","60c12fe6ca8c4aa6d0185190","freq_resp","","","img/blue_2bandit_b.png","70","img/blue_2bandit_b.png","70","test","","","","","","","","","","","1","","","","","","","","",""
"null","83878","SARL_v6","SARL_v6wxc86p4j","60c12fe6ca8c4aa6d0185190","fixation","","","img/fixation.png","null","","","test","","","","","","","","","","","","","","","","","","","",""
"653.5","84533","SARL_v6","SARL_v6wxc86p4j","60c12fe6ca8c4aa6d0185190","freq","","","img/blue_2bandit_b2.png","70","","70","test","1","","11","","","","circle","square","11","11","1","0.8181818181818182","","","","","","","",""
"null","84694","SARL_v6","SARL_v6wxc86p4j","60c12fe6ca8c4aa6d0185190","freq_resp","","","img/blue_2bandit_b.png","70","img/blue_2bandit_b.png","70","test","","","","","","","","","","","1","","","","","","","","",""
"null","84853","SARL_v6","SARL_v6wxc86p4j","60c12fe6ca8c4aa6d0185190","fixation","","","img/fixation.png","null","","","test","","","","","","","","","","","","","","","","","","","",""
"542.1000000238419","85397","SARL_v6","SARL_v6wxc86p4j","60c12fe6ca8c4aa6d0185190","infreq","","","img/orange_2bandit_b2.png","68","","68","test","1","","12","","","","circle","square","12","12","1","0.8333333333333334","","","","","","","",""
"null","85667","SARL_v6","SARL_v6wxc86p4j","60c12fe6ca8c4aa6d0185190","infreq_resp","","","img/orange_2bandit_b.png","68","img/orange_2bandit_b.png","68","test","","","","","","","","","","","1","","","","","","","","",""
"null","85820","SARL_v6","SARL_v6wxc86p4j","60c12fe6ca8c4aa6d0185190","fixation","","","img/fixation.png","null","","","test","","","","","","","","","","","","","","","","","","","",""
"732.2000000476837","86554","SARL_v6","SARL_v6wxc86p4j","60c12fe6ca8c4aa6d0185190","freq","","","img/blue_2bandit_b2.png","70","","70","test","1","","13","","","","circle","square","13","13","1","0.8461538461538461","","","","","","","",""
"null","86626","SARL_v6","SARL_v6wxc86p4j","60c12fe6ca8c4aa6d0185190","freq_resp","","","img/blue_2bandit_b.png","70","img/blue_2bandit_b.png","70","test","","","","","","","","","","","1","","","","","","","","",""
"null","86781","SARL_v6","SARL_v6wxc86p4j","60c12fe6ca8c4aa6d0185190","fixation","","","img/fixation.png","null","","","test","","","","","","","","","","","","","","","","","","","",""
"595.1000000238419","87378","SARL_v6","SARL_v6wxc86p4j","60c12fe6ca8c4aa6d0185190","freq","","","img/blue_2bandit_b2.png","70","","70","test","1","","14","","","","circle","square","14","14","1","0.8571428571428571","","","","","","","",""
"null","87597","SARL_v6","SARL_v6wxc86p4j","60c12fe6ca8c4aa6d0185190","freq_resp","","","img/blue_2bandit_b.png","70","img/blue_2bandit_b.png","70","test","","","","","","","","","","","1","","","","","","","","",""
"null","87753","SARL_v6","SARL_v6wxc86p4j","60c12fe6ca8c4aa6d0185190","fixation","","","img/fixation.png","null","","","test","","","","","","","","","","","","","","","","","","","",""
"531.7000000476837","88287","SARL_v6","SARL_v6wxc86p4j","60c12fe6ca8c4aa6d0185190","freq","","","img/blue_2bandit_b2.png","70","","70","test","1","","15","","","","circle","square","15","15","1","0.8666666666666667","","","","","","","",""
"null","88570","SARL_v6","SARL_v6wxc86p4j","60c12fe6ca8c4aa6d0185190","freq_resp","","","img/blue_2bandit_b.png","70","img/blue_2bandit_b.png","70","test","","","","","","","","","","","1","","","","","","","","",""
"null","88722","SARL_v6","SARL_v6wxc86p4j","60c12fe6ca8c4aa6d0185190","fixation","","","img/fixation.png","null","","","test","","","","","","","","","","","","","","","","","","","",""
"481.3000000715256","89205","SARL_v6","SARL_v6wxc86p4j","60c12fe6ca8c4aa6d0185190","freq","","","img/blue_2bandit_b2.png","70","","70","test","1","","16","","","","circle","square","16","16","1","0.875","","","","","","","",""
"null","89530","SARL_v6","SARL_v6wxc86p4j","60c12fe6ca8c4aa6d0185190","freq_resp","","","img/blue_2bandit_b.png","70","img/blue_2bandit_b.png","70","test","","","","","","","","","","","1","","","","","","","","",""
"null","89683","SARL_v6","SARL_v6wxc86p4j","60c12fe6ca8c4aa6d0185190","fixation","","","img/fixation.png","null","","","test","","","","","","","","","","","","","","","","","","","",""
"404.10000002384186","90089","SARL_v6","SARL_v6wxc86p4j","60c12fe6ca8c4aa6d0185190","freq","","","img/blue_2bandit_b2.png","70","","70","test","1","","17","","","","circle","square","17","17","1","0.8823529411764706","","","","","","","",""
"null","90487","SARL_v6","SARL_v6wxc86p4j","60c12fe6ca8c4aa6d0185190","freq_resp","","","img/blue_2bandit_b.png","70","img/blue_2bandit_b.png","70","test","","","","","","","","","","","1","","","","","","","","",""
"null","90643","SARL_v6","SARL_v6wxc86p4j","60c12fe6ca8c4aa6d0185190","fixation","","","img/fixation.png","null","","","test","","","","","","","","","","","","","","","","","","","",""
"387.2999999523163","91032","SARL_v6","SARL_v6wxc86p4j","60c12fe6ca8c4aa6d0185190","freq","","","img/blue_2bandit_b2.png","70","","70","test","1","","18","","","","circle","square","18","18","1","0.8888888888888888","","","","","","","",""
"null","91454","SARL_v6","SARL_v6wxc86p4j","60c12fe6ca8c4aa6d0185190","freq_resp","","","img/blue_2bandit_b.png","70","img/blue_2bandit_b.png","70","test","","","","","","","","","","","1","","","","","","","","",""
"null","91611","SARL_v6","SARL_v6wxc86p4j","60c12fe6ca8c4aa6d0185190","fixation","","","img/fixation.png","null","","","test","","","","","","","","","","","","","","","","","","","",""
"376.39999997615814","91989","SARL_v6","SARL_v6wxc86p4j","60c12fe6ca8c4aa6d0185190","freq","","","img/blue_2bandit_b2.png","70","","70","test","1","","19","","","","circle","square","19","19","1","0.8947368421052632","","","","","","","",""
"null","92421","SARL_v6","SARL_v6wxc86p4j","60c12fe6ca8c4aa6d0185190","freq_resp","","","img/blue_2bandit_b.png","70","img/blue_2bandit_b.png","70","test","","","","","","","","","","","1","","","","","","","","",""
"null","92579","SARL_v6","SARL_v6wxc86p4j","60c12fe6ca8c4aa6d0185190","fixation","","","img/fixation.png","null","","","test","","","","","","","","","","","","","","","","","","","",""
"425.5","93006","SARL_v6","SARL_v6wxc86p4j","60c12fe6ca8c4aa6d0185190","freq","","","img/blue_2bandit_b2.png","70","","70","test","1","","20","","","","circle","square","20","20","1","0.9","","","","","","","",""
"null","93395","SARL_v6","SARL_v6wxc86p4j","60c12fe6ca8c4aa6d0185190","freq_resp","","","img/blue_2bandit_b.png","70","img/blue_2bandit_b.png","70","test","","","","","","","","","","","1","","","","","","","","",""
"null","93552","SARL_v6","SARL_v6wxc86p4j","60c12fe6ca8c4aa6d0185190","fixation","","","img/fixation.png","null","","","test","","","","","","","","","","","","","","","","","","","",""
"392.90000009536743","93946","SARL_v6","SARL_v6wxc86p4j","60c12fe6ca8c4aa6d0185190","freq","","","img/blue_2bandit_b2.png","70","","70","test","1","","21","","","","circle","square","21","21","1","0.9047619047619048","","","","","","","",""
"null","94362","SARL_v6","SARL_v6wxc86p4j","60c12fe6ca8c4aa6d0185190","freq_resp","","","img/blue_2bandit_b.png","70","img/blue_2bandit_b.png","70","test","","","","","","","","","","","1","","","","","","","","",""
"null","94518","SARL_v6","SARL_v6wxc86p4j","60c12fe6ca8c4aa6d0185190","fixation","","","img/fixation.png","null","","","test","","","","","","","","","","","","","","","","","","","",""
"431.3000000715256","94951","SARL_v6","SARL_v6wxc86p4j","60c12fe6ca8c4aa6d0185190","infreq","","","img/orange_2bandit_b2.png","68","","68","test","1","","22","","","","circle","square","22","22","1","0.9090909090909091","","","","","","","",""
"null","95329","SARL_v6","SARL_v6wxc86p4j","60c12fe6ca8c4aa6d0185190","infreq_resp","","","img/orange_2bandit_b.png","68","img/orange_2bandit_b.png","68","test","","","","","","","","","","","1","","","","","","","","",""
"null","95486","SARL_v6","SARL_v6wxc86p4j","60c12fe6ca8c4aa6d0185190","fixation","","","img/fixation.png","null","","","test","","","","","","","","","","","","","","","","","","","",""
"409.40000009536743","95897","SARL_v6","SARL_v6wxc86p4j","60c12fe6ca8c4aa6d0185190","freq","","","img/blue_2bandit_b2.png","70","","70","test","1","","23","","","","circle","square","23","23","1","0.9130434782608695","","","","","","","",""
"null","96291","SARL_v6","SARL_v6wxc86p4j","60c12fe6ca8c4aa6d0185190","freq_resp","","","img/blue_2bandit_b.png","70","img/blue_2bandit_b.png","70","test","","","","","","","","","","","1","","","","","","","","",""
"null","96447","SARL_v6","SARL_v6wxc86p4j","60c12fe6ca8c4aa6d0185190","fixation","","","img/fixation.png","null","","","test","","","","","","","","","","","","","","","","","","","",""
"466.89999997615814","96915","SARL_v6","SARL_v6wxc86p4j","60c12fe6ca8c4aa6d0185190","freq","","","img/blue_2bandit_b2.png","70","","70","test","1","","24","","","","circle","square","24","24","1","0.9166666666666666","","","","","","","",""
"null","97258","SARL_v6","SARL_v6wxc86p4j","60c12fe6ca8c4aa6d0185190","freq_resp","","","img/blue_2bandit_b.png","70","img/blue_2bandit_b.png","70","test","","","","","","","","","","","1","","","","","","","","",""
"null","97412","SARL_v6","SARL_v6wxc86p4j","60c12fe6ca8c4aa6d0185190","fixation","","","img/fixation.png","null","","","test","","","","","","","","","","","","","","","","","","","",""
"555.6000000238419","97970","SARL_v6","SARL_v6wxc86p4j","60c12fe6ca8c4aa6d0185190","freq","","","img/blue_2bandit_b2.png","70","","70","test","1","","25","","","","circle","square","25","25","1","0.92","","","","","","","",""
"null","98227","SARL_v6","SARL_v6wxc86p4j","60c12fe6ca8c4aa6d0185190","freq_resp","","","img/blue_2bandit_b.png","70","img/blue_2bandit_b.png","70","test","","","","","","","","","","","1","","","","","","","","",""
"null","98383","SARL_v6","SARL_v6wxc86p4j","60c12fe6ca8c4aa6d0185190","fixation","","","img/fixation.png","null","","","test","","","","","","","","","","","","","","","","","","","",""
"555.1000000238419","98940","SARL_v6","SARL_v6wxc86p4j","60c12fe6ca8c4aa6d0185190","freq","","","img/blue_2bandit_b2.png","70","","70","test","1","","26","","","","circle","square","26","26","1","0.9230769230769231","","","","","","","",""
"null","99197","SARL_v6","SARL_v6wxc86p4j","60c12fe6ca8c4aa6d0185190","freq_resp","","","img/blue_2bandit_b.png","70","img/blue_2bandit_b.png","70","test","","","","","","","","","","","1","","","","","","","","",""
"null","99353","SARL_v6","SARL_v6wxc86p4j","60c12fe6ca8c4aa6d0185190","fixation","","","img/fixation.png","null","","","test","","","","","","","","","","","","","","","","","","","",""
"879.8999999761581","100235","SARL_v6","SARL_v6wxc86p4j","60c12fe6ca8c4aa6d0185190","rl","","","img/black_2bandit_b2.png","75","","0","test","","","27","","","-3","circle","square","","0","1","","75","-3","-3","-3","-3","square","1","0"
"null","100998","SARL_v6","SARL_v6wxc86p4j","60c12fe6ca8c4aa6d0185190","feedback","","","<div class=""verylowPoints_sq""> -3 </div>","null","","na","test","","","NaN","","","","","","","","1","","75","","","","","","1",""
"688.2000000476837","101688","SARL_v6","SARL_v6wxc86p4j","60c12fe6ca8c4aa6d0185190","freq","","","img/blue_2bandit_b2.png","68","","70","test","0","","28","","","","circle","square","27","1","2","0.8888888888888888","","","","","","","",""
"null","101816","SARL_v6","SARL_v6wxc86p4j","60c12fe6ca8c4aa6d0185190","freq_resp","","","img/blue_2bandit_b.png","68","img/blue_2bandit_b.png","70","test","","","","","","","","","","","2","","","","","","","","",""
"null","101971","SARL_v6","SARL_v6wxc86p4j","60c12fe6ca8c4aa6d0185190","fixation","","","img/fixation.png","null","","","test","","","","","","","","","","","","","","","","","","","",""
"617.8999999761581","102591","SARL_v6","SARL_v6wxc86p4j","60c12fe6ca8c4aa6d0185190","freq","","","img/blue_2bandit_b2.png","70","","70","test","1","","29","","","","circle","square","28","2","2","0.8928571428571429","","","","","","","",""
"null","102776","SARL_v6","SARL_v6wxc86p4j","60c12fe6ca8c4aa6d0185190","freq_resp","","","img/blue_2bandit_b.png","70","img/blue_2bandit_b.png","70","test","","","","","","","","","","","2","","","","","","","","",""
"null","102933","SARL_v6","SARL_v6wxc86p4j","60c12fe6ca8c4aa6d0185190","fixation","","","img/fixation.png","null","","","test","","","","","","","","","","","","","","","","","","","",""
"783.5","103718","SARL_v6","SARL_v6wxc86p4j","60c12fe6ca8c4aa6d0185190","freq","","","img/blue_2bandit_b2.png","70","","70","test","1","","30","","","","circle","square","29","3","2","0.896551724137931","","","","","","","",""
"null","103736","SARL_v6","SARL_v6wxc86p4j","60c12fe6ca8c4aa6d0185190","freq_resp","","","img/blue_2bandit_b.png","70","img/blue_2bandit_b.png","70","test","","","","","","","","","","","2","","","","","","","","",""
"null","103893","SARL_v6","SARL_v6wxc86p4j","60c12fe6ca8c4aa6d0185190","fixation","","","img/fixation.png","null","","","test","","","","","","","","","","","","","","","","","","","",""
"594.6000000238419","104489","SARL_v6","SARL_v6wxc86p4j","60c12fe6ca8c4aa6d0185190","freq","","","img/blue_2bandit_b2.png","70","","70","test","1","","31","","","","circle","square","30","4","2","0.9","","","","","","","",""
"null","104706","SARL_v6","SARL_v6wxc86p4j","60c12fe6ca8c4aa6d0185190","freq_resp","","","img/blue_2bandit_b.png","70","img/blue_2bandit_b.png","70","test","","","","","","","","","","","2","","","","","","","","",""
"null","104862","SARL_v6","SARL_v6wxc86p4j","60c12fe6ca8c4aa6d0185190","fixation","","","img/fixation.png","null","","","test","","","","","","","","","","","","","","","","","","","",""
"495.5","105360","SARL_v6","SARL_v6wxc86p4j","60c12fe6ca8c4aa6d0185190","freq","","","img/blue_2bandit_b2.png","70","","70","test","1","","32","","","","circle","square","31","5","2","0.9032258064516129","","","","","","","",""
"null","105673","SARL_v6","SARL_v6wxc86p4j","60c12fe6ca8c4aa6d0185190","freq_resp","","","img/blue_2bandit_b.png","70","img/blue_2bandit_b.png","70","test","","","","","","","","","","","2","","","","","","","","",""
"null","105829","SARL_v6","SARL_v6wxc86p4j","60c12fe6ca8c4aa6d0185190","fixation","","","img/fixation.png","null","","","test","","","","","","","","","","","","","","","","","","","",""
"474.5","106306","SARL_v6","SARL_v6wxc86p4j","60c12fe6ca8c4aa6d0185190","freq","","","img/blue_2bandit_b2.png","70","","70","test","1","","33","","","","circle","square","32","6","2","0.90625","","","","","","","",""
"null","106635","SARL_v6","SARL_v6wxc86p4j","60c12fe6ca8c4aa6d0185190","freq_resp","","","img/blue_2bandit_b.png","70","img/blue_2bandit_b.png","70","test","","","","","","","","","","","2","","","","","","","","",""
"null","106792","SARL_v6","SARL_v6wxc86p4j","60c12fe6ca8c4aa6d0185190","fixation","","","img/fixation.png","null","","","test","","","","","","","","","","","","","","","","","","","",""
"469.09999990463257","107263","SARL_v6","SARL_v6wxc86p4j","60c12fe6ca8c4aa6d0185190","freq","","","img/blue_2bandit_b2.png","70","","70","test","1","","34","","","","circle","square","33","7","2","0.9090909090909091","","","","","","","",""
"null","107610","SARL_v6","SARL_v6wxc86p4j","60c12fe6ca8c4aa6d0185190","freq_resp","","","img/blue_2bandit_b.png","70","img/blue_2bandit_b.png","70","test","","","","","","","","","","","2","","","","","","","","",""
"null","107766","SARL_v6","SARL_v6wxc86p4j","60c12fe6ca8c4aa6d0185190","fixation","","","img/fixation.png","null","","","test","","","","","","","","","","","","","","","","","","","",""
"467.7000000476837","108236","SARL_v6","SARL_v6wxc86p4j","60c12fe6ca8c4aa6d0185190","infreq","","","img/orange_2bandit_b2.png","68","","68","test","1","","35","","","","circle","square","34","8","2","0.9117647058823529","","","","","","","",""
"null","108583","SARL_v6","SARL_v6wxc86p4j","60c12fe6ca8c4aa6d0185190","infreq_resp","","","img/orange_2bandit_b.png","68","img/orange_2bandit_b.png","68","test","","","","","","","","","","","2","","","","","","","","",""
"null","108740","SARL_v6","SARL_v6wxc86p4j","60c12fe6ca8c4aa6d0185190","fixation","","","img/fixation.png","null","","","test","","","","","","","","","","","","","","","","","","","",""
"452.7000000476837","109195","SARL_v6","SARL_v6wxc86p4j","60c12fe6ca8c4aa6d0185190","freq","","","img/blue_2bandit_b2.png","70","","70","test","1","","36","","","","circle","square","35","9","2","0.9142857142857143","","","","","","","",""
"null","109556","SARL_v6","SARL_v6wxc86p4j","60c12fe6ca8c4aa6d0185190","freq_resp","","","img/blue_2bandit_b.png","70","img/blue_2bandit_b.png","70","test","","","","","","","","","","","2","","","","","","","","",""
"null","109713","SARL_v6","SARL_v6wxc86p4j","60c12fe6ca8c4aa6d0185190","fixation","","","img/fixation.png","null","","","test","","","","","","","","","","","","","","","","","","","",""
"519","110233","SARL_v6","SARL_v6wxc86p4j","60c12fe6ca8c4aa6d0185190","freq","","","img/blue_2bandit_b2.png","70","","70","test","1","","37","","","","circle","square","36","10","2","0.9166666666666666","","","","","","","",""
"null","110527","SARL_v6","SARL_v6wxc86p4j","60c12fe6ca8c4aa6d0185190","freq_resp","","","img/blue_2bandit_b.png","70","img/blue_2bandit_b.png","70","test","","","","","","","","","","","2","","","","","","","","",""
"null","110682","SARL_v6","SARL_v6wxc86p4j","60c12fe6ca8c4aa6d0185190","fixation","","","img/fixation.png","null","","","test","","","","","","","","","","","","","","","","","","","",""
"519","111203","SARL_v6","SARL_v6wxc86p4j","60c12fe6ca8c4aa6d0185190","freq","","","img/blue_2bandit_b2.png","70","","70","test","1","","38","","","","circle","square","37","11","2","0.918918918918919","","","","","","","",""
"null","111502","SARL_v6","SARL_v6wxc86p4j","60c12fe6ca8c4aa6d0185190","freq_resp","","","img/blue_2bandit_b.png","70","img/blue_2bandit_b.png","70","test","","","","","","","","","","","2","","","","","","","","",""
"null","111658","SARL_v6","SARL_v6wxc86p4j","60c12fe6ca8c4aa6d0185190","fixation","","","img/fixation.png","null","","","test","","","","","","","","","","","","","","","","","","","",""
"539.2000000476837","112199","SARL_v6","SARL_v6wxc86p4j","60c12fe6ca8c4aa6d0185190","freq","","","img/blue_2bandit_b2.png","70","","70","test","1","","39","","","","circle","square","38","12","2","0.9210526315789473","","","","","","","",""
"null","112475","SARL_v6","SARL_v6wxc86p4j","60c12fe6ca8c4aa6d0185190","freq_resp","","","img/blue_2bandit_b.png","70","img/blue_2bandit_b.png","70","test","","","","","","","","","","","2","","","","","","","","",""
"null","112633","SARL_v6","SARL_v6wxc86p4j","60c12fe6ca8c4aa6d0185190","fixation","","","img/fixation.png","null","","","test","","","","","","","","","","","","","","","","","","","",""
"515.1000000238419","113150","SARL_v6","SARL_v6wxc86p4j","60c12fe6ca8c4aa6d0185190","freq","","","img/blue_2bandit_b2.png","70","","70","test","1","","40","","","","circle","square","39","13","2","0.9230769230769231","","","","","","","",""
"null","113446","SARL_v6","SARL_v6wxc86p4j","60c12fe6ca8c4aa6d0185190","freq_resp","","","img/blue_2bandit_b.png","70","img/blue_2bandit_b.png","70","test","","","","","","","","","","","2","","","","","","","","",""
"null","113599","SARL_v6","SARL_v6wxc86p4j","60c12fe6ca8c4aa6d0185190","fixation","","","img/fixation.png","null","","","test","","","","","","","","","","","","","","","","","","","",""
"525.8999999761581","114127","SARL_v6","SARL_v6wxc86p4j","60c12fe6ca8c4aa6d0185190","freq","","","img/blue_2bandit_b2.png","70","","70","test","1","","41","","","","circle","square","40","14","2","0.925","","","","","","","",""
"null","114417","SARL_v6","SARL_v6wxc86p4j","60c12fe6ca8c4aa6d0185190","freq_resp","","","img/blue_2bandit_b.png","70","img/blue_2bandit_b.png","70","test","","","","","","","","","","","2","","","","","","","","",""
"null","114569","SARL_v6","SARL_v6wxc86p4j","60c12fe6ca8c4aa6d0185190","fixation","","","img/fixation.png","null","","","test","","","","","","","","","","","","","","","","","","","",""
"552.1000000238419","115123","SARL_v6","SARL_v6wxc86p4j","60c12fe6ca8c4aa6d0185190","infreq","","","img/orange_2bandit_b2.png","68","","68","test","1","","42","","","","circle","square","41","15","2","0.926829268292683","","","","","","","",""
"null","115386","SARL_v6","SARL_v6wxc86p4j","60c12fe6ca8c4aa6d0185190","infreq_resp","","","img/orange_2bandit_b.png","68","img/orange_2bandit_b.png","68","test","","","","","","","","","","","2","","","","","","","","",""
"null","115542","SARL_v6","SARL_v6wxc86p4j","60c12fe6ca8c4aa6d0185190","fixation","","","img/fixation.png","null","","","test","","","","","","","","","","","","","","","","","","","",""
"675.7999999523163","116219","SARL_v6","SARL_v6wxc86p4j","60c12fe6ca8c4aa6d0185190","freq","","","img/blue_2bandit_b2.png","70","","70","test","1","","43","","","","circle","square","42","16","2","0.9285714285714286","","","","","","","",""
"null","116360","SARL_v6","SARL_v6wxc86p4j","60c12fe6ca8c4aa6d0185190","freq_resp","","","img/blue_2bandit_b.png","70","img/blue_2bandit_b.png","70","test","","","","","","","","","","","2","","","","","","","","",""
"null","116515","SARL_v6","SARL_v6wxc86p4j","60c12fe6ca8c4aa6d0185190","fixation","","","img/fixation.png","null","","","test","","","","","","","","","","","","","","","","","","","",""
"526.2000000476837","117044","SARL_v6","SARL_v6wxc86p4j","60c12fe6ca8c4aa6d0185190","freq","","","img/blue_2bandit_b2.png","70","","70","test","1","","44","","","","circle","square","43","17","2","0.9302325581395349","","","","","","","",""
"null","117328","SARL_v6","SARL_v6wxc86p4j","60c12fe6ca8c4aa6d0185190","freq_resp","","","img/blue_2bandit_b.png","70","img/blue_2bandit_b.png","70","test","","","","","","","","","","","2","","","","","","","","",""
"null","117483","SARL_v6","SARL_v6wxc86p4j","60c12fe6ca8c4aa6d0185190","fixation","","","img/fixation.png","null","","","test","","","","","","","","","","","","","","","","","","","",""
"513.3999999761581","117998","SARL_v6","SARL_v6wxc86p4j","60c12fe6ca8c4aa6d0185190","freq","","","img/blue_2bandit_b2.png","70","","70","test","1","","45","","","","circle","square","44","18","2","0.9318181818181818","","","","","","","",""
"null","118301","SARL_v6","SARL_v6wxc86p4j","60c12fe6ca8c4aa6d0185190","freq_resp","","","img/blue_2bandit_b.png","70","img/blue_2bandit_b.png","70","test","","","","","","","","","","","2","","","","","","","","",""
"null","118457","SARL_v6","SARL_v6wxc86p4j","60c12fe6ca8c4aa6d0185190","fixation","","","img/fixation.png","null","","","test","","","","","","","","","","","","","","","","","","","",""
"467.09999990463257","118926","SARL_v6","SARL_v6wxc86p4j","60c12fe6ca8c4aa6d0185190","freq","","","img/blue_2bandit_b2.png","70","","70","test","1","","46","","","","circle","square","45","19","2","0.9333333333333333","","","","","","","",""
"null","119272","SARL_v6","SARL_v6wxc86p4j","60c12fe6ca8c4aa6d0185190","freq_resp","","","img/blue_2bandit_b.png","70","img/blue_2bandit_b.png","70","test","","","","","","","","","","","2","","","","","","","","",""
"null","119428","SARL_v6","SARL_v6wxc86p4j","60c12fe6ca8c4aa6d0185190","fixation","","","img/fixation.png","null","","","test","","","","","","","","","","","","","","","","","","","",""
"390.60000002384186","119820","SARL_v6","SARL_v6wxc86p4j","60c12fe6ca8c4aa6d0185190","freq","","","img/blue_2bandit_b2.png","70","","70","test","1","","47","","","","circle","square","46","20","2","0.9347826086956522","","","","","","","",""
"null","120243","SARL_v6","SARL_v6wxc86p4j","60c12fe6ca8c4aa6d0185190","freq_resp","","","img/blue_2bandit_b.png","70","img/blue_2bandit_b.png","70","test","","","","","","","","","","","2","","","","","","","","",""
"null","120400","SARL_v6","SARL_v6wxc86p4j","60c12fe6ca8c4aa6d0185190","fixation","","","img/fixation.png","null","","","test","","","","","","","","","","","","","","","","","","","",""
"334.7999999523163","120736","SARL_v6","SARL_v6wxc86p4j","60c12fe6ca8c4aa6d0185190","freq","","","img/blue_2bandit_b2.png","70","","70","test","1","","48","","","","circle","square","47","21","2","0.9361702127659575","","","","","","","",""
"null","121215","SARL_v6","SARL_v6wxc86p4j","60c12fe6ca8c4aa6d0185190","freq_resp","","","img/blue_2bandit_b.png","70","img/blue_2bandit_b.png","70","test","","","","","","","","","","","2","","","","","","","","",""
"null","121370","SARL_v6","SARL_v6wxc86p4j","60c12fe6ca8c4aa6d0185190","fixation","","","img/fixation.png","null","","","test","","","","","","","","","","","","","","","","","","","",""
"354.39999997615814","121726","SARL_v6","SARL_v6wxc86p4j","60c12fe6ca8c4aa6d0185190","freq","","","img/blue_2bandit_b2.png","70","","70","test","1","","49","","","","circle","square","48","22","2","0.9375","","","","","","","",""
"null","122187","SARL_v6","SARL_v6wxc86p4j","60c12fe6ca8c4aa6d0185190","freq_resp","","","img/blue_2bandit_b.png","70","img/blue_2bandit_b.png","70","test","","","","","","","","","","","2","","","","","","","","",""
"null","122344","SARL_v6","SARL_v6wxc86p4j","60c12fe6ca8c4aa6d0185190","fixation","","","img/fixation.png","null","","","test","","","","","","","","","","","","","","","","","","","",""
"323.89999997615814","122670","SARL_v6","SARL_v6wxc86p4j","60c12fe6ca8c4aa6d0185190","freq","","","img/blue_2bandit_b2.png","70","","70","test","1","","50","","","","circle","square","49","23","2","0.9387755102040817","","","","","","","",""
"null","123154","SARL_v6","SARL_v6wxc86p4j","60c12fe6ca8c4aa6d0185190","freq_resp","","","img/blue_2bandit_b.png","70","img/blue_2bandit_b.png","70","test","","","","","","","","","","","2","","","","","","","","",""
"null","123311","SARL_v6","SARL_v6wxc86p4j","60c12fe6ca8c4aa6d0185190","fixation","","","img/fixation.png","null","","","test","","","","","","","","","","","","","","","","","","","",""
"336.7000000476837","123650","SARL_v6","SARL_v6wxc86p4j","60c12fe6ca8c4aa6d0185190","freq","","","img/blue_2bandit_b2.png","70","","70","test","1","","51","","","","circle","square","50","24","2","0.94","","","","","","","",""
"null","124126","SARL_v6","SARL_v6wxc86p4j","60c12fe6ca8c4aa6d0185190","freq_resp","","","img/blue_2bandit_b.png","70","img/blue_2bandit_b.png","70","test","","","","","","","","","","","2","","","","","","","","",""
"null","124282","SARL_v6","SARL_v6wxc86p4j","60c12fe6ca8c4aa6d0185190","fixation","","","img/fixation.png","null","","","test","","","","","","","","","","","","","","","","","","","",""
"null","125798","SARL_v6","SARL_v6wxc86p4j","60c12fe6ca8c4aa6d0185190","rl","","","img/black_2bandit_b2.png","null","","0","test","","","52","","","0","circle","square","","0","2","","null","-8","-5","-8","-5","too slow","2","0"
"null","126552","SARL_v6","SARL_v6wxc86p4j","60c12fe6ca8c4aa6d0185190","feedback","","","<div font size = 80> TOO SLOW  </div>","null","","na","test","","","NaN","","","","","","","","2","","null","","","","","","2",""
"637.1000000238419","127192","SARL_v6","SARL_v6wxc86p4j","60c12fe6ca8c4aa6d0185190","freq","","","img/blue_2bandit_b2.png","70","","70","test","1","","53","","","","circle","square","51","1","3","0.9411764705882353","","","","","","","",""
"null","127369","SARL_v6","SARL_v6wxc86p4j","60c12fe6ca8c4aa6d0185190","freq_resp","","","img/blue_2bandit_b.png","70","img/blue_2bandit_b.png","70","test","","","","","","","","","","","3","","","","","","","","",""
"null","127525","SARL_v6","SARL_v6wxc86p4j","60c12fe6ca8c4aa6d0185190","fixation","","","img/fixation.png","null","","","test","","","","","","","","","","","","","","","","","","","",""
"565.9000000953674","128093","SARL_v6","SARL_v6wxc86p4j","60c12fe6ca8c4aa6d0185190","freq","","","img/blue_2bandit_b2.png","70","","70","test","1","","54","","","","circle","square","52","2","3","0.9423076923076923","","","","","","","",""
"null","128341","SARL_v6","SARL_v6wxc86p4j","60c12fe6ca8c4aa6d0185190","freq_resp","","","img/blue_2bandit_b.png","70","img/blue_2bandit_b.png","70","test","","","","","","","","","","","3","","","","","","","","",""
"null","128498","SARL_v6","SARL_v6wxc86p4j","60c12fe6ca8c4aa6d0185190","fixation","","","img/fixation.png","null","","","test","","","","","","","","","","","","","","","","","","","",""
"462.1999999284744","128962","SARL_v6","SARL_v6wxc86p4j","60c12fe6ca8c4aa6d0185190","freq","","","img/blue_2bandit_b2.png","70","","70","test","1","","55","","","","circle","square","53","3","3","0.9433962264150944","","","","","","","",""
"null","129315","SARL_v6","SARL_v6wxc86p4j","60c12fe6ca8c4aa6d0185190","freq_resp","","","img/blue_2bandit_b.png","70","img/blue_2bandit_b.png","70","test","","","","","","","","","","","3","","","","","","","","",""
"null","129471","SARL_v6","SARL_v6wxc86p4j","60c12fe6ca8c4aa6d0185190","fixation","","","img/fixation.png","null","","","test","","","","","","","","","","","","","","","","","","","",""
"552.6000000238419","130025","SARL_v6","SARL_v6wxc86p4j","60c12fe6ca8c4aa6d0185190","freq","","","img/blue_2bandit_b2.png","70","","70","test","1","","56","","","","circle","square","54","4","3","0.9444444444444444","","","","","","","",""
"null","130288","SARL_v6","SARL_v6wxc86p4j","60c12fe6ca8c4aa6d0185190","freq_resp","","","img/blue_2bandit_b.png","70","img/blue_2bandit_b.png","70","test","","","","","","","","","","","3","","","","","","","","",""
"null","130446","SARL_v6","SARL_v6wxc86p4j","60c12fe6ca8c4aa6d0185190","fixation","","","img/fixation.png","null","","","test","","","","","","","","","","","","","","","","","","","",""
"481.6999999284744","130930","SARL_v6","SARL_v6wxc86p4j","60c12fe6ca8c4aa6d0185190","freq","","","img/blue_2bandit_b2.png","70","","70","test","1","","57","","","","circle","square","55","5","3","0.9454545454545454","","","","","","","",""
"null","131261","SARL_v6","SARL_v6wxc86p4j","60c12fe6ca8c4aa6d0185190","freq_resp","","","img/blue_2bandit_b.png","70","img/blue_2bandit_b.png","70","test","","","","","","","","","","","3","","","","","","","","",""
"null","131419","SARL_v6","SARL_v6wxc86p4j","60c12fe6ca8c4aa6d0185190","fixation","","","img/fixation.png","null","","","test","","","","","","","","","","","","","","","","","","","",""
"544.5999999046326","131966","SARL_v6","SARL_v6wxc86p4j","60c12fe6ca8c4aa6d0185190","freq","","","img/blue_2bandit_b2.png","70","","70","test","1","","58","","","","circle","square","56","6","3","0.9464285714285714","","","","","","","",""
"null","132231","SARL_v6","SARL_v6wxc86p4j","60c12fe6ca8c4aa6d0185190","freq_resp","","","img/blue_2bandit_b.png","70","img/blue_2bandit_b.png","70","test","","","","","","","","","","","3","","","","","","","","",""
"null","132383","SARL_v6","SARL_v6wxc86p4j","60c12fe6ca8c4aa6d0185190","fixation","","","img/fixation.png","null","","","test","","","","","","","","","","","","","","","","","","","",""
"583.7999999523163","132969","SARL_v6","SARL_v6wxc86p4j","60c12fe6ca8c4aa6d0185190","freq","","","img/blue_2bandit_b2.png","70","","70","test","1","","59","","","","circle","square","57","7","3","0.9473684210526315","","","","","","","",""
"null","133200","SARL_v6","SARL_v6wxc86p4j","60c12fe6ca8c4aa6d0185190","freq_resp","","","img/blue_2bandit_b.png","70","img/blue_2bandit_b.png","70","test","","","","","","","","","","","3","","","","","","","","",""
"null","133355","SARL_v6","SARL_v6wxc86p4j","60c12fe6ca8c4aa6d0185190","fixation","","","img/fixation.png","null","","","test","","","","","","","","","","","","","","","","","","","",""
"444","133801","SARL_v6","SARL_v6wxc86p4j","60c12fe6ca8c4aa6d0185190","infreq","","","img/orange_2bandit_b2.png","68","","68","test","1","","60","","","","circle","square","58","8","3","0.9482758620689655","","","","","","","",""
"null","134171","SARL_v6","SARL_v6wxc86p4j","60c12fe6ca8c4aa6d0185190","infreq_resp","","","img/orange_2bandit_b.png","68","img/orange_2bandit_b.png","68","test","","","","","","","","","","","3","","","","","","","","",""
"null","134326","SARL_v6","SARL_v6wxc86p4j","60c12fe6ca8c4aa6d0185190","fixation","","","img/fixation.png","null","","","test","","","","","","","","","","","","","","","","","","","",""
"461.5","134790","SARL_v6","SARL_v6wxc86p4j","60c12fe6ca8c4aa6d0185190","infreq","","","img/orange_2bandit_b2.png","68","","68","test","1","","61","","","","circle","square","59","9","3","0.9491525423728814","","","","","","","",""
"null","135141","SARL_v6","SARL_v6wxc86p4j","60c12fe6ca8c4aa6d0185190","infreq_resp","","","img/orange_2bandit_b.png","68","img/orange_2bandit_b.png","68","test","","","","","","","","","","","3","","","","","","","","",""
"null","135299","SARL_v6","SARL_v6wxc86p4j","60c12fe6ca8c4aa6d0185190","fixation","","","img/fixation.png","null","","","test","","","","","","","","","","","","","","","","","","","",""
"420.60000002384186","135722","SARL_v6","SARL_v6wxc86p4j","60c12fe6ca8c4aa6d0185190","freq","","","img/blue_2bandit_b2.png","70","","70","test","1","","62","","","","circle","square","60","10","3","0.95","","","","","","","",""
"null","136115","SARL_v6","SARL_v6wxc86p4j","60c12fe6ca8c4aa6d0185190","freq_resp","","","img/blue_2bandit_b.png","70","img/blue_2bandit_b.png","70","test","","","","","","","","","","","3","","","","","","","","",""
"null","136273","SARL_v6","SARL_v6wxc86p4j","60c12fe6ca8c4aa6d0185190","fixation","","","img/fixation.png","null","","","test","","","","","","","","","","","","","","","","","","","",""
"403.7999999523163","136678","SARL_v6","SARL_v6wxc86p4j","60c12fe6ca8c4aa6d0185190","freq","","","img/blue_2bandit_b2.png","70","","70","test","1","","63","","","","circle","square","61","11","3","0.9508196721311475","","","","","","","",""
"null","137085","SARL_v6","SARL_v6wxc86p4j","60c12fe6ca8c4aa6d0185190","freq_resp","","","img/blue_2bandit_b.png","70","img/blue_2bandit_b.png","70","test","","","","","","","","","","","3","","","","","","","","",""
"null","137242","SARL_v6","SARL_v6wxc86p4j","60c12fe6ca8c4aa6d0185190","fixation","","","img/fixation.png","null","","","test","","","","","","","","","","","","","","","","","","","",""
"403.1999999284744","137647","SARL_v6","SARL_v6wxc86p4j","60c12fe6ca8c4aa6d0185190","freq","","","img/blue_2bandit_b2.png","70","","70","test","1","","64","","","","circle","square","62","12","3","0.9516129032258065","","","","","","","",""
"null","138060","SARL_v6","SARL_v6wxc86p4j","60c12fe6ca8c4aa6d0185190","freq_resp","","","img/blue_2bandit_b.png","70","img/blue_2bandit_b.png","70","test","","","","","","","","","","","3","","","","","","","","",""
"null","138216","SARL_v6","SARL_v6wxc86p4j","60c12fe6ca8c4aa6d0185190","fixation","","","img/fixation.png","null","","","test","","","","","","","","","","","","","","","","","","","",""
"449.10000002384186","138667","SARL_v6","SARL_v6wxc86p4j","60c12fe6ca8c4aa6d0185190","freq","","","img/blue_2bandit_b2.png","70","","70","test","1","","65","","","","circle","square","63","13","3","0.9523809523809523","","","","","","","",""
"null","139031","SARL_v6","SARL_v6wxc86p4j","60c12fe6ca8c4aa6d0185190","freq_resp","","","img/blue_2bandit_b.png","70","img/blue_2bandit_b.png","70","test","","","","","","","","","","","3","","","","","","","","",""
"null","139186","SARL_v6","SARL_v6wxc86p4j","60c12fe6ca8c4aa6d0185190","fixation","","","img/fixation.png","null","","","test","","","","","","","","","","","","","","","","","","","",""
"464.8000000715256","139653","SARL_v6","SARL_v6wxc86p4j","60c12fe6ca8c4aa6d0185190","freq","","","img/blue_2bandit_b2.png","70","","70","test","1","","66","","","","circle","square","64","14","3","0.953125","","","","","","","",""
"null","140002","SARL_v6","SARL_v6wxc86p4j","60c12fe6ca8c4aa6d0185190","freq_resp","","","img/blue_2bandit_b.png","70","img/blue_2bandit_b.png","70","test","","","","","","","","","","","3","","","","","","","","",""
"null","140157","SARL_v6","SARL_v6wxc86p4j","60c12fe6ca8c4aa6d0185190","fixation","","","img/fixation.png","null","","","test","","","","","","","","","","","","","","","","","","","",""
"428.2000000476837","140587","SARL_v6","SARL_v6wxc86p4j","60c12fe6ca8c4aa6d0185190","freq","","","img/blue_2bandit_b2.png","70","","70","test","1","","67","","","","circle","square","65","15","3","0.9538461538461539","","","","","","","",""
"null","140975","SARL_v6","SARL_v6wxc86p4j","60c12fe6ca8c4aa6d0185190","freq_resp","","","img/blue_2bandit_b.png","70","img/blue_2bandit_b.png","70","test","","","","","","","","","","","3","","","","","","","","",""
"null","141130","SARL_v6","SARL_v6wxc86p4j","60c12fe6ca8c4aa6d0185190","fixation","","","img/fixation.png","null","","","test","","","","","","","","","","","","","","","","","","","",""
"462.10000002384186","141594","SARL_v6","SARL_v6wxc86p4j","60c12fe6ca8c4aa6d0185190","freq","","","img/blue_2bandit_b2.png","70","","70","test","1","","68","","","","circle","square","66","16","3","0.9545454545454546","","","","","","","",""
"null","141945","SARL_v6","SARL_v6wxc86p4j","60c12fe6ca8c4aa6d0185190","freq_resp","","","img/blue_2bandit_b.png","70","img/blue_2bandit_b.png","70","test","","","","","","","","","","","3","","","","","","","","",""
"null","142102","SARL_v6","SARL_v6wxc86p4j","60c12fe6ca8c4aa6d0185190","fixation","","","img/fixation.png","null","","","test","","","","","","","","","","","","","","","","","","","",""
"492.10000002384186","142596","SARL_v6","SARL_v6wxc86p4j","60c12fe6ca8c4aa6d0185190","freq","","","img/blue_2bandit_b2.png","70","","70","test","1","","69","","","","circle","square","67","17","3","0.9552238805970149","","","","","","","",""
"null","142919","SARL_v6","SARL_v6wxc86p4j","60c12fe6ca8c4aa6d0185190","freq_resp","","","img/blue_2bandit_b.png","70","img/blue_2bandit_b.png","70","test","","","","","","","","","","","3","","","","","","","","",""
"null","143075","SARL_v6","SARL_v6wxc86p4j","60c12fe6ca8c4aa6d0185190","fixation","","","img/fixation.png","null","","","test","","","","","","","","","","","","","","","","","","","",""
"428.39999997615814","143505","SARL_v6","SARL_v6wxc86p4j","60c12fe6ca8c4aa6d0185190","freq","","","img/blue_2bandit_b2.png","70","","70","test","1","","70","","","","circle","square","68","18","3","0.9558823529411765","","","","","","","",""
"null","143885","SARL_v6","SARL_v6wxc86p4j","60c12fe6ca8c4aa6d0185190","freq_resp","","","img/blue_2bandit_b.png","70","img/blue_2bandit_b.png","70","test","","","","","","","","","","","3","","","","","","","","",""
"null","144042","SARL_v6","SARL_v6wxc86p4j","60c12fe6ca8c4aa6d0185190","fixation","","","img/fixation.png","null","","","test","","","","","","","","","","","","","","","","","","","",""
"426.7000000476837","144471","SARL_v6","SARL_v6wxc86p4j","60c12fe6ca8c4aa6d0185190","freq","","","img/blue_2bandit_b2.png","70","","70","test","1","","71","","","","circle","square","69","19","3","0.9565217391304348","","","","","","","",""
"null","144858","SARL_v6","SARL_v6wxc86p4j","60c12fe6ca8c4aa6d0185190","freq_resp","","","img/blue_2bandit_b.png","70","img/blue_2bandit_b.png","70","test","","","","","","","","","","","3","","","","","","","","",""
"null","145016","SARL_v6","SARL_v6wxc86p4j","60c12fe6ca8c4aa6d0185190","fixation","","","img/fixation.png","null","","","test","","","","","","","","","","","","","","","","","","","",""
"438.2000000476837","145456","SARL_v6","SARL_v6wxc86p4j","60c12fe6ca8c4aa6d0185190","freq","","","img/blue_2bandit_b2.png","70","","70","test","1","","72","","","","circle","square","70","20","3","0.9571428571428572","","","","","","","",""
"null","145829","SARL_v6","SARL_v6wxc86p4j","60c12fe6ca8c4aa6d0185190","freq_resp","","","img/blue_2bandit_b.png","70","img/blue_2bandit_b.png","70","test","","","","","","","","","","","3","","","","","","","","",""
"null","145984","SARL_v6","SARL_v6wxc86p4j","60c12fe6ca8c4aa6d0185190","fixation","","","img/fixation.png","null","","","test","","","","","","","","","","","","","","","","","","","",""
"490.90000009536743","146477","SARL_v6","SARL_v6wxc86p4j","60c12fe6ca8c4aa6d0185190","freq","","","img/blue_2bandit_b2.png","70","","70","test","1","","73","","","","circle","square","71","21","3","0.9577464788732394","","","","","","","",""
"null","146800","SARL_v6","SARL_v6wxc86p4j","60c12fe6ca8c4aa6d0185190","freq_resp","","","img/blue_2bandit_b.png","70","img/blue_2bandit_b.png","70","test","","","","","","","","","","","3","","","","","","","","",""
"null","146957","SARL_v6","SARL_v6wxc86p4j","60c12fe6ca8c4aa6d0185190","fixation","","","img/fixation.png","null","","","test","","","","","","","","","","","","","","","","","","","",""
"477","147436","SARL_v6","SARL_v6wxc86p4j","60c12fe6ca8c4aa6d0185190","freq","","","img/blue_2bandit_b2.png","70","","70","test","1","","74","","","","circle","square","72","22","3","0.9583333333333334","","","","","","","",""
"null","147774","SARL_v6","SARL_v6wxc86p4j","60c12fe6ca8c4aa6d0185190","freq_resp","","","img/blue_2bandit_b.png","70","img/blue_2bandit_b.png","70","test","","","","","","","","","","","3","","","","","","","","",""
"null","147931","SARL_v6","SARL_v6wxc86p4j","60c12fe6ca8c4aa6d0185190","fixation","","","img/fixation.png","null","","","test","","","","","","","","","","","","","","","","","","","",""
"379.5","148313","SARL_v6","SARL_v6wxc86p4j","60c12fe6ca8c4aa6d0185190","rl","","","img/black_2bandit_b2.png","75","","0","test","","","75","","","-4","circle","square","","0","3","","75","-8","-4","-8","-4","square","3","0"
"null","149077","SARL_v6","SARL_v6wxc86p4j","60c12fe6ca8c4aa6d0185190","feedback","","","<div class=""verylowPoints_sq""> -4 </div>","null","","na","test","","","NaN","","","","","","","","3","","75","","","","","","3",""
"673.3000000715256","149753","SARL_v6","SARL_v6wxc86p4j","60c12fe6ca8c4aa6d0185190","freq","","","img/blue_2bandit_b2.png","70","","70","test","1","","76","","","","circle","square","73","1","4","0.958904109589041","","","","","","","",""
"null","149892","SARL_v6","SARL_v6wxc86p4j","60c12fe6ca8c4aa6d0185190","freq_resp","","","img/blue_2bandit_b.png","70","img/blue_2bandit_b.png","70","test","","","","","","","","","","","4","","","","","","","","",""
"null","150049","SARL_v6","SARL_v6wxc86p4j","60c12fe6ca8c4aa6d0185190","fixation","","","img/fixation.png","null","","","test","","","","","","","","","","","","","","","","","","","",""
"549.0999999046326","150600","SARL_v6","SARL_v6wxc86p4j","60c12fe6ca8c4aa6d0185190","freq","","","img/blue_2bandit_b2.png","70","","70","test","1","","77","","","","circle","square","74","2","4","0.9594594594594594","","","","","","","",""
"null","150864","SARL_v6","SARL_v6wxc86p4j","60c12fe6ca8c4aa6d0185190","freq_resp","","","img/blue_2bandit_b.png","70","img/blue_2bandit_b.png","70","test","","","","","","","","","","","4","","","","","","","","",""
"null","151021","SARL_v6","SARL_v6wxc86p4j","60c12fe6ca8c4aa6d0185190","fixation","","","img/fixation.png","null","","","test","","","","","","","","","","","","","","","","","","","",""
"484.60000002384186","151508","SARL_v6","SARL_v6wxc86p4j","60c12fe6ca8c4aa6d0185190","freq","","","img/blue_2bandit_b2.png","70","","70","test","1","","78","","","","circle","square","75","3","4","0.96","","","","","","","",""
"null","151832","SARL_v6","SARL_v6wxc86p4j","60c12fe6ca8c4aa6d0185190","freq_resp","","","img/blue_2bandit_b.png","70","img/blue_2bandit_b.png","70","test","","","","","","","","","","","4","","","","","","","","",""
"null","151990","SARL_v6","SARL_v6wxc86p4j","60c12fe6ca8c4aa6d0185190","fixation","","","img/fixation.png","null","","","test","","","","","","","","","","","","","","","","","","","",""
"354","152345","SARL_v6","SARL_v6wxc86p4j","60c12fe6ca8c4aa6d0185190","freq","","","img/blue_2bandit_b2.png","70","","70","test","1","","79","","","","circle","square","76","4","4","0.9605263157894737","","","","","","","",""
"null","152807","SARL_v6","SARL_v6wxc86p4j","60c12fe6ca8c4aa6d0185190","freq_resp","","","img/blue_2bandit_b.png","70","img/blue_2bandit_b.png","70","test","","","","","","","","","","","4","","","","","","","","",""
"null","152964","SARL_v6","SARL_v6wxc86p4j","60c12fe6ca8c4aa6d0185190","fixation","","","img/fixation.png","null","","","test","","","","","","","","","","","","","","","","","","","",""
"419.89999997615814","153385","SARL_v6","SARL_v6wxc86p4j","60c12fe6ca8c4aa6d0185190","freq","","","img/blue_2bandit_b2.png","70","","70","test","1","","80","","","","circle","square","77","5","4","0.961038961038961","","","","","","","",""
"null","153777","SARL_v6","SARL_v6wxc86p4j","60c12fe6ca8c4aa6d0185190","freq_resp","","","img/blue_2bandit_b.png","70","img/blue_2bandit_b.png","70","test","","","","","","","","","","","4","","","","","","","","",""
"null","153934","SARL_v6","SARL_v6wxc86p4j","60c12fe6ca8c4aa6d0185190","fixation","","","img/fixation.png","null","","","test","","","","","","","","","","","","","","","","","","","",""
"385.5","154321","SARL_v6","SARL_v6wxc86p4j","60c12fe6ca8c4aa6d0185190","infreq","","","img/orange_2bandit_b2.png","68","","68","test","1","","81","","","","circle","square","78","6","4","0.9615384615384616","","","","","","","",""
"null","154738","SARL_v6","SARL_v6wxc86p4j","60c12fe6ca8c4aa6d0185190","infreq_resp","","","img/orange_2bandit_b.png","68","img/orange_2bandit_b.png","68","test","","","","","","","","","","","4","","","","","","","","",""
"null","154894","SARL_v6","SARL_v6wxc86p4j","60c12fe6ca8c4aa6d0185190","fixation","","","img/fixation.png","null","","","test","","","","","","","","","","","","","","","","","","","",""
"369","155265","SARL_v6","SARL_v6wxc86p4j","60c12fe6ca8c4aa6d0185190","freq","","","img/blue_2bandit_b2.png","70","","70","test","1","","82","","","","circle","square","79","7","4","0.9620253164556962","","","","","","","",""
"null","155707","SARL_v6","SARL_v6wxc86p4j","60c12fe6ca8c4aa6d0185190","freq_resp","","","img/blue_2bandit_b.png","70","img/blue_2bandit_b.png","70","test","","","","","","","","","","","4","","","","","","","","",""
"null","155863","SARL_v6","SARL_v6wxc86p4j","60c12fe6ca8c4aa6d0185190","fixation","","","img/fixation.png","null","","","test","","","","","","","","","","","","","","","","","","","",""
"412.59999990463257","156277","SARL_v6","SARL_v6wxc86p4j","60c12fe6ca8c4aa6d0185190","freq","","","img/blue_2bandit_b2.png","70","","70","test","1","","83","","","","circle","square","80","8","4","0.9625","","","","","","","",""
"null","156680","SARL_v6","SARL_v6wxc86p4j","60c12fe6ca8c4aa6d0185190","freq_resp","","","img/blue_2bandit_b.png","70","img/blue_2bandit_b.png","70","test","","","","","","","","","","","4","","","","","","","","",""
"null","156835","SARL_v6","SARL_v6wxc86p4j","60c12fe6ca8c4aa6d0185190","fixation","","","img/fixation.png","null","","","test","","","","","","","","","","","","","","","","","","","",""
"462.7999999523163","157300","SARL_v6","SARL_v6wxc86p4j","60c12fe6ca8c4aa6d0185190","freq","","","img/blue_2bandit_b2.png","70","","70","test","1","","84","","","","circle","square","81","9","4","0.9629629629629629","","","","","","","",""
"null","157649","SARL_v6","SARL_v6wxc86p4j","60c12fe6ca8c4aa6d0185190","freq_resp","","","img/blue_2bandit_b.png","70","img/blue_2bandit_b.png","70","test","","","","","","","","","","","4","","","","","","","","",""
"null","157808","SARL_v6","SARL_v6wxc86p4j","60c12fe6ca8c4aa6d0185190","fixation","","","img/fixation.png","null","","","test","","","","","","","","","","","","","","","","","","","",""
"548.2999999523163","158358","SARL_v6","SARL_v6wxc86p4j","60c12fe6ca8c4aa6d0185190","freq","","","img/blue_2bandit_b2.png","70","","70","test","1","","85","","","","circle","square","82","10","4","0.9634146341463414","","","","","","","",""
"null","158622","SARL_v6","SARL_v6wxc86p4j","60c12fe6ca8c4aa6d0185190","freq_resp","","","img/blue_2bandit_b.png","70","img/blue_2bandit_b.png","70","test","","","","","","","","","","","4","","","","","","","","",""
"null","158775","SARL_v6","SARL_v6wxc86p4j","60c12fe6ca8c4aa6d0185190","fixation","","","img/fixation.png","null","","","test","","","","","","","","","","","","","","","","","","","",""
"576.2000000476837","159353","SARL_v6","SARL_v6wxc86p4j","60c12fe6ca8c4aa6d0185190","freq","","","img/blue_2bandit_b2.png","70","","70","test","1","","86","","","","circle","square","83","11","4","0.963855421686747","","","","","","","",""
"null","159579","SARL_v6","SARL_v6wxc86p4j","60c12fe6ca8c4aa6d0185190","freq_resp","","","img/blue_2bandit_b.png","70","img/blue_2bandit_b.png","70","test","","","","","","","","","","","4","","","","","","","","",""
"null","159735","SARL_v6","SARL_v6wxc86p4j","60c12fe6ca8c4aa6d0185190","fixation","","","img/fixation.png","null","","","test","","","","","","","","","","","","","","","","","","","",""
"588.8999999761581","160325","SARL_v6","SARL_v6wxc86p4j","60c12fe6ca8c4aa6d0185190","freq","","","img/blue_2bandit_b2.png","70","","70","test","1","","87","","","","circle","square","84","12","4","0.9642857142857143","","","","","","","",""
"null","160548","SARL_v6","SARL_v6wxc86p4j","60c12fe6ca8c4aa6d0185190","freq_resp","","","img/blue_2bandit_b.png","70","img/blue_2bandit_b.png","70","test","","","","","","","","","","","4","","","","","","","","",""
"null","160703","SARL_v6","SARL_v6wxc86p4j","60c12fe6ca8c4aa6d0185190","fixation","","","img/fixation.png","null","","","test","","","","","","","","","","","","","","","","","","","",""
"630.9000000953674","161336","SARL_v6","SARL_v6wxc86p4j","60c12fe6ca8c4aa6d0185190","infreq","","","img/orange_2bandit_b2.png","68","","68","test","1","","88","","","","circle","square","85","13","4","0.9647058823529412","","","","","","","",""
"null","161521","SARL_v6","SARL_v6wxc86p4j","60c12fe6ca8c4aa6d0185190","infreq_resp","","","img/orange_2bandit_b.png","68","img/orange_2bandit_b.png","68","test","","","","","","","","","","","4","","","","","","","","",""
"null","161678","SARL_v6","SARL_v6wxc86p4j","60c12fe6ca8c4aa6d0185190","fixation","","","img/fixation.png","null","","","test","","","","","","","","","","","","","","","","","","","",""
"452.2999999523163","162132","SARL_v6","SARL_v6wxc86p4j","60c12fe6ca8c4aa6d0185190","freq","","","img/blue_2bandit_b2.png","70","","70","test","1","","89","","","","circle","square","86","14","4","0.9651162790697675","","","","","","","",""
"null","162493","SARL_v6","SARL_v6wxc86p4j","60c12fe6ca8c4aa6d0185190","freq_resp","","","img/blue_2bandit_b.png","70","img/blue_2bandit_b.png","70","test","","","","","","","","","","","4","","","","","","","","",""
"null","162650","SARL_v6","SARL_v6wxc86p4j","60c12fe6ca8c4aa6d0185190","fixation","","","img/fixation.png","null","","","test","","","","","","","","","","","","","","","","","","","",""
"434.1999999284744","163086","SARL_v6","SARL_v6wxc86p4j","60c12fe6ca8c4aa6d0185190","freq","","","img/blue_2bandit_b2.png","70","","70","test","1","","90","","","","circle","square","87","15","4","0.9655172413793104","","","","","","","",""
"null","163468","SARL_v6","SARL_v6wxc86p4j","60c12fe6ca8c4aa6d0185190","freq_resp","","","img/blue_2bandit_b.png","70","img/blue_2bandit_b.png","70","test","","","","","","","","","","","4","","","","","","","","",""
"null","163624","SARL_v6","SARL_v6wxc86p4j","60c12fe6ca8c4aa6d0185190","fixation","","","img/fixation.png","null","","","test","","","","","","","","","","","","","","","","","","","",""
"426.2000000476837","164052","SARL_v6","SARL_v6wxc86p4j","60c12fe6ca8c4aa6d0185190","freq","","","img/blue_2bandit_b2.png","70","","70","test","1","","91","","","","circle","square","88","16","4","0.9659090909090909","","","","","","","",""
"null","164441","SARL_v6","SARL_v6wxc86p4j","60c12fe6ca8c4aa6d0185190","freq_resp","","","img/blue_2bandit_b.png","70","img/blue_2bandit_b.png","70","test","","","","","","","","","","","4","","","","","","","","",""
"null","164598","SARL_v6","SARL_v6wxc86p4j","60c12fe6ca8c4aa6d0185190","fixation","","","img/fixation.png","null","","","test","","","","","","","","","","","","","","","","","","","",""
"391.39999997615814","164992","SARL_v6","SARL_v6wxc86p4j","60c12fe6ca8c4aa6d0185190","freq","","","img/blue_2bandit_b2.png","70","","70","test","1","","92","","","","circle","square","89","17","4","0.9662921348314607","","","","","","","",""
"null","165415","SARL_v6","SARL_v6wxc86p4j","60c12fe6ca8c4aa6d0185190","freq_resp","","","img/blue_2bandit_b.png","70","img/blue_2bandit_b.png","70","test","","","","","","","","","","","4","","","","","","","","",""
"null","165572","SARL_v6","SARL_v6wxc86p4j","60c12fe6ca8c4aa6d0185190","fixation","","","img/fixation.png","null","","","test","","","","","","","","","","","","","","","","","","","",""
"346.2000000476837","165920","SARL_v6","SARL_v6wxc86p4j","60c12fe6ca8c4aa6d0185190","freq","","","img/blue_2bandit_b2.png","70","","70","test","1","","93","","","","circle","square","90","18","4","0.9666666666666667","","","","","","","",""
"null","166388","SARL_v6","SARL_v6wxc86p4j","60c12fe6ca8c4aa6d0185190","freq_resp","","","img/blue_2bandit_b.png","70","img/blue_2bandit_b.png","70","test","","","","","","","","","","","4","","","","","","","","",""
"null","166545","SARL_v6","SARL_v6wxc86p4j","60c12fe6ca8c4aa6d0185190","fixation","","","img/fixation.png","null","","","test","","","","","","","","","","","","","","","","","","","",""
"291.1999999284744","166839","SARL_v6","SARL_v6wxc86p4j","60c12fe6ca8c4aa6d0185190","freq","","","img/blue_2bandit_b2.png","70","","70","test","1","","94","","","","circle","square","91","19","4","0.967032967032967","","","","","","","",""
"null","167362","SARL_v6","SARL_v6wxc86p4j","60c12fe6ca8c4aa6d0185190","freq_resp","","","img/blue_2bandit_b.png","70","img/blue_2bandit_b.png","70","test","","","","","","","","","","","4","","","","","","","","",""
"null","167515","SARL_v6","SARL_v6wxc86p4j","60c12fe6ca8c4aa6d0185190","fixation","","","img/fixation.png","null","","","test","","","","","","","","","","","","","","","","","","","",""
"694.9000000953674","168211","SARL_v6","SARL_v6wxc86p4j","60c12fe6ca8c4aa6d0185190","rl","","","img/black_2bandit_b2.png","74","","0","test","","","95","","","-12","circle","square","","0","4","","74","-12","0","-12","0","circle","4","0"
"null","168977","SARL_v6","SARL_v6wxc86p4j","60c12fe6ca8c4aa6d0185190","feedback","","","<div class=""verylowPoints""> -12 </div>","null","","na","test","","","NaN","","","","","","","","4","","74","","","","","","4",""
"646.6000000238419","169626","SARL_v6","SARL_v6wxc86p4j","60c12fe6ca8c4aa6d0185190","freq","","","img/blue_2bandit_b2.png","70","","70","test","1","","96","","","","circle","square","92","1","5","0.967391304347826","","","","","","","",""
"null","169793","SARL_v6","SARL_v6wxc86p4j","60c12fe6ca8c4aa6d0185190","freq_resp","","","img/blue_2bandit_b.png","70","img/blue_2bandit_b.png","70","test","","","","","","","","","","","5","","","","","","","","",""
"null","169948","SARL_v6","SARL_v6wxc86p4j","60c12fe6ca8c4aa6d0185190","fixation","","","img/fixation.png","null","","","test","","","","","","","","","","","","","","","","","","","",""
"579.1000000238419","170529","SARL_v6","SARL_v6wxc86p4j","60c12fe6ca8c4aa6d0185190","freq","","","img/blue_2bandit_b2.png","70","","70","test","1","","97","","","","circle","square","93","2","5","0.967741935483871","","","","","","","",""
"null","170764","SARL_v6","SARL_v6wxc86p4j","60c12fe6ca8c4aa6d0185190","freq_resp","","","img/blue_2bandit_b.png","70","img/blue_2bandit_b.png","70","test","","","","","","","","","","","5","","","","","","","","",""
"null","170923","SARL_v6","SARL_v6wxc86p4j","60c12fe6ca8c4aa6d0185190","fixation","","","img/fixation.png","null","","","test","","","","","","","","","","","","","","","","","","","",""
"528.0999999046326","171453","SARL_v6","SARL_v6wxc86p4j","60c12fe6ca8c4aa6d0185190","freq","","","img/blue_2bandit_b2.png","70","","70","test","1","","98","","","","circle","square","94","3","5","0.9680851063829787","","","","","","","",""
"null","171737","SARL_v6","SARL_v6wxc86p4j","60c12fe6ca8c4aa6d0185190","freq_resp","","","img/blue_2bandit_b.png","70","img/blue_2bandit_b.png","70","test","","","","","","","","","","","5","","","","","","","","",""
"null","171895","SARL_v6","SARL_v6wxc86p4j","60c12fe6ca8c4aa6d0185190","fixation","","","img/fixation.png","null","","","test","","","","","","","","","","","","","","","","","","","",""
"530.2999999523163","172427","SARL_v6","SARL_v6wxc86p4j","60c12fe6ca8c4aa6d0185190","freq","","","img/blue_2bandit_b2.png","70","","70","test","1","","99","","","","circle","square","95","4","5","0.968421052631579","","","","","","","",""
"null","172706","SARL_v6","SARL_v6wxc86p4j","60c12fe6ca8c4aa6d0185190","freq_resp","","","img/blue_2bandit_b.png","70","img/blue_2bandit_b.png","70","test","","","","","","","","","","","5","","","","","","","","",""
"null","172864","SARL_v6","SARL_v6wxc86p4j","60c12fe6ca8c4aa6d0185190","fixation","","","img/fixation.png","null","","","test","","","","","","","","","","","","","","","","","","","",""
"485.8000000715256","173351","SARL_v6","SARL_v6wxc86p4j","60c12fe6ca8c4aa6d0185190","freq","","","img/blue_2bandit_b2.png","70","","70","test","1","","100","","","","circle","square","96","5","5","0.96875","","","","","","","",""
"null","173679","SARL_v6","SARL_v6wxc86p4j","60c12fe6ca8c4aa6d0185190","freq_resp","","","img/blue_2bandit_b.png","70","img/blue_2bandit_b.png","70","test","","","","","","","","","","","5","","","","","","","","",""
"null","173836","SARL_v6","SARL_v6wxc86p4j","60c12fe6ca8c4aa6d0185190","fixation","","","img/fixation.png","null","","","test","","","","","","","","","","","","","","","","","","","",""
"499.39999997615814","174337","SARL_v6","SARL_v6wxc86p4j","60c12fe6ca8c4aa6d0185190","freq","","","img/blue_2bandit_b2.png","70","","70","test","1","","101","","","","circle","square","97","6","5","0.9690721649484536","","","","","","","",""
"null","174648","SARL_v6","SARL_v6wxc86p4j","60c12fe6ca8c4aa6d0185190","freq_resp","","","img/blue_2bandit_b.png","70","img/blue_2bandit_b.png","70","test","","","","","","","","","","","5","","","","","","","","",""
"null","174805","SARL_v6","SARL_v6wxc86p4j","60c12fe6ca8c4aa6d0185190","fixation","","","img/fixation.png","null","","","test","","","","","","","","","","","","","","","","","","","",""
"545.2999999523163","175353","SARL_v6","SARL_v6wxc86p4j","60c12fe6ca8c4aa6d0185190","freq","","","img/blue_2bandit_b2.png","70","","70","test","1","","102","","","","circle","square","98","7","5","0.9693877551020408","","","","","","","",""
"null","175621","SARL_v6","SARL_v6wxc86p4j","60c12fe6ca8c4aa6d0185190","freq_resp","","","img/blue_2bandit_b.png","70","img/blue_2bandit_b.png","70","test","","","","","","","","","","","5","","","","","","","","",""
"null","175777","SARL_v6","SARL_v6wxc86p4j","60c12fe6ca8c4aa6d0185190","fixation","","","img/fixation.png","null","","","test","","","","","","","","","","","","","","","","","","","",""
"549.1999999284744","176328","SARL_v6","SARL_v6wxc86p4j","60c12fe6ca8c4aa6d0185190","freq","","","img/blue_2bandit_b2.png","70","","70","test","1","","103","","","","circle","square","99","8","5","0.9696969696969697","","","","","","","",""
"null","176594","SARL_v6","SARL_v6wxc86p4j","60c12fe6ca8c4aa6d0185190","freq_resp","","","img/blue_2bandit_b.png","70","img/blue_2bandit_b.png","70","test","","","","","","","","","","","5","","","","","","","","",""
"null","176750","SARL_v6","SARL_v6wxc86p4j","60c12fe6ca8c4aa6d0185190","fixation","","","img/fixation.png","null","","","test","","","","","","","","","","","","","","","","","","","",""
"547.3999999761581","177300","SARL_v6","SARL_v6wxc86p4j","60c12fe6ca8c4aa6d0185190","freq","","","img/blue_2bandit_b2.png","70","","70","test","1","","104","","","","circle","square","100","9","5","0.97","","","","","","","",""
"null","177564","SARL_v6","SARL_v6wxc86p4j","60c12fe6ca8c4aa6d0185190","freq_resp","","","img/blue_2bandit_b.png","70","img/blue_2bandit_b.png","70","test","","","","","","","","","","","5","","","","","","","","",""
"null","177722","SARL_v6","SARL_v6wxc86p4j","60c12fe6ca8c4aa6d0185190","fixation","","","img/fixation.png","null","","","test","","","","","","","","","","","","","","","","","","","",""
"531.7999999523163","178256","SARL_v6","SARL_v6wxc86p4j","60c12fe6ca8c4aa6d0185190","freq","","","img/blue_2bandit_b2.png","70","","70","test","1","","105","","","","circle","square","101","10","5","0.9702970297029703","","","","","","","",""
"null","178534","SARL_v6","SARL_v6wxc86p4j","60c12fe6ca8c4aa6d0185190","freq_resp","","","img/blue_2bandit_b.png","70","img/blue_2bandit_b.png","70","test","","","","","","","","","","","5","","","","","","","","",""
"null","178686","SARL_v6","SARL_v6wxc86p4j","60c12fe6ca8c4aa6d0185190","fixation","","","img/fixation.png","null","","","test","","","","","","","","","","","","","","","","","","","",""
"555.6000000238419","179244","SARL_v6","SARL_v6wxc86p4j","60c12fe6ca8c4aa6d0185190","infreq","","","img/orange_2bandit_b2.png","68","","68","test","1","","106","","","","circle","square","102","11","5","0.9705882352941176","","","","","","","",""
"null","179501","SARL_v6","SARL_v6wxc86p4j","60c12fe6ca8c4aa6d0185190","infreq_resp","","","img/orange_2bandit_b.png","68","img/orange_2bandit_b.png","68","test","","","","","","","","","","","5","","","","","","","","",""
"null","179664","SARL_v6","SARL_v6wxc86p4j","60c12fe6ca8c4aa6d0185190","fixation","","","img/fixation.png","null","","","test","","","","","","","","","","","","","","","","","","","",""
"522.8000000715256","180189","SARL_v6","SARL_v6wxc86p4j","60c12fe6ca8c4aa6d0185190","freq","","","img/blue_2bandit_b2.png","70","","70","test","1","","107","","","","circle","square","103","12","5","0.970873786407767","","","","","","","",""
"null","180479","SARL_v6","SARL_v6wxc86p4j","60c12fe6ca8c4aa6d0185190","freq_resp","","","img/blue_2bandit_b.png","70","img/blue_2bandit_b.png","70","test","","","","","","","","","","","5","","","","","","","","",""
"null","180635","SARL_v6","SARL_v6wxc86p4j","60c12fe6ca8c4aa6d0185190","fixation","","","img/fixation.png","null","","","test","","","","","","","","","","","","","","","","","","","",""
"508.5","181145","SARL_v6","SARL_v6wxc86p4j","60c12fe6ca8c4aa6d0185190","freq","","","img/blue_2bandit_b2.png","70","","70","test","1","","108","","","","circle","square","104","13","5","0.9711538461538461","","","","","","","",""
"null","181452","SARL_v6","SARL_v6wxc86p4j","60c12fe6ca8c4aa6d0185190","freq_resp","","","img/blue_2bandit_b.png","70","img/blue_2bandit_b.png","70","test","","","","","","","","","","","5","","","","","","","","",""
"null","181605","SARL_v6","SARL_v6wxc86p4j","60c12fe6ca8c4aa6d0185190","fixation","","","img/fixation.png","null","","","test","","","","","","","","","","","","","","","","","","","",""
"531.6000000238419","182138","SARL_v6","SARL_v6wxc86p4j","60c12fe6ca8c4aa6d0185190","freq","","","img/blue_2bandit_b2.png","70","","70","test","1","","109","","","","circle","square","105","14","5","0.9714285714285714","","","","","","","",""
"null","182412","SARL_v6","SARL_v6wxc86p4j","60c12fe6ca8c4aa6d0185190","freq_resp","","","img/blue_2bandit_b.png","70","img/blue_2bandit_b.png","70","test","","","","","","","","","","","5","","","","","","","","",""
"null","182570","SARL_v6","SARL_v6wxc86p4j","60c12fe6ca8c4aa6d0185190","fixation","","","img/fixation.png","null","","","test","","","","","","","","","","","","","","","","","","","",""
"519.5","183092","SARL_v6","SARL_v6wxc86p4j","60c12fe6ca8c4aa6d0185190","freq","","","img/blue_2bandit_b2.png","70","","70","test","1","","110","","","","circle","square","106","15","5","0.9716981132075472","","","","","","","",""
"null","183386","SARL_v6","SARL_v6wxc86p4j","60c12fe6ca8c4aa6d0185190","freq_resp","","","img/blue_2bandit_b.png","70","img/blue_2bandit_b.png","70","test","","","","","","","","","","","5","","","","","","","","",""
"null","183543","SARL_v6","SARL_v6wxc86p4j","60c12fe6ca8c4aa6d0185190","fixation","","","img/fixation.png","null","","","test","","","","","","","","","","","","","","","","","","","",""
"545.7000000476837","184091","SARL_v6","SARL_v6wxc86p4j","60c12fe6ca8c4aa6d0185190","infreq","","","img/orange_2bandit_b2.png","68","","68","test","1","","111","","","","circle","square","107","16","5","0.9719626168224299","","","","","","","",""
"null","184359","SARL_v6","SARL_v6wxc86p4j","60c12fe6ca8c4aa6d0185190","infreq_resp","","","img/orange_2bandit_b.png","68","img/orange_2bandit_b.png","68","test","","","","","","","","","","","5","","","","","","","","",""
"null","184516","SARL_v6","SARL_v6wxc86p4j","60c12fe6ca8c4aa6d0185190","fixation","","","img/fixation.png","null","","","test","","","","","","","","","","","","","","","","","","","",""
"466.2999999523163","184984","SARL_v6","SARL_v6wxc86p4j","60c12fe6ca8c4aa6d0185190","freq","","","img/blue_2bandit_b2.png","70","","70","test","1","","112","","","","circle","square","108","17","5","0.9722222222222222","","","","","","","",""
"null","185332","SARL_v6","SARL_v6wxc86p4j","60c12fe6ca8c4aa6d0185190","freq_resp","","","img/blue_2bandit_b.png","70","img/blue_2bandit_b.png","70","test","","","","","","","","","","","5","","","","","","","","",""
"null","185488","SARL_v6","SARL_v6wxc86p4j","60c12fe6ca8c4aa6d0185190","fixation","","","img/fixation.png","null","","","test","","","","","","","","","","","","","","","","","","","",""
"443.89999997615814","185934","SARL_v6","SARL_v6wxc86p4j","60c12fe6ca8c4aa6d0185190","freq","","","img/blue_2bandit_b2.png","70","","70","test","1","","113","","","","circle","square","109","18","5","0.9724770642201835","","","","","","","",""
"null","186303","SARL_v6","SARL_v6wxc86p4j","60c12fe6ca8c4aa6d0185190","freq_resp","","","img/blue_2bandit_b.png","70","img/blue_2bandit_b.png","70","test","","","","","","","","","","","5","","","","","","","","",""
"null","186460","SARL_v6","SARL_v6wxc86p4j","60c12fe6ca8c4aa6d0185190","fixation","","","img/fixation.png","null","","","test","","","","","","","","","","","","","","","","","","","",""
"521.8000000715256","186984","SARL_v6","SARL_v6wxc86p4j","60c12fe6ca8c4aa6d0185190","freq","","","img/blue_2bandit_b2.png","70","","70","test","1","","114","","","","circle","square","110","19","5","0.9727272727272728","","","","","","","",""
"null","187279","SARL_v6","SARL_v6wxc86p4j","60c12fe6ca8c4aa6d0185190","freq_resp","","","img/blue_2bandit_b.png","70","img/blue_2bandit_b.png","70","test","","","","","","","","","","","5","","","","","","","","",""
"null","187435","SARL_v6","SARL_v6wxc86p4j","60c12fe6ca8c4aa6d0185190","fixation","","","img/fixation.png","null","","","test","","","","","","","","","","","","","","","","","","","",""
"538.3999999761581","187976","SARL_v6","SARL_v6wxc86p4j","60c12fe6ca8c4aa6d0185190","freq","","","img/blue_2bandit_b2.png","70","","70","test","1","","115","","","","circle","square","111","20","5","0.972972972972973","","","","","","","",""
"null","188255","SARL_v6","SARL_v6wxc86p4j","60c12fe6ca8c4aa6d0185190","freq_resp","","","img/blue_2bandit_b.png","70","img/blue_2bandit_b.png","70","test","","","","","","","","","","","5","","","","","","","","",""
"null","188412","SARL_v6","SARL_v6wxc86p4j","60c12fe6ca8c4aa6d0185190","fixation","","","img/fixation.png","null","","","test","","","","","","","","","","","","","","","","","","","",""
"561.1000000238419","188975","SARL_v6","SARL_v6wxc86p4j","60c12fe6ca8c4aa6d0185190","freq","","","img/blue_2bandit_b2.png","70","","70","test","1","","116","","","","circle","square","112","21","5","0.9732142857142857","","","","","","","",""
"null","189226","SARL_v6","SARL_v6wxc86p4j","60c12fe6ca8c4aa6d0185190","freq_resp","","","img/blue_2bandit_b.png","70","img/blue_2bandit_b.png","70","test","","","","","","","","","","","5","","","","","","","","",""
"null","189381","SARL_v6","SARL_v6wxc86p4j","60c12fe6ca8c4aa6d0185190","fixation","","","img/fixation.png","null","","","test","","","","","","","","","","","","","","","","","","","",""
"557.8000000715256","189941","SARL_v6","SARL_v6wxc86p4j","60c12fe6ca8c4aa6d0185190","freq","","","img/blue_2bandit_b2.png","70","","70","test","1","","117","","","","circle","square","113","22","5","0.9734513274336283","","","","","","","",""
"null","190199","SARL_v6","SARL_v6wxc86p4j","60c12fe6ca8c4aa6d0185190","freq_resp","","","img/blue_2bandit_b.png","70","img/blue_2bandit_b.png","70","test","","","","","","","","","","","5","","","","","","","","",""
"null","190355","SARL_v6","SARL_v6wxc86p4j","60c12fe6ca8c4aa6d0185190","fixation","","","img/fixation.png","null","","","test","","","","","","","","","","","","","","","","","","","",""
"597.8999999761581","190955","SARL_v6","SARL_v6wxc86p4j","60c12fe6ca8c4aa6d0185190","freq","","","img/blue_2bandit_b2.png","70","","70","test","1","","118","","","","circle","square","114","23","5","0.9736842105263158","","","","","","","",""
"null","191171","SARL_v6","SARL_v6wxc86p4j","60c12fe6ca8c4aa6d0185190","freq_resp","","","img/blue_2bandit_b.png","70","img/blue_2bandit_b.png","70","test","","","","","","","","","","","5","","","","","","","","",""
"null","191327","SARL_v6","SARL_v6wxc86p4j","60c12fe6ca8c4aa6d0185190","fixation","","","img/fixation.png","null","","","test","","","","","","","","","","","","","","","","","","","",""
"503","191832","SARL_v6","SARL_v6wxc86p4j","60c12fe6ca8c4aa6d0185190","rl","","","img/black_2bandit_b2.png","75","","0","test","","","119","","","4","circle","square","","0","5","","75","-7","4","-7","4","square","5","0"
"null","192599","SARL_v6","SARL_v6wxc86p4j","60c12fe6ca8c4aa6d0185190","feedback","","","<div class=""veryhighPoints_sq""> 4 </div>","null","","na","test","","","NaN","","","","","","","","5","","75","","","","","","5",""
"541.6999999284744","193142","SARL_v6","SARL_v6wxc86p4j","60c12fe6ca8c4aa6d0185190","freq","","","img/blue_2bandit_b2.png","70","","70","test","1","","120","","","","circle","square","115","1","6","0.9739130434782609","","","","","","","",""
"null","193408","SARL_v6","SARL_v6wxc86p4j","60c12fe6ca8c4aa6d0185190","freq_resp","","","img/blue_2bandit_b.png","70","img/blue_2bandit_b.png","70","test","","","","","","","","","","","6","","","","","","","","",""
"null","193564","SARL_v6","SARL_v6wxc86p4j","60c12fe6ca8c4aa6d0185190","fixation","","","img/fixation.png","null","","","test","","","","","","","","","","","","","","","","","","","",""
"451.3000000715256","194017","SARL_v6","SARL_v6wxc86p4j","60c12fe6ca8c4aa6d0185190","freq","","","img/blue_2bandit_b2.png","70","","70","test","1","","121","","","","circle","square","116","2","6","0.9741379310344828","","","","","","","",""
"null","194377","SARL_v6","SARL_v6wxc86p4j","60c12fe6ca8c4aa6d0185190","freq_resp","","","img/blue_2bandit_b.png","70","img/blue_2bandit_b.png","70","test","","","","","","","","","","","6","","","","","","","","",""
"null","194532","SARL_v6","SARL_v6wxc86p4j","60c12fe6ca8c4aa6d0185190","fixation","","","img/fixation.png","null","","","test","","","","","","","","","","","","","","","","","","","",""
"623.8000000715256","195159","SARL_v6","SARL_v6wxc86p4j","60c12fe6ca8c4aa6d0185190","freq","","","img/blue_2bandit_b2.png","70","","70","test","1","","122","","","","circle","square","117","3","6","0.9743589743589743","","","","","","","",""
"null","195337","SARL_v6","SARL_v6wxc86p4j","60c12fe6ca8c4aa6d0185190","freq_resp","","","img/blue_2bandit_b.png","70","img/blue_2bandit_b.png","70","test","","","","","","","","","","","6","","","","","","","","",""
"null","195493","SARL_v6","SARL_v6wxc86p4j","60c12fe6ca8c4aa6d0185190","fixation","","","img/fixation.png","null","","","test","","","","","","","","","","","","","","","","","","","",""
"558.1000000238419","196053","SARL_v6","SARL_v6wxc86p4j","60c12fe6ca8c4aa6d0185190","freq","","","img/blue_2bandit_b2.png","70","","70","test","1","","123","","","","circle","square","118","4","6","0.9745762711864406","","","","","","","",""
"null","196311","SARL_v6","SARL_v6wxc86p4j","60c12fe6ca8c4aa6d0185190","freq_resp","","","img/blue_2bandit_b.png","70","img/blue_2bandit_b.png","70","test","","","","","","","","","","","6","","","","","","","","",""
"null","196464","SARL_v6","SARL_v6wxc86p4j","60c12fe6ca8c4aa6d0185190","fixation","","","img/fixation.png","null","","","test","","","","","","","","","","","","","","","","","","","",""
"691.6999999284744","197157","SARL_v6","SARL_v6wxc86p4j","60c12fe6ca8c4aa6d0185190","freq","","","img/blue_2bandit_b2.png","70","","70","test","1","","124","","","","circle","square","119","5","6","0.9747899159663865","","","","","","","",""
"null","197281","SARL_v6","SARL_v6wxc86p4j","60c12fe6ca8c4aa6d0185190","freq_resp","","","img/blue_2bandit_b.png","70","img/blue_2bandit_b.png","70","test","","","","","","","","","","","6","","","","","","","","",""
"null","197437","SARL_v6","SARL_v6wxc86p4j","60c12fe6ca8c4aa6d0185190","fixation","","","img/fixation.png","null","","","test","","","","","","","","","","","","","","","","","","","",""
"698","198137","SARL_v6","SARL_v6wxc86p4j","60c12fe6ca8c4aa6d0185190","freq","","","img/blue_2bandit_b2.png","70","","70","test","1","","125","","","","circle","square","120","6","6","0.975","","","","","","","",""
"null","198252","SARL_v6","SARL_v6wxc86p4j","60c12fe6ca8c4aa6d0185190","freq_resp","","","img/blue_2bandit_b.png","70","img/blue_2bandit_b.png","70","test","","","","","","","","","","","6","","","","","","","","",""
"null","198409","SARL_v6","SARL_v6wxc86p4j","60c12fe6ca8c4aa6d0185190","fixation","","","img/fixation.png","null","","","test","","","","","","","","","","","","","","","","","","","",""
"520.3000000715256","198932","SARL_v6","SARL_v6wxc86p4j","60c12fe6ca8c4aa6d0185190","freq","","","img/blue_2bandit_b2.png","70","","70","test","1","","126","","","","circle","square","121","7","6","0.9752066115702479","","","","","","","",""
"null","199227","SARL_v6","SARL_v6wxc86p4j","60c12fe6ca8c4aa6d0185190","freq_resp","","","img/blue_2bandit_b.png","70","img/blue_2bandit_b.png","70","test","","","","","","","","","","","6","","","","","","","","",""
"null","199383","SARL_v6","SARL_v6wxc86p4j","60c12fe6ca8c4aa6d0185190","fixation","","","img/fixation.png","null","","","test","","","","","","","","","","","","","","","","","","","",""
"401.5","199787","SARL_v6","SARL_v6wxc86p4j","60c12fe6ca8c4aa6d0185190","freq","","","img/blue_2bandit_b2.png","70","","70","test","1","","127","","","","circle","square","122","8","6","0.9754098360655737","","","","","","","",""
"null","200201","SARL_v6","SARL_v6wxc86p4j","60c12fe6ca8c4aa6d0185190","freq_resp","","","img/blue_2bandit_b.png","70","img/blue_2bandit_b.png","70","test","","","","","","","","","","","6","","","","","","","","",""
"null","200357","SARL_v6","SARL_v6wxc86p4j","60c12fe6ca8c4aa6d0185190","fixation","","","img/fixation.png","null","","","test","","","","","","","","","","","","","","","","","","","",""
"475.5","200835","SARL_v6","SARL_v6wxc86p4j","60c12fe6ca8c4aa6d0185190","freq","","","img/blue_2bandit_b2.png","70","","70","test","1","","128","","","","circle","square","123","9","6","0.975609756097561","","","","","","","",""
"null","201173","SARL_v6","SARL_v6wxc86p4j","60c12fe6ca8c4aa6d0185190","freq_resp","","","img/blue_2bandit_b.png","70","img/blue_2bandit_b.png","70","test","","","","","","","","","","","6","","","","","","","","",""
"null","201331","SARL_v6","SARL_v6wxc86p4j","60c12fe6ca8c4aa6d0185190","fixation","","","img/fixation.png","null","","","test","","","","","","","","","","","","","","","","","","","",""
"532","201865","SARL_v6","SARL_v6wxc86p4j","60c12fe6ca8c4aa6d0185190","infreq","","","img/orange_2bandit_b2.png","68","","68","test","1","","129","","","","circle","square","124","10","6","0.9758064516129032","","","","","","","",""
"null","202142","SARL_v6","SARL_v6wxc86p4j","60c12fe6ca8c4aa6d0185190","infreq_resp","","","img/orange_2bandit_b.png","68","img/orange_2bandit_b.png","68","test","","","","","","","","","","","6","","","","","","","","",""
"null","202297","SARL_v6","SARL_v6wxc86p4j","60c12fe6ca8c4aa6d0185190","fixation","","","img/fixation.png","null","","","test","","","","","","","","","","","","","","","","","","","",""
"380.10000002384186","202680","SARL_v6","SARL_v6wxc86p4j","60c12fe6ca8c4aa6d0185190","freq","","","img/blue_2bandit_b2.png","70","","70","test","1","","130","","","","circle","square","125","11","6","0.976","","","","","","","",""
"null","203111","SARL_v6","SARL_v6wxc86p4j","60c12fe6ca8c4aa6d0185190","freq_resp","","","img/blue_2bandit_b.png","70","img/blue_2bandit_b.png","70","test","","","","","","","","","","","6","","","","","","","","",""
