"rt","time_elapsed","expId","subject","prolificID","trialType","rlType","attType","stimulus","key_press","stim","corrresp","phase","corr","pracCounter","trialNum","rewardOne","rewardTwo","reward","bandOne","bandTwo","attentionNum","attentionRunNum","blockNum","performance","bandChosen","circleVal","squareVal","bandOneVal","bandTwoVal","shapeChosen","rlNum","badFlag"
"59511","59518","SARL_v6","SARL_v6e7cl691g","64143c6c286640f3d1348cf8","","","","","","","","","","","","","","","","","","","","","","","","","","","",""
"","61883","SARL_v6","SARL_v6e7cl691g","64143c6c286640f3d1348cf8","fullscreen","fullscreen","fullscreen","","","","","","","","","","","","","","","","","","","","","","","","",""
"35301.39999997616","97189","SARL_v6","SARL_v6e7cl691g","64143c6c286640f3d1348cf8","","","","","","","","","","","","","","","","","","","","","","","","","","","",""
"null","97996","SARL_v6","SARL_v6e7cl691g","64143c6c286640f3d1348cf8","freqPrac","","","img/orange_2bandit_a2.png","null","img/orange_2bandit_a2.png","70","prac","0","1","","","","","","","","","","","","","","","","","",""
"null","99005","SARL_v6","SARL_v6e7cl691g","64143c6c286640f3d1348cf8","feedback","","","img/tooSlow.png","null","","na","prac","","","","","","","","","","","","","","","","","","","",""
"null","99163","SARL_v6","SARL_v6e7cl691g","64143c6c286640f3d1348cf8","fixation","","","img/fixation.png","null","","","prac","","","","","","","","","","","","","","","","","","","",""
"425.39999997615814","99592","SARL_v6","SARL_v6e7cl691g","64143c6c286640f3d1348cf8","infreqPrac","","","img/blue_2bandit_a2.png","68","img/blue_2bandit_a2.png","68","prac","1","1","","","","","","","","","","","","","","","","","",""
"425.39999997615814","99973","SARL_v6","SARL_v6e7cl691g","64143c6c286640f3d1348cf8","infreqPrac_resp","","","img/blue_2bandit_a.png","68","img/blue_2bandit_a.png","68","prac","","","","","","","","","","","","","","","","","","","",""
"null","100131","SARL_v6","SARL_v6e7cl691g","64143c6c286640f3d1348cf8","fixation","","","img/fixation.png","null","","","prac","","","","","","","","","","","","","","","","","","","",""
"447","100581","SARL_v6","SARL_v6e7cl691g","64143c6c286640f3d1348cf8","freqPrac","","","img/orange_2bandit_a2.png","68","img/orange_2bandit_a2.png","70","prac","0","2","","","","","","","","","","","","","","","","","",""
"447","100940","SARL_v6","SARL_v6e7cl691g","64143c6c286640f3d1348cf8","freqPrac_resp","","","img/orange_2bandit_a.png","68","img/orange_2bandit_a.png","70","prac","","","","","","","","","","","","","","","","","","","",""
"null","101947","SARL_v6","SARL_v6e7cl691g","64143c6c286640f3d1348cf8","feedback","","","img/wrongKey.png","null","","na","prac","","","","","","","","","","","","","","","","","","","",""
"null","102108","SARL_v6","SARL_v6e7cl691g","64143c6c286640f3d1348cf8","fixation","","","img/fixation.png","null","","","prac","","","","","","","","","","","","","","","","","","","",""
"455","102566","SARL_v6","SARL_v6e7cl691g","64143c6c286640f3d1348cf8","infreqPrac","","","img/blue_2bandit_a2.png","68","img/blue_2bandit_a2.png","68","prac","1","2","","","","","","","","","","","","","","","","","",""
"455","102927","SARL_v6","SARL_v6e7cl691g","64143c6c286640f3d1348cf8","infreqPrac_resp","","","img/blue_2bandit_a.png","68","img/blue_2bandit_a.png","68","prac","","","","","","","","","","","","","","","","","","","",""
"null","103085","SARL_v6","SARL_v6e7cl691g","64143c6c286640f3d1348cf8","fixation","","","img/fixation.png","null","","","prac","","","","","","","","","","","","","","","","","","","",""
"490.59999990463257","103579","SARL_v6","SARL_v6e7cl691g","64143c6c286640f3d1348cf8","infreqPrac","","","img/blue_2bandit_a2.png","68","img/blue_2bandit_a2.png","68","prac","1","2","","","","","","","","","","","","","","","","","",""
"490.59999990463257","103899","SARL_v6","SARL_v6e7cl691g","64143c6c286640f3d1348cf8","infreqPrac_resp","","","img/blue_2bandit_a.png","68","img/blue_2bandit_a.png","68","prac","","","","","","","","","","","","","","","","","","","",""
"null","104059","SARL_v6","SARL_v6e7cl691g","64143c6c286640f3d1348cf8","fixation","","","img/fixation.png","null","","","prac","","","","","","","","","","","","","","","","","","","",""
"406.09999990463257","104468","SARL_v6","SARL_v6e7cl691g","64143c6c286640f3d1348cf8","infreqPrac","","","img/blue_2bandit_a2.png","68","img/blue_2bandit_a2.png","68","prac","1","2","","","","","","","","","","","","","","","","","",""
"406.09999990463257","104867","SARL_v6","SARL_v6e7cl691g","64143c6c286640f3d1348cf8","infreqPrac_resp","","","img/blue_2bandit_a.png","68","img/blue_2bandit_a.png","68","prac","","","","","","","","","","","","","","","","","","","",""
"null","105027","SARL_v6","SARL_v6e7cl691g","64143c6c286640f3d1348cf8","fixation","","","img/fixation.png","null","","","prac","","","","","","","","","","","","","","","","","","","",""
"372.09999990463257","105402","SARL_v6","SARL_v6e7cl691g","64143c6c286640f3d1348cf8","freqPrac","","","img/orange_2bandit_a2.png","70","img/orange_2bandit_a2.png","70","prac","1","2","","","","","","","","","","","","","","","","","",""
"372.09999990463257","105835","SARL_v6","SARL_v6e7cl691g","64143c6c286640f3d1348cf8","freqPrac_resp","","","img/orange_2bandit_a.png","70","img/orange_2bandit_a.png","70","prac","","","","","","","","","","","","","","","","","","","",""
"null","105995","SARL_v6","SARL_v6e7cl691g","64143c6c286640f3d1348cf8","fixation","","","img/fixation.png","null","","","prac","","","","","","","","","","","","","","","","","","","",""
"330.7000000476837","106329","SARL_v6","SARL_v6e7cl691g","64143c6c286640f3d1348cf8","infreqPrac","","","img/blue_2bandit_a2.png","68","img/blue_2bandit_a2.png","68","prac","1","2","","","","","","","","","","","","","","","","","",""
"330.7000000476837","106803","SARL_v6","SARL_v6e7cl691g","64143c6c286640f3d1348cf8","infreqPrac_resp","","","img/blue_2bandit_a.png","68","img/blue_2bandit_a.png","68","prac","","","","","","","","","","","","","","","","","","","",""
"null","106963","SARL_v6","SARL_v6e7cl691g","64143c6c286640f3d1348cf8","fixation","","","img/fixation.png","null","","","prac","","","","","","","","","","","","","","","","","","","",""
"453.1999999284744","107419","SARL_v6","SARL_v6e7cl691g","64143c6c286640f3d1348cf8","freqPrac","","","img/orange_2bandit_a2.png","70","img/orange_2bandit_a2.png","70","prac","1","2","","","","","","","","","","","","","","","","","",""
"453.1999999284744","107771","SARL_v6","SARL_v6e7cl691g","64143c6c286640f3d1348cf8","freqPrac_resp","","","img/orange_2bandit_a.png","70","img/orange_2bandit_a.png","70","prac","","","","","","","","","","","","","","","","","","","",""
"null","107931","SARL_v6","SARL_v6e7cl691g","64143c6c286640f3d1348cf8","fixation","","","img/fixation.png","null","","","prac","","","","","","","","","","","","","","","","","","","",""
"436.89999997615814","108371","SARL_v6","SARL_v6e7cl691g","64143c6c286640f3d1348cf8","freqPrac","","","img/orange_2bandit_a2.png","70","img/orange_2bandit_a2.png","70","prac","1","2","","","","","","","","","","","","","","","","","",""
"436.89999997615814","108743","SARL_v6","SARL_v6e7cl691g","64143c6c286640f3d1348cf8","freqPrac_resp","","","img/orange_2bandit_a.png","70","img/orange_2bandit_a.png","70","prac","","","","","","","","","","","","","","","","","","","",""
"null","108899","SARL_v6","SARL_v6e7cl691g","64143c6c286640f3d1348cf8","fixation","","","img/fixation.png","null","","","prac","","","","","","","","","","","","","","","","","","","",""
"23243.800000071526","132148","SARL_v6","SARL_v6e7cl691g","64143c6c286640f3d1348cf8","","","","","","","","prac","","","","","","","","","","","","","","","","","","","",""
"null","133675","SARL_v6","SARL_v6e7cl691g","64143c6c286640f3d1348cf8","rlPractice","","","img/black_2bandit_a2.png","null","img/black_2bandit_a2.png","","prac","","","0","","","","","","","","","","","","","","","","",""
"null","134437","SARL_v6","SARL_v6e7cl691g","64143c6c286640f3d1348cf8","feedback","","","<div font size = 80> TOO SLOW  </div>","null","","na","prac","","","1","10","-14","10","","","","","","","","","","","","","",""
"null","134597","SARL_v6","SARL_v6e7cl691g","64143c6c286640f3d1348cf8","fixation","","","img/fixation.png","null","","","prac","","","","","","","","","","","","","","","","","","","",""
"679.1000000238419","135279","SARL_v6","SARL_v6e7cl691g","64143c6c286640f3d1348cf8","rlPractice","","","img/black_2bandit_a2.png","74","img/black_2bandit_a2.png","","prac","","","1","","","","","","","","","","","","","","","","",""
"null","136042","SARL_v6","SARL_v6e7cl691g","64143c6c286640f3d1348cf8","feedback","","","<div class=""verylowPoints_sq""> -5 </div>","null","","na","prac","","","2","5","-5","5","","","","","","","","","","","","","",""
"null","136197","SARL_v6","SARL_v6e7cl691g","64143c6c286640f3d1348cf8","fixation","","","img/fixation.png","null","","","prac","","","","","","","","","","","","","","","","","","","",""
"437.5","136638","SARL_v6","SARL_v6e7cl691g","64143c6c286640f3d1348cf8","rlPractice","","","img/black_2bandit_a2.png","75","img/black_2bandit_a2.png","","prac","","","2","","","","","","","","","","","","","","","","",""
"null","137397","SARL_v6","SARL_v6e7cl691g","64143c6c286640f3d1348cf8","feedback","","","<div class=""veryhighPoints""> 30 </div>","null","","na","prac","","","3","30","2","30","","","","","","","","","","","","","",""
"null","137556","SARL_v6","SARL_v6e7cl691g","64143c6c286640f3d1348cf8","fixation","","","img/fixation.png","null","","","prac","","","","","","","","","","","","","","","","","","","",""
"409.10000002384186","137969","SARL_v6","SARL_v6e7cl691g","64143c6c286640f3d1348cf8","rlPractice","","","img/black_2bandit_a2.png","75","img/black_2bandit_a2.png","","prac","","","3","","","","","","","","","","","","","","","","",""
"null","138724","SARL_v6","SARL_v6e7cl691g","64143c6c286640f3d1348cf8","feedback","","","<div class=""verylowPoints""> -2 </div>","null","","na","prac","","","4","-2","20","-2","","","","","","","","","","","","","",""
"null","138887","SARL_v6","SARL_v6e7cl691g","64143c6c286640f3d1348cf8","fixation","","","img/fixation.png","null","","","prac","","","","","","","","","","","","","","","","","","","",""
"4802.5","143692","SARL_v6","SARL_v6e7cl691g","64143c6c286640f3d1348cf8","","","","","","","","prac","","","","","","","","","","","","","","","","","","","",""
"null","144505","SARL_v6","SARL_v6e7cl691g","64143c6c286640f3d1348cf8","mixAttFreqPrac","","","img/orange_2bandit_a2.png","null","img/orange_2bandit_a2.png","70","prac","","","1","","","","","","","","","","","","","","","","",""
"null","144660","SARL_v6","SARL_v6e7cl691g","64143c6c286640f3d1348cf8","fixation","","","img/fixation.png","null","","","prac","","","","","","","","","","","","","","","","","","","",""
"66.69999992847443","144730","SARL_v6","SARL_v6e7cl691g","64143c6c286640f3d1348cf8","mixAttInfreqPrac","","","img/blue_2bandit_a2.png","68","img/blue_2bandit_a2.png","68","prac","","","2","","","","","","","","","","","","","","","","",""
"66.69999992847443","145470","SARL_v6","SARL_v6e7cl691g","64143c6c286640f3d1348cf8","infreqPrac_resp","","","img/blue_2bandit_a.png","68","img/orange_2bandit_a.png","68","prac","","","2","","","","","","","","","","","","","","","","",""
"26","145637","SARL_v6","SARL_v6e7cl691g","64143c6c286640f3d1348cf8","fixation","","","img/fixation.png","68","","","prac","","","","","","","","","","","","","","","","","","","",""
"493.60000002384186","146133","SARL_v6","SARL_v6e7cl691g","64143c6c286640f3d1348cf8","mixAttInfreqPrac","","","img/blue_2bandit_a2.png","68","img/blue_2bandit_a2.png","68","prac","","","3","","","","","","","","","","","","","","","","",""
"493.60000002384186","146444","SARL_v6","SARL_v6e7cl691g","64143c6c286640f3d1348cf8","infreqPrac_resp","","","img/blue_2bandit_a.png","68","img/orange_2bandit_a.png","68","prac","","","3","","","","","","","","","","","","","","","","",""
"null","146605","SARL_v6","SARL_v6e7cl691g","64143c6c286640f3d1348cf8","fixation","","","img/fixation.png","null","","","prac","","","","","","","","","","","","","","","","","","","",""
"327.7000000476837","146936","SARL_v6","SARL_v6e7cl691g","64143c6c286640f3d1348cf8","mixAttInfreqPrac","","","img/blue_2bandit_a2.png","68","img/blue_2bandit_a2.png","68","prac","","","4","","","","","","","","","","","","","","","","",""
"327.7000000476837","147422","SARL_v6","SARL_v6e7cl691g","64143c6c286640f3d1348cf8","infreqPrac_resp","","","img/blue_2bandit_a.png","68","img/orange_2bandit_a.png","68","prac","","","4","","","","","","","","","","","","","","","","",""
"null","147580","SARL_v6","SARL_v6e7cl691g","64143c6c286640f3d1348cf8","fixation","","","img/fixation.png","null","","","prac","","","","","","","","","","","","","","","","","","","",""
"300.3000000715256","147884","SARL_v6","SARL_v6e7cl691g","64143c6c286640f3d1348cf8","mixAttFreqPrac","","","img/orange_2bandit_a2.png","68","img/orange_2bandit_a2.png","70","prac","","","5","","","","","","","","","","","","","","","","",""
"300.3000000715256","148388","SARL_v6","SARL_v6e7cl691g","64143c6c286640f3d1348cf8","freqPrac_resp","","","img/orange_2bandit_a.png","68","img/orange_2bandit_a.png","70","prac","","","5","","","","","","","","","","","","","","","","",""
"null","148548","SARL_v6","SARL_v6e7cl691g","64143c6c286640f3d1348cf8","fixation","","","img/fixation.png","null","","","prac","","","","","","","","","","","","","","","","","","","",""
"642.2000000476837","149193","SARL_v6","SARL_v6e7cl691g","64143c6c286640f3d1348cf8","mixRLPractice","","","img/black_2bandit_a2.png","75","img/black_2bandit_a2.png","","prac","","","5","","","","","","","","","","","","","","","","",""
"null","149949","SARL_v6","SARL_v6e7cl691g","64143c6c286640f3d1348cf8","feedback","","","<div class=""verylowPoints""> -14 </div>","null","","na","prac","","","6","-14","10","-14","","","","","","","","","","","","","",""
"null","150109","SARL_v6","SARL_v6e7cl691g","64143c6c286640f3d1348cf8","fixation","","","img/fixation.png","null","","","prac","","","","","","","","","","","","","","","","","","","",""
"null","150917","SARL_v6","SARL_v6e7cl691g","64143c6c286640f3d1348cf8","mixAttFreqPrac","","","img/orange_2bandit_a2.png","null","img/orange_2bandit_a2.png","70","prac","","","7","","","","","","","","","","","","","","","","",""
"null","151078","SARL_v6","SARL_v6e7cl691g","64143c6c286640f3d1348cf8","fixation","","","img/fixation.png","null","","","prac","","","","","","","","","","","","","","","","","","","",""
"7.299999952316284","151090","SARL_v6","SARL_v6e7cl691g","64143c6c286640f3d1348cf8","mixAttInfreqPrac","","","img/blue_2bandit_a2.png","68","img/blue_2bandit_a2.png","68","prac","","","8","","","","","","","","","","","","","","","","",""
"7.299999952316284","151892","SARL_v6","SARL_v6e7cl691g","64143c6c286640f3d1348cf8","infreqPrac_resp","","","img/blue_2bandit_a.png","68","img/orange_2bandit_a.png","68","prac","","","8","","","","","","","","","","","","","","","","",""
"null","152052","SARL_v6","SARL_v6e7cl691g","64143c6c286640f3d1348cf8","fixation","","","img/fixation.png","null","","","prac","","","","","","","","","","","","","","","","","","","",""
"451.6999999284744","152507","SARL_v6","SARL_v6e7cl691g","64143c6c286640f3d1348cf8","mixAttFreqPrac","","","img/orange_2bandit_a2.png","70","img/orange_2bandit_a2.png","70","prac","","","9","","","","","","","","","","","","","","","","",""
"451.6999999284744","152860","SARL_v6","SARL_v6e7cl691g","64143c6c286640f3d1348cf8","freqPrac_resp","","","img/orange_2bandit_a.png","70","img/orange_2bandit_a.png","70","prac","","","9","","","","","","","","","","","","","","","","",""
"null","153021","SARL_v6","SARL_v6e7cl691g","64143c6c286640f3d1348cf8","fixation","","","img/fixation.png","null","","","prac","","","","","","","","","","","","","","","","","","","",""
"434.39999997615814","153459","SARL_v6","SARL_v6e7cl691g","64143c6c286640f3d1348cf8","mixAttFreqPrac","","","img/orange_2bandit_a2.png","70","img/orange_2bandit_a2.png","70","prac","","","10","","","","","","","","","","","","","","","","",""
"434.39999997615814","153828","SARL_v6","SARL_v6e7cl691g","64143c6c286640f3d1348cf8","freqPrac_resp","","","img/orange_2bandit_a.png","70","img/orange_2bandit_a.png","70","prac","","","10","","","","","","","","","","","","","","","","",""
"null","153988","SARL_v6","SARL_v6e7cl691g","64143c6c286640f3d1348cf8","fixation","","","img/fixation.png","null","","","prac","","","","","","","","","","","","","","","","","","","",""
"383.2999999523163","154375","SARL_v6","SARL_v6e7cl691g","64143c6c286640f3d1348cf8","mixAttInfreqPrac","","","img/blue_2bandit_a2.png","68","img/blue_2bandit_a2.png","68","prac","","","11","","","","","","","","","","","","","","","","",""
"383.2999999523163","154796","SARL_v6","SARL_v6e7cl691g","64143c6c286640f3d1348cf8","infreqPrac_resp","","","img/blue_2bandit_a.png","68","img/orange_2bandit_a.png","68","prac","","","11","","","","","","","","","","","","","","","","",""
"null","154958","SARL_v6","SARL_v6e7cl691g","64143c6c286640f3d1348cf8","fixation","","","img/fixation.png","null","","","prac","","","","","","","","","","","","","","","","","","","",""
"533.1000000238419","155495","SARL_v6","SARL_v6e7cl691g","64143c6c286640f3d1348cf8","mixRLPractice","","","img/black_2bandit_a2.png","74","img/black_2bandit_a2.png","","prac","","","11","","","","","","","","","","","","","","","","",""
"null","156252","SARL_v6","SARL_v6e7cl691g","64143c6c286640f3d1348cf8","feedback","","","<div class=""verylowPoints_sq""> -5 </div>","null","","na","prac","","","12","5","-5","5","","","","","","","","","","","","","",""
"null","156412","SARL_v6","SARL_v6e7cl691g","64143c6c286640f3d1348cf8","fixation","","","img/fixation.png","null","","","prac","","","","","","","","","","","","","","","","","","","",""
"398343","554771","SARL_v6","SARL_v6e7cl691g","64143c6c286640f3d1348cf8","","","","","","","","prac","","","","","","","","","","","","","","","","","","","",""
"761","555536","SARL_v6","SARL_v6e7cl691g","64143c6c286640f3d1348cf8","freq","","","img/orange_2bandit_a2.png","70","","70","test","1","","1","","","","square","circle","1","1","1","1","","","","","","","",""
"null","555585","SARL_v6","SARL_v6e7cl691g","64143c6c286640f3d1348cf8","freq_resp","","","img/orange_2bandit_a.png","70","img/orange_2bandit_a.png","70","test","","","","","","","","","","","1","","","","","","","","",""
"null","555744","SARL_v6","SARL_v6e7cl691g","64143c6c286640f3d1348cf8","fixation","","","img/fixation.png","null","","","test","","","","","","","","","","","","","","","","","","","",""
"595.8999999761581","556346","SARL_v6","SARL_v6e7cl691g","64143c6c286640f3d1348cf8","freq","","","img/orange_2bandit_a2.png","70","","70","test","1","","2","","","","square","circle","2","2","1","1","","","","","","","",""
"null","556560","SARL_v6","SARL_v6e7cl691g","64143c6c286640f3d1348cf8","freq_resp","","","img/orange_2bandit_a.png","70","img/orange_2bandit_a.png","70","test","","","","","","","","","","","1","","","","","","","","",""
"null","556720","SARL_v6","SARL_v6e7cl691g","64143c6c286640f3d1348cf8","fixation","","","img/fixation.png","null","","","test","","","","","","","","","","","","","","","","","","","",""
"330.6999999284744","557055","SARL_v6","SARL_v6e7cl691g","64143c6c286640f3d1348cf8","infreq","","","img/blue_2bandit_a2.png","68","","68","test","1","","3","","","","square","circle","3","3","1","1","","","","","","","",""
"null","557536","SARL_v6","SARL_v6e7cl691g","64143c6c286640f3d1348cf8","infreq_resp","","","img/blue_2bandit_a.png","68","img/blue_2bandit_a.png","68","test","","","","","","","","","","","1","","","","","","","","",""
"null","557696","SARL_v6","SARL_v6e7cl691g","64143c6c286640f3d1348cf8","fixation","","","img/fixation.png","null","","","test","","","","","","","","","","","","","","","","","","","",""
"590.2000000476837","558289","SARL_v6","SARL_v6e7cl691g","64143c6c286640f3d1348cf8","freq","","","img/orange_2bandit_a2.png","70","","70","test","1","","4","","","","square","circle","4","4","1","1","","","","","","","",""
"null","558533","SARL_v6","SARL_v6e7cl691g","64143c6c286640f3d1348cf8","freq_resp","","","img/orange_2bandit_a.png","70","img/orange_2bandit_a.png","70","test","","","","","","","","","","","1","","","","","","","","",""
"null","558688","SARL_v6","SARL_v6e7cl691g","64143c6c286640f3d1348cf8","fixation","","","img/fixation.png","null","","","test","","","","","","","","","","","","","","","","","","","",""
"361.10000002384186","559052","SARL_v6","SARL_v6e7cl691g","64143c6c286640f3d1348cf8","freq","","","img/orange_2bandit_a2.png","70","","70","test","1","","5","","","","square","circle","5","5","1","1","","","","","","","",""
"null","559496","SARL_v6","SARL_v6e7cl691g","64143c6c286640f3d1348cf8","freq_resp","","","img/orange_2bandit_a.png","70","img/orange_2bandit_a.png","70","test","","","","","","","","","","","1","","","","","","","","",""
"null","559656","SARL_v6","SARL_v6e7cl691g","64143c6c286640f3d1348cf8","fixation","","","img/fixation.png","null","","","test","","","","","","","","","","","","","","","","","","","",""
"424.1999999284744","560085","SARL_v6","SARL_v6e7cl691g","64143c6c286640f3d1348cf8","freq","","","img/orange_2bandit_a2.png","70","","70","test","1","","6","","","","square","circle","6","6","1","1","","","","","","","",""
"null","560464","SARL_v6","SARL_v6e7cl691g","64143c6c286640f3d1348cf8","freq_resp","","","img/orange_2bandit_a.png","70","img/orange_2bandit_a.png","70","test","","","","","","","","","","","1","","","","","","","","",""
"null","560624","SARL_v6","SARL_v6e7cl691g","64143c6c286640f3d1348cf8","fixation","","","img/fixation.png","null","","","test","","","","","","","","","","","","","","","","","","","",""
"594.8000000715256","561222","SARL_v6","SARL_v6e7cl691g","64143c6c286640f3d1348cf8","freq","","","img/orange_2bandit_a2.png","70","","70","test","1","","7","","","","square","circle","7","7","1","1","","","","","","","",""
"null","561443","SARL_v6","SARL_v6e7cl691g","64143c6c286640f3d1348cf8","freq_resp","","","img/orange_2bandit_a.png","70","img/orange_2bandit_a.png","70","test","","","","","","","","","","","1","","","","","","","","",""
"null","561600","SARL_v6","SARL_v6e7cl691g","64143c6c286640f3d1348cf8","fixation","","","img/fixation.png","null","","","test","","","","","","","","","","","","","","","","","","","",""
"451.2000000476837","562055","SARL_v6","SARL_v6e7cl691g","64143c6c286640f3d1348cf8","freq","","","img/orange_2bandit_a2.png","70","","70","test","1","","8","","","","square","circle","8","8","1","1","","","","","","","",""
"null","562409","SARL_v6","SARL_v6e7cl691g","64143c6c286640f3d1348cf8","freq_resp","","","img/orange_2bandit_a.png","70","img/orange_2bandit_a.png","70","test","","","","","","","","","","","1","","","","","","","","",""
"null","562569","SARL_v6","SARL_v6e7cl691g","64143c6c286640f3d1348cf8","fixation","","","img/fixation.png","null","","","test","","","","","","","","","","","","","","","","","","","",""
"497.39999997615814","563070","SARL_v6","SARL_v6e7cl691g","64143c6c286640f3d1348cf8","freq","","","img/orange_2bandit_a2.png","70","","70","test","1","","9","","","","square","circle","9","9","1","1","","","","","","","",""
"null","563376","SARL_v6","SARL_v6e7cl691g","64143c6c286640f3d1348cf8","freq_resp","","","img/orange_2bandit_a.png","70","img/orange_2bandit_a.png","70","test","","","","","","","","","","","1","","","","","","","","",""
"null","563536","SARL_v6","SARL_v6e7cl691g","64143c6c286640f3d1348cf8","fixation","","","img/fixation.png","null","","","test","","","","","","","","","","","","","","","","","","","",""
"578.7999999523163","564118","SARL_v6","SARL_v6e7cl691g","64143c6c286640f3d1348cf8","infreq","","","img/blue_2bandit_a2.png","68","","68","test","1","","10","","","","square","circle","10","10","1","1","","","","","","","",""
"null","564353","SARL_v6","SARL_v6e7cl691g","64143c6c286640f3d1348cf8","infreq_resp","","","img/blue_2bandit_a.png","68","img/blue_2bandit_a.png","68","test","","","","","","","","","","","1","","","","","","","","",""
"null","564512","SARL_v6","SARL_v6e7cl691g","64143c6c286640f3d1348cf8","fixation","","","img/fixation.png","null","","","test","","","","","","","","","","","","","","","","","","","",""
"495.89999997615814","565012","SARL_v6","SARL_v6e7cl691g","64143c6c286640f3d1348cf8","freq","","","img/orange_2bandit_a2.png","70","","70","test","1","","11","","","","square","circle","11","11","1","1","","","","","","","",""
"null","565329","SARL_v6","SARL_v6e7cl691g","64143c6c286640f3d1348cf8","freq_resp","","","img/orange_2bandit_a.png","70","img/orange_2bandit_a.png","70","test","","","","","","","","","","","1","","","","","","","","",""
"null","565488","SARL_v6","SARL_v6e7cl691g","64143c6c286640f3d1348cf8","fixation","","","img/fixation.png","null","","","test","","","","","","","","","","","","","","","","","","","",""
"563.6999999284744","566055","SARL_v6","SARL_v6e7cl691g","64143c6c286640f3d1348cf8","freq","","","img/orange_2bandit_a2.png","70","","70","test","1","","12","","","","square","circle","12","12","1","1","","","","","","","",""
"null","566297","SARL_v6","SARL_v6e7cl691g","64143c6c286640f3d1348cf8","freq_resp","","","img/orange_2bandit_a.png","70","img/orange_2bandit_a.png","70","test","","","","","","","","","","","1","","","","","","","","",""
"null","566456","SARL_v6","SARL_v6e7cl691g","64143c6c286640f3d1348cf8","fixation","","","img/fixation.png","null","","","test","","","","","","","","","","","","","","","","","","","",""
"513.7000000476837","566973","SARL_v6","SARL_v6e7cl691g","64143c6c286640f3d1348cf8","freq","","","img/orange_2bandit_a2.png","70","","70","test","1","","13","","","","square","circle","13","13","1","1","","","","","","","",""
"null","567264","SARL_v6","SARL_v6e7cl691g","64143c6c286640f3d1348cf8","freq_resp","","","img/orange_2bandit_a.png","70","img/orange_2bandit_a.png","70","test","","","","","","","","","","","1","","","","","","","","",""
"null","567437","SARL_v6","SARL_v6e7cl691g","64143c6c286640f3d1348cf8","fixation","","","img/fixation.png","null","","","test","","","","","","","","","","","","","","","","","","","",""
"781.2000000476837","568221","SARL_v6","SARL_v6e7cl691g","64143c6c286640f3d1348cf8","infreq","","","img/blue_2bandit_a2.png","68","","68","test","1","","14","","","","square","circle","14","14","1","1","","","","","","","",""
"null","568245","SARL_v6","SARL_v6e7cl691g","64143c6c286640f3d1348cf8","infreq_resp","","","img/blue_2bandit_a.png","68","img/blue_2bandit_a.png","68","test","","","","","","","","","","","1","","","","","","","","",""
"null","568400","SARL_v6","SARL_v6e7cl691g","64143c6c286640f3d1348cf8","fixation","","","img/fixation.png","null","","","test","","","","","","","","","","","","","","","","","","","",""
"669.8999999761581","569073","SARL_v6","SARL_v6e7cl691g","64143c6c286640f3d1348cf8","freq","","","img/orange_2bandit_a2.png","70","","70","test","1","","15","","","","square","circle","15","15","1","1","","","","","","","",""
"null","569208","SARL_v6","SARL_v6e7cl691g","64143c6c286640f3d1348cf8","freq_resp","","","img/orange_2bandit_a.png","70","img/orange_2bandit_a.png","70","test","","","","","","","","","","","1","","","","","","","","",""
"null","569381","SARL_v6","SARL_v6e7cl691g","64143c6c286640f3d1348cf8","fixation","","","img/fixation.png","null","","","test","","","","","","","","","","","","","","","","","","","",""
"345.39999997615814","569730","SARL_v6","SARL_v6e7cl691g","64143c6c286640f3d1348cf8","freq","","","img/orange_2bandit_a2.png","70","","70","test","1","","16","","","","square","circle","16","16","1","1","","","","","","","",""
"null","570192","SARL_v6","SARL_v6e7cl691g","64143c6c286640f3d1348cf8","freq_resp","","","img/orange_2bandit_a.png","70","img/orange_2bandit_a.png","70","test","","","","","","","","","","","1","","","","","","","","",""
"null","570352","SARL_v6","SARL_v6e7cl691g","64143c6c286640f3d1348cf8","fixation","","","img/fixation.png","null","","","test","","","","","","","","","","","","","","","","","","","",""
"322.59999990463257","570678","SARL_v6","SARL_v6e7cl691g","64143c6c286640f3d1348cf8","freq","","","img/orange_2bandit_a2.png","70","","70","test","1","","17","","","","square","circle","17","17","1","1","","","","","","","",""
"null","571163","SARL_v6","SARL_v6e7cl691g","64143c6c286640f3d1348cf8","freq_resp","","","img/orange_2bandit_a.png","70","img/orange_2bandit_a.png","70","test","","","","","","","","","","","1","","","","","","","","",""
"null","571320","SARL_v6","SARL_v6e7cl691g","64143c6c286640f3d1348cf8","fixation","","","img/fixation.png","null","","","test","","","","","","","","","","","","","","","","","","","",""
"405.60000002384186","571729","SARL_v6","SARL_v6e7cl691g","64143c6c286640f3d1348cf8","freq","","","img/orange_2bandit_a2.png","70","","70","test","1","","18","","","","square","circle","18","18","1","1","","","","","","","",""
"null","572128","SARL_v6","SARL_v6e7cl691g","64143c6c286640f3d1348cf8","freq_resp","","","img/orange_2bandit_a.png","70","img/orange_2bandit_a.png","70","test","","","","","","","","","","","1","","","","","","","","",""
"null","572288","SARL_v6","SARL_v6e7cl691g","64143c6c286640f3d1348cf8","fixation","","","img/fixation.png","null","","","test","","","","","","","","","","","","","","","","","","","",""
"310.1999999284744","572602","SARL_v6","SARL_v6e7cl691g","64143c6c286640f3d1348cf8","freq","","","img/orange_2bandit_a2.png","70","","70","test","1","","19","","","","square","circle","19","19","1","1","","","","","","","",""
"null","573096","SARL_v6","SARL_v6e7cl691g","64143c6c286640f3d1348cf8","freq_resp","","","img/orange_2bandit_a.png","70","img/orange_2bandit_a.png","70","test","","","","","","","","","","","1","","","","","","","","",""
"null","573257","SARL_v6","SARL_v6e7cl691g","64143c6c286640f3d1348cf8","fixation","","","img/fixation.png","null","","","test","","","","","","","","","","","","","","","","","","","",""
"290.7000000476837","573554","SARL_v6","SARL_v6e7cl691g","64143c6c286640f3d1348cf8","freq","","","img/orange_2bandit_a2.png","70","","70","test","1","","20","","","","square","circle","20","20","1","1","","","","","","","",""
"null","574073","SARL_v6","SARL_v6e7cl691g","64143c6c286640f3d1348cf8","freq_resp","","","img/orange_2bandit_a.png","70","img/orange_2bandit_a.png","70","test","","","","","","","","","","","1","","","","","","","","",""
"null","574232","SARL_v6","SARL_v6e7cl691g","64143c6c286640f3d1348cf8","fixation","","","img/fixation.png","null","","","test","","","","","","","","","","","","","","","","","","","",""
"265.7999999523163","574501","SARL_v6","SARL_v6e7cl691g","64143c6c286640f3d1348cf8","freq","","","img/orange_2bandit_a2.png","70","","70","test","1","","21","","","","square","circle","21","21","1","1","","","","","","","",""
"null","575041","SARL_v6","SARL_v6e7cl691g","64143c6c286640f3d1348cf8","freq_resp","","","img/orange_2bandit_a.png","70","img/orange_2bandit_a.png","70","test","","","","","","","","","","","1","","","","","","","","",""
"null","575201","SARL_v6","SARL_v6e7cl691g","64143c6c286640f3d1348cf8","fixation","","","img/fixation.png","null","","","test","","","","","","","","","","","","","","","","","","","",""
"333.89999997615814","575539","SARL_v6","SARL_v6e7cl691g","64143c6c286640f3d1348cf8","freq","","","img/orange_2bandit_a2.png","70","","70","test","1","","22","","","","square","circle","22","22","1","1","","","","","","","",""
"null","576018","SARL_v6","SARL_v6e7cl691g","64143c6c286640f3d1348cf8","freq_resp","","","img/orange_2bandit_a.png","70","img/orange_2bandit_a.png","70","test","","","","","","","","","","","1","","","","","","","","",""
"null","576177","SARL_v6","SARL_v6e7cl691g","64143c6c286640f3d1348cf8","fixation","","","img/fixation.png","null","","","test","","","","","","","","","","","","","","","","","","","",""
"341.7000000476837","576524","SARL_v6","SARL_v6e7cl691g","64143c6c286640f3d1348cf8","freq","","","img/orange_2bandit_a2.png","70","","70","test","1","","23","","","","square","circle","23","23","1","1","","","","","","","",""
"null","576993","SARL_v6","SARL_v6e7cl691g","64143c6c286640f3d1348cf8","freq_resp","","","img/orange_2bandit_a.png","70","img/orange_2bandit_a.png","70","test","","","","","","","","","","","1","","","","","","","","",""
"null","577153","SARL_v6","SARL_v6e7cl691g","64143c6c286640f3d1348cf8","fixation","","","img/fixation.png","null","","","test","","","","","","","","","","","","","","","","","","","",""
"723.5","577883","SARL_v6","SARL_v6e7cl691g","64143c6c286640f3d1348cf8","rl","","","img/black_2bandit_a2.png","75","","0","test","","","24","","","-3","square","circle","","0","1","","75","-3","-3","-3","-3","circle","1","0"
"null","578642","SARL_v6","SARL_v6e7cl691g","64143c6c286640f3d1348cf8","feedback","","","<div class=""verylowPoints""> -3 </div>","null","","na","test","","","NaN","","","","","","","","1","","75","","","","","","1",""
"null","579450","SARL_v6","SARL_v6e7cl691g","64143c6c286640f3d1348cf8","freq","","","img/orange_2bandit_a2.png","null","","70","test","0","","25","","","","square","circle","24","1","2","0.9583333333333334","","","","","","","",""
"null","579608","SARL_v6","SARL_v6e7cl691g","64143c6c286640f3d1348cf8","fixation","","","img/fixation.png","null","","","test","","","","","","","","","","","","","","","","","","","",""
"522.7000000476837","580136","SARL_v6","SARL_v6e7cl691g","64143c6c286640f3d1348cf8","freq","","","img/orange_2bandit_a2.png","70","","70","test","1","","26","","","","square","circle","25","2","2","0.96","","","","","","","",""
"null","580426","SARL_v6","SARL_v6e7cl691g","64143c6c286640f3d1348cf8","freq_resp","","","img/orange_2bandit_a.png","70","img/orange_2bandit_a.png","70","test","","","","","","","","","","","2","","","","","","","","",""
"null","580584","SARL_v6","SARL_v6e7cl691g","64143c6c286640f3d1348cf8","fixation","","","img/fixation.png","null","","","test","","","","","","","","","","","","","","","","","","","",""
"458.7999999523163","581047","SARL_v6","SARL_v6e7cl691g","64143c6c286640f3d1348cf8","infreq","","","img/blue_2bandit_a2.png","68","","68","test","1","","27","","","","square","circle","26","3","2","0.9615384615384616","","","","","","","",""
"null","581393","SARL_v6","SARL_v6e7cl691g","64143c6c286640f3d1348cf8","infreq_resp","","","img/blue_2bandit_a.png","68","img/blue_2bandit_a.png","68","test","","","","","","","","","","","2","","","","","","","","",""
"null","581552","SARL_v6","SARL_v6e7cl691g","64143c6c286640f3d1348cf8","fixation","","","img/fixation.png","null","","","test","","","","","","","","","","","","","","","","","","","",""
"454.59999990463257","582012","SARL_v6","SARL_v6e7cl691g","64143c6c286640f3d1348cf8","freq","","","img/orange_2bandit_a2.png","70","","70","test","1","","28","","","","square","circle","27","4","2","0.9629629629629629","","","","","","","",""
"null","582369","SARL_v6","SARL_v6e7cl691g","64143c6c286640f3d1348cf8","freq_resp","","","img/orange_2bandit_a.png","70","img/orange_2bandit_a.png","70","test","","","","","","","","","","","2","","","","","","","","",""
"null","582531","SARL_v6","SARL_v6e7cl691g","64143c6c286640f3d1348cf8","fixation","","","img/fixation.png","null","","","test","","","","","","","","","","","","","","","","","","","",""
"399.2000000476837","582935","SARL_v6","SARL_v6e7cl691g","64143c6c286640f3d1348cf8","freq","","","img/orange_2bandit_a2.png","70","","70","test","1","","29","","","","square","circle","28","5","2","0.9642857142857143","","","","","","","",""
"null","583346","SARL_v6","SARL_v6e7cl691g","64143c6c286640f3d1348cf8","freq_resp","","","img/orange_2bandit_a.png","70","img/orange_2bandit_a.png","70","test","","","","","","","","","","","2","","","","","","","","",""
"null","583506","SARL_v6","SARL_v6e7cl691g","64143c6c286640f3d1348cf8","fixation","","","img/fixation.png","null","","","test","","","","","","","","","","","","","","","","","","","",""
"437","583948","SARL_v6","SARL_v6e7cl691g","64143c6c286640f3d1348cf8","freq","","","img/orange_2bandit_a2.png","70","","70","test","1","","30","","","","square","circle","29","6","2","0.9655172413793104","","","","","","","",""
"null","584322","SARL_v6","SARL_v6e7cl691g","64143c6c286640f3d1348cf8","freq_resp","","","img/orange_2bandit_a.png","70","img/orange_2bandit_a.png","70","test","","","","","","","","","","","2","","","","","","","","",""
"null","584480","SARL_v6","SARL_v6e7cl691g","64143c6c286640f3d1348cf8","fixation","","","img/fixation.png","null","","","test","","","","","","","","","","","","","","","","","","","",""
"385.2000000476837","584870","SARL_v6","SARL_v6e7cl691g","64143c6c286640f3d1348cf8","freq","","","img/orange_2bandit_a2.png","70","","70","test","1","","31","","","","square","circle","30","7","2","0.9666666666666667","","","","","","","",""
"null","585290","SARL_v6","SARL_v6e7cl691g","64143c6c286640f3d1348cf8","freq_resp","","","img/orange_2bandit_a.png","70","img/orange_2bandit_a.png","70","test","","","","","","","","","","","2","","","","","","","","",""
"null","585449","SARL_v6","SARL_v6e7cl691g","64143c6c286640f3d1348cf8","fixation","","","img/fixation.png","null","","","test","","","","","","","","","","","","","","","","","","","",""
"407.2000000476837","585862","SARL_v6","SARL_v6e7cl691g","64143c6c286640f3d1348cf8","freq","","","img/orange_2bandit_a2.png","70","","70","test","1","","32","","","","square","circle","31","8","2","0.967741935483871","","","","","","","",""
"null","586266","SARL_v6","SARL_v6e7cl691g","64143c6c286640f3d1348cf8","freq_resp","","","img/orange_2bandit_a.png","70","img/orange_2bandit_a.png","70","test","","","","","","","","","","","2","","","","","","","","",""
"null","586425","SARL_v6","SARL_v6e7cl691g","64143c6c286640f3d1348cf8","fixation","","","img/fixation.png","null","","","test","","","","","","","","","","","","","","","","","","","",""
"427.39999997615814","586857","SARL_v6","SARL_v6e7cl691g","64143c6c286640f3d1348cf8","freq","","","img/orange_2bandit_a2.png","70","","70","test","1","","33","","","","square","circle","32","9","2","0.96875","","","","","","","",""
"null","587241","SARL_v6","SARL_v6e7cl691g","64143c6c286640f3d1348cf8","freq_resp","","","img/orange_2bandit_a.png","70","img/orange_2bandit_a.png","70","test","","","","","","","","","","","2","","","","","","","","",""
"null","587401","SARL_v6","SARL_v6e7cl691g","64143c6c286640f3d1348cf8","fixation","","","img/fixation.png","null","","","test","","","","","","","","","","","","","","","","","","","",""
"485.10000002384186","587892","SARL_v6","SARL_v6e7cl691g","64143c6c286640f3d1348cf8","freq","","","img/orange_2bandit_a2.png","70","","70","test","1","","34","","","","square","circle","33","10","2","0.9696969696969697","","","","","","","",""
"null","588217","SARL_v6","SARL_v6e7cl691g","64143c6c286640f3d1348cf8","freq_resp","","","img/orange_2bandit_a.png","70","img/orange_2bandit_a.png","70","test","","","","","","","","","","","2","","","","","","","","",""
"null","588377","SARL_v6","SARL_v6e7cl691g","64143c6c286640f3d1348cf8","fixation","","","img/fixation.png","null","","","test","","","","","","","","","","","","","","","","","","","",""
"337.10000002384186","588719","SARL_v6","SARL_v6e7cl691g","64143c6c286640f3d1348cf8","freq","","","img/orange_2bandit_a2.png","70","","70","test","1","","35","","","","square","circle","34","11","2","0.9705882352941176","","","","","","","",""
"null","589193","SARL_v6","SARL_v6e7cl691g","64143c6c286640f3d1348cf8","freq_resp","","","img/orange_2bandit_a.png","70","img/orange_2bandit_a.png","70","test","","","","","","","","","","","2","","","","","","","","",""
"null","589353","SARL_v6","SARL_v6e7cl691g","64143c6c286640f3d1348cf8","fixation","","","img/fixation.png","null","","","test","","","","","","","","","","","","","","","","","","","",""
"309.7999999523163","589668","SARL_v6","SARL_v6e7cl691g","64143c6c286640f3d1348cf8","freq","","","img/orange_2bandit_a2.png","70","","70","test","1","","36","","","","square","circle","35","12","2","0.9714285714285714","","","","","","","",""
"null","590170","SARL_v6","SARL_v6e7cl691g","64143c6c286640f3d1348cf8","freq_resp","","","img/orange_2bandit_a.png","70","img/orange_2bandit_a.png","70","test","","","","","","","","","","","2","","","","","","","","",""
"null","590329","SARL_v6","SARL_v6e7cl691g","64143c6c286640f3d1348cf8","fixation","","","img/fixation.png","null","","","test","","","","","","","","","","","","","","","","","","","",""
"326.8000000715256","590661","SARL_v6","SARL_v6e7cl691g","64143c6c286640f3d1348cf8","freq","","","img/orange_2bandit_a2.png","70","","70","test","1","","37","","","","square","circle","36","13","2","0.9722222222222222","","","","","","","",""
"null","591145","SARL_v6","SARL_v6e7cl691g","64143c6c286640f3d1348cf8","freq_resp","","","img/orange_2bandit_a.png","70","img/orange_2bandit_a.png","70","test","","","","","","","","","","","2","","","","","","","","",""
"null","591305","SARL_v6","SARL_v6e7cl691g","64143c6c286640f3d1348cf8","fixation","","","img/fixation.png","null","","","test","","","","","","","","","","","","","","","","","","","",""
"343.39999997615814","591654","SARL_v6","SARL_v6e7cl691g","64143c6c286640f3d1348cf8","freq","","","img/orange_2bandit_a2.png","70","","70","test","1","","38","","","","square","circle","37","14","2","0.972972972972973","","","","","","","",""
"null","592121","SARL_v6","SARL_v6e7cl691g","64143c6c286640f3d1348cf8","freq_resp","","","img/orange_2bandit_a.png","70","img/orange_2bandit_a.png","70","test","","","","","","","","","","","2","","","","","","","","",""
"null","592281","SARL_v6","SARL_v6e7cl691g","64143c6c286640f3d1348cf8","fixation","","","img/fixation.png","null","","","test","","","","","","","","","","","","","","","","","","","",""
"475.89999997615814","592762","SARL_v6","SARL_v6e7cl691g","64143c6c286640f3d1348cf8","freq","","","img/orange_2bandit_a2.png","70","","70","test","1","","39","","","","square","circle","38","15","2","0.9736842105263158","","","","","","","",""
"null","593097","SARL_v6","SARL_v6e7cl691g","64143c6c286640f3d1348cf8","freq_resp","","","img/orange_2bandit_a.png","70","img/orange_2bandit_a.png","70","test","","","","","","","","","","","2","","","","","","","","",""
"null","593258","SARL_v6","SARL_v6e7cl691g","64143c6c286640f3d1348cf8","fixation","","","img/fixation.png","null","","","test","","","","","","","","","","","","","","","","","","","",""
"324.2000000476837","593586","SARL_v6","SARL_v6e7cl691g","64143c6c286640f3d1348cf8","freq","","","img/orange_2bandit_a2.png","70","","70","test","1","","40","","","","square","circle","39","16","2","0.9743589743589743","","","","","","","",""
"null","594066","SARL_v6","SARL_v6e7cl691g","64143c6c286640f3d1348cf8","freq_resp","","","img/orange_2bandit_a.png","70","img/orange_2bandit_a.png","70","test","","","","","","","","","","","2","","","","","","","","",""
"null","594225","SARL_v6","SARL_v6e7cl691g","64143c6c286640f3d1348cf8","fixation","","","img/fixation.png","null","","","test","","","","","","","","","","","","","","","","","","","",""
"293.89999997615814","594524","SARL_v6","SARL_v6e7cl691g","64143c6c286640f3d1348cf8","freq","","","img/orange_2bandit_a2.png","70","","70","test","1","","41","","","","square","circle","40","17","2","0.975","","","","","","","",""
"null","595042","SARL_v6","SARL_v6e7cl691g","64143c6c286640f3d1348cf8","freq_resp","","","img/orange_2bandit_a.png","70","img/orange_2bandit_a.png","70","test","","","","","","","","","","","2","","","","","","","","",""
"null","595202","SARL_v6","SARL_v6e7cl691g","64143c6c286640f3d1348cf8","fixation","","","img/fixation.png","null","","","test","","","","","","","","","","","","","","","","","","","",""
"347.10000002384186","595553","SARL_v6","SARL_v6e7cl691g","64143c6c286640f3d1348cf8","freq","","","img/orange_2bandit_a2.png","70","","70","test","1","","42","","","","square","circle","41","18","2","0.975609756097561","","","","","","","",""
"null","596017","SARL_v6","SARL_v6e7cl691g","64143c6c286640f3d1348cf8","freq_resp","","","img/orange_2bandit_a.png","70","img/orange_2bandit_a.png","70","test","","","","","","","","","","","2","","","","","","","","",""
"null","596177","SARL_v6","SARL_v6e7cl691g","64143c6c286640f3d1348cf8","fixation","","","img/fixation.png","null","","","test","","","","","","","","","","","","","","","","","","","",""
"287.7999999523163","596471","SARL_v6","SARL_v6e7cl691g","64143c6c286640f3d1348cf8","infreq","","","img/blue_2bandit_a2.png","70","","68","test","0","","43","","","","square","circle","42","19","2","0.9523809523809523","","","","","","","",""
"null","596993","SARL_v6","SARL_v6e7cl691g","64143c6c286640f3d1348cf8","infreq_resp","","","img/blue_2bandit_a.png","70","img/blue_2bandit_a.png","68","test","","","","","","","","","","","2","","","","","","","","",""
"null","597152","SARL_v6","SARL_v6e7cl691g","64143c6c286640f3d1348cf8","fixation","","","img/fixation.png","null","","","test","","","","","","","","","","","","","","","","","","","",""
"507.39999997615814","597665","SARL_v6","SARL_v6e7cl691g","64143c6c286640f3d1348cf8","freq","","","img/orange_2bandit_a2.png","70","","70","test","1","","44","","","","square","circle","43","20","2","0.9534883720930233","","","","","","","",""
"null","597969","SARL_v6","SARL_v6e7cl691g","64143c6c286640f3d1348cf8","freq_resp","","","img/orange_2bandit_a.png","70","img/orange_2bandit_a.png","70","test","","","","","","","","","","","2","","","","","","","","",""
"null","598129","SARL_v6","SARL_v6e7cl691g","64143c6c286640f3d1348cf8","fixation","","","img/fixation.png","null","","","test","","","","","","","","","","","","","","","","","","","",""
"678.1000000238419","598813","SARL_v6","SARL_v6e7cl691g","64143c6c286640f3d1348cf8","rl","","","img/black_2bandit_a2.png","74","","0","test","","","45","","","-8","square","circle","","0","2","","74","-5","-8","-8","-5","square","2","0"
"null","599569","SARL_v6","SARL_v6e7cl691g","64143c6c286640f3d1348cf8","feedback","","","<div class=""verylowPoints_sq""> -8 </div>","null","","na","test","","","NaN","","","","","","","","2","","74","","","","","","2",""
"705.7000000476837","600282","SARL_v6","SARL_v6e7cl691g","64143c6c286640f3d1348cf8","freq","","","img/orange_2bandit_a2.png","70","","70","test","1","","46","","","","square","circle","44","1","3","0.9545454545454546","","","","","","","",""
"null","600386","SARL_v6","SARL_v6e7cl691g","64143c6c286640f3d1348cf8","freq_resp","","","img/orange_2bandit_a.png","70","img/orange_2bandit_a.png","70","test","","","","","","","","","","","3","","","","","","","","",""
"null","600554","SARL_v6","SARL_v6e7cl691g","64143c6c286640f3d1348cf8","fixation","","","img/fixation.png","null","","","test","","","","","","","","","","","","","","","","","","","",""
"405.7999999523163","600964","SARL_v6","SARL_v6e7cl691g","64143c6c286640f3d1348cf8","freq","","","img/orange_2bandit_a2.png","70","","70","test","1","","47","","","","square","circle","45","2","3","0.9555555555555556","","","","","","","",""
"null","601369","SARL_v6","SARL_v6e7cl691g","64143c6c286640f3d1348cf8","freq_resp","","","img/orange_2bandit_a.png","70","img/orange_2bandit_a.png","70","test","","","","","","","","","","","3","","","","","","","","",""
"null","601528","SARL_v6","SARL_v6e7cl691g","64143c6c286640f3d1348cf8","fixation","","","img/fixation.png","null","","","test","","","","","","","","","","","","","","","","","","","",""
"335.7999999523163","601868","SARL_v6","SARL_v6e7cl691g","64143c6c286640f3d1348cf8","freq","","","img/orange_2bandit_a2.png","70","","70","test","1","","48","","","","square","circle","46","3","3","0.9565217391304348","","","","","","","",""
"null","602336","SARL_v6","SARL_v6e7cl691g","64143c6c286640f3d1348cf8","freq_resp","","","img/orange_2bandit_a.png","70","img/orange_2bandit_a.png","70","test","","","","","","","","","","","3","","","","","","","","",""
"null","602497","SARL_v6","SARL_v6e7cl691g","64143c6c286640f3d1348cf8","fixation","","","img/fixation.png","null","","","test","","","","","","","","","","","","","","","","","","","",""
"579.3000000715256","603081","SARL_v6","SARL_v6e7cl691g","64143c6c286640f3d1348cf8","infreq","","","img/blue_2bandit_a2.png","68","","68","test","1","","49","","","","square","circle","47","4","3","0.9574468085106383","","","","","","","",""
"null","603313","SARL_v6","SARL_v6e7cl691g","64143c6c286640f3d1348cf8","infreq_resp","","","img/blue_2bandit_a.png","68","img/blue_2bandit_a.png","68","test","","","","","","","","","","","3","","","","","","","","",""
"null","603472","SARL_v6","SARL_v6e7cl691g","64143c6c286640f3d1348cf8","fixation","","","img/fixation.png","null","","","test","","","","","","","","","","","","","","","","","","","",""
"525.4000000953674","604001","SARL_v6","SARL_v6e7cl691g","64143c6c286640f3d1348cf8","freq","","","img/orange_2bandit_a2.png","70","","70","test","1","","50","","","","square","circle","48","5","3","0.9583333333333334","","","","","","","",""
"null","604280","SARL_v6","SARL_v6e7cl691g","64143c6c286640f3d1348cf8","freq_resp","","","img/orange_2bandit_a.png","70","img/orange_2bandit_a.png","70","test","","","","","","","","","","","3","","","","","","","","",""
"null","604441","SARL_v6","SARL_v6e7cl691g","64143c6c286640f3d1348cf8","fixation","","","img/fixation.png","null","","","test","","","","","","","","","","","","","","","","","","","",""
"355.10000002384186","604799","SARL_v6","SARL_v6e7cl691g","64143c6c286640f3d1348cf8","freq","","","img/orange_2bandit_a2.png","70","","70","test","1","","51","","","","square","circle","49","6","3","0.9591836734693877","","","","","","","",""
"null","605249","SARL_v6","SARL_v6e7cl691g","64143c6c286640f3d1348cf8","freq_resp","","","img/orange_2bandit_a.png","70","img/orange_2bandit_a.png","70","test","","","","","","","","","","","3","","","","","","","","",""
"null","605408","SARL_v6","SARL_v6e7cl691g","64143c6c286640f3d1348cf8","fixation","","","img/fixation.png","null","","","test","","","","","","","","","","","","","","","","","","","",""
"280.2999999523163","605692","SARL_v6","SARL_v6e7cl691g","64143c6c286640f3d1348cf8","freq","","","img/orange_2bandit_a2.png","70","","70","test","1","","52","","","","square","circle","50","7","3","0.96","","","","","","","",""
"null","606218","SARL_v6","SARL_v6e7cl691g","64143c6c286640f3d1348cf8","freq_resp","","","img/orange_2bandit_a.png","70","img/orange_2bandit_a.png","70","test","","","","","","","","","","","3","","","","","","","","",""
"null","606376","SARL_v6","SARL_v6e7cl691g","64143c6c286640f3d1348cf8","fixation","","","img/fixation.png","null","","","test","","","","","","","","","","","","","","","","","","","",""
"322.3000000715256","606703","SARL_v6","SARL_v6e7cl691g","64143c6c286640f3d1348cf8","freq","","","img/orange_2bandit_a2.png","70","","70","test","1","","53","","","","square","circle","51","8","3","0.9607843137254902","","","","","","","",""
"null","607192","SARL_v6","SARL_v6e7cl691g","64143c6c286640f3d1348cf8","freq_resp","","","img/orange_2bandit_a.png","70","img/orange_2bandit_a.png","70","test","","","","","","","","","","","3","","","","","","","","",""
"null","607354","SARL_v6","SARL_v6e7cl691g","64143c6c286640f3d1348cf8","fixation","","","img/fixation.png","null","","","test","","","","","","","","","","","","","","","","","","","",""
"272","607630","SARL_v6","SARL_v6e7cl691g","64143c6c286640f3d1348cf8","freq","","","img/orange_2bandit_a2.png","70","","70","test","1","","54","","","","square","circle","52","9","3","0.9615384615384616","","","","","","","",""
"null","608169","SARL_v6","SARL_v6e7cl691g","64143c6c286640f3d1348cf8","freq_resp","","","img/orange_2bandit_a.png","70","img/orange_2bandit_a.png","70","test","","","","","","","","","","","3","","","","","","","","",""
"null","608328","SARL_v6","SARL_v6e7cl691g","64143c6c286640f3d1348cf8","fixation","","","img/fixation.png","null","","","test","","","","","","","","","","","","","","","","","","","",""
"291","608623","SARL_v6","SARL_v6e7cl691g","64143c6c286640f3d1348cf8","freq","","","img/orange_2bandit_a2.png","70","","70","test","1","","55","","","","square","circle","53","10","3","0.9622641509433962","","","","","","","",""
"null","609137","SARL_v6","SARL_v6e7cl691g","64143c6c286640f3d1348cf8","freq_resp","","","img/orange_2bandit_a.png","70","img/orange_2bandit_a.png","70","test","","","","","","","","","","","3","","","","","","","","",""
"null","609296","SARL_v6","SARL_v6e7cl691g","64143c6c286640f3d1348cf8","fixation","","","img/fixation.png","null","","","test","","","","","","","","","","","","","","","","","","","",""
"394.7000000476837","609695","SARL_v6","SARL_v6e7cl691g","64143c6c286640f3d1348cf8","freq","","","img/orange_2bandit_a2.png","70","","70","test","1","","56","","","","square","circle","54","11","3","0.9629629629629629","","","","","","","",""
"null","610112","SARL_v6","SARL_v6e7cl691g","64143c6c286640f3d1348cf8","freq_resp","","","img/orange_2bandit_a.png","70","img/orange_2bandit_a.png","70","test","","","","","","","","","","","3","","","","","","","","",""
"null","610272","SARL_v6","SARL_v6e7cl691g","64143c6c286640f3d1348cf8","fixation","","","img/fixation.png","null","","","test","","","","","","","","","","","","","","","","","","","",""
"296","610572","SARL_v6","SARL_v6e7cl691g","64143c6c286640f3d1348cf8","freq","","","img/orange_2bandit_a2.png","70","","70","test","1","","57","","","","square","circle","55","12","3","0.9636363636363636","","","","","","","",""
"null","611081","SARL_v6","SARL_v6e7cl691g","64143c6c286640f3d1348cf8","freq_resp","","","img/orange_2bandit_a.png","70","img/orange_2bandit_a.png","70","test","","","","","","","","","","","3","","","","","","","","",""
"null","611241","SARL_v6","SARL_v6e7cl691g","64143c6c286640f3d1348cf8","fixation","","","img/fixation.png","null","","","test","","","","","","","","","","","","","","","","","","","",""
"346.60000002384186","611591","SARL_v6","SARL_v6e7cl691g","64143c6c286640f3d1348cf8","freq","","","img/orange_2bandit_a2.png","70","","70","test","1","","58","","","","square","circle","56","13","3","0.9642857142857143","","","","","","","",""
"null","612048","SARL_v6","SARL_v6e7cl691g","64143c6c286640f3d1348cf8","freq_resp","","","img/orange_2bandit_a.png","70","img/orange_2bandit_a.png","70","test","","","","","","","","","","","3","","","","","","","","",""
"null","612208","SARL_v6","SARL_v6e7cl691g","64143c6c286640f3d1348cf8","fixation","","","img/fixation.png","null","","","test","","","","","","","","","","","","","","","","","","","",""
"343.10000002384186","612554","SARL_v6","SARL_v6e7cl691g","64143c6c286640f3d1348cf8","freq","","","img/orange_2bandit_a2.png","70","","70","test","1","","59","","","","square","circle","57","14","3","0.9649122807017544","","","","","","","",""
"null","613021","SARL_v6","SARL_v6e7cl691g","64143c6c286640f3d1348cf8","freq_resp","","","img/orange_2bandit_a.png","70","img/orange_2bandit_a.png","70","test","","","","","","","","","","","3","","","","","","","","",""
"null","613177","SARL_v6","SARL_v6e7cl691g","64143c6c286640f3d1348cf8","fixation","","","img/fixation.png","null","","","test","","","","","","","","","","","","","","","","","","","",""
"246.5","613427","SARL_v6","SARL_v6e7cl691g","64143c6c286640f3d1348cf8","freq","","","img/orange_2bandit_a2.png","70","","70","test","1","","60","","","","square","circle","58","15","3","0.9655172413793104","","","","","","","",""
"null","613984","SARL_v6","SARL_v6e7cl691g","64143c6c286640f3d1348cf8","freq_resp","","","img/orange_2bandit_a.png","70","img/orange_2bandit_a.png","70","test","","","","","","","","","","","3","","","","","","","","",""
"null","614144","SARL_v6","SARL_v6e7cl691g","64143c6c286640f3d1348cf8","fixation","","","img/fixation.png","null","","","test","","","","","","","","","","","","","","","","","","","",""
"293.5","614441","SARL_v6","SARL_v6e7cl691g","64143c6c286640f3d1348cf8","freq","","","img/orange_2bandit_a2.png","70","","70","test","1","","61","","","","square","circle","59","16","3","0.9661016949152542","","","","","","","",""
"null","614960","SARL_v6","SARL_v6e7cl691g","64143c6c286640f3d1348cf8","freq_resp","","","img/orange_2bandit_a.png","70","img/orange_2bandit_a.png","70","test","","","","","","","","","","","3","","","","","","","","",""
"null","615114","SARL_v6","SARL_v6e7cl691g","64143c6c286640f3d1348cf8","fixation","","","img/fixation.png","null","","","test","","","","","","","","","","","","","","","","","","","",""
"607.2000000476837","615725","SARL_v6","SARL_v6e7cl691g","64143c6c286640f3d1348cf8","freq","","","img/orange_2bandit_a2.png","70","","70","test","1","","62","","","","square","circle","60","17","3","0.9666666666666667","","","","","","","",""
"null","615922","SARL_v6","SARL_v6e7cl691g","64143c6c286640f3d1348cf8","freq_resp","","","img/orange_2bandit_a.png","70","img/orange_2bandit_a.png","70","test","","","","","","","","","","","3","","","","","","","","",""
"null","616100","SARL_v6","SARL_v6e7cl691g","64143c6c286640f3d1348cf8","fixation","","","img/fixation.png","null","","","test","","","","","","","","","","","","","","","","","","","",""
"342.2000000476837","616446","SARL_v6","SARL_v6e7cl691g","64143c6c286640f3d1348cf8","freq","","","img/orange_2bandit_a2.png","70","","70","test","1","","63","","","","square","circle","61","18","3","0.9672131147540983","","","","","","","",""
"null","616914","SARL_v6","SARL_v6e7cl691g","64143c6c286640f3d1348cf8","freq_resp","","","img/orange_2bandit_a.png","70","img/orange_2bandit_a.png","70","test","","","","","","","","","","","3","","","","","","","","",""
"null","617073","SARL_v6","SARL_v6e7cl691g","64143c6c286640f3d1348cf8","fixation","","","img/fixation.png","null","","","test","","","","","","","","","","","","","","","","","","","",""
"263.7000000476837","617343","SARL_v6","SARL_v6e7cl691g","64143c6c286640f3d1348cf8","freq","","","img/orange_2bandit_a2.png","70","","70","test","1","","64","","","","square","circle","62","19","3","0.967741935483871","","","","","","","",""
"null","617889","SARL_v6","SARL_v6e7cl691g","64143c6c286640f3d1348cf8","freq_resp","","","img/orange_2bandit_a.png","70","img/orange_2bandit_a.png","70","test","","","","","","","","","","","3","","","","","","","","",""
"null","618049","SARL_v6","SARL_v6e7cl691g","64143c6c286640f3d1348cf8","fixation","","","img/fixation.png","null","","","test","","","","","","","","","","","","","","","","","","","",""
"155.89999997615814","618209","SARL_v6","SARL_v6e7cl691g","64143c6c286640f3d1348cf8","freq","","","img/orange_2bandit_a2.png","70","","70","test","1","","65","","","","square","circle","63","20","3","0.9682539682539683","","","","","","","",""
"null","618858","SARL_v6","SARL_v6e7cl691g","64143c6c286640f3d1348cf8","freq_resp","","","img/orange_2bandit_a.png","70","img/orange_2bandit_a.png","70","test","","","","","","","","","","","3","","","","","","","","",""
"null","619018","SARL_v6","SARL_v6e7cl691g","64143c6c286640f3d1348cf8","fixation","","","img/fixation.png","null","","","test","","","","","","","","","","","","","","","","","","","",""
"261.1999999284744","619283","SARL_v6","SARL_v6e7cl691g","64143c6c286640f3d1348cf8","freq","","","img/orange_2bandit_a2.png","70","","70","test","1","","66","","","","square","circle","64","21","3","0.96875","","","","","","","",""
"null","619828","SARL_v6","SARL_v6e7cl691g","64143c6c286640f3d1348cf8","freq_resp","","","img/orange_2bandit_a.png","70","img/orange_2bandit_a.png","70","test","","","","","","","","","","","3","","","","","","","","",""
"null","619986","SARL_v6","SARL_v6e7cl691g","64143c6c286640f3d1348cf8","fixation","","","img/fixation.png","null","","","test","","","","","","","","","","","","","","","","","","","",""
"143.29999995231628","620133","SARL_v6","SARL_v6e7cl691g","64143c6c286640f3d1348cf8","freq","","","img/orange_2bandit_a2.png","70","","70","test","1","","67","","","","square","circle","65","22","3","0.9692307692307692","","","","","","","",""
"null","620794","SARL_v6","SARL_v6e7cl691g","64143c6c286640f3d1348cf8","freq_resp","","","img/orange_2bandit_a.png","70","img/orange_2bandit_a.png","70","test","","","","","","","","","","","3","","","","","","","","",""
"null","620955","SARL_v6","SARL_v6e7cl691g","64143c6c286640f3d1348cf8","fixation","","","img/fixation.png","null","","","test","","","","","","","","","","","","","","","","","","","",""
"233.69999992847443","621193","SARL_v6","SARL_v6e7cl691g","64143c6c286640f3d1348cf8","freq","","","img/orange_2bandit_a2.png","70","","70","test","1","","68","","","","square","circle","66","23","3","0.9696969696969697","","","","","","","",""
"null","621769","SARL_v6","SARL_v6e7cl691g","64143c6c286640f3d1348cf8","freq_resp","","","img/orange_2bandit_a.png","70","img/orange_2bandit_a.png","70","test","","","","","","","","","","","3","","","","","","","","",""
"null","621930","SARL_v6","SARL_v6e7cl691g","64143c6c286640f3d1348cf8","fixation","","","img/fixation.png","null","","","test","","","","","","","","","","","","","","","","","","","",""
"150.80000007152557","622086","SARL_v6","SARL_v6e7cl691g","64143c6c286640f3d1348cf8","infreq","","","img/blue_2bandit_a2.png","70","","68","test","0","","69","","","","square","circle","67","24","3","0.9552238805970149","","","","","","","",""
"null","622746","SARL_v6","SARL_v6e7cl691g","64143c6c286640f3d1348cf8","infreq_resp","","","img/blue_2bandit_a.png","70","img/blue_2bandit_a.png","68","test","","","","","","","","","","","3","","","","","","","","",""
"null","622906","SARL_v6","SARL_v6e7cl691g","64143c6c286640f3d1348cf8","fixation","","","img/fixation.png","null","","","test","","","","","","","","","","","","","","","","","","","",""
"404","623314","SARL_v6","SARL_v6e7cl691g","64143c6c286640f3d1348cf8","freq","","","img/orange_2bandit_a2.png","70","","70","test","1","","70","","","","square","circle","68","25","3","0.9558823529411765","","","","","","","",""
"null","623714","SARL_v6","SARL_v6e7cl691g","64143c6c286640f3d1348cf8","freq_resp","","","img/orange_2bandit_a.png","70","img/orange_2bandit_a.png","70","test","","","","","","","","","","","3","","","","","","","","",""
"null","623874","SARL_v6","SARL_v6e7cl691g","64143c6c286640f3d1348cf8","fixation","","","img/fixation.png","null","","","test","","","","","","","","","","","","","","","","","","","",""
"174.60000002384186","624052","SARL_v6","SARL_v6e7cl691g","64143c6c286640f3d1348cf8","freq","","","img/orange_2bandit_a2.png","70","","70","test","1","","71","","","","square","circle","69","26","3","0.9565217391304348","","","","","","","",""
"null","624682","SARL_v6","SARL_v6e7cl691g","64143c6c286640f3d1348cf8","freq_resp","","","img/orange_2bandit_a.png","70","img/orange_2bandit_a.png","70","test","","","","","","","","","","","3","","","","","","","","",""
"null","624843","SARL_v6","SARL_v6e7cl691g","64143c6c286640f3d1348cf8","fixation","","","img/fixation.png","null","","","test","","","","","","","","","","","","","","","","","","","",""
"676.5","625524","SARL_v6","SARL_v6e7cl691g","64143c6c286640f3d1348cf8","rl","","","img/black_2bandit_a2.png","75","","0","test","","","72","","","-4","square","circle","","0","3","","75","-4","-8","-8","-4","circle","3","0"
"null","626282","SARL_v6","SARL_v6e7cl691g","64143c6c286640f3d1348cf8","feedback","","","<div class=""verylowPoints""> -4 </div>","null","","na","test","","","NaN","","","","","","","","3","","75","","","","","","3",""
"500.3000000715256","626786","SARL_v6","SARL_v6e7cl691g","64143c6c286640f3d1348cf8","freq","","","img/orange_2bandit_a2.png","70","","70","test","1","","73","","","","square","circle","70","1","4","0.9571428571428572","","","","","","","",""
"null","627090","SARL_v6","SARL_v6e7cl691g","64143c6c286640f3d1348cf8","freq_resp","","","img/orange_2bandit_a.png","70","img/orange_2bandit_a.png","70","test","","","","","","","","","","","4","","","","","","","","",""
"null","627251","SARL_v6","SARL_v6e7cl691g","64143c6c286640f3d1348cf8","fixation","","","img/fixation.png","null","","","test","","","","","","","","","","","","","","","","","","","",""
"475.10000002384186","627730","SARL_v6","SARL_v6e7cl691g","64143c6c286640f3d1348cf8","infreq","","","img/blue_2bandit_a2.png","68","","68","test","1","","74","","","","square","circle","71","2","4","0.9577464788732394","","","","","","","",""
"null","628058","SARL_v6","SARL_v6e7cl691g","64143c6c286640f3d1348cf8","infreq_resp","","","img/blue_2bandit_a.png","68","img/blue_2bandit_a.png","68","test","","","","","","","","","","","4","","","","","","","","",""
"null","628219","SARL_v6","SARL_v6e7cl691g","64143c6c286640f3d1348cf8","fixation","","","img/fixation.png","null","","","test","","","","","","","","","","","","","","","","","","","",""
"561.9000000953674","628784","SARL_v6","SARL_v6e7cl691g","64143c6c286640f3d1348cf8","freq","","","img/orange_2bandit_a2.png","70","","70","test","1","","75","","","","square","circle","72","3","4","0.9583333333333334","","","","","","","",""
"null","629033","SARL_v6","SARL_v6e7cl691g","64143c6c286640f3d1348cf8","freq_resp","","","img/orange_2bandit_a.png","70","img/orange_2bandit_a.png","70","test","","","","","","","","","","","4","","","","","","","","",""
"null","629195","SARL_v6","SARL_v6e7cl691g","64143c6c286640f3d1348cf8","fixation","","","img/fixation.png","null","","","test","","","","","","","","","","","","","","","","","","","",""
"607.8000000715256","629806","SARL_v6","SARL_v6e7cl691g","64143c6c286640f3d1348cf8","freq","","","img/orange_2bandit_a2.png","70","","70","test","1","","76","","","","square","circle","73","4","4","0.958904109589041","","","","","","","",""
"null","630010","SARL_v6","SARL_v6e7cl691g","64143c6c286640f3d1348cf8","freq_resp","","","img/orange_2bandit_a.png","70","img/orange_2bandit_a.png","70","test","","","","","","","","","","","4","","","","","","","","",""
"null","630170","SARL_v6","SARL_v6e7cl691g","64143c6c286640f3d1348cf8","fixation","","","img/fixation.png","null","","","test","","","","","","","","","","","","","","","","","","","",""
"null","630979","SARL_v6","SARL_v6e7cl691g","64143c6c286640f3d1348cf8","freq","","","img/orange_2bandit_a2.png","null","","70","test","0","","77","","","","square","circle","74","5","4","0.9459459459459459","","","","","","","",""
"null","631139","SARL_v6","SARL_v6e7cl691g","64143c6c286640f3d1348cf8","fixation","","","img/fixation.png","null","","","test","","","","","","","","","","","","","","","","","","","",""
"264.7000000476837","631410","SARL_v6","SARL_v6e7cl691g","64143c6c286640f3d1348cf8","freq","","","img/orange_2bandit_a2.png","70","","70","test","1","","78","","","","square","circle","75","6","4","0.9466666666666667","","","","","","","",""
"null","631955","SARL_v6","SARL_v6e7cl691g","64143c6c286640f3d1348cf8","freq_resp","","","img/orange_2bandit_a.png","70","img/orange_2bandit_a.png","70","test","","","","","","","","","","","4","","","","","","","","",""
"null","632114","SARL_v6","SARL_v6e7cl691g","64143c6c286640f3d1348cf8","fixation","","","img/fixation.png","null","","","test","","","","","","","","","","","","","","","","","","","",""
"313.2000000476837","632431","SARL_v6","SARL_v6e7cl691g","64143c6c286640f3d1348cf8","freq","","","img/orange_2bandit_a2.png","70","","70","test","1","","79","","","","square","circle","76","7","4","0.9473684210526315","","","","","","","",""
"null","632922","SARL_v6","SARL_v6e7cl691g","64143c6c286640f3d1348cf8","freq_resp","","","img/orange_2bandit_a.png","70","img/orange_2bandit_a.png","70","test","","","","","","","","","","","4","","","","","","","","",""
"null","633082","SARL_v6","SARL_v6e7cl691g","64143c6c286640f3d1348cf8","fixation","","","img/fixation.png","null","","","test","","","","","","","","","","","","","","","","","","","",""
"439.09999990463257","633525","SARL_v6","SARL_v6e7cl691g","64143c6c286640f3d1348cf8","freq","","","img/orange_2bandit_a2.png","70","","70","test","1","","80","","","","square","circle","77","8","4","0.948051948051948","","","","","","","",""
"null","633890","SARL_v6","SARL_v6e7cl691g","64143c6c286640f3d1348cf8","freq_resp","","","img/orange_2bandit_a.png","70","img/orange_2bandit_a.png","70","test","","","","","","","","","","","4","","","","","","","","",""
"null","634051","SARL_v6","SARL_v6e7cl691g","64143c6c286640f3d1348cf8","fixation","","","img/fixation.png","null","","","test","","","","","","","","","","","","","","","","","","","",""
"null","634858","SARL_v6","SARL_v6e7cl691g","64143c6c286640f3d1348cf8","freq","","","img/orange_2bandit_a2.png","null","","70","test","0","","81","","","","square","circle","78","9","4","0.9358974358974359","","","","","","","",""
"null","635019","SARL_v6","SARL_v6e7cl691g","64143c6c286640f3d1348cf8","fixation","","","img/fixation.png","null","","","test","","","","","","","","","","","","","","","","","","","",""
"507.3000000715256","635530","SARL_v6","SARL_v6e7cl691g","64143c6c286640f3d1348cf8","freq","","","img/orange_2bandit_a2.png","70","","70","test","1","","82","","","","square","circle","79","10","4","0.9367088607594937","","","","","","","",""
"null","635834","SARL_v6","SARL_v6e7cl691g","64143c6c286640f3d1348cf8","freq_resp","","","img/orange_2bandit_a.png","70","img/orange_2bandit_a.png","70","test","","","","","","","","","","","4","","","","","","","","",""
"null","635994","SARL_v6","SARL_v6e7cl691g","64143c6c286640f3d1348cf8","fixation","","","img/fixation.png","null","","","test","","","","","","","","","","","","","","","","","","","",""
"293.90000009536743","636292","SARL_v6","SARL_v6e7cl691g","64143c6c286640f3d1348cf8","freq","","","img/orange_2bandit_a2.png","70","","70","test","1","","83","","","","square","circle","80","11","4","0.9375","","","","","","","",""
"null","636803","SARL_v6","SARL_v6e7cl691g","64143c6c286640f3d1348cf8","freq_resp","","","img/orange_2bandit_a.png","70","img/orange_2bandit_a.png","70","test","","","","","","","","","","","4","","","","","","","","",""
"null","636963","SARL_v6","SARL_v6e7cl691g","64143c6c286640f3d1348cf8","fixation","","","img/fixation.png","null","","","test","","","","","","","","","","","","","","","","","","","",""
"279.60000002384186","637246","SARL_v6","SARL_v6e7cl691g","64143c6c286640f3d1348cf8","freq","","","img/orange_2bandit_a2.png","70","","70","test","1","","84","","","","square","circle","81","12","4","0.9382716049382716","","","","","","","",""
"null","637778","SARL_v6","SARL_v6e7cl691g","64143c6c286640f3d1348cf8","freq_resp","","","img/orange_2bandit_a.png","70","img/orange_2bandit_a.png","70","test","","","","","","","","","","","4","","","","","","","","",""
"null","637938","SARL_v6","SARL_v6e7cl691g","64143c6c286640f3d1348cf8","fixation","","","img/fixation.png","null","","","test","","","","","","","","","","","","","","","","","","","",""
"275.10000002384186","638217","SARL_v6","SARL_v6e7cl691g","64143c6c286640f3d1348cf8","freq","","","img/orange_2bandit_a2.png","70","","70","test","1","","85","","","","square","circle","82","13","4","0.9390243902439024","","","","","","","",""
"null","638754","SARL_v6","SARL_v6e7cl691g","64143c6c286640f3d1348cf8","freq_resp","","","img/orange_2bandit_a.png","70","img/orange_2bandit_a.png","70","test","","","","","","","","","","","4","","","","","","","","",""
"null","638914","SARL_v6","SARL_v6e7cl691g","64143c6c286640f3d1348cf8","fixation","","","img/fixation.png","null","","","test","","","","","","","","","","","","","","","","","","","",""
"474.60000002384186","639393","SARL_v6","SARL_v6e7cl691g","64143c6c286640f3d1348cf8","infreq","","","img/blue_2bandit_a2.png","68","","68","test","1","","86","","","","square","circle","83","14","4","0.9397590361445783","","","","","","","",""
"null","639722","SARL_v6","SARL_v6e7cl691g","64143c6c286640f3d1348cf8","infreq_resp","","","img/blue_2bandit_a.png","68","img/blue_2bandit_a.png","68","test","","","","","","","","","","","4","","","","","","","","",""
"null","639882","SARL_v6","SARL_v6e7cl691g","64143c6c286640f3d1348cf8","fixation","","","img/fixation.png","null","","","test","","","","","","","","","","","","","","","","","","","",""
"454.2999999523163","640341","SARL_v6","SARL_v6e7cl691g","64143c6c286640f3d1348cf8","freq","","","img/orange_2bandit_a2.png","70","","70","test","1","","87","","","","square","circle","84","15","4","0.9404761904761905","","","","","","","",""
"null","640690","SARL_v6","SARL_v6e7cl691g","64143c6c286640f3d1348cf8","freq_resp","","","img/orange_2bandit_a.png","70","img/orange_2bandit_a.png","70","test","","","","","","","","","","","4","","","","","","","","",""
"null","640850","SARL_v6","SARL_v6e7cl691g","64143c6c286640f3d1348cf8","fixation","","","img/fixation.png","null","","","test","","","","","","","","","","","","","","","","","","","",""
"null","641658","SARL_v6","SARL_v6e7cl691g","64143c6c286640f3d1348cf8","freq","","","img/orange_2bandit_a2.png","null","","70","test","0","","88","","","","square","circle","85","16","4","0.9294117647058824","","","","","","","",""
"null","641819","SARL_v6","SARL_v6e7cl691g","64143c6c286640f3d1348cf8","fixation","","","img/fixation.png","null","","","test","","","","","","","","","","","","","","","","","","","",""
"425","642247","SARL_v6","SARL_v6e7cl691g","64143c6c286640f3d1348cf8","freq","","","img/orange_2bandit_a2.png","70","","70","test","1","","89","","","","square","circle","86","17","4","0.9302325581395349","","","","","","","",""
"null","642634","SARL_v6","SARL_v6e7cl691g","64143c6c286640f3d1348cf8","freq_resp","","","img/orange_2bandit_a.png","70","img/orange_2bandit_a.png","70","test","","","","","","","","","","","4","","","","","","","","",""
"null","642793","SARL_v6","SARL_v6e7cl691g","64143c6c286640f3d1348cf8","fixation","","","img/fixation.png","null","","","test","","","","","","","","","","","","","","","","","","","",""
"440.39999997615814","643238","SARL_v6","SARL_v6e7cl691g","64143c6c286640f3d1348cf8","freq","","","img/orange_2bandit_a2.png","70","","70","test","1","","90","","","","square","circle","87","18","4","0.9310344827586207","","","","","","","",""
"null","643602","SARL_v6","SARL_v6e7cl691g","64143c6c286640f3d1348cf8","freq_resp","","","img/orange_2bandit_a.png","70","img/orange_2bandit_a.png","70","test","","","","","","","","","","","4","","","","","","","","",""
"null","643762","SARL_v6","SARL_v6e7cl691g","64143c6c286640f3d1348cf8","fixation","","","img/fixation.png","null","","","test","","","","","","","","","","","","","","","","","","","",""
"614.5","644380","SARL_v6","SARL_v6e7cl691g","64143c6c286640f3d1348cf8","freq","","","img/orange_2bandit_a2.png","70","","70","test","1","","91","","","","square","circle","88","19","4","0.9318181818181818","","","","","","","",""
"null","644570","SARL_v6","SARL_v6e7cl691g","64143c6c286640f3d1348cf8","freq_resp","","","img/orange_2bandit_a.png","70","img/orange_2bandit_a.png","70","test","","","","","","","","","","","4","","","","","","","","",""
"null","644730","SARL_v6","SARL_v6e7cl691g","64143c6c286640f3d1348cf8","fixation","","","img/fixation.png","null","","","test","","","","","","","","","","","","","","","","","","","",""
"351","645085","SARL_v6","SARL_v6e7cl691g","64143c6c286640f3d1348cf8","freq","","","img/orange_2bandit_a2.png","70","","70","test","1","","92","","","","square","circle","89","20","4","0.9325842696629213","","","","","","","",""
"null","645541","SARL_v6","SARL_v6e7cl691g","64143c6c286640f3d1348cf8","freq_resp","","","img/orange_2bandit_a.png","70","img/orange_2bandit_a.png","70","test","","","","","","","","","","","4","","","","","","","","",""
"null","645698","SARL_v6","SARL_v6e7cl691g","64143c6c286640f3d1348cf8","fixation","","","img/fixation.png","null","","","test","","","","","","","","","","","","","","","","","","","",""
"null","647201","SARL_v6","SARL_v6e7cl691g","64143c6c286640f3d1348cf8","rl","","","img/black_2bandit_a2.png","null","","0","test","","","93","","","0","square","circle","","0","4","","null","0","-12","-12","0","too slow","4","0"
"null","647964","SARL_v6","SARL_v6e7cl691g","64143c6c286640f3d1348cf8","feedback","","","<div font size = 80> TOO SLOW  </div>","null","","na","test","","","NaN","","","","","","","","4","","null","","","","","","4",""
"377.39999997615814","648344","SARL_v6","SARL_v6e7cl691g","64143c6c286640f3d1348cf8","freq","","","img/orange_2bandit_a2.png","68","","70","test","0","","94","","","","square","circle","90","1","5","0.9222222222222223","","","","","","","",""
"null","648778","SARL_v6","SARL_v6e7cl691g","64143c6c286640f3d1348cf8","freq_resp","","","img/orange_2bandit_a.png","68","img/orange_2bandit_a.png","70","test","","","","","","","","","","","5","","","","","","","","",""
"null","648938","SARL_v6","SARL_v6e7cl691g","64143c6c286640f3d1348cf8","fixation","","","img/fixation.png","null","","","test","","","","","","","","","","","","","","","","","","","",""
"315.5","649258","SARL_v6","SARL_v6e7cl691g","64143c6c286640f3d1348cf8","freq","","","img/orange_2bandit_a2.png","70","","70","test","1","","95","","","","square","circle","91","2","5","0.9230769230769231","","","","","","","",""
"null","649746","SARL_v6","SARL_v6e7cl691g","64143c6c286640f3d1348cf8","freq_resp","","","img/orange_2bandit_a.png","70","img/orange_2bandit_a.png","70","test","","","","","","","","","","","5","","","","","","","","",""
"null","649906","SARL_v6","SARL_v6e7cl691g","64143c6c286640f3d1348cf8","fixation","","","img/fixation.png","null","","","test","","","","","","","","","","","","","","","","","","","",""
"285.89999997615814","650195","SARL_v6","SARL_v6e7cl691g","64143c6c286640f3d1348cf8","freq","","","img/orange_2bandit_a2.png","70","","70","test","1","","96","","","","square","circle","92","3","5","0.9239130434782609","","","","","","","",""
"null","650714","SARL_v6","SARL_v6e7cl691g","64143c6c286640f3d1348cf8","freq_resp","","","img/orange_2bandit_a.png","70","img/orange_2bandit_a.png","70","test","","","","","","","","","","","5","","","","","","","","",""
"null","650874","SARL_v6","SARL_v6e7cl691g","64143c6c286640f3d1348cf8","fixation","","","img/fixation.png","null","","","test","","","","","","","","","","","","","","","","","","","",""
"253.39999997615814","651131","SARL_v6","SARL_v6e7cl691g","64143c6c286640f3d1348cf8","freq","","","img/orange_2bandit_a2.png","70","","70","test","1","","97","","","","square","circle","93","4","5","0.9247311827956989","","","","","","","",""
"null","651683","SARL_v6","SARL_v6e7cl691g","64143c6c286640f3d1348cf8","freq_resp","","","img/orange_2bandit_a.png","70","img/orange_2bandit_a.png","70","test","","","","","","","","","","","5","","","","","","","","",""
"null","651842","SARL_v6","SARL_v6e7cl691g","64143c6c286640f3d1348cf8","fixation","","","img/fixation.png","null","","","test","","","","","","","","","","","","","","","","","","","",""
"251.80000007152557","652097","SARL_v6","SARL_v6e7cl691g","64143c6c286640f3d1348cf8","freq","","","img/orange_2bandit_a2.png","70","","70","test","1","","98","","","","square","circle","94","5","5","0.925531914893617","","","","","","","",""
"null","652649","SARL_v6","SARL_v6e7cl691g","64143c6c286640f3d1348cf8","freq_resp","","","img/orange_2bandit_a.png","70","img/orange_2bandit_a.png","70","test","","","","","","","","","","","5","","","","","","","","",""
"null","652810","SARL_v6","SARL_v6e7cl691g","64143c6c286640f3d1348cf8","fixation","","","img/fixation.png","null","","","test","","","","","","","","","","","","","","","","","","","",""
"281.39999997615814","653095","SARL_v6","SARL_v6e7cl691g","64143c6c286640f3d1348cf8","infreq","","","img/blue_2bandit_a2.png","70","","68","test","0","","99","","","","square","circle","95","6","5","0.9157894736842105","","","","","","","",""
"null","653618","SARL_v6","SARL_v6e7cl691g","64143c6c286640f3d1348cf8","infreq_resp","","","img/blue_2bandit_a.png","70","img/blue_2bandit_a.png","68","test","","","","","","","","","","","5","","","","","","","","",""
"null","653780","SARL_v6","SARL_v6e7cl691g","64143c6c286640f3d1348cf8","fixation","","","img/fixation.png","null","","","test","","","","","","","","","","","","","","","","","","","",""
"499","654282","SARL_v6","SARL_v6e7cl691g","64143c6c286640f3d1348cf8","freq","","","img/orange_2bandit_a2.png","68","","70","test","0","","100","","","","square","circle","96","7","5","0.90625","","","","","","","",""
"null","654594","SARL_v6","SARL_v6e7cl691g","64143c6c286640f3d1348cf8","freq_resp","","","img/orange_2bandit_a.png","68","img/orange_2bandit_a.png","70","test","","","","","","","","","","","5","","","","","","","","",""
"null","654754","SARL_v6","SARL_v6e7cl691g","64143c6c286640f3d1348cf8","fixation","","","img/fixation.png","null","","","test","","","","","","","","","","","","","","","","","","","",""
"483.89999997615814","655242","SARL_v6","SARL_v6e7cl691g","64143c6c286640f3d1348cf8","freq","","","img/orange_2bandit_a2.png","70","","70","test","1","","101","","","","square","circle","97","8","5","0.9072164948453608","","","","","","","",""
"null","655564","SARL_v6","SARL_v6e7cl691g","64143c6c286640f3d1348cf8","freq_resp","","","img/orange_2bandit_a.png","70","img/orange_2bandit_a.png","70","test","","","","","","","","","","","5","","","","","","","","",""
"null","655722","SARL_v6","SARL_v6e7cl691g","64143c6c286640f3d1348cf8","fixation","","","img/fixation.png","null","","","test","","","","","","","","","","","","","","","","","","","",""
"299.40000009536743","656025","SARL_v6","SARL_v6e7cl691g","64143c6c286640f3d1348cf8","freq","","","img/orange_2bandit_a2.png","70","","70","test","1","","102","","","","square","circle","98","9","5","0.9081632653061225","","","","","","","",""
"null","656544","SARL_v6","SARL_v6e7cl691g","64143c6c286640f3d1348cf8","freq_resp","","","img/orange_2bandit_a.png","70","img/orange_2bandit_a.png","70","test","","","","","","","","","","","5","","","","","","","","",""
"null","656697","SARL_v6","SARL_v6e7cl691g","64143c6c286640f3d1348cf8","fixation","","","img/fixation.png","null","","","test","","","","","","","","","","","","","","","","","","","",""
"null","657530","SARL_v6","SARL_v6e7cl691g","64143c6c286640f3d1348cf8","infreq","","","img/blue_2bandit_a2.png","null","","68","test","0","","103","","","","square","circle","99","10","5","0.898989898989899","","","","","","","",""
"null","657690","SARL_v6","SARL_v6e7cl691g","64143c6c286640f3d1348cf8","fixation","","","img/fixation.png","null","","","test","","","","","","","","","","","","","","","","","","","",""
"544.3000000715256","658238","SARL_v6","SARL_v6e7cl691g","64143c6c286640f3d1348cf8","freq","","","img/orange_2bandit_a2.png","70","","70","test","1","","104","","","","square","circle","100","11","5","0.9","","","","","","","",""
"null","658499","SARL_v6","SARL_v6e7cl691g","64143c6c286640f3d1348cf8","freq_resp","","","img/orange_2bandit_a.png","70","img/orange_2bandit_a.png","70","test","","","","","","","","","","","5","","","","","","","","",""
"null","658657","SARL_v6","SARL_v6e7cl691g","64143c6c286640f3d1348cf8","fixation","","","img/fixation.png","null","","","test","","","","","","","","","","","","","","","","","","","",""
"439.1999999284744","659100","SARL_v6","SARL_v6e7cl691g","64143c6c286640f3d1348cf8","freq","","","img/orange_2bandit_a2.png","70","","70","test","1","","105","","","","square","circle","101","12","5","0.900990099009901","","","","","","","",""
"null","659466","SARL_v6","SARL_v6e7cl691g","64143c6c286640f3d1348cf8","freq_resp","","","img/orange_2bandit_a.png","70","img/orange_2bandit_a.png","70","test","","","","","","","","","","","5","","","","","","","","",""
"null","659626","SARL_v6","SARL_v6e7cl691g","64143c6c286640f3d1348cf8","fixation","","","img/fixation.png","null","","","test","","","","","","","","","","","","","","","","","","","",""
"360.2999999523163","659990","SARL_v6","SARL_v6e7cl691g","64143c6c286640f3d1348cf8","freq","","","img/orange_2bandit_a2.png","70","","70","test","1","","106","","","","square","circle","102","13","5","0.9019607843137255","","","","","","","",""
"null","660434","SARL_v6","SARL_v6e7cl691g","64143c6c286640f3d1348cf8","freq_resp","","","img/orange_2bandit_a.png","70","img/orange_2bandit_a.png","70","test","","","","","","","","","","","5","","","","","","","","",""
"null","660595","SARL_v6","SARL_v6e7cl691g","64143c6c286640f3d1348cf8","fixation","","","img/fixation.png","null","","","test","","","","","","","","","","","","","","","","","","","",""
"343","660942","SARL_v6","SARL_v6e7cl691g","64143c6c286640f3d1348cf8","freq","","","img/orange_2bandit_a2.png","70","","70","test","1","","107","","","","square","circle","103","14","5","0.9029126213592233","","","","","","","",""
"null","661411","SARL_v6","SARL_v6e7cl691g","64143c6c286640f3d1348cf8","freq_resp","","","img/orange_2bandit_a.png","70","img/orange_2bandit_a.png","70","test","","","","","","","","","","","5","","","","","","","","",""
"null","661571","SARL_v6","SARL_v6e7cl691g","64143c6c286640f3d1348cf8","fixation","","","img/fixation.png","null","","","test","","","","","","","","","","","","","","","","","","","",""
"418.2999999523163","661993","SARL_v6","SARL_v6e7cl691g","64143c6c286640f3d1348cf8","freq","","","img/orange_2bandit_a2.png","70","","70","test","1","","108","","","","square","circle","104","15","5","0.9038461538461539","","","","","","","",""
"null","662379","SARL_v6","SARL_v6e7cl691g","64143c6c286640f3d1348cf8","freq_resp","","","img/orange_2bandit_a.png","70","img/orange_2bandit_a.png","70","test","","","","","","","","","","","5","","","","","","","","",""
"null","662543","SARL_v6","SARL_v6e7cl691g","64143c6c286640f3d1348cf8","fixation","","","img/fixation.png","null","","","test","","","","","","","","","","","","","","","","","","","",""
"375.2000000476837","662923","SARL_v6","SARL_v6e7cl691g","64143c6c286640f3d1348cf8","freq","","","img/orange_2bandit_a2.png","70","","70","test","1","","109","","","","square","circle","105","16","5","0.9047619047619048","","","","","","","",""
"null","663354","SARL_v6","SARL_v6e7cl691g","64143c6c286640f3d1348cf8","freq_resp","","","img/orange_2bandit_a.png","70","img/orange_2bandit_a.png","70","test","","","","","","","","","","","5","","","","","","","","",""
"null","663530","SARL_v6","SARL_v6e7cl691g","64143c6c286640f3d1348cf8","fixation","","","img/fixation.png","null","","","test","","","","","","","","","","","","","","","","","","","",""
"352.40000009536743","663885","SARL_v6","SARL_v6e7cl691g","64143c6c286640f3d1348cf8","freq","","","img/orange_2bandit_a2.png","70","","70","test","1","","110","","","","square","circle","106","17","5","0.9056603773584906","","","","","","","",""
"null","664338","SARL_v6","SARL_v6e7cl691g","64143c6c286640f3d1348cf8","freq_resp","","","img/orange_2bandit_a.png","70","img/orange_2bandit_a.png","70","test","","","","","","","","","","","5","","","","","","","","",""
"null","664500","SARL_v6","SARL_v6e7cl691g","64143c6c286640f3d1348cf8","fixation","","","img/fixation.png","null","","","test","","","","","","","","","","","","","","","","","","","",""
"452.60000002384186","664956","SARL_v6","SARL_v6e7cl691g","64143c6c286640f3d1348cf8","infreq","","","img/blue_2bandit_a2.png","68","","68","test","1","","111","","","","square","circle","107","18","5","0.9065420560747663","","","","","","","",""
"null","665314","SARL_v6","SARL_v6e7cl691g","64143c6c286640f3d1348cf8","infreq_resp","","","img/blue_2bandit_a.png","68","img/blue_2bandit_a.png","68","test","","","","","","","","","","","5","","","","","","","","",""
"null","665474","SARL_v6","SARL_v6e7cl691g","64143c6c286640f3d1348cf8","fixation","","","img/fixation.png","null","","","test","","","","","","","","","","","","","","","","","","","",""
"433","665911","SARL_v6","SARL_v6e7cl691g","64143c6c286640f3d1348cf8","freq","","","img/orange_2bandit_a2.png","70","","70","test","1","","112","","","","square","circle","108","19","5","0.9074074074074074","","","","","","","",""
"null","666290","SARL_v6","SARL_v6e7cl691g","64143c6c286640f3d1348cf8","freq_resp","","","img/orange_2bandit_a.png","70","img/orange_2bandit_a.png","70","test","","","","","","","","","","","5","","","","","","","","",""
"null","666450","SARL_v6","SARL_v6e7cl691g","64143c6c286640f3d1348cf8","fixation","","","img/fixation.png","null","","","test","","","","","","","","","","","","","","","","","","","",""
"355.7000000476837","666810","SARL_v6","SARL_v6e7cl691g","64143c6c286640f3d1348cf8","freq","","","img/orange_2bandit_a2.png","70","","70","test","1","","113","","","","square","circle","109","20","5","0.908256880733945","","","","","","","",""
"null","667266","SARL_v6","SARL_v6e7cl691g","64143c6c286640f3d1348cf8","freq_resp","","","img/orange_2bandit_a.png","70","img/orange_2bandit_a.png","70","test","","","","","","","","","","","5","","","","","","","","",""
"null","667426","SARL_v6","SARL_v6e7cl691g","64143c6c286640f3d1348cf8","fixation","","","img/fixation.png","null","","","test","","","","","","","","","","","","","","","","","","","",""
"347.60000002384186","667777","SARL_v6","SARL_v6e7cl691g","64143c6c286640f3d1348cf8","freq","","","img/orange_2bandit_a2.png","70","","70","test","1","","114","","","","square","circle","110","21","5","0.9090909090909091","","","","","","","",""
"null","668236","SARL_v6","SARL_v6e7cl691g","64143c6c286640f3d1348cf8","freq_resp","","","img/orange_2bandit_a.png","70","img/orange_2bandit_a.png","70","test","","","","","","","","","","","5","","","","","","","","",""
"null","668394","SARL_v6","SARL_v6e7cl691g","64143c6c286640f3d1348cf8","fixation","","","img/fixation.png","null","","","test","","","","","","","","","","","","","","","","","","","",""
"622.1999999284744","669021","SARL_v6","SARL_v6e7cl691g","64143c6c286640f3d1348cf8","freq","","","img/orange_2bandit_a2.png","70","","70","test","1","","115","","","","square","circle","111","22","5","0.9099099099099099","","","","","","","",""
"null","669202","SARL_v6","SARL_v6e7cl691g","64143c6c286640f3d1348cf8","freq_resp","","","img/orange_2bandit_a.png","70","img/orange_2bandit_a.png","70","test","","","","","","","","","","","5","","","","","","","","",""
"null","669362","SARL_v6","SARL_v6e7cl691g","64143c6c286640f3d1348cf8","fixation","","","img/fixation.png","null","","","test","","","","","","","","","","","","","","","","","","","",""
"789.1000000238419","670155","SARL_v6","SARL_v6e7cl691g","64143c6c286640f3d1348cf8","freq","","","img/orange_2bandit_a2.png","70","","70","test","1","","116","","","","square","circle","112","23","5","0.9107142857142857","","","","","","","",""
"null","670171","SARL_v6","SARL_v6e7cl691g","64143c6c286640f3d1348cf8","freq_resp","","","img/orange_2bandit_a.png","70","img/orange_2bandit_a.png","70","test","","","","","","","","","","","5","","","","","","","","",""
"null","670330","SARL_v6","SARL_v6e7cl691g","64143c6c286640f3d1348cf8","fixation","","","img/fixation.png","null","","","test","","","","","","","","","","","","","","","","","","","",""
"628.7999999523163","670963","SARL_v6","SARL_v6e7cl691g","64143c6c286640f3d1348cf8","rl","","","img/black_2bandit_a2.png","75","","0","test","","","117","","","4","square","circle","","0","5","","75","4","-7","-7","4","circle","5","0"
"null","671722","SARL_v6","SARL_v6e7cl691g","64143c6c286640f3d1348cf8","feedback","","","<div class=""veryhighPoints""> 4 </div>","null","","na","test","","","NaN","","","","","","","","5","","75","","","","","","5",""
"464.90000009536743","672191","SARL_v6","SARL_v6e7cl691g","64143c6c286640f3d1348cf8","freq","","","img/orange_2bandit_a2.png","70","","70","test","1","","118","","","","square","circle","113","1","6","0.911504424778761","","","","","","","",""
"null","672532","SARL_v6","SARL_v6e7cl691g","64143c6c286640f3d1348cf8","freq_resp","","","img/orange_2bandit_a.png","70","img/orange_2bandit_a.png","70","test","","","","","","","","","","","6","","","","","","","","",""
"null","672690","SARL_v6","SARL_v6e7cl691g","64143c6c286640f3d1348cf8","fixation","","","img/fixation.png","null","","","test","","","","","","","","","","","","","","","","","","","",""
"255.20000004768372","672949","SARL_v6","SARL_v6e7cl691g","64143c6c286640f3d1348cf8","freq","","","img/orange_2bandit_a2.png","70","","70","test","1","","119","","","","square","circle","114","2","6","0.9122807017543859","","","","","","","",""
"null","673499","SARL_v6","SARL_v6e7cl691g","64143c6c286640f3d1348cf8","freq_resp","","","img/orange_2bandit_a.png","70","img/orange_2bandit_a.png","70","test","","","","","","","","","","","6","","","","","","","","",""
"null","673658","SARL_v6","SARL_v6e7cl691g","64143c6c286640f3d1348cf8","fixation","","","img/fixation.png","null","","","test","","","","","","","","","","","","","","","","","","","",""
"279.1999999284744","673941","SARL_v6","SARL_v6e7cl691g","64143c6c286640f3d1348cf8","freq","","","img/orange_2bandit_a2.png","70","","70","test","1","","120","","","","square","circle","115","3","6","0.9130434782608695","","","","","","","",""
"null","674466","SARL_v6","SARL_v6e7cl691g","64143c6c286640f3d1348cf8","freq_resp","","","img/orange_2bandit_a.png","70","img/orange_2bandit_a.png","70","test","","","","","","","","","","","6","","","","","","","","",""
"null","674626","SARL_v6","SARL_v6e7cl691g","64143c6c286640f3d1348cf8","fixation","","","img/fixation.png","null","","","test","","","","","","","","","","","","","","","","","","","",""
"304.10000002384186","674935","SARL_v6","SARL_v6e7cl691g","64143c6c286640f3d1348cf8","freq","","","img/orange_2bandit_a2.png","70","","70","test","1","","121","","","","square","circle","116","4","6","0.9137931034482759","","","","","","","",""
"null","675436","SARL_v6","SARL_v6e7cl691g","64143c6c286640f3d1348cf8","freq_resp","","","img/orange_2bandit_a.png","70","img/orange_2bandit_a.png","70","test","","","","","","","","","","","6","","","","","","","","",""
"null","675596","SARL_v6","SARL_v6e7cl691g","64143c6c286640f3d1348cf8","fixation","","","img/fixation.png","null","","","test","","","","","","","","","","","","","","","","","","","",""
"493.5","676093","SARL_v6","SARL_v6e7cl691g","64143c6c286640f3d1348cf8","infreq","","","img/blue_2bandit_a2.png","68","","68","test","1","","122","","","","square","circle","117","5","6","0.9145299145299145","","","","","","","",""
"null","676403","SARL_v6","SARL_v6e7cl691g","64143c6c286640f3d1348cf8","infreq_resp","","","img/blue_2bandit_a.png","68","img/blue_2bandit_a.png","68","test","","","","","","","","","","","6","","","","","","","","",""
"null","676566","SARL_v6","SARL_v6e7cl691g","64143c6c286640f3d1348cf8","fixation","","","img/fixation.png","null","","","test","","","","","","","","","","","","","","","","","","","",""
"435.60000002384186","677005","SARL_v6","SARL_v6e7cl691g","64143c6c286640f3d1348cf8","infreq","","","img/blue_2bandit_a2.png","68","","68","test","1","","123","","","","square","circle","118","6","6","0.9152542372881356","","","","","","","",""
"null","677380","SARL_v6","SARL_v6e7cl691g","64143c6c286640f3d1348cf8","infreq_resp","","","img/blue_2bandit_a.png","68","img/blue_2bandit_a.png","68","test","","","","","","","","","","","6","","","","","","","","",""
"null","677544","SARL_v6","SARL_v6e7cl691g","64143c6c286640f3d1348cf8","fixation","","","img/fixation.png","null","","","test","","","","","","","","","","","","","","","","","","","",""
"432.10000002384186","677981","SARL_v6","SARL_v6e7cl691g","64143c6c286640f3d1348cf8","freq","","","img/orange_2bandit_a2.png","70","","70","test","1","","124","","","","square","circle","119","7","6","0.9159663865546218","","","","","","","",""
"null","678355","SARL_v6","SARL_v6e7cl691g","64143c6c286640f3d1348cf8","freq_resp","","","img/orange_2bandit_a.png","70","img/orange_2bandit_a.png","70","test","","","","","","","","","","","6","","","","","","","","",""
"null","678532","SARL_v6","SARL_v6e7cl691g","64143c6c286640f3d1348cf8","fixation","","","img/fixation.png","null","","","test","","","","","","","","","","","","","","","","","","","",""
"283.2999999523163","678819","SARL_v6","SARL_v6e7cl691g","64143c6c286640f3d1348cf8","freq","","","img/orange_2bandit_a2.png","70","","70","test","1","","125","","","","square","circle","120","8","6","0.9166666666666666","","","","","","","",""
"null","679339","SARL_v6","SARL_v6e7cl691g","64143c6c286640f3d1348cf8","freq_resp","","","img/orange_2bandit_a.png","70","img/orange_2bandit_a.png","70","test","","","","","","","","","","","6","","","","","","","","",""
"null","679500","SARL_v6","SARL_v6e7cl691g","64143c6c286640f3d1348cf8","fixation","","","img/fixation.png","null","","","test","","","","","","","","","","","","","","","","","","","",""
"311.5","679816","SARL_v6","SARL_v6e7cl691g","64143c6c286640f3d1348cf8","freq","","","img/orange_2bandit_a2.png","70","","70","test","1","","126","","","","square","circle","121","9","6","0.9173553719008265","","","","","","","",""
"null","680316","SARL_v6","SARL_v6e7cl691g","64143c6c286640f3d1348cf8","freq_resp","","","img/orange_2bandit_a.png","70","img/orange_2bandit_a.png","70","test","","","","","","","","","","","6","","","","","","","","",""
"null","680476","SARL_v6","SARL_v6e7cl691g","64143c6c286640f3d1348cf8","fixation","","","img/fixation.png","null","","","test","","","","","","","","","","","","","","","","","","","",""
"304.5","680784","SARL_v6","SARL_v6e7cl691g","64143c6c286640f3d1348cf8","freq","","","img/orange_2bandit_a2.png","70","","70","test","1","","127","","","","square","circle","122","10","6","0.9180327868852459","","","","","","","",""
"null","681284","SARL_v6","SARL_v6e7cl691g","64143c6c286640f3d1348cf8","freq_resp","","","img/orange_2bandit_a.png","70","img/orange_2bandit_a.png","70","test","","","","","","","","","","","6","","","","","","","","",""
"null","681444","SARL_v6","SARL_v6e7cl691g","64143c6c286640f3d1348cf8","fixation","","","img/fixation.png","null","","","test","","","","","","","","","","","","","","","","","","","",""
"366.10000002384186","681813","SARL_v6","SARL_v6e7cl691g","64143c6c286640f3d1348cf8","freq","","","img/orange_2bandit_a2.png","70","","70","test","1","","128","","","","square","circle","123","11","6","0.9186991869918699","","","","","","","",""
"null","682252","SARL_v6","SARL_v6e7cl691g","64143c6c286640f3d1348cf8","freq_resp","","","img/orange_2bandit_a.png","70","img/orange_2bandit_a.png","70","test","","","","","","","","","","","6","","","","","","","","",""
"null","682411","SARL_v6","SARL_v6e7cl691g","64143c6c286640f3d1348cf8","fixation","","","img/fixation.png","null","","","test","","","","","","","","","","","","","","","","","","","",""
"232.5","682648","SARL_v6","SARL_v6e7cl691g","64143c6c286640f3d1348cf8","freq","","","img/orange_2bandit_a2.png","70","","70","test","1","","129","","","","square","circle","124","12","6","0.9193548387096774","","","","","","","",""
"null","683234","SARL_v6","SARL_v6e7cl691g","64143c6c286640f3d1348cf8","freq_resp","","","img/orange_2bandit_a.png","70","img/orange_2bandit_a.png","70","test","","","","","","","","","","","6","","","","","","","","",""
"null","683396","SARL_v6","SARL_v6e7cl691g","64143c6c286640f3d1348cf8","fixation","","","img/fixation.png","null","","","test","","","","","","","","","","","","","","","","","","","",""
"253.19999992847443","683653","SARL_v6","SARL_v6e7cl691g","64143c6c286640f3d1348cf8","freq","","","img/orange_2bandit_a2.png","70","","70","test","1","","130","","","","square","circle","125","13","6","0.92","","","","","","","",""
"null","684204","SARL_v6","SARL_v6e7cl691g","64143c6c286640f3d1348cf8","freq_resp","","","img/orange_2bandit_a.png","70","img/orange_2bandit_a.png","70","test","","","","","","","","","","","6","","","","","","","","",""
"null","684364","SARL_v6","SARL_v6e7cl691g","64143c6c286640f3d1348cf8","fixation","","","img/fixation.png","null","","","test","","","","","","","","","","","","","","","","","","","",""
"181.29999995231628","684549","SARL_v6","SARL_v6e7cl691g","64143c6c286640f3d1348cf8","freq","","","img/orange_2bandit_a2.png","70","","70","test","1","","131","","","","square","circle","126","14","6","0.9206349206349206","","","","","","","",""
