"rt","time_elapsed","expId","subject","prolificID","trialType","rlType","attType","stimulus","key_press","stim","corrresp","phase","corr","pracCounter","trialNum","rewardOne","rewardTwo","reward","bandOne","bandTwo","attentionNum","attentionRunNum","blockNum","performance","bandChosen","circleVal","squareVal","bandOneVal","bandTwoVal","shapeChosen","rlNum","badFlag"
"27790.40000000596","27793","SARL_v6","SARL_v6hxeh1f8n","641e62a8191451d08e6c08f7","","","","","","","","","","","","","","","","","","","","","","","","","","","",""
"","30661","SARL_v6","SARL_v6hxeh1f8n","641e62a8191451d08e6c08f7","fullscreen","fullscreen","fullscreen","","","","","","","","","","","","","","","","","","","","","","","","",""
"125784.69999998808","156448","SARL_v6","SARL_v6hxeh1f8n","641e62a8191451d08e6c08f7","","","","","","","","","","","","","","","","","","","","","","","","","","","",""
"null","157268","SARL_v6","SARL_v6hxeh1f8n","641e62a8191451d08e6c08f7","freqPrac","","","img/blue_2bandit_b2.png","null","img/blue_2bandit_b2.png","70","prac","0","1","","","","","","","","","","","","","","","","","",""
"null","158276","SARL_v6","SARL_v6hxeh1f8n","641e62a8191451d08e6c08f7","feedback","","","img/tooSlow.png","null","","na","prac","","","","","","","","","","","","","","","","","","","",""
"null","158438","SARL_v6","SARL_v6hxeh1f8n","641e62a8191451d08e6c08f7","fixation","","","img/fixation.png","null","","","prac","","","","","","","","","","","","","","","","","","","",""
"670.8999999761581","159111","SARL_v6","SARL_v6hxeh1f8n","641e62a8191451d08e6c08f7","infreqPrac","","","img/orange_2bandit_b2.png","68","img/orange_2bandit_b2.png","68","prac","1","1","","","","","","","","","","","","","","","","","",""
"670.8999999761581","159254","SARL_v6","SARL_v6hxeh1f8n","641e62a8191451d08e6c08f7","infreqPrac_resp","","","img/orange_2bandit_b.png","68","img/orange_2bandit_b.png","68","prac","","","","","","","","","","","","","","","","","","","",""
"null","159408","SARL_v6","SARL_v6hxeh1f8n","641e62a8191451d08e6c08f7","fixation","","","img/fixation.png","null","","","prac","","","","","","","","","","","","","","","","","","","",""
"429.40000000596046","159844","SARL_v6","SARL_v6hxeh1f8n","641e62a8191451d08e6c08f7","freqPrac","","","img/blue_2bandit_b2.png","70","img/blue_2bandit_b2.png","70","prac","1","1","","","","","","","","","","","","","","","","","",""
"429.40000000596046","160232","SARL_v6","SARL_v6hxeh1f8n","641e62a8191451d08e6c08f7","freqPrac_resp","","","img/blue_2bandit_b.png","70","img/blue_2bandit_b.png","70","prac","","","","","","","","","","","","","","","","","","","",""
"null","160402","SARL_v6","SARL_v6hxeh1f8n","641e62a8191451d08e6c08f7","fixation","","","img/fixation.png","null","","","prac","","","","","","","","","","","","","","","","","","","",""
"545.8000000119209","160951","SARL_v6","SARL_v6hxeh1f8n","641e62a8191451d08e6c08f7","infreqPrac","","","img/orange_2bandit_b2.png","68","img/orange_2bandit_b2.png","68","prac","1","1","","","","","","","","","","","","","","","","","",""
"545.8000000119209","161222","SARL_v6","SARL_v6hxeh1f8n","641e62a8191451d08e6c08f7","infreqPrac_resp","","","img/orange_2bandit_b.png","68","img/orange_2bandit_b.png","68","prac","","","","","","","","","","","","","","","","","","","",""
"null","161378","SARL_v6","SARL_v6hxeh1f8n","641e62a8191451d08e6c08f7","fixation","","","img/fixation.png","null","","","prac","","","","","","","","","","","","","","","","","","","",""
"442.40000000596046","161823","SARL_v6","SARL_v6hxeh1f8n","641e62a8191451d08e6c08f7","infreqPrac","","","img/orange_2bandit_b2.png","68","img/orange_2bandit_b2.png","68","prac","1","1","","","","","","","","","","","","","","","","","",""
"442.40000000596046","162191","SARL_v6","SARL_v6hxeh1f8n","641e62a8191451d08e6c08f7","infreqPrac_resp","","","img/orange_2bandit_b.png","68","img/orange_2bandit_b.png","68","prac","","","","","","","","","","","","","","","","","","","",""
"null","162352","SARL_v6","SARL_v6hxeh1f8n","641e62a8191451d08e6c08f7","fixation","","","img/fixation.png","null","","","prac","","","","","","","","","","","","","","","","","","","",""
"404.60000002384186","162763","SARL_v6","SARL_v6hxeh1f8n","641e62a8191451d08e6c08f7","infreqPrac","","","img/orange_2bandit_b2.png","68","img/orange_2bandit_b2.png","68","prac","1","1","","","","","","","","","","","","","","","","","",""
"404.60000002384186","163176","SARL_v6","SARL_v6hxeh1f8n","641e62a8191451d08e6c08f7","infreqPrac_resp","","","img/orange_2bandit_b.png","68","img/orange_2bandit_b.png","68","prac","","","","","","","","","","","","","","","","","","","",""
"null","163335","SARL_v6","SARL_v6hxeh1f8n","641e62a8191451d08e6c08f7","fixation","","","img/fixation.png","null","","","prac","","","","","","","","","","","","","","","","","","","",""
"455","163796","SARL_v6","SARL_v6hxeh1f8n","641e62a8191451d08e6c08f7","freqPrac","","","img/blue_2bandit_b2.png","70","img/blue_2bandit_b2.png","70","prac","1","1","","","","","","","","","","","","","","","","","",""
"455","164154","SARL_v6","SARL_v6hxeh1f8n","641e62a8191451d08e6c08f7","freqPrac_resp","","","img/blue_2bandit_b.png","70","img/blue_2bandit_b.png","70","prac","","","","","","","","","","","","","","","","","","","",""
"null","164313","SARL_v6","SARL_v6hxeh1f8n","641e62a8191451d08e6c08f7","fixation","","","img/fixation.png","null","","","prac","","","","","","","","","","","","","","","","","","","",""
"493.59999999403954","164816","SARL_v6","SARL_v6hxeh1f8n","641e62a8191451d08e6c08f7","infreqPrac","","","img/orange_2bandit_b2.png","68","img/orange_2bandit_b2.png","68","prac","1","1","","","","","","","","","","","","","","","","","",""
"493.59999999403954","165142","SARL_v6","SARL_v6hxeh1f8n","641e62a8191451d08e6c08f7","infreqPrac_resp","","","img/orange_2bandit_b.png","68","img/orange_2bandit_b.png","68","prac","","","","","","","","","","","","","","","","","","","",""
"null","165298","SARL_v6","SARL_v6hxeh1f8n","641e62a8191451d08e6c08f7","fixation","","","img/fixation.png","null","","","prac","","","","","","","","","","","","","","","","","","","",""
"497.7999999821186","165799","SARL_v6","SARL_v6hxeh1f8n","641e62a8191451d08e6c08f7","freqPrac","","","img/blue_2bandit_b2.png","70","img/blue_2bandit_b2.png","70","prac","1","1","","","","","","","","","","","","","","","","","",""
"497.7999999821186","166118","SARL_v6","SARL_v6hxeh1f8n","641e62a8191451d08e6c08f7","freqPrac_resp","","","img/blue_2bandit_b.png","70","img/blue_2bandit_b.png","70","prac","","","","","","","","","","","","","","","","","","","",""
"null","166272","SARL_v6","SARL_v6hxeh1f8n","641e62a8191451d08e6c08f7","fixation","","","img/fixation.png","null","","","prac","","","","","","","","","","","","","","","","","","","",""
"463.5","166741","SARL_v6","SARL_v6hxeh1f8n","641e62a8191451d08e6c08f7","freqPrac","","","img/blue_2bandit_b2.png","70","img/blue_2bandit_b2.png","70","prac","1","1","","","","","","","","","","","","","","","","","",""
"463.5","167086","SARL_v6","SARL_v6hxeh1f8n","641e62a8191451d08e6c08f7","freqPrac_resp","","","img/blue_2bandit_b.png","70","img/blue_2bandit_b.png","70","prac","","","","","","","","","","","","","","","","","","","",""
"null","167238","SARL_v6","SARL_v6hxeh1f8n","641e62a8191451d08e6c08f7","fixation","","","img/fixation.png","null","","","prac","","","","","","","","","","","","","","","","","","","",""
"85879.40000000596","253122","SARL_v6","SARL_v6hxeh1f8n","641e62a8191451d08e6c08f7","","","","","","","","prac","","","","","","","","","","","","","","","","","","","",""
"916.9000000059605","254043","SARL_v6","SARL_v6hxeh1f8n","641e62a8191451d08e6c08f7","rlPractice","","","img/black_2bandit_b2.png","74","img/black_2bandit_b2.png","","prac","","","0","","","","","","","","","","","","","","","","",""
"null","254812","SARL_v6","SARL_v6hxeh1f8n","641e62a8191451d08e6c08f7","feedback","","","<div class=""veryhighPoints""> 10 </div>","null","","na","prac","","","1","10","-14","10","","","","","","","","","","","","","",""
"null","254983","SARL_v6","SARL_v6hxeh1f8n","641e62a8191451d08e6c08f7","fixation","","","img/fixation.png","null","","","prac","","","","","","","","","","","","","","","","","","","",""
"653.6999999880791","255639","SARL_v6","SARL_v6hxeh1f8n","641e62a8191451d08e6c08f7","rlPractice","","","img/black_2bandit_b2.png","75","img/black_2bandit_b2.png","","prac","","","1","","","","","","","","","","","","","","","","",""
"null","256399","SARL_v6","SARL_v6hxeh1f8n","641e62a8191451d08e6c08f7","feedback","","","<div class=""verylowPoints_sq""> -5 </div>","null","","na","prac","","","2","5","-5","5","","","","","","","","","","","","","",""
"null","256559","SARL_v6","SARL_v6hxeh1f8n","641e62a8191451d08e6c08f7","fixation","","","img/fixation.png","null","","","prac","","","","","","","","","","","","","","","","","","","",""
"383.69999998807907","256947","SARL_v6","SARL_v6hxeh1f8n","641e62a8191451d08e6c08f7","rlPractice","","","img/black_2bandit_b2.png","74","img/black_2bandit_b2.png","","prac","","","2","","","","","","","","","","","","","","","","",""
"null","257707","SARL_v6","SARL_v6hxeh1f8n","641e62a8191451d08e6c08f7","feedback","","","<div class=""veryhighPoints""> 30 </div>","null","","na","prac","","","3","30","2","30","","","","","","","","","","","","","",""
"null","257875","SARL_v6","SARL_v6hxeh1f8n","641e62a8191451d08e6c08f7","fixation","","","img/fixation.png","null","","","prac","","","","","","","","","","","","","","","","","","","",""
"373.09999999403954","258255","SARL_v6","SARL_v6hxeh1f8n","641e62a8191451d08e6c08f7","rlPractice","","","img/black_2bandit_b2.png","74","img/black_2bandit_b2.png","","prac","","","3","","","","","","","","","","","","","","","","",""
"null","259014","SARL_v6","SARL_v6hxeh1f8n","641e62a8191451d08e6c08f7","feedback","","","<div class=""verylowPoints""> -2 </div>","null","","na","prac","","","4","-2","20","-2","","","","","","","","","","","","","",""
"null","259168","SARL_v6","SARL_v6hxeh1f8n","641e62a8191451d08e6c08f7","fixation","","","img/fixation.png","null","","","prac","","","","","","","","","","","","","","","","","","","",""
"3958.2000000178814","263128","SARL_v6","SARL_v6hxeh1f8n","641e62a8191451d08e6c08f7","","","","","","","","prac","","","","","","","","","","","","","","","","","","","",""
"null","263948","SARL_v6","SARL_v6hxeh1f8n","641e62a8191451d08e6c08f7","mixAttFreqPrac","","","img/blue_2bandit_b2.png","null","img/blue_2bandit_b2.png","70","prac","","","1","","","","","","","","","","","","","","","","",""
"41.599999994039536","264105","SARL_v6","SARL_v6hxeh1f8n","641e62a8191451d08e6c08f7","fixation","","","img/fixation.png","70","","","prac","","","","","","","","","","","","","","","","","","","",""
"675.2000000178814","264784","SARL_v6","SARL_v6hxeh1f8n","641e62a8191451d08e6c08f7","mixAttInfreqPrac","","","img/orange_2bandit_b2.png","68","img/orange_2bandit_b2.png","68","prac","","","2","","","","","","","","","","","","","","","","",""
"675.2000000178814","264925","SARL_v6","SARL_v6hxeh1f8n","641e62a8191451d08e6c08f7","infreqPrac_resp","","","img/orange_2bandit_b.png","68","img/blue_2bandit_b.png","68","prac","","","2","","","","","","","","","","","","","","","","",""
"null","265087","SARL_v6","SARL_v6hxeh1f8n","641e62a8191451d08e6c08f7","fixation","","","img/fixation.png","null","","","prac","","","","","","","","","","","","","","","","","","","",""
"351","265444","SARL_v6","SARL_v6hxeh1f8n","641e62a8191451d08e6c08f7","mixAttInfreqPrac","","","img/orange_2bandit_b2.png","70","img/orange_2bandit_b2.png","68","prac","","","3","","","","","","","","","","","","","","","","",""
"351","265902","SARL_v6","SARL_v6hxeh1f8n","641e62a8191451d08e6c08f7","infreqPrac_resp","","","img/orange_2bandit_b.png","70","img/blue_2bandit_b.png","68","prac","","","3","","","","","","","","","","","","","","","","",""
"null","266055","SARL_v6","SARL_v6hxeh1f8n","641e62a8191451d08e6c08f7","fixation","","","img/fixation.png","null","","","prac","","","","","","","","","","","","","","","","","","","",""
"454.19999998807907","266512","SARL_v6","SARL_v6hxeh1f8n","641e62a8191451d08e6c08f7","mixAttInfreqPrac","","","img/orange_2bandit_b2.png","68","img/orange_2bandit_b2.png","68","prac","","","4","","","","","","","","","","","","","","","","",""
"454.19999998807907","266864","SARL_v6","SARL_v6hxeh1f8n","641e62a8191451d08e6c08f7","infreqPrac_resp","","","img/orange_2bandit_b.png","68","img/blue_2bandit_b.png","68","prac","","","4","","","","","","","","","","","","","","","","",""
"null","267031","SARL_v6","SARL_v6hxeh1f8n","641e62a8191451d08e6c08f7","fixation","","","img/fixation.png","null","","","prac","","","","","","","","","","","","","","","","","","","",""
"444.60000002384186","267485","SARL_v6","SARL_v6hxeh1f8n","641e62a8191451d08e6c08f7","mixAttFreqPrac","","","img/blue_2bandit_b2.png","70","img/blue_2bandit_b2.png","70","prac","","","5","","","","","","","","","","","","","","","","",""
"444.60000002384186","267850","SARL_v6","SARL_v6hxeh1f8n","641e62a8191451d08e6c08f7","freqPrac_resp","","","img/blue_2bandit_b.png","70","img/blue_2bandit_b.png","70","prac","","","5","","","","","","","","","","","","","","","","",""
"null","268018","SARL_v6","SARL_v6hxeh1f8n","641e62a8191451d08e6c08f7","fixation","","","img/fixation.png","null","","","prac","","","","","","","","","","","","","","","","","","","",""
"844.0999999940395","268864","SARL_v6","SARL_v6hxeh1f8n","641e62a8191451d08e6c08f7","mixRLPractice","","","img/black_2bandit_b2.png","75","img/black_2bandit_b2.png","","prac","","","5","","","","","","","","","","","","","","","","",""
"null","269624","SARL_v6","SARL_v6hxeh1f8n","641e62a8191451d08e6c08f7","feedback","","","<div class=""veryhighPoints_sq""> 10 </div>","null","","na","prac","","","6","-14","10","-14","","","","","","","","","","","","","",""
"null","269780","SARL_v6","SARL_v6hxeh1f8n","641e62a8191451d08e6c08f7","fixation","","","img/fixation.png","null","","","prac","","","","","","","","","","","","","","","","","","","",""
"null","270589","SARL_v6","SARL_v6hxeh1f8n","641e62a8191451d08e6c08f7","mixAttFreqPrac","","","img/blue_2bandit_b2.png","null","img/blue_2bandit_b2.png","70","prac","","","7","","","","","","","","","","","","","","","","",""
"null","270742","SARL_v6","SARL_v6hxeh1f8n","641e62a8191451d08e6c08f7","fixation","","","img/fixation.png","null","","","prac","","","","","","","","","","","","","","","","","","","",""
"null","271552","SARL_v6","SARL_v6hxeh1f8n","641e62a8191451d08e6c08f7","mixAttInfreqPrac","","","img/orange_2bandit_b2.png","null","img/orange_2bandit_b2.png","68","prac","","","8","","","","","","","","","","","","","","","","",""
"135","271707","SARL_v6","SARL_v6hxeh1f8n","641e62a8191451d08e6c08f7","fixation","","","img/fixation.png","68","","","prac","","","","","","","","","","","","","","","","","","","",""
"435","272147","SARL_v6","SARL_v6hxeh1f8n","641e62a8191451d08e6c08f7","mixAttFreqPrac","","","img/blue_2bandit_b2.png","70","img/blue_2bandit_b2.png","70","prac","","","9","","","","","","","","","","","","","","","","",""
"435","272526","SARL_v6","SARL_v6hxeh1f8n","641e62a8191451d08e6c08f7","freqPrac_resp","","","img/blue_2bandit_b.png","70","img/blue_2bandit_b.png","70","prac","","","9","","","","","","","","","","","","","","","","",""
"null","272688","SARL_v6","SARL_v6hxeh1f8n","641e62a8191451d08e6c08f7","fixation","","","img/fixation.png","null","","","prac","","","","","","","","","","","","","","","","","","","",""
"356.5","273047","SARL_v6","SARL_v6hxeh1f8n","641e62a8191451d08e6c08f7","mixAttFreqPrac","","","img/blue_2bandit_b2.png","70","img/blue_2bandit_b2.png","70","prac","","","10","","","","","","","","","","","","","","","","",""
"356.5","273500","SARL_v6","SARL_v6hxeh1f8n","641e62a8191451d08e6c08f7","freqPrac_resp","","","img/blue_2bandit_b.png","70","img/blue_2bandit_b.png","70","prac","","","10","","","","","","","","","","","","","","","","",""
"null","273653","SARL_v6","SARL_v6hxeh1f8n","641e62a8191451d08e6c08f7","fixation","","","img/fixation.png","null","","","prac","","","","","","","","","","","","","","","","","","","",""
"450.69999998807907","274110","SARL_v6","SARL_v6hxeh1f8n","641e62a8191451d08e6c08f7","mixAttInfreqPrac","","","img/orange_2bandit_b2.png","68","img/orange_2bandit_b2.png","68","prac","","","11","","","","","","","","","","","","","","","","",""
"450.69999998807907","274471","SARL_v6","SARL_v6hxeh1f8n","641e62a8191451d08e6c08f7","infreqPrac_resp","","","img/orange_2bandit_b.png","68","img/blue_2bandit_b.png","68","prac","","","11","","","","","","","","","","","","","","","","",""
"null","274631","SARL_v6","SARL_v6hxeh1f8n","641e62a8191451d08e6c08f7","fixation","","","img/fixation.png","null","","","prac","","","","","","","","","","","","","","","","","","","",""
"726.0999999940395","275359","SARL_v6","SARL_v6hxeh1f8n","641e62a8191451d08e6c08f7","mixRLPractice","","","img/black_2bandit_b2.png","74","img/black_2bandit_b2.png","","prac","","","11","","","","","","","","","","","","","","","","",""
"null","276124","SARL_v6","SARL_v6hxeh1f8n","641e62a8191451d08e6c08f7","feedback","","","<div class=""veryhighPoints""> 5 </div>","null","","na","prac","","","12","5","-5","5","","","","","","","","","","","","","",""
"null","276283","SARL_v6","SARL_v6hxeh1f8n","641e62a8191451d08e6c08f7","fixation","","","img/fixation.png","null","","","prac","","","","","","","","","","","","","","","","","","","",""
"6882.200000017881","283168","SARL_v6","SARL_v6hxeh1f8n","641e62a8191451d08e6c08f7","","","","","","","","prac","","","","","","","","","","","","","","","","","","","",""
"624.0999999940395","283796","SARL_v6","SARL_v6hxeh1f8n","641e62a8191451d08e6c08f7","freq","","","img/blue_2bandit_b2.png","70","","70","test","1","","1","","","","circle","square","1","1","1","1","","","","","","","",""
"null","283984","SARL_v6","SARL_v6hxeh1f8n","641e62a8191451d08e6c08f7","freq_resp","","","img/blue_2bandit_b.png","70","img/blue_2bandit_b.png","70","test","","","","","","","","","","","1","","","","","","","","",""
"null","284138","SARL_v6","SARL_v6hxeh1f8n","641e62a8191451d08e6c08f7","fixation","","","img/fixation.png","null","","","test","","","","","","","","","","","","","","","","","","","",""
"340.90000000596046","284483","SARL_v6","SARL_v6hxeh1f8n","641e62a8191451d08e6c08f7","freq","","","img/blue_2bandit_b2.png","70","","70","test","1","","2","","","","circle","square","2","2","1","1","","","","","","","",""
"null","284961","SARL_v6","SARL_v6hxeh1f8n","641e62a8191451d08e6c08f7","freq_resp","","","img/blue_2bandit_b.png","70","img/blue_2bandit_b.png","70","test","","","","","","","","","","","1","","","","","","","","",""
"null","285118","SARL_v6","SARL_v6hxeh1f8n","641e62a8191451d08e6c08f7","fixation","","","img/fixation.png","null","","","test","","","","","","","","","","","","","","","","","","","",""
"341.7999999821186","285464","SARL_v6","SARL_v6hxeh1f8n","641e62a8191451d08e6c08f7","freq","","","img/blue_2bandit_b2.png","70","","70","test","1","","3","","","","circle","square","3","3","1","1","","","","","","","",""
"null","285939","SARL_v6","SARL_v6hxeh1f8n","641e62a8191451d08e6c08f7","freq_resp","","","img/blue_2bandit_b.png","70","img/blue_2bandit_b.png","70","test","","","","","","","","","","","1","","","","","","","","",""
"null","286098","SARL_v6","SARL_v6hxeh1f8n","641e62a8191451d08e6c08f7","fixation","","","img/fixation.png","null","","","test","","","","","","","","","","","","","","","","","","","",""
"353.69999998807907","286462","SARL_v6","SARL_v6hxeh1f8n","641e62a8191451d08e6c08f7","freq","","","img/blue_2bandit_b2.png","70","","70","test","1","","4","","","","circle","square","4","4","1","1","","","","","","","",""
"null","286928","SARL_v6","SARL_v6hxeh1f8n","641e62a8191451d08e6c08f7","freq_resp","","","img/blue_2bandit_b.png","70","img/blue_2bandit_b.png","70","test","","","","","","","","","","","1","","","","","","","","",""
"null","287084","SARL_v6","SARL_v6hxeh1f8n","641e62a8191451d08e6c08f7","fixation","","","img/fixation.png","null","","","test","","","","","","","","","","","","","","","","","","","",""
"336.19999998807907","287430","SARL_v6","SARL_v6hxeh1f8n","641e62a8191451d08e6c08f7","freq","","","img/blue_2bandit_b2.png","70","","70","test","1","","5","","","","circle","square","5","5","1","1","","","","","","","",""
"null","287917","SARL_v6","SARL_v6hxeh1f8n","641e62a8191451d08e6c08f7","freq_resp","","","img/blue_2bandit_b.png","70","img/blue_2bandit_b.png","70","test","","","","","","","","","","","1","","","","","","","","",""
"null","288087","SARL_v6","SARL_v6hxeh1f8n","641e62a8191451d08e6c08f7","fixation","","","img/fixation.png","null","","","test","","","","","","","","","","","","","","","","","","","",""
"502.09999999403954","288592","SARL_v6","SARL_v6hxeh1f8n","641e62a8191451d08e6c08f7","infreq","","","img/orange_2bandit_b2.png","68","","68","test","1","","6","","","","circle","square","6","6","1","1","","","","","","","",""
"null","288907","SARL_v6","SARL_v6hxeh1f8n","641e62a8191451d08e6c08f7","infreq_resp","","","img/orange_2bandit_b.png","68","img/orange_2bandit_b.png","68","test","","","","","","","","","","","1","","","","","","","","",""
"null","289060","SARL_v6","SARL_v6hxeh1f8n","641e62a8191451d08e6c08f7","fixation","","","img/fixation.png","null","","","test","","","","","","","","","","","","","","","","","","","",""
"588.5","289654","SARL_v6","SARL_v6hxeh1f8n","641e62a8191451d08e6c08f7","freq","","","img/blue_2bandit_b2.png","70","","70","test","1","","7","","","","circle","square","7","7","1","1","","","","","","","",""
"null","289885","SARL_v6","SARL_v6hxeh1f8n","641e62a8191451d08e6c08f7","freq_resp","","","img/blue_2bandit_b.png","70","img/blue_2bandit_b.png","70","test","","","","","","","","","","","1","","","","","","","","",""
"null","290043","SARL_v6","SARL_v6hxeh1f8n","641e62a8191451d08e6c08f7","fixation","","","img/fixation.png","null","","","test","","","","","","","","","","","","","","","","","","","",""
"513.5","290566","SARL_v6","SARL_v6hxeh1f8n","641e62a8191451d08e6c08f7","freq","","","img/blue_2bandit_b2.png","70","","70","test","1","","8","","","","circle","square","8","8","1","1","","","","","","","",""
"null","290872","SARL_v6","SARL_v6hxeh1f8n","641e62a8191451d08e6c08f7","freq_resp","","","img/blue_2bandit_b.png","70","img/blue_2bandit_b.png","70","test","","","","","","","","","","","1","","","","","","","","",""
"null","291028","SARL_v6","SARL_v6hxeh1f8n","641e62a8191451d08e6c08f7","fixation","","","img/fixation.png","null","","","test","","","","","","","","","","","","","","","","","","","",""
"393.2000000178814","291427","SARL_v6","SARL_v6hxeh1f8n","641e62a8191451d08e6c08f7","freq","","","img/blue_2bandit_b2.png","70","","70","test","1","","9","","","","circle","square","9","9","1","1","","","","","","","",""
"null","291844","SARL_v6","SARL_v6hxeh1f8n","641e62a8191451d08e6c08f7","freq_resp","","","img/blue_2bandit_b.png","70","img/blue_2bandit_b.png","70","test","","","","","","","","","","","1","","","","","","","","",""
"null","292000","SARL_v6","SARL_v6hxeh1f8n","641e62a8191451d08e6c08f7","fixation","","","img/fixation.png","null","","","test","","","","","","","","","","","","","","","","","","","",""
"395.40000000596046","292399","SARL_v6","SARL_v6hxeh1f8n","641e62a8191451d08e6c08f7","freq","","","img/blue_2bandit_b2.png","70","","70","test","1","","10","","","","circle","square","10","10","1","1","","","","","","","",""
"null","292807","SARL_v6","SARL_v6hxeh1f8n","641e62a8191451d08e6c08f7","freq_resp","","","img/blue_2bandit_b.png","70","img/blue_2bandit_b.png","70","test","","","","","","","","","","","1","","","","","","","","",""
"null","292966","SARL_v6","SARL_v6hxeh1f8n","641e62a8191451d08e6c08f7","fixation","","","img/fixation.png","null","","","test","","","","","","","","","","","","","","","","","","","",""
"360.10000002384186","293331","SARL_v6","SARL_v6hxeh1f8n","641e62a8191451d08e6c08f7","freq","","","img/blue_2bandit_b2.png","70","","70","test","1","","11","","","","circle","square","11","11","1","1","","","","","","","",""
"null","293788","SARL_v6","SARL_v6hxeh1f8n","641e62a8191451d08e6c08f7","freq_resp","","","img/blue_2bandit_b.png","70","img/blue_2bandit_b.png","70","test","","","","","","","","","","","1","","","","","","","","",""
"null","293941","SARL_v6","SARL_v6hxeh1f8n","641e62a8191451d08e6c08f7","fixation","","","img/fixation.png","null","","","test","","","","","","","","","","","","","","","","","","","",""
"360.7999999821186","294307","SARL_v6","SARL_v6hxeh1f8n","641e62a8191451d08e6c08f7","freq","","","img/blue_2bandit_b2.png","70","","70","test","1","","12","","","","circle","square","12","12","1","1","","","","","","","",""
"null","294759","SARL_v6","SARL_v6hxeh1f8n","641e62a8191451d08e6c08f7","freq_resp","","","img/blue_2bandit_b.png","70","img/blue_2bandit_b.png","70","test","","","","","","","","","","","1","","","","","","","","",""
"null","294912","SARL_v6","SARL_v6hxeh1f8n","641e62a8191451d08e6c08f7","fixation","","","img/fixation.png","null","","","test","","","","","","","","","","","","","","","","","","","",""
"388.89999997615814","295303","SARL_v6","SARL_v6hxeh1f8n","641e62a8191451d08e6c08f7","freq","","","img/blue_2bandit_b2.png","70","","70","test","1","","13","","","","circle","square","13","13","1","1","","","","","","","",""
"null","295720","SARL_v6","SARL_v6hxeh1f8n","641e62a8191451d08e6c08f7","freq_resp","","","img/blue_2bandit_b.png","70","img/blue_2bandit_b.png","70","test","","","","","","","","","","","1","","","","","","","","",""
"null","295879","SARL_v6","SARL_v6hxeh1f8n","641e62a8191451d08e6c08f7","fixation","","","img/fixation.png","null","","","test","","","","","","","","","","","","","","","","","","","",""
"318.09999999403954","296203","SARL_v6","SARL_v6hxeh1f8n","641e62a8191451d08e6c08f7","freq","","","img/blue_2bandit_b2.png","70","","70","test","1","","14","","","","circle","square","14","14","1","1","","","","","","","",""
"null","296706","SARL_v6","SARL_v6hxeh1f8n","641e62a8191451d08e6c08f7","freq_resp","","","img/blue_2bandit_b.png","70","img/blue_2bandit_b.png","70","test","","","","","","","","","","","1","","","","","","","","",""
"null","296858","SARL_v6","SARL_v6hxeh1f8n","641e62a8191451d08e6c08f7","fixation","","","img/fixation.png","null","","","test","","","","","","","","","","","","","","","","","","","",""
"314.89999997615814","297175","SARL_v6","SARL_v6hxeh1f8n","641e62a8191451d08e6c08f7","freq","","","img/blue_2bandit_b2.png","70","","70","test","1","","15","","","","circle","square","15","15","1","1","","","","","","","",""
"null","297666","SARL_v6","SARL_v6hxeh1f8n","641e62a8191451d08e6c08f7","freq_resp","","","img/blue_2bandit_b.png","70","img/blue_2bandit_b.png","70","test","","","","","","","","","","","1","","","","","","","","",""
"null","297824","SARL_v6","SARL_v6hxeh1f8n","641e62a8191451d08e6c08f7","fixation","","","img/fixation.png","null","","","test","","","","","","","","","","","","","","","","","","","",""
"308.80000001192093","298138","SARL_v6","SARL_v6hxeh1f8n","641e62a8191451d08e6c08f7","freq","","","img/blue_2bandit_b2.png","70","","70","test","1","","16","","","","circle","square","16","16","1","1","","","","","","","",""
"null","298640","SARL_v6","SARL_v6hxeh1f8n","641e62a8191451d08e6c08f7","freq_resp","","","img/blue_2bandit_b.png","70","img/blue_2bandit_b.png","70","test","","","","","","","","","","","1","","","","","","","","",""
"null","298797","SARL_v6","SARL_v6hxeh1f8n","641e62a8191451d08e6c08f7","fixation","","","img/fixation.png","null","","","test","","","","","","","","","","","","","","","","","","","",""
"337.2999999821186","299140","SARL_v6","SARL_v6hxeh1f8n","641e62a8191451d08e6c08f7","freq","","","img/blue_2bandit_b2.png","70","","70","test","1","","17","","","","circle","square","17","17","1","1","","","","","","","",""
"null","299610","SARL_v6","SARL_v6hxeh1f8n","641e62a8191451d08e6c08f7","freq_resp","","","img/blue_2bandit_b.png","70","img/blue_2bandit_b.png","70","test","","","","","","","","","","","1","","","","","","","","",""
"null","299767","SARL_v6","SARL_v6hxeh1f8n","641e62a8191451d08e6c08f7","fixation","","","img/fixation.png","null","","","test","","","","","","","","","","","","","","","","","","","",""
"327","300100","SARL_v6","SARL_v6hxeh1f8n","641e62a8191451d08e6c08f7","freq","","","img/blue_2bandit_b2.png","70","","70","test","1","","18","","","","circle","square","18","18","1","1","","","","","","","",""
"null","300582","SARL_v6","SARL_v6hxeh1f8n","641e62a8191451d08e6c08f7","freq_resp","","","img/blue_2bandit_b.png","70","img/blue_2bandit_b.png","70","test","","","","","","","","","","","1","","","","","","","","",""
"null","300735","SARL_v6","SARL_v6hxeh1f8n","641e62a8191451d08e6c08f7","fixation","","","img/fixation.png","null","","","test","","","","","","","","","","","","","","","","","","","",""
"464","301204","SARL_v6","SARL_v6hxeh1f8n","641e62a8191451d08e6c08f7","infreq","","","img/orange_2bandit_b2.png","68","","68","test","1","","19","","","","circle","square","19","19","1","1","","","","","","","",""
"null","301549","SARL_v6","SARL_v6hxeh1f8n","641e62a8191451d08e6c08f7","infreq_resp","","","img/orange_2bandit_b.png","68","img/orange_2bandit_b.png","68","test","","","","","","","","","","","1","","","","","","","","",""
"null","301716","SARL_v6","SARL_v6hxeh1f8n","641e62a8191451d08e6c08f7","fixation","","","img/fixation.png","null","","","test","","","","","","","","","","","","","","","","","","","",""
"490.5","302211","SARL_v6","SARL_v6hxeh1f8n","641e62a8191451d08e6c08f7","freq","","","img/blue_2bandit_b2.png","70","","70","test","1","","20","","","","circle","square","20","20","1","1","","","","","","","",""
"null","302538","SARL_v6","SARL_v6hxeh1f8n","641e62a8191451d08e6c08f7","freq_resp","","","img/blue_2bandit_b.png","70","img/blue_2bandit_b.png","70","test","","","","","","","","","","","1","","","","","","","","",""
"null","302696","SARL_v6","SARL_v6hxeh1f8n","641e62a8191451d08e6c08f7","fixation","","","img/fixation.png","null","","","test","","","","","","","","","","","","","","","","","","","",""
"518.1999999880791","303218","SARL_v6","SARL_v6hxeh1f8n","641e62a8191451d08e6c08f7","freq","","","img/blue_2bandit_b2.png","70","","70","test","1","","21","","","","circle","square","21","21","1","1","","","","","","","",""
"null","303511","SARL_v6","SARL_v6hxeh1f8n","641e62a8191451d08e6c08f7","freq_resp","","","img/blue_2bandit_b.png","70","img/blue_2bandit_b.png","70","test","","","","","","","","","","","1","","","","","","","","",""
"null","303666","SARL_v6","SARL_v6hxeh1f8n","641e62a8191451d08e6c08f7","fixation","","","img/fixation.png","null","","","test","","","","","","","","","","","","","","","","","","","",""
"453.89999997615814","304126","SARL_v6","SARL_v6hxeh1f8n","641e62a8191451d08e6c08f7","freq","","","img/blue_2bandit_b2.png","70","","70","test","1","","22","","","","circle","square","22","22","1","1","","","","","","","",""
"null","304500","SARL_v6","SARL_v6hxeh1f8n","641e62a8191451d08e6c08f7","freq_resp","","","img/blue_2bandit_b.png","70","img/blue_2bandit_b.png","70","test","","","","","","","","","","","1","","","","","","","","",""
"null","304663","SARL_v6","SARL_v6hxeh1f8n","641e62a8191451d08e6c08f7","fixation","","","img/fixation.png","null","","","test","","","","","","","","","","","","","","","","","","","",""
"406.7000000178814","305074","SARL_v6","SARL_v6hxeh1f8n","641e62a8191451d08e6c08f7","freq","","","img/blue_2bandit_b2.png","70","","70","test","1","","23","","","","circle","square","23","23","1","1","","","","","","","",""
"null","305486","SARL_v6","SARL_v6hxeh1f8n","641e62a8191451d08e6c08f7","freq_resp","","","img/blue_2bandit_b.png","70","img/blue_2bandit_b.png","70","test","","","","","","","","","","","1","","","","","","","","",""
"null","305641","SARL_v6","SARL_v6hxeh1f8n","641e62a8191451d08e6c08f7","fixation","","","img/fixation.png","null","","","test","","","","","","","","","","","","","","","","","","","",""
"378.69999998807907","306023","SARL_v6","SARL_v6hxeh1f8n","641e62a8191451d08e6c08f7","freq","","","img/blue_2bandit_b2.png","70","","70","test","1","","24","","","","circle","square","24","24","1","1","","","","","","","",""
"null","306456","SARL_v6","SARL_v6hxeh1f8n","641e62a8191451d08e6c08f7","freq_resp","","","img/blue_2bandit_b.png","70","img/blue_2bandit_b.png","70","test","","","","","","","","","","","1","","","","","","","","",""
"null","306613","SARL_v6","SARL_v6hxeh1f8n","641e62a8191451d08e6c08f7","fixation","","","img/fixation.png","null","","","test","","","","","","","","","","","","","","","","","","","",""
"343.19999998807907","306959","SARL_v6","SARL_v6hxeh1f8n","641e62a8191451d08e6c08f7","freq","","","img/blue_2bandit_b2.png","70","","70","test","1","","25","","","","circle","square","25","25","1","1","","","","","","","",""
"null","307433","SARL_v6","SARL_v6hxeh1f8n","641e62a8191451d08e6c08f7","freq_resp","","","img/blue_2bandit_b.png","70","img/blue_2bandit_b.png","70","test","","","","","","","","","","","1","","","","","","","","",""
"null","307586","SARL_v6","SARL_v6hxeh1f8n","641e62a8191451d08e6c08f7","fixation","","","img/fixation.png","null","","","test","","","","","","","","","","","","","","","","","","","",""
"331.19999998807907","307919","SARL_v6","SARL_v6hxeh1f8n","641e62a8191451d08e6c08f7","freq","","","img/blue_2bandit_b2.png","70","","70","test","1","","26","","","","circle","square","26","26","1","1","","","","","","","",""
"null","308395","SARL_v6","SARL_v6hxeh1f8n","641e62a8191451d08e6c08f7","freq_resp","","","img/blue_2bandit_b.png","70","img/blue_2bandit_b.png","70","test","","","","","","","","","","","1","","","","","","","","",""
"null","308563","SARL_v6","SARL_v6hxeh1f8n","641e62a8191451d08e6c08f7","fixation","","","img/fixation.png","null","","","test","","","","","","","","","","","","","","","","","","","",""
"875.2999999821186","309443","SARL_v6","SARL_v6hxeh1f8n","641e62a8191451d08e6c08f7","rl","","","img/black_2bandit_b2.png","74","","0","test","","","27","","","-3","circle","square","","0","1","","74","-3","-3","-3","-3","circle","1","0"
"null","310202","SARL_v6","SARL_v6hxeh1f8n","641e62a8191451d08e6c08f7","feedback","","","<div class=""verylowPoints""> -3 </div>","null","","na","test","","","NaN","","","","","","","","1","","74","","","","","","1",""
"812.4000000059605","311018","SARL_v6","SARL_v6hxeh1f8n","641e62a8191451d08e6c08f7","freq","","","img/blue_2bandit_b2.png","70","","70","test","1","","28","","","","circle","square","27","1","2","1","","","","","","","",""
"null","311176","SARL_v6","SARL_v6hxeh1f8n","641e62a8191451d08e6c08f7","fixation","","","img/fixation.png","null","","","test","","","","","","","","","","","","","","","","","","","",""
"486","311667","SARL_v6","SARL_v6hxeh1f8n","641e62a8191451d08e6c08f7","freq","","","img/blue_2bandit_b2.png","70","","70","test","1","","29","","","","circle","square","28","2","2","1","","","","","","","",""
"null","311993","SARL_v6","SARL_v6hxeh1f8n","641e62a8191451d08e6c08f7","freq_resp","","","img/blue_2bandit_b.png","70","img/blue_2bandit_b.png","70","test","","","","","","","","","","","2","","","","","","","","",""
"null","312146","SARL_v6","SARL_v6hxeh1f8n","641e62a8191451d08e6c08f7","fixation","","","img/fixation.png","null","","","test","","","","","","","","","","","","","","","","","","","",""
"395.7000000178814","312546","SARL_v6","SARL_v6hxeh1f8n","641e62a8191451d08e6c08f7","freq","","","img/blue_2bandit_b2.png","70","","70","test","1","","30","","","","circle","square","29","3","2","1","","","","","","","",""
"null","312968","SARL_v6","SARL_v6hxeh1f8n","641e62a8191451d08e6c08f7","freq_resp","","","img/blue_2bandit_b.png","70","img/blue_2bandit_b.png","70","test","","","","","","","","","","","2","","","","","","","","",""
"null","313139","SARL_v6","SARL_v6hxeh1f8n","641e62a8191451d08e6c08f7","fixation","","","img/fixation.png","null","","","test","","","","","","","","","","","","","","","","","","","",""
"378.90000000596046","313523","SARL_v6","SARL_v6hxeh1f8n","641e62a8191451d08e6c08f7","freq","","","img/blue_2bandit_b2.png","70","","70","test","1","","31","","","","circle","square","30","4","2","1","","","","","","","",""
"null","313954","SARL_v6","SARL_v6hxeh1f8n","641e62a8191451d08e6c08f7","freq_resp","","","img/blue_2bandit_b.png","70","img/blue_2bandit_b.png","70","test","","","","","","","","","","","2","","","","","","","","",""
"null","314109","SARL_v6","SARL_v6hxeh1f8n","641e62a8191451d08e6c08f7","fixation","","","img/fixation.png","null","","","test","","","","","","","","","","","","","","","","","","","",""
"352.09999999403954","314464","SARL_v6","SARL_v6hxeh1f8n","641e62a8191451d08e6c08f7","freq","","","img/blue_2bandit_b2.png","70","","70","test","1","","32","","","","circle","square","31","5","2","1","","","","","","","",""
"null","314926","SARL_v6","SARL_v6hxeh1f8n","641e62a8191451d08e6c08f7","freq_resp","","","img/blue_2bandit_b.png","70","img/blue_2bandit_b.png","70","test","","","","","","","","","","","2","","","","","","","","",""
"null","315081","SARL_v6","SARL_v6hxeh1f8n","641e62a8191451d08e6c08f7","fixation","","","img/fixation.png","null","","","test","","","","","","","","","","","","","","","","","","","",""
"419.2000000178814","315507","SARL_v6","SARL_v6hxeh1f8n","641e62a8191451d08e6c08f7","freq","","","img/blue_2bandit_b2.png","70","","70","test","1","","33","","","","circle","square","32","6","2","1","","","","","","","",""
"null","315900","SARL_v6","SARL_v6hxeh1f8n","641e62a8191451d08e6c08f7","freq_resp","","","img/blue_2bandit_b.png","70","img/blue_2bandit_b.png","70","test","","","","","","","","","","","2","","","","","","","","",""
"null","316055","SARL_v6","SARL_v6hxeh1f8n","641e62a8191451d08e6c08f7","fixation","","","img/fixation.png","null","","","test","","","","","","","","","","","","","","","","","","","",""
"344.7999999821186","316407","SARL_v6","SARL_v6hxeh1f8n","641e62a8191451d08e6c08f7","freq","","","img/blue_2bandit_b2.png","70","","70","test","1","","34","","","","circle","square","33","7","2","1","","","","","","","",""
"null","316874","SARL_v6","SARL_v6hxeh1f8n","641e62a8191451d08e6c08f7","freq_resp","","","img/blue_2bandit_b.png","70","img/blue_2bandit_b.png","70","test","","","","","","","","","","","2","","","","","","","","",""
"null","317042","SARL_v6","SARL_v6hxeh1f8n","641e62a8191451d08e6c08f7","fixation","","","img/fixation.png","null","","","test","","","","","","","","","","","","","","","","","","","",""
"316.7999999821186","317364","SARL_v6","SARL_v6hxeh1f8n","641e62a8191451d08e6c08f7","freq","","","img/blue_2bandit_b2.png","70","","70","test","1","","35","","","","circle","square","34","8","2","1","","","","","","","",""
"null","317870","SARL_v6","SARL_v6hxeh1f8n","641e62a8191451d08e6c08f7","freq_resp","","","img/blue_2bandit_b.png","70","img/blue_2bandit_b.png","70","test","","","","","","","","","","","2","","","","","","","","",""
"null","318023","SARL_v6","SARL_v6hxeh1f8n","641e62a8191451d08e6c08f7","fixation","","","img/fixation.png","null","","","test","","","","","","","","","","","","","","","","","","","",""
"487.19999998807907","318515","SARL_v6","SARL_v6hxeh1f8n","641e62a8191451d08e6c08f7","infreq","","","img/orange_2bandit_b2.png","68","","68","test","1","","36","","","","circle","square","35","9","2","1","","","","","","","",""
"null","318842","SARL_v6","SARL_v6hxeh1f8n","641e62a8191451d08e6c08f7","infreq_resp","","","img/orange_2bandit_b.png","68","img/orange_2bandit_b.png","68","test","","","","","","","","","","","2","","","","","","","","",""
"null","319001","SARL_v6","SARL_v6hxeh1f8n","641e62a8191451d08e6c08f7","fixation","","","img/fixation.png","null","","","test","","","","","","","","","","","","","","","","","","","",""
"458.59999999403954","319463","SARL_v6","SARL_v6hxeh1f8n","641e62a8191451d08e6c08f7","freq","","","img/blue_2bandit_b2.png","70","","70","test","1","","37","","","","circle","square","36","10","2","1","","","","","","","",""
"null","319816","SARL_v6","SARL_v6hxeh1f8n","641e62a8191451d08e6c08f7","freq_resp","","","img/blue_2bandit_b.png","70","img/blue_2bandit_b.png","70","test","","","","","","","","","","","2","","","","","","","","",""
"null","319974","SARL_v6","SARL_v6hxeh1f8n","641e62a8191451d08e6c08f7","fixation","","","img/fixation.png","null","","","test","","","","","","","","","","","","","","","","","","","",""
"415.69999998807907","320395","SARL_v6","SARL_v6hxeh1f8n","641e62a8191451d08e6c08f7","freq","","","img/blue_2bandit_b2.png","70","","70","test","1","","38","","","","circle","square","37","11","2","1","","","","","","","",""
"null","320785","SARL_v6","SARL_v6hxeh1f8n","641e62a8191451d08e6c08f7","freq_resp","","","img/blue_2bandit_b.png","70","img/blue_2bandit_b.png","70","test","","","","","","","","","","","2","","","","","","","","",""
"null","320956","SARL_v6","SARL_v6hxeh1f8n","641e62a8191451d08e6c08f7","fixation","","","img/fixation.png","null","","","test","","","","","","","","","","","","","","","","","","","",""
"369.7000000178814","321331","SARL_v6","SARL_v6hxeh1f8n","641e62a8191451d08e6c08f7","freq","","","img/blue_2bandit_b2.png","70","","70","test","1","","39","","","","circle","square","38","12","2","1","","","","","","","",""
"null","321779","SARL_v6","SARL_v6hxeh1f8n","641e62a8191451d08e6c08f7","freq_resp","","","img/blue_2bandit_b.png","70","img/blue_2bandit_b.png","70","test","","","","","","","","","","","2","","","","","","","","",""
"null","321946","SARL_v6","SARL_v6hxeh1f8n","641e62a8191451d08e6c08f7","fixation","","","img/fixation.png","null","","","test","","","","","","","","","","","","","","","","","","","",""
"364.2999999821186","322315","SARL_v6","SARL_v6hxeh1f8n","641e62a8191451d08e6c08f7","freq","","","img/blue_2bandit_b2.png","70","","70","test","1","","40","","","","circle","square","39","13","2","1","","","","","","","",""
"null","322764","SARL_v6","SARL_v6hxeh1f8n","641e62a8191451d08e6c08f7","freq_resp","","","img/blue_2bandit_b.png","70","img/blue_2bandit_b.png","70","test","","","","","","","","","","","2","","","","","","","","",""
"null","322917","SARL_v6","SARL_v6hxeh1f8n","641e62a8191451d08e6c08f7","fixation","","","img/fixation.png","null","","","test","","","","","","","","","","","","","","","","","","","",""
"364","323287","SARL_v6","SARL_v6hxeh1f8n","641e62a8191451d08e6c08f7","freq","","","img/blue_2bandit_b2.png","70","","70","test","1","","41","","","","circle","square","40","14","2","1","","","","","","","",""
"null","323736","SARL_v6","SARL_v6hxeh1f8n","641e62a8191451d08e6c08f7","freq_resp","","","img/blue_2bandit_b.png","70","img/blue_2bandit_b.png","70","test","","","","","","","","","","","2","","","","","","","","",""
"null","323889","SARL_v6","SARL_v6hxeh1f8n","641e62a8191451d08e6c08f7","fixation","","","img/fixation.png","null","","","test","","","","","","","","","","","","","","","","","","","",""
"348.39999997615814","324242","SARL_v6","SARL_v6hxeh1f8n","641e62a8191451d08e6c08f7","freq","","","img/blue_2bandit_b2.png","70","","70","test","1","","42","","","","circle","square","41","15","2","1","","","","","","","",""
"null","324710","SARL_v6","SARL_v6hxeh1f8n","641e62a8191451d08e6c08f7","freq_resp","","","img/blue_2bandit_b.png","70","img/blue_2bandit_b.png","70","test","","","","","","","","","","","2","","","","","","","","",""
"null","324864","SARL_v6","SARL_v6hxeh1f8n","641e62a8191451d08e6c08f7","fixation","","","img/fixation.png","null","","","test","","","","","","","","","","","","","","","","","","","",""
"334.59999999403954","325204","SARL_v6","SARL_v6hxeh1f8n","641e62a8191451d08e6c08f7","freq","","","img/blue_2bandit_b2.png","70","","70","test","1","","43","","","","circle","square","42","16","2","1","","","","","","","",""
"null","325684","SARL_v6","SARL_v6hxeh1f8n","641e62a8191451d08e6c08f7","freq_resp","","","img/blue_2bandit_b.png","70","img/blue_2bandit_b.png","70","test","","","","","","","","","","","2","","","","","","","","",""
"null","325838","SARL_v6","SARL_v6hxeh1f8n","641e62a8191451d08e6c08f7","fixation","","","img/fixation.png","null","","","test","","","","","","","","","","","","","","","","","","","",""
"454.69999998807907","326295","SARL_v6","SARL_v6hxeh1f8n","641e62a8191451d08e6c08f7","infreq","","","img/orange_2bandit_b2.png","68","","68","test","1","","44","","","","circle","square","43","17","2","1","","","","","","","",""
"null","326647","SARL_v6","SARL_v6hxeh1f8n","641e62a8191451d08e6c08f7","infreq_resp","","","img/orange_2bandit_b.png","68","img/orange_2bandit_b.png","68","test","","","","","","","","","","","2","","","","","","","","",""
"null","326807","SARL_v6","SARL_v6hxeh1f8n","641e62a8191451d08e6c08f7","fixation","","","img/fixation.png","null","","","test","","","","","","","","","","","","","","","","","","","",""
"428.69999998807907","327239","SARL_v6","SARL_v6hxeh1f8n","641e62a8191451d08e6c08f7","infreq","","","img/orange_2bandit_b2.png","68","","68","test","1","","45","","","","circle","square","44","18","2","1","","","","","","","",""
"null","327626","SARL_v6","SARL_v6hxeh1f8n","641e62a8191451d08e6c08f7","infreq_resp","","","img/orange_2bandit_b.png","68","img/orange_2bandit_b.png","68","test","","","","","","","","","","","2","","","","","","","","",""
"null","327784","SARL_v6","SARL_v6hxeh1f8n","641e62a8191451d08e6c08f7","fixation","","","img/fixation.png","null","","","test","","","","","","","","","","","","","","","","","","","",""
"525.8000000119209","328315","SARL_v6","SARL_v6hxeh1f8n","641e62a8191451d08e6c08f7","freq","","","img/blue_2bandit_b2.png","70","","70","test","1","","46","","","","circle","square","45","19","2","1","","","","","","","",""
"null","328607","SARL_v6","SARL_v6hxeh1f8n","641e62a8191451d08e6c08f7","freq_resp","","","img/blue_2bandit_b.png","70","img/blue_2bandit_b.png","70","test","","","","","","","","","","","2","","","","","","","","",""
"null","328766","SARL_v6","SARL_v6hxeh1f8n","641e62a8191451d08e6c08f7","fixation","","","img/fixation.png","null","","","test","","","","","","","","","","","","","","","","","","","",""
"534.3000000119209","329308","SARL_v6","SARL_v6hxeh1f8n","641e62a8191451d08e6c08f7","freq","","","img/blue_2bandit_b2.png","70","","70","test","1","","47","","","","circle","square","46","20","2","1","","","","","","","",""
"null","329582","SARL_v6","SARL_v6hxeh1f8n","641e62a8191451d08e6c08f7","freq_resp","","","img/blue_2bandit_b.png","70","img/blue_2bandit_b.png","70","test","","","","","","","","","","","2","","","","","","","","",""
"null","329740","SARL_v6","SARL_v6hxeh1f8n","641e62a8191451d08e6c08f7","fixation","","","img/fixation.png","null","","","test","","","","","","","","","","","","","","","","","","","",""
"715","330459","SARL_v6","SARL_v6hxeh1f8n","641e62a8191451d08e6c08f7","freq","","","img/blue_2bandit_b2.png","70","","70","test","1","","48","","","","circle","square","47","21","2","1","","","","","","","",""
"null","330548","SARL_v6","SARL_v6hxeh1f8n","641e62a8191451d08e6c08f7","freq_resp","","","img/blue_2bandit_b.png","70","img/blue_2bandit_b.png","70","test","","","","","","","","","","","2","","","","","","","","",""
"null","330713","SARL_v6","SARL_v6hxeh1f8n","641e62a8191451d08e6c08f7","fixation","","","img/fixation.png","null","","","test","","","","","","","","","","","","","","","","","","","",""
"597.3999999761581","331316","SARL_v6","SARL_v6hxeh1f8n","641e62a8191451d08e6c08f7","rl","","","img/black_2bandit_b2.png","75","","0","test","","","49","","","-5","circle","square","","0","2","","75","-8","-5","-8","-5","square","2","0"
"null","332073","SARL_v6","SARL_v6hxeh1f8n","641e62a8191451d08e6c08f7","feedback","","","<div class=""verylowPoints_sq""> -5 </div>","null","","na","test","","","NaN","","","","","","","","2","","75","","","","","","2",""
"null","332883","SARL_v6","SARL_v6hxeh1f8n","641e62a8191451d08e6c08f7","freq","","","img/blue_2bandit_b2.png","null","","70","test","0","","50","","","","circle","square","48","1","3","0.9791666666666666","","","","","","","",""
"null","333040","SARL_v6","SARL_v6hxeh1f8n","641e62a8191451d08e6c08f7","fixation","","","img/fixation.png","null","","","test","","","","","","","","","","","","","","","","","","","",""
"422.2000000178814","333468","SARL_v6","SARL_v6hxeh1f8n","641e62a8191451d08e6c08f7","freq","","","img/blue_2bandit_b2.png","70","","70","test","1","","51","","","","circle","square","49","2","3","0.9795918367346939","","","","","","","",""
"null","333861","SARL_v6","SARL_v6hxeh1f8n","641e62a8191451d08e6c08f7","freq_resp","","","img/blue_2bandit_b.png","70","img/blue_2bandit_b.png","70","test","","","","","","","","","","","3","","","","","","","","",""
"null","334018","SARL_v6","SARL_v6hxeh1f8n","641e62a8191451d08e6c08f7","fixation","","","img/fixation.png","null","","","test","","","","","","","","","","","","","","","","","","","",""
"331.69999998807907","334355","SARL_v6","SARL_v6hxeh1f8n","641e62a8191451d08e6c08f7","freq","","","img/blue_2bandit_b2.png","70","","70","test","1","","52","","","","circle","square","50","3","3","0.98","","","","","","","",""
"null","334835","SARL_v6","SARL_v6hxeh1f8n","641e62a8191451d08e6c08f7","freq_resp","","","img/blue_2bandit_b.png","70","img/blue_2bandit_b.png","70","test","","","","","","","","","","","3","","","","","","","","",""
"null","334987","SARL_v6","SARL_v6hxeh1f8n","641e62a8191451d08e6c08f7","fixation","","","img/fixation.png","null","","","test","","","","","","","","","","","","","","","","","","","",""
"297.7999999821186","335287","SARL_v6","SARL_v6hxeh1f8n","641e62a8191451d08e6c08f7","freq","","","img/blue_2bandit_b2.png","70","","70","test","1","","53","","","","circle","square","51","4","3","0.9803921568627451","","","","","","","",""
"null","335810","SARL_v6","SARL_v6hxeh1f8n","641e62a8191451d08e6c08f7","freq_resp","","","img/blue_2bandit_b.png","70","img/blue_2bandit_b.png","70","test","","","","","","","","","","","3","","","","","","","","",""
"null","335967","SARL_v6","SARL_v6hxeh1f8n","641e62a8191451d08e6c08f7","fixation","","","img/fixation.png","null","","","test","","","","","","","","","","","","","","","","","","","",""
"317.5","336294","SARL_v6","SARL_v6hxeh1f8n","641e62a8191451d08e6c08f7","freq","","","img/blue_2bandit_b2.png","70","","70","test","1","","54","","","","circle","square","52","5","3","0.9807692307692307","","","","","","","",""
"null","336786","SARL_v6","SARL_v6hxeh1f8n","641e62a8191451d08e6c08f7","freq_resp","","","img/blue_2bandit_b.png","70","img/blue_2bandit_b.png","70","test","","","","","","","","","","","3","","","","","","","","",""
"null","336940","SARL_v6","SARL_v6hxeh1f8n","641e62a8191451d08e6c08f7","fixation","","","img/fixation.png","null","","","test","","","","","","","","","","","","","","","","","","","",""
"319.09999999403954","337263","SARL_v6","SARL_v6hxeh1f8n","641e62a8191451d08e6c08f7","freq","","","img/blue_2bandit_b2.png","70","","70","test","1","","55","","","","circle","square","53","6","3","0.9811320754716981","","","","","","","",""
"null","337753","SARL_v6","SARL_v6hxeh1f8n","641e62a8191451d08e6c08f7","freq_resp","","","img/blue_2bandit_b.png","70","img/blue_2bandit_b.png","70","test","","","","","","","","","","","3","","","","","","","","",""
"null","337906","SARL_v6","SARL_v6hxeh1f8n","641e62a8191451d08e6c08f7","fixation","","","img/fixation.png","null","","","test","","","","","","","","","","","","","","","","","","","",""
"275.90000000596046","338187","SARL_v6","SARL_v6hxeh1f8n","641e62a8191451d08e6c08f7","freq","","","img/blue_2bandit_b2.png","70","","70","test","1","","56","","","","circle","square","54","7","3","0.9814814814814815","","","","","","","",""
"null","338725","SARL_v6","SARL_v6hxeh1f8n","641e62a8191451d08e6c08f7","freq_resp","","","img/blue_2bandit_b.png","70","img/blue_2bandit_b.png","70","test","","","","","","","","","","","3","","","","","","","","",""
"null","338895","SARL_v6","SARL_v6hxeh1f8n","641e62a8191451d08e6c08f7","fixation","","","img/fixation.png","null","","","test","","","","","","","","","","","","","","","","","","","",""
"302.2999999821186","339200","SARL_v6","SARL_v6hxeh1f8n","641e62a8191451d08e6c08f7","freq","","","img/blue_2bandit_b2.png","70","","70","test","1","","57","","","","circle","square","55","8","3","0.9818181818181818","","","","","","","",""
"null","339711","SARL_v6","SARL_v6hxeh1f8n","641e62a8191451d08e6c08f7","freq_resp","","","img/blue_2bandit_b.png","70","img/blue_2bandit_b.png","70","test","","","","","","","","","","","3","","","","","","","","",""
"null","339864","SARL_v6","SARL_v6hxeh1f8n","641e62a8191451d08e6c08f7","fixation","","","img/fixation.png","null","","","test","","","","","","","","","","","","","","","","","","","",""
"276.90000000596046","340143","SARL_v6","SARL_v6hxeh1f8n","641e62a8191451d08e6c08f7","freq","","","img/blue_2bandit_b2.png","70","","70","test","1","","58","","","","circle","square","56","9","3","0.9821428571428571","","","","","","","",""
"null","340676","SARL_v6","SARL_v6hxeh1f8n","641e62a8191451d08e6c08f7","freq_resp","","","img/blue_2bandit_b.png","70","img/blue_2bandit_b.png","70","test","","","","","","","","","","","3","","","","","","","","",""
"null","340844","SARL_v6","SARL_v6hxeh1f8n","641e62a8191451d08e6c08f7","fixation","","","img/fixation.png","null","","","test","","","","","","","","","","","","","","","","","","","",""
"416.90000000596046","341263","SARL_v6","SARL_v6hxeh1f8n","641e62a8191451d08e6c08f7","infreq","","","img/orange_2bandit_b2.png","68","","68","test","1","","59","","","","circle","square","57","10","3","0.9824561403508771","","","","","","","",""
"null","341663","SARL_v6","SARL_v6hxeh1f8n","641e62a8191451d08e6c08f7","infreq_resp","","","img/orange_2bandit_b.png","68","img/orange_2bandit_b.png","68","test","","","","","","","","","","","3","","","","","","","","",""
"null","341822","SARL_v6","SARL_v6hxeh1f8n","641e62a8191451d08e6c08f7","fixation","","","img/fixation.png","null","","","test","","","","","","","","","","","","","","","","","","","",""
"375.39999997615814","342204","SARL_v6","SARL_v6hxeh1f8n","641e62a8191451d08e6c08f7","infreq","","","img/orange_2bandit_b2.png","68","","68","test","1","","60","","","","circle","square","58","11","3","0.9827586206896551","","","","","","","",""
"null","342639","SARL_v6","SARL_v6hxeh1f8n","641e62a8191451d08e6c08f7","infreq_resp","","","img/orange_2bandit_b.png","68","img/orange_2bandit_b.png","68","test","","","","","","","","","","","3","","","","","","","","",""
"null","342799","SARL_v6","SARL_v6hxeh1f8n","641e62a8191451d08e6c08f7","fixation","","","img/fixation.png","null","","","test","","","","","","","","","","","","","","","","","","","",""
"486.19999998807907","343291","SARL_v6","SARL_v6hxeh1f8n","641e62a8191451d08e6c08f7","freq","","","img/blue_2bandit_b2.png","70","","70","test","1","","61","","","","circle","square","59","12","3","0.9830508474576272","","","","","","","",""
"null","343620","SARL_v6","SARL_v6hxeh1f8n","641e62a8191451d08e6c08f7","freq_resp","","","img/blue_2bandit_b.png","70","img/blue_2bandit_b.png","70","test","","","","","","","","","","","3","","","","","","","","",""
"null","343774","SARL_v6","SARL_v6hxeh1f8n","641e62a8191451d08e6c08f7","fixation","","","img/fixation.png","null","","","test","","","","","","","","","","","","","","","","","","","",""
"338","344119","SARL_v6","SARL_v6hxeh1f8n","641e62a8191451d08e6c08f7","freq","","","img/blue_2bandit_b2.png","70","","70","test","1","","62","","","","circle","square","60","13","3","0.9833333333333333","","","","","","","",""
"null","344605","SARL_v6","SARL_v6hxeh1f8n","641e62a8191451d08e6c08f7","freq_resp","","","img/blue_2bandit_b.png","70","img/blue_2bandit_b.png","70","test","","","","","","","","","","","3","","","","","","","","",""
"null","344760","SARL_v6","SARL_v6hxeh1f8n","641e62a8191451d08e6c08f7","fixation","","","img/fixation.png","null","","","test","","","","","","","","","","","","","","","","","","","",""
"357.5","345124","SARL_v6","SARL_v6hxeh1f8n","641e62a8191451d08e6c08f7","freq","","","img/blue_2bandit_b2.png","70","","70","test","1","","63","","","","circle","square","61","14","3","0.9836065573770492","","","","","","","",""
"null","345583","SARL_v6","SARL_v6hxeh1f8n","641e62a8191451d08e6c08f7","freq_resp","","","img/blue_2bandit_b.png","70","img/blue_2bandit_b.png","70","test","","","","","","","","","","","3","","","","","","","","",""
"null","345738","SARL_v6","SARL_v6hxeh1f8n","641e62a8191451d08e6c08f7","fixation","","","img/fixation.png","null","","","test","","","","","","","","","","","","","","","","","","","",""
"355.80000001192093","346102","SARL_v6","SARL_v6hxeh1f8n","641e62a8191451d08e6c08f7","freq","","","img/blue_2bandit_b2.png","70","","70","test","1","","64","","","","circle","square","62","15","3","0.9838709677419355","","","","","","","",""
"null","346552","SARL_v6","SARL_v6hxeh1f8n","641e62a8191451d08e6c08f7","freq_resp","","","img/blue_2bandit_b.png","70","img/blue_2bandit_b.png","70","test","","","","","","","","","","","3","","","","","","","","",""
"null","346712","SARL_v6","SARL_v6hxeh1f8n","641e62a8191451d08e6c08f7","fixation","","","img/fixation.png","null","","","test","","","","","","","","","","","","","","","","","","","",""
"332.2999999821186","347047","SARL_v6","SARL_v6hxeh1f8n","641e62a8191451d08e6c08f7","freq","","","img/blue_2bandit_b2.png","70","","70","test","1","","65","","","","circle","square","63","16","3","0.9841269841269841","","","","","","","",""
"null","347528","SARL_v6","SARL_v6hxeh1f8n","641e62a8191451d08e6c08f7","freq_resp","","","img/blue_2bandit_b.png","70","img/blue_2bandit_b.png","70","test","","","","","","","","","","","3","","","","","","","","",""
"null","347685","SARL_v6","SARL_v6hxeh1f8n","641e62a8191451d08e6c08f7","fixation","","","img/fixation.png","null","","","test","","","","","","","","","","","","","","","","","","","",""
"313","348003","SARL_v6","SARL_v6hxeh1f8n","641e62a8191451d08e6c08f7","freq","","","img/blue_2bandit_b2.png","70","","70","test","1","","66","","","","circle","square","64","17","3","0.984375","","","","","","","",""
"null","348499","SARL_v6","SARL_v6hxeh1f8n","641e62a8191451d08e6c08f7","freq_resp","","","img/blue_2bandit_b.png","70","img/blue_2bandit_b.png","70","test","","","","","","","","","","","3","","","","","","","","",""
"null","348657","SARL_v6","SARL_v6hxeh1f8n","641e62a8191451d08e6c08f7","fixation","","","img/fixation.png","null","","","test","","","","","","","","","","","","","","","","","","","",""
"326.39999997615814","348990","SARL_v6","SARL_v6hxeh1f8n","641e62a8191451d08e6c08f7","freq","","","img/blue_2bandit_b2.png","70","","70","test","1","","67","","","","circle","square","65","18","3","0.9846153846153847","","","","","","","",""
"null","349475","SARL_v6","SARL_v6hxeh1f8n","641e62a8191451d08e6c08f7","freq_resp","","","img/blue_2bandit_b.png","70","img/blue_2bandit_b.png","70","test","","","","","","","","","","","3","","","","","","","","",""
"null","349632","SARL_v6","SARL_v6hxeh1f8n","641e62a8191451d08e6c08f7","fixation","","","img/fixation.png","null","","","test","","","","","","","","","","","","","","","","","","","",""
"333","349967","SARL_v6","SARL_v6hxeh1f8n","641e62a8191451d08e6c08f7","freq","","","img/blue_2bandit_b2.png","70","","70","test","1","","68","","","","circle","square","66","19","3","0.9848484848484849","","","","","","","",""
"null","350443","SARL_v6","SARL_v6hxeh1f8n","641e62a8191451d08e6c08f7","freq_resp","","","img/blue_2bandit_b.png","70","img/blue_2bandit_b.png","70","test","","","","","","","","","","","3","","","","","","","","",""
"null","350601","SARL_v6","SARL_v6hxeh1f8n","641e62a8191451d08e6c08f7","fixation","","","img/fixation.png","null","","","test","","","","","","","","","","","","","","","","","","","",""
"323.7999999821186","350930","SARL_v6","SARL_v6hxeh1f8n","641e62a8191451d08e6c08f7","freq","","","img/blue_2bandit_b2.png","70","","70","test","1","","69","","","","circle","square","67","20","3","0.9850746268656716","","","","","","","",""
"null","351428","SARL_v6","SARL_v6hxeh1f8n","641e62a8191451d08e6c08f7","freq_resp","","","img/blue_2bandit_b.png","70","img/blue_2bandit_b.png","70","test","","","","","","","","","","","3","","","","","","","","",""
"null","351582","SARL_v6","SARL_v6hxeh1f8n","641e62a8191451d08e6c08f7","fixation","","","img/fixation.png","null","","","test","","","","","","","","","","","","","","","","","","","",""
"326.59999999403954","351912","SARL_v6","SARL_v6hxeh1f8n","641e62a8191451d08e6c08f7","freq","","","img/blue_2bandit_b2.png","70","","70","test","1","","70","","","","circle","square","68","21","3","0.9852941176470589","","","","","","","",""
"null","352390","SARL_v6","SARL_v6hxeh1f8n","641e62a8191451d08e6c08f7","freq_resp","","","img/blue_2bandit_b.png","70","img/blue_2bandit_b.png","70","test","","","","","","","","","","","3","","","","","","","","",""
"null","352545","SARL_v6","SARL_v6hxeh1f8n","641e62a8191451d08e6c08f7","fixation","","","img/fixation.png","null","","","test","","","","","","","","","","","","","","","","","","","",""
"540.2000000178814","353088","SARL_v6","SARL_v6hxeh1f8n","641e62a8191451d08e6c08f7","rl","","","img/black_2bandit_b2.png","74","","0","test","","","71","","","-8","circle","square","","0","3","","74","-8","-4","-8","-4","circle","3","0"
"null","353844","SARL_v6","SARL_v6hxeh1f8n","641e62a8191451d08e6c08f7","feedback","","","<div class=""verylowPoints""> -8 </div>","null","","na","test","","","NaN","","","","","","","","3","","74","","","","","","3",""
"602.3000000119209","354451","SARL_v6","SARL_v6hxeh1f8n","641e62a8191451d08e6c08f7","freq","","","img/blue_2bandit_b2.png","70","","70","test","1","","72","","","","circle","square","69","1","4","0.9855072463768116","","","","","","","",""
"null","354662","SARL_v6","SARL_v6hxeh1f8n","641e62a8191451d08e6c08f7","freq_resp","","","img/blue_2bandit_b.png","70","img/blue_2bandit_b.png","70","test","","","","","","","","","","","4","","","","","","","","",""
"null","354815","SARL_v6","SARL_v6hxeh1f8n","641e62a8191451d08e6c08f7","fixation","","","img/fixation.png","null","","","test","","","","","","","","","","","","","","","","","","","",""
"367.7000000178814","355189","SARL_v6","SARL_v6hxeh1f8n","641e62a8191451d08e6c08f7","freq","","","img/blue_2bandit_b2.png","70","","70","test","1","","73","","","","circle","square","70","2","4","0.9857142857142858","","","","","","","",""
"null","355646","SARL_v6","SARL_v6hxeh1f8n","641e62a8191451d08e6c08f7","freq_resp","","","img/blue_2bandit_b.png","70","img/blue_2bandit_b.png","70","test","","","","","","","","","","","4","","","","","","","","",""
"null","355804","SARL_v6","SARL_v6hxeh1f8n","641e62a8191451d08e6c08f7","fixation","","","img/fixation.png","null","","","test","","","","","","","","","","","","","","","","","","","",""
"408.40000000596046","356216","SARL_v6","SARL_v6hxeh1f8n","641e62a8191451d08e6c08f7","freq","","","img/blue_2bandit_b2.png","70","","70","test","1","","74","","","","circle","square","71","3","4","0.9859154929577465","","","","","","","",""
"null","356619","SARL_v6","SARL_v6hxeh1f8n","641e62a8191451d08e6c08f7","freq_resp","","","img/blue_2bandit_b.png","70","img/blue_2bandit_b.png","70","test","","","","","","","","","","","4","","","","","","","","",""
"null","356781","SARL_v6","SARL_v6hxeh1f8n","641e62a8191451d08e6c08f7","fixation","","","img/fixation.png","null","","","test","","","","","","","","","","","","","","","","","","","",""
"368.09999999403954","357152","SARL_v6","SARL_v6hxeh1f8n","641e62a8191451d08e6c08f7","freq","","","img/blue_2bandit_b2.png","70","","70","test","1","","75","","","","circle","square","72","4","4","0.9861111111111112","","","","","","","",""
"null","357596","SARL_v6","SARL_v6hxeh1f8n","641e62a8191451d08e6c08f7","freq_resp","","","img/blue_2bandit_b.png","70","img/blue_2bandit_b.png","70","test","","","","","","","","","","","4","","","","","","","","",""
"null","357753","SARL_v6","SARL_v6hxeh1f8n","641e62a8191451d08e6c08f7","fixation","","","img/fixation.png","null","","","test","","","","","","","","","","","","","","","","","","","",""
"349.19999998807907","358108","SARL_v6","SARL_v6hxeh1f8n","641e62a8191451d08e6c08f7","freq","","","img/blue_2bandit_b2.png","70","","70","test","1","","76","","","","circle","square","73","5","4","0.9863013698630136","","","","","","","",""
"null","358570","SARL_v6","SARL_v6hxeh1f8n","641e62a8191451d08e6c08f7","freq_resp","","","img/blue_2bandit_b.png","70","img/blue_2bandit_b.png","70","test","","","","","","","","","","","4","","","","","","","","",""
"null","358722","SARL_v6","SARL_v6hxeh1f8n","641e62a8191451d08e6c08f7","fixation","","","img/fixation.png","null","","","test","","","","","","","","","","","","","","","","","","","",""
"340","359067","SARL_v6","SARL_v6hxeh1f8n","641e62a8191451d08e6c08f7","freq","","","img/blue_2bandit_b2.png","70","","70","test","1","","77","","","","circle","square","74","6","4","0.9864864864864865","","","","","","","",""
"null","359547","SARL_v6","SARL_v6hxeh1f8n","641e62a8191451d08e6c08f7","freq_resp","","","img/blue_2bandit_b.png","70","img/blue_2bandit_b.png","70","test","","","","","","","","","","","4","","","","","","","","",""
"null","359716","SARL_v6","SARL_v6hxeh1f8n","641e62a8191451d08e6c08f7","fixation","","","img/fixation.png","null","","","test","","","","","","","","","","","","","","","","","","","",""
"571.5999999940395","360296","SARL_v6","SARL_v6hxeh1f8n","641e62a8191451d08e6c08f7","infreq","","","img/orange_2bandit_b2.png","68","","68","test","1","","78","","","","circle","square","75","7","4","0.9866666666666667","","","","","","","",""
"null","360545","SARL_v6","SARL_v6hxeh1f8n","641e62a8191451d08e6c08f7","infreq_resp","","","img/orange_2bandit_b.png","68","img/orange_2bandit_b.png","68","test","","","","","","","","","","","4","","","","","","","","",""
"null","360699","SARL_v6","SARL_v6hxeh1f8n","641e62a8191451d08e6c08f7","fixation","","","img/fixation.png","null","","","test","","","","","","","","","","","","","","","","","","","",""
"618.3000000119209","361319","SARL_v6","SARL_v6hxeh1f8n","641e62a8191451d08e6c08f7","freq","","","img/blue_2bandit_b2.png","70","","70","test","1","","79","","","","circle","square","76","8","4","0.9868421052631579","","","","","","","",""
"null","361520","SARL_v6","SARL_v6hxeh1f8n","641e62a8191451d08e6c08f7","freq_resp","","","img/blue_2bandit_b.png","70","img/blue_2bandit_b.png","70","test","","","","","","","","","","","4","","","","","","","","",""
"null","361683","SARL_v6","SARL_v6hxeh1f8n","641e62a8191451d08e6c08f7","fixation","","","img/fixation.png","null","","","test","","","","","","","","","","","","","","","","","","","",""
"545.5999999940395","362235","SARL_v6","SARL_v6hxeh1f8n","641e62a8191451d08e6c08f7","freq","","","img/blue_2bandit_b2.png","70","","70","test","1","","80","","","","circle","square","77","9","4","0.987012987012987","","","","","","","",""
"null","362510","SARL_v6","SARL_v6hxeh1f8n","641e62a8191451d08e6c08f7","freq_resp","","","img/blue_2bandit_b.png","70","img/blue_2bandit_b.png","70","test","","","","","","","","","","","4","","","","","","","","",""
"null","362664","SARL_v6","SARL_v6hxeh1f8n","641e62a8191451d08e6c08f7","fixation","","","img/fixation.png","null","","","test","","","","","","","","","","","","","","","","","","","",""
"404.5","363071","SARL_v6","SARL_v6hxeh1f8n","641e62a8191451d08e6c08f7","freq","","","img/blue_2bandit_b2.png","70","","70","test","1","","81","","","","circle","square","78","10","4","0.9871794871794872","","","","","","","",""
"null","363481","SARL_v6","SARL_v6hxeh1f8n","641e62a8191451d08e6c08f7","freq_resp","","","img/blue_2bandit_b.png","70","img/blue_2bandit_b.png","70","test","","","","","","","","","","","4","","","","","","","","",""
"null","363649","SARL_v6","SARL_v6hxeh1f8n","641e62a8191451d08e6c08f7","fixation","","","img/fixation.png","null","","","test","","","","","","","","","","","","","","","","","","","",""
"340.90000000596046","363994","SARL_v6","SARL_v6hxeh1f8n","641e62a8191451d08e6c08f7","freq","","","img/blue_2bandit_b2.png","70","","70","test","1","","82","","","","circle","square","79","11","4","0.9873417721518988","","","","","","","",""
"null","364467","SARL_v6","SARL_v6hxeh1f8n","641e62a8191451d08e6c08f7","freq_resp","","","img/blue_2bandit_b.png","70","img/blue_2bandit_b.png","70","test","","","","","","","","","","","4","","","","","","","","",""
"null","364626","SARL_v6","SARL_v6hxeh1f8n","641e62a8191451d08e6c08f7","fixation","","","img/fixation.png","null","","","test","","","","","","","","","","","","","","","","","","","",""
"431.69999998807907","365064","SARL_v6","SARL_v6hxeh1f8n","641e62a8191451d08e6c08f7","freq","","","img/blue_2bandit_b2.png","70","","70","test","1","","83","","","","circle","square","80","12","4","0.9875","","","","","","","",""
"null","365446","SARL_v6","SARL_v6hxeh1f8n","641e62a8191451d08e6c08f7","freq_resp","","","img/blue_2bandit_b.png","70","img/blue_2bandit_b.png","70","test","","","","","","","","","","","4","","","","","","","","",""
"null","365617","SARL_v6","SARL_v6hxeh1f8n","641e62a8191451d08e6c08f7","fixation","","","img/fixation.png","null","","","test","","","","","","","","","","","","","","","","","","","",""
"275.80000001192093","365895","SARL_v6","SARL_v6hxeh1f8n","641e62a8191451d08e6c08f7","freq","","","img/blue_2bandit_b2.png","70","","70","test","1","","84","","","","circle","square","81","13","4","0.9876543209876543","","","","","","","",""
"null","366432","SARL_v6","SARL_v6hxeh1f8n","641e62a8191451d08e6c08f7","freq_resp","","","img/blue_2bandit_b.png","70","img/blue_2bandit_b.png","70","test","","","","","","","","","","","4","","","","","","","","",""
"null","366586","SARL_v6","SARL_v6hxeh1f8n","641e62a8191451d08e6c08f7","fixation","","","img/fixation.png","null","","","test","","","","","","","","","","","","","","","","","","","",""
"428.69999998807907","367020","SARL_v6","SARL_v6hxeh1f8n","641e62a8191451d08e6c08f7","infreq","","","img/orange_2bandit_b2.png","68","","68","test","1","","85","","","","circle","square","82","14","4","0.9878048780487805","","","","","","","",""
"null","367406","SARL_v6","SARL_v6hxeh1f8n","641e62a8191451d08e6c08f7","infreq_resp","","","img/orange_2bandit_b.png","68","img/orange_2bandit_b.png","68","test","","","","","","","","","","","4","","","","","","","","",""
"null","367563","SARL_v6","SARL_v6hxeh1f8n","641e62a8191451d08e6c08f7","fixation","","","img/fixation.png","null","","","test","","","","","","","","","","","","","","","","","","","",""
"457.30000001192093","368023","SARL_v6","SARL_v6hxeh1f8n","641e62a8191451d08e6c08f7","freq","","","img/blue_2bandit_b2.png","70","","70","test","1","","86","","","","circle","square","83","15","4","0.9879518072289156","","","","","","","",""
"null","368378","SARL_v6","SARL_v6hxeh1f8n","641e62a8191451d08e6c08f7","freq_resp","","","img/blue_2bandit_b.png","70","img/blue_2bandit_b.png","70","test","","","","","","","","","","","4","","","","","","","","",""
"null","368535","SARL_v6","SARL_v6hxeh1f8n","641e62a8191451d08e6c08f7","fixation","","","img/fixation.png","null","","","test","","","","","","","","","","","","","","","","","","","",""
"397.69999998807907","368935","SARL_v6","SARL_v6hxeh1f8n","641e62a8191451d08e6c08f7","freq","","","img/blue_2bandit_b2.png","70","","70","test","1","","87","","","","circle","square","84","16","4","0.9880952380952381","","","","","","","",""
"null","369352","SARL_v6","SARL_v6hxeh1f8n","641e62a8191451d08e6c08f7","freq_resp","","","img/blue_2bandit_b.png","70","img/blue_2bandit_b.png","70","test","","","","","","","","","","","4","","","","","","","","",""
"null","369509","SARL_v6","SARL_v6hxeh1f8n","641e62a8191451d08e6c08f7","fixation","","","img/fixation.png","null","","","test","","","","","","","","","","","","","","","","","","","",""
"393.5","369907","SARL_v6","SARL_v6hxeh1f8n","641e62a8191451d08e6c08f7","freq","","","img/blue_2bandit_b2.png","70","","70","test","1","","88","","","","circle","square","85","17","4","0.9882352941176471","","","","","","","",""
"null","370333","SARL_v6","SARL_v6hxeh1f8n","641e62a8191451d08e6c08f7","freq_resp","","","img/blue_2bandit_b.png","70","img/blue_2bandit_b.png","70","test","","","","","","","","","","","4","","","","","","","","",""
"null","370505","SARL_v6","SARL_v6hxeh1f8n","641e62a8191451d08e6c08f7","fixation","","","img/fixation.png","null","","","test","","","","","","","","","","","","","","","","","","","",""
"451.69999998807907","370963","SARL_v6","SARL_v6hxeh1f8n","641e62a8191451d08e6c08f7","freq","","","img/blue_2bandit_b2.png","70","","70","test","1","","89","","","","circle","square","86","18","4","0.9883720930232558","","","","","","","",""
"null","371326","SARL_v6","SARL_v6hxeh1f8n","641e62a8191451d08e6c08f7","freq_resp","","","img/blue_2bandit_b.png","70","img/blue_2bandit_b.png","70","test","","","","","","","","","","","4","","","","","","","","",""
"null","371485","SARL_v6","SARL_v6hxeh1f8n","641e62a8191451d08e6c08f7","fixation","","","img/fixation.png","null","","","test","","","","","","","","","","","","","","","","","","","",""
"351.2000000178814","371839","SARL_v6","SARL_v6hxeh1f8n","641e62a8191451d08e6c08f7","freq","","","img/blue_2bandit_b2.png","70","","70","test","1","","90","","","","circle","square","87","19","4","0.9885057471264368","","","","","","","",""
"null","372304","SARL_v6","SARL_v6hxeh1f8n","641e62a8191451d08e6c08f7","freq_resp","","","img/blue_2bandit_b.png","70","img/blue_2bandit_b.png","70","test","","","","","","","","","","","4","","","","","","","","",""
"null","372462","SARL_v6","SARL_v6hxeh1f8n","641e62a8191451d08e6c08f7","fixation","","","img/fixation.png","null","","","test","","","","","","","","","","","","","","","","","","","",""
"322.30000001192093","372788","SARL_v6","SARL_v6hxeh1f8n","641e62a8191451d08e6c08f7","freq","","","img/blue_2bandit_b2.png","70","","70","test","1","","91","","","","circle","square","88","20","4","0.9886363636363636","","","","","","","",""
"null","373284","SARL_v6","SARL_v6hxeh1f8n","641e62a8191451d08e6c08f7","freq_resp","","","img/blue_2bandit_b.png","70","img/blue_2bandit_b.png","70","test","","","","","","","","","","","4","","","","","","","","",""
"null","373443","SARL_v6","SARL_v6hxeh1f8n","641e62a8191451d08e6c08f7","fixation","","","img/fixation.png","null","","","test","","","","","","","","","","","","","","","","","","","",""
"305.60000002384186","373756","SARL_v6","SARL_v6hxeh1f8n","641e62a8191451d08e6c08f7","freq","","","img/blue_2bandit_b2.png","70","","70","test","1","","92","","","","circle","square","89","21","4","0.9887640449438202","","","","","","","",""
"null","374265","SARL_v6","SARL_v6hxeh1f8n","641e62a8191451d08e6c08f7","freq_resp","","","img/blue_2bandit_b.png","70","img/blue_2bandit_b.png","70","test","","","","","","","","","","","4","","","","","","","","",""
"null","374421","SARL_v6","SARL_v6hxeh1f8n","641e62a8191451d08e6c08f7","fixation","","","img/fixation.png","null","","","test","","","","","","","","","","","","","","","","","","","",""
"617.8000000119209","375044","SARL_v6","SARL_v6hxeh1f8n","641e62a8191451d08e6c08f7","rl","","","img/black_2bandit_b2.png","74","","0","test","","","93","","","-12","circle","square","","0","4","","74","-12","0","-12","0","circle","4","0"
"null","375798","SARL_v6","SARL_v6hxeh1f8n","641e62a8191451d08e6c08f7","feedback","","","<div class=""verylowPoints""> -12 </div>","null","","na","test","","","NaN","","","","","","","","4","","74","","","","","","4",""
"592.0999999940395","376395","SARL_v6","SARL_v6hxeh1f8n","641e62a8191451d08e6c08f7","freq","","","img/blue_2bandit_b2.png","70","","70","test","1","","94","","","","circle","square","90","1","5","0.9888888888888889","","","","","","","",""
"null","376622","SARL_v6","SARL_v6hxeh1f8n","641e62a8191451d08e6c08f7","freq_resp","","","img/blue_2bandit_b.png","70","img/blue_2bandit_b.png","70","test","","","","","","","","","","","5","","","","","","","","",""
"null","376778","SARL_v6","SARL_v6hxeh1f8n","641e62a8191451d08e6c08f7","fixation","","","img/fixation.png","null","","","test","","","","","","","","","","","","","","","","","","","",""
"467.10000002384186","377253","SARL_v6","SARL_v6hxeh1f8n","641e62a8191451d08e6c08f7","freq","","","img/blue_2bandit_b2.png","70","","70","test","1","","95","","","","circle","square","91","2","5","0.989010989010989","","","","","","","",""
"null","377601","SARL_v6","SARL_v6hxeh1f8n","641e62a8191451d08e6c08f7","freq_resp","","","img/blue_2bandit_b.png","70","img/blue_2bandit_b.png","70","test","","","","","","","","","","","5","","","","","","","","",""
"null","377761","SARL_v6","SARL_v6hxeh1f8n","641e62a8191451d08e6c08f7","fixation","","","img/fixation.png","null","","","test","","","","","","","","","","","","","","","","","","","",""
"484","378251","SARL_v6","SARL_v6hxeh1f8n","641e62a8191451d08e6c08f7","freq","","","img/blue_2bandit_b2.png","70","","70","test","1","","96","","","","circle","square","92","3","5","0.9891304347826086","","","","","","","",""
"null","378575","SARL_v6","SARL_v6hxeh1f8n","641e62a8191451d08e6c08f7","freq_resp","","","img/blue_2bandit_b.png","70","img/blue_2bandit_b.png","70","test","","","","","","","","","","","5","","","","","","","","",""
"null","378733","SARL_v6","SARL_v6hxeh1f8n","641e62a8191451d08e6c08f7","fixation","","","img/fixation.png","null","","","test","","","","","","","","","","","","","","","","","","","",""
"375.40000000596046","379111","SARL_v6","SARL_v6hxeh1f8n","641e62a8191451d08e6c08f7","freq","","","img/blue_2bandit_b2.png","70","","70","test","1","","97","","","","circle","square","93","4","5","0.989247311827957","","","","","","","",""
"null","379548","SARL_v6","SARL_v6hxeh1f8n","641e62a8191451d08e6c08f7","freq_resp","","","img/blue_2bandit_b.png","70","img/blue_2bandit_b.png","70","test","","","","","","","","","","","5","","","","","","","","",""
"null","379704","SARL_v6","SARL_v6hxeh1f8n","641e62a8191451d08e6c08f7","fixation","","","img/fixation.png","null","","","test","","","","","","","","","","","","","","","","","","","",""
"605.5","380312","SARL_v6","SARL_v6hxeh1f8n","641e62a8191451d08e6c08f7","infreq","","","img/orange_2bandit_b2.png","68","","68","test","1","","98","","","","circle","square","94","5","5","0.9893617021276596","","","","","","","",""
"null","380517","SARL_v6","SARL_v6hxeh1f8n","641e62a8191451d08e6c08f7","infreq_resp","","","img/orange_2bandit_b.png","68","img/orange_2bandit_b.png","68","test","","","","","","","","","","","5","","","","","","","","",""
"null","380685","SARL_v6","SARL_v6hxeh1f8n","641e62a8191451d08e6c08f7","fixation","","","img/fixation.png","null","","","test","","","","","","","","","","","","","","","","","","","",""
"481.7000000178814","381171","SARL_v6","SARL_v6hxeh1f8n","641e62a8191451d08e6c08f7","infreq","","","img/orange_2bandit_b2.png","68","","68","test","1","","99","","","","circle","square","95","6","5","0.9894736842105263","","","","","","","",""
"null","381508","SARL_v6","SARL_v6hxeh1f8n","641e62a8191451d08e6c08f7","infreq_resp","","","img/orange_2bandit_b.png","68","img/orange_2bandit_b.png","68","test","","","","","","","","","","","5","","","","","","","","",""
"null","381676","SARL_v6","SARL_v6hxeh1f8n","641e62a8191451d08e6c08f7","fixation","","","img/fixation.png","null","","","test","","","","","","","","","","","","","","","","","","","",""
"387","382068","SARL_v6","SARL_v6hxeh1f8n","641e62a8191451d08e6c08f7","freq","","","img/blue_2bandit_b2.png","70","","70","test","1","","100","","","","circle","square","96","7","5","0.9895833333333334","","","","","","","",""
"null","382497","SARL_v6","SARL_v6hxeh1f8n","641e62a8191451d08e6c08f7","freq_resp","","","img/blue_2bandit_b.png","70","img/blue_2bandit_b.png","70","test","","","","","","","","","","","5","","","","","","","","",""
"null","382653","SARL_v6","SARL_v6hxeh1f8n","641e62a8191451d08e6c08f7","fixation","","","img/fixation.png","null","","","test","","","","","","","","","","","","","","","","","","","",""
"385.2000000178814","383046","SARL_v6","SARL_v6hxeh1f8n","641e62a8191451d08e6c08f7","freq","","","img/blue_2bandit_b2.png","70","","70","test","1","","101","","","","circle","square","97","8","5","0.9896907216494846","","","","","","","",""
"null","383468","SARL_v6","SARL_v6hxeh1f8n","641e62a8191451d08e6c08f7","freq_resp","","","img/blue_2bandit_b.png","70","img/blue_2bandit_b.png","70","test","","","","","","","","","","","5","","","","","","","","",""
"null","383628","SARL_v6","SARL_v6hxeh1f8n","641e62a8191451d08e6c08f7","fixation","","","img/fixation.png","null","","","test","","","","","","","","","","","","","","","","","","","",""
"368.40000000596046","383999","SARL_v6","SARL_v6hxeh1f8n","641e62a8191451d08e6c08f7","freq","","","img/blue_2bandit_b2.png","70","","70","test","1","","102","","","","circle","square","98","9","5","0.9897959183673469","","","","","","","",""
"null","384446","SARL_v6","SARL_v6hxeh1f8n","641e62a8191451d08e6c08f7","freq_resp","","","img/blue_2bandit_b.png","70","img/blue_2bandit_b.png","70","test","","","","","","","","","","","5","","","","","","","","",""
"null","384615","SARL_v6","SARL_v6hxeh1f8n","641e62a8191451d08e6c08f7","fixation","","","img/fixation.png","null","","","test","","","","","","","","","","","","","","","","","","","",""
"285.80000001192093","384906","SARL_v6","SARL_v6hxeh1f8n","641e62a8191451d08e6c08f7","freq","","","img/blue_2bandit_b2.png","70","","70","test","1","","103","","","","circle","square","99","10","5","0.98989898989899","","","","","","","",""
"null","385436","SARL_v6","SARL_v6hxeh1f8n","641e62a8191451d08e6c08f7","freq_resp","","","img/blue_2bandit_b.png","70","img/blue_2bandit_b.png","70","test","","","","","","","","","","","5","","","","","","","","",""
"null","385591","SARL_v6","SARL_v6hxeh1f8n","641e62a8191451d08e6c08f7","fixation","","","img/fixation.png","null","","","test","","","","","","","","","","","","","","","","","","","",""
"232.7000000178814","385830","SARL_v6","SARL_v6hxeh1f8n","641e62a8191451d08e6c08f7","freq","","","img/blue_2bandit_b2.png","70","","70","test","1","","104","","","","circle","square","100","11","5","0.99","","","","","","","",""
"null","386410","SARL_v6","SARL_v6hxeh1f8n","641e62a8191451d08e6c08f7","freq_resp","","","img/blue_2bandit_b.png","70","img/blue_2bandit_b.png","70","test","","","","","","","","","","","5","","","","","","","","",""
"null","386566","SARL_v6","SARL_v6hxeh1f8n","641e62a8191451d08e6c08f7","fixation","","","img/fixation.png","null","","","test","","","","","","","","","","","","","","","","","","","",""
"294.7999999821186","386863","SARL_v6","SARL_v6hxeh1f8n","641e62a8191451d08e6c08f7","freq","","","img/blue_2bandit_b2.png","70","","70","test","1","","105","","","","circle","square","101","12","5","0.9900990099009901","","","","","","","",""
"null","387384","SARL_v6","SARL_v6hxeh1f8n","641e62a8191451d08e6c08f7","freq_resp","","","img/blue_2bandit_b.png","70","img/blue_2bandit_b.png","70","test","","","","","","","","","","","5","","","","","","","","",""
"null","387539","SARL_v6","SARL_v6hxeh1f8n","641e62a8191451d08e6c08f7","fixation","","","img/fixation.png","null","","","test","","","","","","","","","","","","","","","","","","","",""
"301.30000001192093","387846","SARL_v6","SARL_v6hxeh1f8n","641e62a8191451d08e6c08f7","freq","","","img/blue_2bandit_b2.png","70","","70","test","1","","106","","","","circle","square","102","13","5","0.9901960784313726","","","","","","","",""
"null","388354","SARL_v6","SARL_v6hxeh1f8n","641e62a8191451d08e6c08f7","freq_resp","","","img/blue_2bandit_b.png","70","img/blue_2bandit_b.png","70","test","","","","","","","","","","","5","","","","","","","","",""
"null","388509","SARL_v6","SARL_v6hxeh1f8n","641e62a8191451d08e6c08f7","fixation","","","img/fixation.png","null","","","test","","","","","","","","","","","","","","","","","","","",""
"336","388847","SARL_v6","SARL_v6hxeh1f8n","641e62a8191451d08e6c08f7","freq","","","img/blue_2bandit_b2.png","70","","70","test","1","","107","","","","circle","square","103","14","5","0.9902912621359223","","","","","","","",""
"null","389323","SARL_v6","SARL_v6hxeh1f8n","641e62a8191451d08e6c08f7","freq_resp","","","img/blue_2bandit_b.png","70","img/blue_2bandit_b.png","70","test","","","","","","","","","","","5","","","","","","","","",""
"null","389477","SARL_v6","SARL_v6hxeh1f8n","641e62a8191451d08e6c08f7","fixation","","","img/fixation.png","null","","","test","","","","","","","","","","","","","","","","","","","",""
"304.69999998807907","389783","SARL_v6","SARL_v6hxeh1f8n","641e62a8191451d08e6c08f7","freq","","","img/blue_2bandit_b2.png","70","","70","test","1","","108","","","","circle","square","104","15","5","0.9903846153846154","","","","","","","",""
"null","390299","SARL_v6","SARL_v6hxeh1f8n","641e62a8191451d08e6c08f7","freq_resp","","","img/blue_2bandit_b.png","70","img/blue_2bandit_b.png","70","test","","","","","","","","","","","5","","","","","","","","",""
"null","390452","SARL_v6","SARL_v6hxeh1f8n","641e62a8191451d08e6c08f7","fixation","","","img/fixation.png","null","","","test","","","","","","","","","","","","","","","","","","","",""
"201.59999999403954","390655","SARL_v6","SARL_v6hxeh1f8n","641e62a8191451d08e6c08f7","freq","","","img/blue_2bandit_b2.png","70","","70","test","1","","109","","","","circle","square","105","16","5","0.9904761904761905","","","","","","","",""
"null","391270","SARL_v6","SARL_v6hxeh1f8n","641e62a8191451d08e6c08f7","freq_resp","","","img/blue_2bandit_b.png","70","img/blue_2bandit_b.png","70","test","","","","","","","","","","","5","","","","","","","","",""
"null","391425","SARL_v6","SARL_v6hxeh1f8n","641e62a8191451d08e6c08f7","fixation","","","img/fixation.png","null","","","test","","","","","","","","","","","","","","","","","","","",""
"291.30000001192093","391719","SARL_v6","SARL_v6hxeh1f8n","641e62a8191451d08e6c08f7","freq","","","img/blue_2bandit_b2.png","70","","70","test","1","","110","","","","circle","square","106","17","5","0.9905660377358491","","","","","","","",""
"null","392235","SARL_v6","SARL_v6hxeh1f8n","641e62a8191451d08e6c08f7","freq_resp","","","img/blue_2bandit_b.png","70","img/blue_2bandit_b.png","70","test","","","","","","","","","","","5","","","","","","","","",""
"null","392392","SARL_v6","SARL_v6hxeh1f8n","641e62a8191451d08e6c08f7","fixation","","","img/fixation.png","null","","","test","","","","","","","","","","","","","","","","","","","",""
"293.80000001192093","392692","SARL_v6","SARL_v6hxeh1f8n","641e62a8191451d08e6c08f7","freq","","","img/blue_2bandit_b2.png","70","","70","test","1","","111","","","","circle","square","107","18","5","0.9906542056074766","","","","","","","",""
"null","393215","SARL_v6","SARL_v6hxeh1f8n","641e62a8191451d08e6c08f7","freq_resp","","","img/blue_2bandit_b.png","70","img/blue_2bandit_b.png","70","test","","","","","","","","","","","5","","","","","","","","",""
"null","393380","SARL_v6","SARL_v6hxeh1f8n","641e62a8191451d08e6c08f7","fixation","","","img/fixation.png","null","","","test","","","","","","","","","","","","","","","","","","","",""
"296.09999999403954","393683","SARL_v6","SARL_v6hxeh1f8n","641e62a8191451d08e6c08f7","freq","","","img/blue_2bandit_b2.png","70","","70","test","1","","112","","","","circle","square","108","19","5","0.9907407407407407","","","","","","","",""
"null","394204","SARL_v6","SARL_v6hxeh1f8n","641e62a8191451d08e6c08f7","freq_resp","","","img/blue_2bandit_b.png","70","img/blue_2bandit_b.png","70","test","","","","","","","","","","","5","","","","","","","","",""
"null","394358","SARL_v6","SARL_v6hxeh1f8n","641e62a8191451d08e6c08f7","fixation","","","img/fixation.png","null","","","test","","","","","","","","","","","","","","","","","","","",""
"320.2000000178814","394684","SARL_v6","SARL_v6hxeh1f8n","641e62a8191451d08e6c08f7","freq","","","img/blue_2bandit_b2.png","70","","70","test","1","","113","","","","circle","square","109","20","5","0.9908256880733946","","","","","","","",""
"null","395175","SARL_v6","SARL_v6hxeh1f8n","641e62a8191451d08e6c08f7","freq_resp","","","img/blue_2bandit_b.png","70","img/blue_2bandit_b.png","70","test","","","","","","","","","","","5","","","","","","","","",""
"null","395334","SARL_v6","SARL_v6hxeh1f8n","641e62a8191451d08e6c08f7","fixation","","","img/fixation.png","null","","","test","","","","","","","","","","","","","","","","","","","",""
"294.69999998807907","395631","SARL_v6","SARL_v6hxeh1f8n","641e62a8191451d08e6c08f7","freq","","","img/blue_2bandit_b2.png","70","","70","test","1","","114","","","","circle","square","110","21","5","0.990909090909091","","","","","","","",""
"null","396150","SARL_v6","SARL_v6hxeh1f8n","641e62a8191451d08e6c08f7","freq_resp","","","img/blue_2bandit_b.png","70","img/blue_2bandit_b.png","70","test","","","","","","","","","","","5","","","","","","","","",""
"null","396318","SARL_v6","SARL_v6hxeh1f8n","641e62a8191451d08e6c08f7","fixation","","","img/fixation.png","null","","","test","","","","","","","","","","","","","","","","","","","",""
"310.80000001192093","396631","SARL_v6","SARL_v6hxeh1f8n","641e62a8191451d08e6c08f7","freq","","","img/blue_2bandit_b2.png","70","","70","test","1","","115","","","","circle","square","111","22","5","0.990990990990991","","","","","","","",""
"null","397128","SARL_v6","SARL_v6hxeh1f8n","641e62a8191451d08e6c08f7","freq_resp","","","img/blue_2bandit_b.png","70","img/blue_2bandit_b.png","70","test","","","","","","","","","","","5","","","","","","","","",""
"null","397288","SARL_v6","SARL_v6hxeh1f8n","641e62a8191451d08e6c08f7","fixation","","","img/fixation.png","null","","","test","","","","","","","","","","","","","","","","","","","",""
"301.7000000178814","397595","SARL_v6","SARL_v6hxeh1f8n","641e62a8191451d08e6c08f7","freq","","","img/blue_2bandit_b2.png","70","","70","test","1","","116","","","","circle","square","112","23","5","0.9910714285714286","","","","","","","",""
"null","398102","SARL_v6","SARL_v6hxeh1f8n","641e62a8191451d08e6c08f7","freq_resp","","","img/blue_2bandit_b.png","70","img/blue_2bandit_b.png","70","test","","","","","","","","","","","5","","","","","","","","",""
"null","398261","SARL_v6","SARL_v6hxeh1f8n","641e62a8191451d08e6c08f7","fixation","","","img/fixation.png","null","","","test","","","","","","","","","","","","","","","","","","","",""
"441.10000002384186","398709","SARL_v6","SARL_v6hxeh1f8n","641e62a8191451d08e6c08f7","infreq","","","img/orange_2bandit_b2.png","68","","68","test","1","","117","","","","circle","square","113","24","5","0.9911504424778761","","","","","","","",""
"null","399078","SARL_v6","SARL_v6hxeh1f8n","641e62a8191451d08e6c08f7","infreq_resp","","","img/orange_2bandit_b.png","68","img/orange_2bandit_b.png","68","test","","","","","","","","","","","5","","","","","","","","",""
"null","399235","SARL_v6","SARL_v6hxeh1f8n","641e62a8191451d08e6c08f7","fixation","","","img/fixation.png","null","","","test","","","","","","","","","","","","","","","","","","","",""
"409.7999999821186","399647","SARL_v6","SARL_v6hxeh1f8n","641e62a8191451d08e6c08f7","freq","","","img/blue_2bandit_b2.png","70","","70","test","1","","118","","","","circle","square","114","25","5","0.9912280701754386","","","","","","","",""
"null","400049","SARL_v6","SARL_v6hxeh1f8n","641e62a8191451d08e6c08f7","freq_resp","","","img/blue_2bandit_b.png","70","img/blue_2bandit_b.png","70","test","","","","","","","","","","","5","","","","","","","","",""
"null","400208","SARL_v6","SARL_v6hxeh1f8n","641e62a8191451d08e6c08f7","fixation","","","img/fixation.png","null","","","test","","","","","","","","","","","","","","","","","","","",""
"597.1999999880791","400811","SARL_v6","SARL_v6hxeh1f8n","641e62a8191451d08e6c08f7","rl","","","img/black_2bandit_b2.png","75","","0","test","","","119","","","4","circle","square","","0","5","","75","-7","4","-7","4","square","5","0"
"null","401566","SARL_v6","SARL_v6hxeh1f8n","641e62a8191451d08e6c08f7","feedback","","","<div class=""veryhighPoints_sq""> 4 </div>","null","","na","test","","","NaN","","","","","","","","5","","75","","","","","","5",""
"638.5","402208","SARL_v6","SARL_v6hxeh1f8n","641e62a8191451d08e6c08f7","freq","","","img/blue_2bandit_b2.png","70","","70","test","1","","120","","","","circle","square","115","1","6","0.991304347826087","","","","","","","",""
"null","402375","SARL_v6","SARL_v6hxeh1f8n","641e62a8191451d08e6c08f7","freq_resp","","","img/blue_2bandit_b.png","70","img/blue_2bandit_b.png","70","test","","","","","","","","","","","6","","","","","","","","",""
"null","402546","SARL_v6","SARL_v6hxeh1f8n","641e62a8191451d08e6c08f7","fixation","","","img/fixation.png","null","","","test","","","","","","","","","","","","","","","","","","","",""
"316.59999999403954","402867","SARL_v6","SARL_v6hxeh1f8n","641e62a8191451d08e6c08f7","freq","","","img/blue_2bandit_b2.png","70","","70","test","1","","121","","","","circle","square","116","2","6","0.9913793103448276","","","","","","","",""
"null","403359","SARL_v6","SARL_v6hxeh1f8n","641e62a8191451d08e6c08f7","freq_resp","","","img/blue_2bandit_b.png","70","img/blue_2bandit_b.png","70","test","","","","","","","","","","","6","","","","","","","","",""
"null","403516","SARL_v6","SARL_v6hxeh1f8n","641e62a8191451d08e6c08f7","fixation","","","img/fixation.png","null","","","test","","","","","","","","","","","","","","","","","","","",""
"345.69999998807907","403868","SARL_v6","SARL_v6hxeh1f8n","641e62a8191451d08e6c08f7","freq","","","img/blue_2bandit_b2.png","70","","70","test","1","","122","","","","circle","square","117","3","6","0.9914529914529915","","","","","","","",""
"null","404339","SARL_v6","SARL_v6hxeh1f8n","641e62a8191451d08e6c08f7","freq_resp","","","img/blue_2bandit_b.png","70","img/blue_2bandit_b.png","70","test","","","","","","","","","","","6","","","","","","","","",""
"null","404498","SARL_v6","SARL_v6hxeh1f8n","641e62a8191451d08e6c08f7","fixation","","","img/fixation.png","null","","","test","","","","","","","","","","","","","","","","","","","",""
"370.2999999821186","404871","SARL_v6","SARL_v6hxeh1f8n","641e62a8191451d08e6c08f7","freq","","","img/blue_2bandit_b2.png","70","","70","test","1","","123","","","","circle","square","118","4","6","0.9915254237288136","","","","","","","",""
"null","405317","SARL_v6","SARL_v6hxeh1f8n","641e62a8191451d08e6c08f7","freq_resp","","","img/blue_2bandit_b.png","70","img/blue_2bandit_b.png","70","test","","","","","","","","","","","6","","","","","","","","",""
"null","405487","SARL_v6","SARL_v6hxeh1f8n","641e62a8191451d08e6c08f7","fixation","","","img/fixation.png","null","","","test","","","","","","","","","","","","","","","","","","","",""
"341.69999998807907","405832","SARL_v6","SARL_v6hxeh1f8n","641e62a8191451d08e6c08f7","freq","","","img/blue_2bandit_b2.png","70","","70","test","1","","124","","","","circle","square","119","5","6","0.9915966386554622","","","","","","","",""
"null","406304","SARL_v6","SARL_v6hxeh1f8n","641e62a8191451d08e6c08f7","freq_resp","","","img/blue_2bandit_b.png","70","img/blue_2bandit_b.png","70","test","","","","","","","","","","","6","","","","","","","","",""
"null","406462","SARL_v6","SARL_v6hxeh1f8n","641e62a8191451d08e6c08f7","fixation","","","img/fixation.png","null","","","test","","","","","","","","","","","","","","","","","","","",""
"375.19999998807907","406845","SARL_v6","SARL_v6hxeh1f8n","641e62a8191451d08e6c08f7","freq","","","img/blue_2bandit_b2.png","70","","70","test","1","","125","","","","circle","square","120","6","6","0.9916666666666667","","","","","","","",""
"null","407274","SARL_v6","SARL_v6hxeh1f8n","641e62a8191451d08e6c08f7","freq_resp","","","img/blue_2bandit_b.png","70","img/blue_2bandit_b.png","70","test","","","","","","","","","","","6","","","","","","","","",""
"null","407433","SARL_v6","SARL_v6hxeh1f8n","641e62a8191451d08e6c08f7","fixation","","","img/fixation.png","null","","","test","","","","","","","","","","","","","","","","","","","",""
"445.09999999403954","407884","SARL_v6","SARL_v6hxeh1f8n","641e62a8191451d08e6c08f7","freq","","","img/blue_2bandit_b2.png","70","","70","test","1","","126","","","","circle","square","121","7","6","0.9917355371900827","","","","","","","",""
"null","408250","SARL_v6","SARL_v6hxeh1f8n","641e62a8191451d08e6c08f7","freq_resp","","","img/blue_2bandit_b.png","70","img/blue_2bandit_b.png","70","test","","","","","","","","","","","6","","","","","","","","",""
"null","408405","SARL_v6","SARL_v6hxeh1f8n","641e62a8191451d08e6c08f7","fixation","","","img/fixation.png","null","","","test","","","","","","","","","","","","","","","","","","","",""
"319.5","408729","SARL_v6","SARL_v6hxeh1f8n","641e62a8191451d08e6c08f7","freq","","","img/blue_2bandit_b2.png","70","","70","test","1","","127","","","","circle","square","122","8","6","0.9918032786885246","","","","","","","",""
"null","409218","SARL_v6","SARL_v6hxeh1f8n","641e62a8191451d08e6c08f7","freq_resp","","","img/blue_2bandit_b.png","70","img/blue_2bandit_b.png","70","test","","","","","","","","","","","6","","","","","","","","",""
"null","409371","SARL_v6","SARL_v6hxeh1f8n","641e62a8191451d08e6c08f7","fixation","","","img/fixation.png","null","","","test","","","","","","","","","","","","","","","","","","","",""
"385.5","409760","SARL_v6","SARL_v6hxeh1f8n","641e62a8191451d08e6c08f7","infreq","","","img/orange_2bandit_b2.png","68","","68","test","1","","128","","","","circle","square","123","9","6","0.991869918699187","","","","","","","",""
"null","410177","SARL_v6","SARL_v6hxeh1f8n","641e62a8191451d08e6c08f7","infreq_resp","","","img/orange_2bandit_b.png","68","img/orange_2bandit_b.png","68","test","","","","","","","","","","","6","","","","","","","","",""
"null","410336","SARL_v6","SARL_v6hxeh1f8n","641e62a8191451d08e6c08f7","fixation","","","img/fixation.png","null","","","test","","","","","","","","","","","","","","","","","","","",""
"366.7000000178814","410707","SARL_v6","SARL_v6hxeh1f8n","641e62a8191451d08e6c08f7","freq","","","img/blue_2bandit_b2.png","70","","70","test","1","","129","","","","circle","square","124","10","6","0.9919354838709677","","","","","","","",""
"null","411149","SARL_v6","SARL_v6hxeh1f8n","641e62a8191451d08e6c08f7","freq_resp","","","img/blue_2bandit_b.png","70","img/blue_2bandit_b.png","70","test","","","","","","","","","","","6","","","","","","","","",""
"null","411309","SARL_v6","SARL_v6hxeh1f8n","641e62a8191451d08e6c08f7","fixation","","","img/fixation.png","null","","","test","","","","","","","","","","","","","","","","","","","",""
"449.09999999403954","411764","SARL_v6","SARL_v6hxeh1f8n","641e62a8191451d08e6c08f7","freq","","","img/blue_2bandit_b2.png","68","","70","test","0","","130","","","","circle","square","125","11","6","0.984","","","","","","","",""
"null","412125","SARL_v6","SARL_v6hxeh1f8n","641e62a8191451d08e6c08f7","freq_resp","","","img/blue_2bandit_b.png","68","img/blue_2bandit_b.png","70","test","","","","","","","","","","","6","","","","","","","","",""
"null","412279","SARL_v6","SARL_v6hxeh1f8n","641e62a8191451d08e6c08f7","fixation","","","img/fixation.png","null","","","test","","","","","","","","","","","","","","","","","","","",""
"462.7000000178814","412747","SARL_v6","SARL_v6hxeh1f8n","641e62a8191451d08e6c08f7","freq","","","img/blue_2bandit_b2.png","70","","70","test","1","","131","","","","circle","square","126","12","6","0.9841269841269841","","","","","","","",""
"null","413092","SARL_v6","SARL_v6hxeh1f8n","641e62a8191451d08e6c08f7","freq_resp","","","img/blue_2bandit_b.png","70","img/blue_2bandit_b.png","70","test","","","","","","","","","","","6","","","","","","","","",""
"null","413249","SARL_v6","SARL_v6hxeh1f8n","641e62a8191451d08e6c08f7","fixation","","","img/fixation.png","null","","","test","","","","","","","","","","","","","","","","","","","",""
"446.40000000596046","413706","SARL_v6","SARL_v6hxeh1f8n","641e62a8191451d08e6c08f7","infreq","","","img/orange_2bandit_b2.png","68","","68","test","1","","132","","","","circle","square","127","13","6","0.984251968503937","","","","","","","",""
