"rt","time_elapsed","expId","subject","prolificID","trialType","rlType","attType","stimulus","key_press","stim","corrresp","phase","corr","pracCounter","trialNum","rewardOne","rewardTwo","reward","bandOne","bandTwo","attentionNum","attentionRunNum","blockNum","performance","bandChosen","circleVal","squareVal","bandOneVal","bandTwoVal","shapeChosen","rlNum","badFlag"
"5641.200000047684","5650","SARL_v6","SARL_v6a6tu1t53","6154973c69da7c97996a19f6","","","","","","","","","","","","","","","","","","","","","","","","","","","",""
"","9204","SARL_v6","SARL_v6a6tu1t53","6154973c69da7c97996a19f6","fullscreen","fullscreen","fullscreen","","","","","","","","","","","","","","","","","","","","","","","","",""
"60390.5","69605","SARL_v6","SARL_v6a6tu1t53","6154973c69da7c97996a19f6","","","","","","","","","","","","","","","","","","","","","","","","","","","",""
"404.30000019073486","70016","SARL_v6","SARL_v6a6tu1t53","6154973c69da7c97996a19f6","freqPrac","","","img/blue_2bandit_a2.png","70","img/blue_2bandit_a2.png","70","prac","1","0","","","","","","","","","","","","","","","","","",""
"404.30000019073486","70426","SARL_v6","SARL_v6a6tu1t53","6154973c69da7c97996a19f6","freqPrac_resp","","","img/blue_2bandit_a.png","70","img/blue_2bandit_a.png","70","prac","","","","","","","","","","","","","","","","","","","",""
"null","70600","SARL_v6","SARL_v6a6tu1t53","6154973c69da7c97996a19f6","fixation","","","img/fixation.png","null","","","prac","","","","","","","","","","","","","","","","","","","",""
"467.59999990463257","71074","SARL_v6","SARL_v6a6tu1t53","6154973c69da7c97996a19f6","infreqPrac","","","img/orange_2bandit_a2.png","68","img/orange_2bandit_a2.png","68","prac","1","0","","","","","","","","","","","","","","","","","",""
"467.59999990463257","71420","SARL_v6","SARL_v6a6tu1t53","6154973c69da7c97996a19f6","infreqPrac_resp","","","img/orange_2bandit_a.png","68","img/orange_2bandit_a.png","68","prac","","","","","","","","","","","","","","","","","","","",""
"null","71596","SARL_v6","SARL_v6a6tu1t53","6154973c69da7c97996a19f6","fixation","","","img/fixation.png","null","","","prac","","","","","","","","","","","","","","","","","","","",""
"340.7000000476837","71946","SARL_v6","SARL_v6a6tu1t53","6154973c69da7c97996a19f6","freqPrac","","","img/blue_2bandit_a2.png","70","img/blue_2bandit_a2.png","70","prac","1","0","","","","","","","","","","","","","","","","","",""
"340.7000000476837","72419","SARL_v6","SARL_v6a6tu1t53","6154973c69da7c97996a19f6","freqPrac_resp","","","img/blue_2bandit_a.png","70","img/blue_2bandit_a.png","70","prac","","","","","","","","","","","","","","","","","","","",""
"null","72592","SARL_v6","SARL_v6a6tu1t53","6154973c69da7c97996a19f6","fixation","","","img/fixation.png","null","","","prac","","","","","","","","","","","","","","","","","","","",""
"354.7999999523163","72956","SARL_v6","SARL_v6a6tu1t53","6154973c69da7c97996a19f6","infreqPrac","","","img/orange_2bandit_a2.png","68","img/orange_2bandit_a2.png","68","prac","1","0","","","","","","","","","","","","","","","","","",""
"354.7999999523163","73426","SARL_v6","SARL_v6a6tu1t53","6154973c69da7c97996a19f6","infreqPrac_resp","","","img/orange_2bandit_a.png","68","img/orange_2bandit_a.png","68","prac","","","","","","","","","","","","","","","","","","","",""
"null","73598","SARL_v6","SARL_v6a6tu1t53","6154973c69da7c97996a19f6","fixation","","","img/fixation.png","null","","","prac","","","","","","","","","","","","","","","","","","","",""
"423.5","74031","SARL_v6","SARL_v6a6tu1t53","6154973c69da7c97996a19f6","infreqPrac","","","img/orange_2bandit_a2.png","68","img/orange_2bandit_a2.png","68","prac","1","0","","","","","","","","","","","","","","","","","",""
"423.5","74430","SARL_v6","SARL_v6a6tu1t53","6154973c69da7c97996a19f6","infreqPrac_resp","","","img/orange_2bandit_a.png","68","img/orange_2bandit_a.png","68","prac","","","","","","","","","","","","","","","","","","","",""
"null","74589","SARL_v6","SARL_v6a6tu1t53","6154973c69da7c97996a19f6","fixation","","","img/fixation.png","null","","","prac","","","","","","","","","","","","","","","","","","","",""
"405.89999985694885","75003","SARL_v6","SARL_v6a6tu1t53","6154973c69da7c97996a19f6","infreqPrac","","","img/orange_2bandit_a2.png","68","img/orange_2bandit_a2.png","68","prac","1","0","","","","","","","","","","","","","","","","","",""
"405.89999985694885","75407","SARL_v6","SARL_v6a6tu1t53","6154973c69da7c97996a19f6","infreqPrac_resp","","","img/orange_2bandit_a.png","68","img/orange_2bandit_a.png","68","prac","","","","","","","","","","","","","","","","","","","",""
"null","75570","SARL_v6","SARL_v6a6tu1t53","6154973c69da7c97996a19f6","fixation","","","img/fixation.png","null","","","prac","","","","","","","","","","","","","","","","","","","",""
"360.7999999523163","75940","SARL_v6","SARL_v6a6tu1t53","6154973c69da7c97996a19f6","freqPrac","","","img/blue_2bandit_a2.png","70","img/blue_2bandit_a2.png","70","prac","1","0","","","","","","","","","","","","","","","","","",""
"360.7999999523163","76387","SARL_v6","SARL_v6a6tu1t53","6154973c69da7c97996a19f6","freqPrac_resp","","","img/blue_2bandit_a.png","70","img/blue_2bandit_a.png","70","prac","","","","","","","","","","","","","","","","","","","",""
"null","76548","SARL_v6","SARL_v6a6tu1t53","6154973c69da7c97996a19f6","fixation","","","img/fixation.png","null","","","prac","","","","","","","","","","","","","","","","","","","",""
"311.39999985694885","76865","SARL_v6","SARL_v6a6tu1t53","6154973c69da7c97996a19f6","infreqPrac","","","img/orange_2bandit_a2.png","68","img/orange_2bandit_a2.png","68","prac","1","0","","","","","","","","","","","","","","","","","",""
"311.39999985694885","77374","SARL_v6","SARL_v6a6tu1t53","6154973c69da7c97996a19f6","infreqPrac_resp","","","img/orange_2bandit_a.png","68","img/orange_2bandit_a.png","68","prac","","","","","","","","","","","","","","","","","","","",""
"null","77535","SARL_v6","SARL_v6a6tu1t53","6154973c69da7c97996a19f6","fixation","","","img/fixation.png","null","","","prac","","","","","","","","","","","","","","","","","","","",""
"335.2999999523163","77875","SARL_v6","SARL_v6a6tu1t53","6154973c69da7c97996a19f6","freqPrac","","","img/blue_2bandit_a2.png","70","img/blue_2bandit_a2.png","70","prac","1","0","","","","","","","","","","","","","","","","","",""
"335.2999999523163","78360","SARL_v6","SARL_v6a6tu1t53","6154973c69da7c97996a19f6","freqPrac_resp","","","img/blue_2bandit_a.png","70","img/blue_2bandit_a.png","70","prac","","","","","","","","","","","","","","","","","","","",""
"null","78520","SARL_v6","SARL_v6a6tu1t53","6154973c69da7c97996a19f6","fixation","","","img/fixation.png","null","","","prac","","","","","","","","","","","","","","","","","","","",""
"366.10000014305115","78891","SARL_v6","SARL_v6a6tu1t53","6154973c69da7c97996a19f6","freqPrac","","","img/blue_2bandit_a2.png","70","img/blue_2bandit_a2.png","70","prac","1","0","","","","","","","","","","","","","","","","","",""
"366.10000014305115","79342","SARL_v6","SARL_v6a6tu1t53","6154973c69da7c97996a19f6","freqPrac_resp","","","img/blue_2bandit_a.png","70","img/blue_2bandit_a.png","70","prac","","","","","","","","","","","","","","","","","","","",""
"null","79511","SARL_v6","SARL_v6a6tu1t53","6154973c69da7c97996a19f6","fixation","","","img/fixation.png","null","","","prac","","","","","","","","","","","","","","","","","","","",""
"25508.5","105024","SARL_v6","SARL_v6a6tu1t53","6154973c69da7c97996a19f6","","","","","","","","prac","","","","","","","","","","","","","","","","","","","",""
"583.5999999046326","105612","SARL_v6","SARL_v6a6tu1t53","6154973c69da7c97996a19f6","rlPractice","","","img/black_2bandit_a2.png","74","img/black_2bandit_a2.png","","prac","","","0","","","","","","","","","","","","","","","","",""
"null","106381","SARL_v6","SARL_v6a6tu1t53","6154973c69da7c97996a19f6","feedback","","","<div class=""verylowPoints_sq""> -14 </div>","null","","na","prac","","","1","10","-14","10","","","","","","","","","","","","","",""
"null","106553","SARL_v6","SARL_v6a6tu1t53","6154973c69da7c97996a19f6","fixation","","","img/fixation.png","null","","","prac","","","","","","","","","","","","","","","","","","","",""
"480.7000000476837","107040","SARL_v6","SARL_v6a6tu1t53","6154973c69da7c97996a19f6","rlPractice","","","img/black_2bandit_a2.png","75","img/black_2bandit_a2.png","","prac","","","1","","","","","","","","","","","","","","","","",""
"null","107818","SARL_v6","SARL_v6a6tu1t53","6154973c69da7c97996a19f6","feedback","","","<div class=""veryhighPoints""> 5 </div>","null","","na","prac","","","2","5","-5","5","","","","","","","","","","","","","",""
"null","107987","SARL_v6","SARL_v6a6tu1t53","6154973c69da7c97996a19f6","fixation","","","img/fixation.png","null","","","prac","","","","","","","","","","","","","","","","","","","",""
"371.7000000476837","108367","SARL_v6","SARL_v6a6tu1t53","6154973c69da7c97996a19f6","rlPractice","","","img/black_2bandit_a2.png","75","img/black_2bandit_a2.png","","prac","","","2","","","","","","","","","","","","","","","","",""
"null","109140","SARL_v6","SARL_v6a6tu1t53","6154973c69da7c97996a19f6","feedback","","","<div class=""veryhighPoints""> 30 </div>","null","","na","prac","","","3","30","2","30","","","","","","","","","","","","","",""
"null","109311","SARL_v6","SARL_v6a6tu1t53","6154973c69da7c97996a19f6","fixation","","","img/fixation.png","null","","","prac","","","","","","","","","","","","","","","","","","","",""
"324.5","109643","SARL_v6","SARL_v6a6tu1t53","6154973c69da7c97996a19f6","rlPractice","","","img/black_2bandit_a2.png","75","img/black_2bandit_a2.png","","prac","","","3","","","","","","","","","","","","","","","","",""
"null","110409","SARL_v6","SARL_v6a6tu1t53","6154973c69da7c97996a19f6","feedback","","","<div class=""verylowPoints""> -2 </div>","null","","na","prac","","","4","-2","20","-2","","","","","","","","","","","","","",""
"null","110570","SARL_v6","SARL_v6a6tu1t53","6154973c69da7c97996a19f6","fixation","","","img/fixation.png","null","","","prac","","","","","","","","","","","","","","","","","","","",""
"11879.199999809265","122456","SARL_v6","SARL_v6a6tu1t53","6154973c69da7c97996a19f6","","","","","","","","prac","","","","","","","","","","","","","","","","","","","",""
"572.9000000953674","123039","SARL_v6","SARL_v6a6tu1t53","6154973c69da7c97996a19f6","mixAttFreqPrac","","","img/blue_2bandit_a2.png","70","img/blue_2bandit_a2.png","70","prac","","","1","","","","","","","","","","","","","","","","",""
"572.9000000953674","123282","SARL_v6","SARL_v6a6tu1t53","6154973c69da7c97996a19f6","freqPrac_resp","","","img/blue_2bandit_a.png","70","img/blue_2bandit_a.png","70","prac","","","1","","","","","","","","","","","","","","","","",""
"null","123454","SARL_v6","SARL_v6a6tu1t53","6154973c69da7c97996a19f6","fixation","","","img/fixation.png","null","","","prac","","","","","","","","","","","","","","","","","","","",""
"358.10000014305115","123820","SARL_v6","SARL_v6a6tu1t53","6154973c69da7c97996a19f6","mixAttInfreqPrac","","","img/orange_2bandit_a2.png","68","img/orange_2bandit_a2.png","68","prac","","","2","","","","","","","","","","","","","","","","",""
"358.10000014305115","124271","SARL_v6","SARL_v6a6tu1t53","6154973c69da7c97996a19f6","infreqPrac_resp","","","img/orange_2bandit_a.png","68","img/blue_2bandit_a.png","68","prac","","","2","","","","","","","","","","","","","","","","",""
"null","124430","SARL_v6","SARL_v6a6tu1t53","6154973c69da7c97996a19f6","fixation","","","img/fixation.png","null","","","prac","","","","","","","","","","","","","","","","","","","",""
"380.7000000476837","124816","SARL_v6","SARL_v6a6tu1t53","6154973c69da7c97996a19f6","mixAttInfreqPrac","","","img/orange_2bandit_a2.png","68","img/orange_2bandit_a2.png","68","prac","","","3","","","","","","","","","","","","","","","","",""
"380.7000000476837","125253","SARL_v6","SARL_v6a6tu1t53","6154973c69da7c97996a19f6","infreqPrac_resp","","","img/orange_2bandit_a.png","68","img/blue_2bandit_a.png","68","prac","","","3","","","","","","","","","","","","","","","","",""
"null","125423","SARL_v6","SARL_v6a6tu1t53","6154973c69da7c97996a19f6","fixation","","","img/fixation.png","null","","","prac","","","","","","","","","","","","","","","","","","","",""
"null","126241","SARL_v6","SARL_v6a6tu1t53","6154973c69da7c97996a19f6","mixAttInfreqPrac","","","img/orange_2bandit_a2.png","null","img/orange_2bandit_a2.png","68","prac","","","4","","","","","","","","","","","","","","","","",""
"10.399999856948853","126401","SARL_v6","SARL_v6a6tu1t53","6154973c69da7c97996a19f6","fixation","","","img/fixation.png","68","","","prac","","","","","","","","","","","","","","","","","","","",""
"512.4000000953674","126922","SARL_v6","SARL_v6a6tu1t53","6154973c69da7c97996a19f6","mixAttFreqPrac","","","img/blue_2bandit_a2.png","70","img/blue_2bandit_a2.png","70","prac","","","5","","","","","","","","","","","","","","","","",""
"512.4000000953674","127222","SARL_v6","SARL_v6a6tu1t53","6154973c69da7c97996a19f6","freqPrac_resp","","","img/blue_2bandit_a.png","70","img/blue_2bandit_a.png","70","prac","","","5","","","","","","","","","","","","","","","","",""
"null","127394","SARL_v6","SARL_v6a6tu1t53","6154973c69da7c97996a19f6","fixation","","","img/fixation.png","null","","","prac","","","","","","","","","","","","","","","","","","","",""
"597.7000000476837","128001","SARL_v6","SARL_v6a6tu1t53","6154973c69da7c97996a19f6","mixRLPractice","","","img/black_2bandit_a2.png","75","img/black_2bandit_a2.png","","prac","","","5","","","","","","","","","","","","","","","","",""
"null","128770","SARL_v6","SARL_v6a6tu1t53","6154973c69da7c97996a19f6","feedback","","","<div class=""verylowPoints""> -14 </div>","null","","na","prac","","","6","-14","10","-14","","","","","","","","","","","","","",""
"null","128939","SARL_v6","SARL_v6a6tu1t53","6154973c69da7c97996a19f6","fixation","","","img/fixation.png","null","","","prac","","","","","","","","","","","","","","","","","","","",""
"674.6000001430511","129622","SARL_v6","SARL_v6a6tu1t53","6154973c69da7c97996a19f6","mixAttFreqPrac","","","img/blue_2bandit_a2.png","70","img/blue_2bandit_a2.png","70","prac","","","7","","","","","","","","","","","","","","","","",""
"674.6000001430511","129761","SARL_v6","SARL_v6a6tu1t53","6154973c69da7c97996a19f6","freqPrac_resp","","","img/blue_2bandit_a.png","70","img/blue_2bandit_a.png","70","prac","","","7","","","","","","","","","","","","","","","","",""
"null","129921","SARL_v6","SARL_v6a6tu1t53","6154973c69da7c97996a19f6","fixation","","","img/fixation.png","null","","","prac","","","","","","","","","","","","","","","","","","","",""
"398.60000014305115","130328","SARL_v6","SARL_v6a6tu1t53","6154973c69da7c97996a19f6","mixAttInfreqPrac","","","img/orange_2bandit_a2.png","68","img/orange_2bandit_a2.png","68","prac","","","8","","","","","","","","","","","","","","","","",""
"398.60000014305115","130737","SARL_v6","SARL_v6a6tu1t53","6154973c69da7c97996a19f6","infreqPrac_resp","","","img/orange_2bandit_a.png","68","img/blue_2bandit_a.png","68","prac","","","8","","","","","","","","","","","","","","","","",""
"null","130897","SARL_v6","SARL_v6a6tu1t53","6154973c69da7c97996a19f6","fixation","","","img/fixation.png","null","","","prac","","","","","","","","","","","","","","","","","","","",""
"418.5","131324","SARL_v6","SARL_v6a6tu1t53","6154973c69da7c97996a19f6","mixAttFreqPrac","","","img/blue_2bandit_a2.png","70","img/blue_2bandit_a2.png","70","prac","","","9","","","","","","","","","","","","","","","","",""
"418.5","131724","SARL_v6","SARL_v6a6tu1t53","6154973c69da7c97996a19f6","freqPrac_resp","","","img/blue_2bandit_a.png","70","img/blue_2bandit_a.png","70","prac","","","9","","","","","","","","","","","","","","","","",""
"null","131883","SARL_v6","SARL_v6a6tu1t53","6154973c69da7c97996a19f6","fixation","","","img/fixation.png","null","","","prac","","","","","","","","","","","","","","","","","","","",""
"431","132323","SARL_v6","SARL_v6a6tu1t53","6154973c69da7c97996a19f6","mixAttFreqPrac","","","img/blue_2bandit_a2.png","70","img/blue_2bandit_a2.png","70","prac","","","10","","","","","","","","","","","","","","","","",""
"431","132701","SARL_v6","SARL_v6a6tu1t53","6154973c69da7c97996a19f6","freqPrac_resp","","","img/blue_2bandit_a.png","70","img/blue_2bandit_a.png","70","prac","","","10","","","","","","","","","","","","","","","","",""
"null","132857","SARL_v6","SARL_v6a6tu1t53","6154973c69da7c97996a19f6","fixation","","","img/fixation.png","null","","","prac","","","","","","","","","","","","","","","","","","","",""
"490.40000009536743","133355","SARL_v6","SARL_v6a6tu1t53","6154973c69da7c97996a19f6","mixAttInfreqPrac","","","img/orange_2bandit_a2.png","68","img/orange_2bandit_a2.png","68","prac","","","11","","","","","","","","","","","","","","","","",""
"490.40000009536743","133684","SARL_v6","SARL_v6a6tu1t53","6154973c69da7c97996a19f6","infreqPrac_resp","","","img/orange_2bandit_a.png","68","img/blue_2bandit_a.png","68","prac","","","11","","","","","","","","","","","","","","","","",""
"null","133847","SARL_v6","SARL_v6a6tu1t53","6154973c69da7c97996a19f6","fixation","","","img/fixation.png","null","","","prac","","","","","","","","","","","","","","","","","","","",""
"600.3000001907349","134456","SARL_v6","SARL_v6a6tu1t53","6154973c69da7c97996a19f6","mixRLPractice","","","img/black_2bandit_a2.png","74","img/black_2bandit_a2.png","","prac","","","11","","","","","","","","","","","","","","","","",""
"null","135218","SARL_v6","SARL_v6a6tu1t53","6154973c69da7c97996a19f6","feedback","","","<div class=""verylowPoints_sq""> -5 </div>","null","","na","prac","","","12","5","-5","5","","","","","","","","","","","","","",""
"null","135389","SARL_v6","SARL_v6a6tu1t53","6154973c69da7c97996a19f6","fixation","","","img/fixation.png","null","","","prac","","","","","","","","","","","","","","","","","","","",""
"14033","149426","SARL_v6","SARL_v6a6tu1t53","6154973c69da7c97996a19f6","","","","","","","","prac","","","","","","","","","","","","","","","","","","","",""
"713.4000000953674","150144","SARL_v6","SARL_v6a6tu1t53","6154973c69da7c97996a19f6","freq","","","img/blue_2bandit_a2.png","70","","70","test","1","","1","","","","square","circle","1","1","1","1","","","","","","","",""
"null","150241","SARL_v6","SARL_v6a6tu1t53","6154973c69da7c97996a19f6","freq_resp","","","img/blue_2bandit_a.png","70","img/blue_2bandit_a.png","70","test","","","","","","","","","","","1","","","","","","","","",""
"null","150398","SARL_v6","SARL_v6a6tu1t53","6154973c69da7c97996a19f6","fixation","","","img/fixation.png","null","","","test","","","","","","","","","","","","","","","","","","","",""
"385.80000019073486","150791","SARL_v6","SARL_v6a6tu1t53","6154973c69da7c97996a19f6","freq","","","img/blue_2bandit_a2.png","70","","70","test","1","","2","","","","square","circle","2","2","1","1","","","","","","","",""
"null","151224","SARL_v6","SARL_v6a6tu1t53","6154973c69da7c97996a19f6","freq_resp","","","img/blue_2bandit_a.png","70","img/blue_2bandit_a.png","70","test","","","","","","","","","","","1","","","","","","","","",""
"null","151380","SARL_v6","SARL_v6a6tu1t53","6154973c69da7c97996a19f6","fixation","","","img/fixation.png","null","","","test","","","","","","","","","","","","","","","","","","","",""
"317.10000014305115","151701","SARL_v6","SARL_v6a6tu1t53","6154973c69da7c97996a19f6","freq","","","img/blue_2bandit_a2.png","70","","70","test","1","","3","","","","square","circle","3","3","1","1","","","","","","","",""
"null","152201","SARL_v6","SARL_v6a6tu1t53","6154973c69da7c97996a19f6","freq_resp","","","img/blue_2bandit_a.png","70","img/blue_2bandit_a.png","70","test","","","","","","","","","","","1","","","","","","","","",""
"null","152360","SARL_v6","SARL_v6a6tu1t53","6154973c69da7c97996a19f6","fixation","","","img/fixation.png","null","","","test","","","","","","","","","","","","","","","","","","","",""
"321.7000000476837","152686","SARL_v6","SARL_v6a6tu1t53","6154973c69da7c97996a19f6","freq","","","img/blue_2bandit_a2.png","70","","70","test","1","","4","","","","square","circle","4","4","1","1","","","","","","","",""
"null","153179","SARL_v6","SARL_v6a6tu1t53","6154973c69da7c97996a19f6","freq_resp","","","img/blue_2bandit_a.png","70","img/blue_2bandit_a.png","70","test","","","","","","","","","","","1","","","","","","","","",""
"null","153349","SARL_v6","SARL_v6a6tu1t53","6154973c69da7c97996a19f6","fixation","","","img/fixation.png","null","","","test","","","","","","","","","","","","","","","","","","","",""
"315.5","153668","SARL_v6","SARL_v6a6tu1t53","6154973c69da7c97996a19f6","freq","","","img/blue_2bandit_a2.png","70","","70","test","1","","5","","","","square","circle","5","5","1","1","","","","","","","",""
"null","154159","SARL_v6","SARL_v6a6tu1t53","6154973c69da7c97996a19f6","freq_resp","","","img/blue_2bandit_a.png","70","img/blue_2bandit_a.png","70","test","","","","","","","","","","","1","","","","","","","","",""
"null","154317","SARL_v6","SARL_v6a6tu1t53","6154973c69da7c97996a19f6","fixation","","","img/fixation.png","null","","","test","","","","","","","","","","","","","","","","","","","",""
"321.7000000476837","154642","SARL_v6","SARL_v6a6tu1t53","6154973c69da7c97996a19f6","freq","","","img/blue_2bandit_a2.png","70","","70","test","1","","6","","","","square","circle","6","6","1","1","","","","","","","",""
"null","155137","SARL_v6","SARL_v6a6tu1t53","6154973c69da7c97996a19f6","freq_resp","","","img/blue_2bandit_a.png","70","img/blue_2bandit_a.png","70","test","","","","","","","","","","","1","","","","","","","","",""
"null","155296","SARL_v6","SARL_v6a6tu1t53","6154973c69da7c97996a19f6","fixation","","","img/fixation.png","null","","","test","","","","","","","","","","","","","","","","","","","",""
"389.39999985694885","155690","SARL_v6","SARL_v6a6tu1t53","6154973c69da7c97996a19f6","freq","","","img/blue_2bandit_a2.png","70","","70","test","1","","7","","","","square","circle","7","7","1","1","","","","","","","",""
"null","156106","SARL_v6","SARL_v6a6tu1t53","6154973c69da7c97996a19f6","freq_resp","","","img/blue_2bandit_a.png","70","img/blue_2bandit_a.png","70","test","","","","","","","","","","","1","","","","","","","","",""
"null","156262","SARL_v6","SARL_v6a6tu1t53","6154973c69da7c97996a19f6","fixation","","","img/fixation.png","null","","","test","","","","","","","","","","","","","","","","","","","",""
"317.60000014305115","156584","SARL_v6","SARL_v6a6tu1t53","6154973c69da7c97996a19f6","freq","","","img/blue_2bandit_a2.png","70","","70","test","1","","8","","","","square","circle","8","8","1","1","","","","","","","",""
"null","157084","SARL_v6","SARL_v6a6tu1t53","6154973c69da7c97996a19f6","freq_resp","","","img/blue_2bandit_a.png","70","img/blue_2bandit_a.png","70","test","","","","","","","","","","","1","","","","","","","","",""
"null","157244","SARL_v6","SARL_v6a6tu1t53","6154973c69da7c97996a19f6","fixation","","","img/fixation.png","null","","","test","","","","","","","","","","","","","","","","","","","",""
"329.5","157577","SARL_v6","SARL_v6a6tu1t53","6154973c69da7c97996a19f6","freq","","","img/blue_2bandit_a2.png","70","","70","test","1","","9","","","","square","circle","9","9","1","1","","","","","","","",""
"null","158062","SARL_v6","SARL_v6a6tu1t53","6154973c69da7c97996a19f6","freq_resp","","","img/blue_2bandit_a.png","70","img/blue_2bandit_a.png","70","test","","","","","","","","","","","1","","","","","","","","",""
"null","158220","SARL_v6","SARL_v6a6tu1t53","6154973c69da7c97996a19f6","fixation","","","img/fixation.png","null","","","test","","","","","","","","","","","","","","","","","","","",""
"280.2000000476837","158508","SARL_v6","SARL_v6a6tu1t53","6154973c69da7c97996a19f6","freq","","","img/blue_2bandit_a2.png","70","","70","test","1","","10","","","","square","circle","10","10","1","1","","","","","","","",""
"null","159034","SARL_v6","SARL_v6a6tu1t53","6154973c69da7c97996a19f6","freq_resp","","","img/blue_2bandit_a.png","70","img/blue_2bandit_a.png","70","test","","","","","","","","","","","1","","","","","","","","",""
"null","159194","SARL_v6","SARL_v6a6tu1t53","6154973c69da7c97996a19f6","fixation","","","img/fixation.png","null","","","test","","","","","","","","","","","","","","","","","","","",""
"284.7000000476837","159487","SARL_v6","SARL_v6a6tu1t53","6154973c69da7c97996a19f6","freq","","","img/blue_2bandit_a2.png","70","","70","test","1","","11","","","","square","circle","11","11","1","1","","","","","","","",""
"null","160014","SARL_v6","SARL_v6a6tu1t53","6154973c69da7c97996a19f6","freq_resp","","","img/blue_2bandit_a.png","70","img/blue_2bandit_a.png","70","test","","","","","","","","","","","1","","","","","","","","",""
"null","160174","SARL_v6","SARL_v6a6tu1t53","6154973c69da7c97996a19f6","fixation","","","img/fixation.png","null","","","test","","","","","","","","","","","","","","","","","","","",""
"271.90000009536743","160449","SARL_v6","SARL_v6a6tu1t53","6154973c69da7c97996a19f6","freq","","","img/blue_2bandit_a2.png","70","","70","test","1","","12","","","","square","circle","12","12","1","1","","","","","","","",""
"null","160984","SARL_v6","SARL_v6a6tu1t53","6154973c69da7c97996a19f6","freq_resp","","","img/blue_2bandit_a.png","70","img/blue_2bandit_a.png","70","test","","","","","","","","","","","1","","","","","","","","",""
"null","161142","SARL_v6","SARL_v6a6tu1t53","6154973c69da7c97996a19f6","fixation","","","img/fixation.png","null","","","test","","","","","","","","","","","","","","","","","","","",""
"318.89999985694885","161465","SARL_v6","SARL_v6a6tu1t53","6154973c69da7c97996a19f6","freq","","","img/blue_2bandit_a2.png","70","","70","test","1","","13","","","","square","circle","13","13","1","1","","","","","","","",""
"null","161953","SARL_v6","SARL_v6a6tu1t53","6154973c69da7c97996a19f6","freq_resp","","","img/blue_2bandit_a.png","70","img/blue_2bandit_a.png","70","test","","","","","","","","","","","1","","","","","","","","",""
"null","162108","SARL_v6","SARL_v6a6tu1t53","6154973c69da7c97996a19f6","fixation","","","img/fixation.png","null","","","test","","","","","","","","","","","","","","","","","","","",""
"315.5","162428","SARL_v6","SARL_v6a6tu1t53","6154973c69da7c97996a19f6","freq","","","img/blue_2bandit_a2.png","70","","70","test","1","","14","","","","square","circle","14","14","1","1","","","","","","","",""
"null","162921","SARL_v6","SARL_v6a6tu1t53","6154973c69da7c97996a19f6","freq_resp","","","img/blue_2bandit_a.png","70","img/blue_2bandit_a.png","70","test","","","","","","","","","","","1","","","","","","","","",""
"null","163091","SARL_v6","SARL_v6a6tu1t53","6154973c69da7c97996a19f6","fixation","","","img/fixation.png","null","","","test","","","","","","","","","","","","","","","","","","","",""
"305.40000009536743","163402","SARL_v6","SARL_v6a6tu1t53","6154973c69da7c97996a19f6","freq","","","img/blue_2bandit_a2.png","70","","70","test","1","","15","","","","square","circle","15","15","1","1","","","","","","","",""
"null","163923","SARL_v6","SARL_v6a6tu1t53","6154973c69da7c97996a19f6","freq_resp","","","img/blue_2bandit_a.png","70","img/blue_2bandit_a.png","70","test","","","","","","","","","","","1","","","","","","","","",""
"null","164088","SARL_v6","SARL_v6a6tu1t53","6154973c69da7c97996a19f6","fixation","","","img/fixation.png","null","","","test","","","","","","","","","","","","","","","","","","","",""
"286.60000014305115","164380","SARL_v6","SARL_v6a6tu1t53","6154973c69da7c97996a19f6","freq","","","img/blue_2bandit_a2.png","70","","70","test","1","","16","","","","square","circle","16","16","1","1","","","","","","","",""
"null","164907","SARL_v6","SARL_v6a6tu1t53","6154973c69da7c97996a19f6","freq_resp","","","img/blue_2bandit_a.png","70","img/blue_2bandit_a.png","70","test","","","","","","","","","","","1","","","","","","","","",""
"null","165067","SARL_v6","SARL_v6a6tu1t53","6154973c69da7c97996a19f6","fixation","","","img/fixation.png","null","","","test","","","","","","","","","","","","","","","","","","","",""
"451.7000000476837","165523","SARL_v6","SARL_v6a6tu1t53","6154973c69da7c97996a19f6","infreq","","","img/orange_2bandit_a2.png","68","","68","test","1","","17","","","","square","circle","17","17","1","1","","","","","","","",""
"null","165887","SARL_v6","SARL_v6a6tu1t53","6154973c69da7c97996a19f6","infreq_resp","","","img/orange_2bandit_a.png","68","img/orange_2bandit_a.png","68","test","","","","","","","","","","","1","","","","","","","","",""
"null","166047","SARL_v6","SARL_v6a6tu1t53","6154973c69da7c97996a19f6","fixation","","","img/fixation.png","null","","","test","","","","","","","","","","","","","","","","","","","",""
"360.60000014305115","166412","SARL_v6","SARL_v6a6tu1t53","6154973c69da7c97996a19f6","infreq","","","img/orange_2bandit_a2.png","68","","68","test","1","","18","","","","square","circle","18","18","1","1","","","","","","","",""
"null","166867","SARL_v6","SARL_v6a6tu1t53","6154973c69da7c97996a19f6","infreq_resp","","","img/orange_2bandit_a.png","68","img/orange_2bandit_a.png","68","test","","","","","","","","","","","1","","","","","","","","",""
"null","167025","SARL_v6","SARL_v6a6tu1t53","6154973c69da7c97996a19f6","fixation","","","img/fixation.png","null","","","test","","","","","","","","","","","","","","","","","","","",""
"382.09999990463257","167411","SARL_v6","SARL_v6a6tu1t53","6154973c69da7c97996a19f6","freq","","","img/blue_2bandit_a2.png","70","","70","test","1","","19","","","","square","circle","19","19","1","1","","","","","","","",""
"null","167845","SARL_v6","SARL_v6a6tu1t53","6154973c69da7c97996a19f6","freq_resp","","","img/blue_2bandit_a.png","70","img/blue_2bandit_a.png","70","test","","","","","","","","","","","1","","","","","","","","",""
"null","168005","SARL_v6","SARL_v6a6tu1t53","6154973c69da7c97996a19f6","fixation","","","img/fixation.png","null","","","test","","","","","","","","","","","","","","","","","","","",""
"316.09999990463257","168326","SARL_v6","SARL_v6a6tu1t53","6154973c69da7c97996a19f6","freq","","","img/blue_2bandit_a2.png","70","","70","test","1","","20","","","","square","circle","20","20","1","1","","","","","","","",""
"null","168816","SARL_v6","SARL_v6a6tu1t53","6154973c69da7c97996a19f6","freq_resp","","","img/blue_2bandit_a.png","70","img/blue_2bandit_a.png","70","test","","","","","","","","","","","1","","","","","","","","",""
"null","168974","SARL_v6","SARL_v6a6tu1t53","6154973c69da7c97996a19f6","fixation","","","img/fixation.png","null","","","test","","","","","","","","","","","","","","","","","","","",""
"298.7000000476837","169278","SARL_v6","SARL_v6a6tu1t53","6154973c69da7c97996a19f6","freq","","","img/blue_2bandit_a2.png","70","","70","test","1","","21","","","","square","circle","21","21","1","1","","","","","","","",""
"null","169789","SARL_v6","SARL_v6a6tu1t53","6154973c69da7c97996a19f6","freq_resp","","","img/blue_2bandit_a.png","70","img/blue_2bandit_a.png","70","test","","","","","","","","","","","1","","","","","","","","",""
"null","169948","SARL_v6","SARL_v6a6tu1t53","6154973c69da7c97996a19f6","fixation","","","img/fixation.png","null","","","test","","","","","","","","","","","","","","","","","","","",""
"600.7999999523163","170554","SARL_v6","SARL_v6a6tu1t53","6154973c69da7c97996a19f6","rl","","","img/black_2bandit_a2.png","75","","0","test","","","22","","","-3","square","circle","","0","1","","75","-3","-3","-3","-3","circle","1","0"
"null","171321","SARL_v6","SARL_v6a6tu1t53","6154973c69da7c97996a19f6","feedback","","","<div class=""verylowPoints""> -3 </div>","null","","na","test","","","NaN","","","","","","","","1","","75","","","","","","1",""
"605","171932","SARL_v6","SARL_v6a6tu1t53","6154973c69da7c97996a19f6","freq","","","img/blue_2bandit_a2.png","70","","70","test","1","","23","","","","square","circle","22","1","2","1","","","","","","","",""
"null","172138","SARL_v6","SARL_v6a6tu1t53","6154973c69da7c97996a19f6","freq_resp","","","img/blue_2bandit_a.png","70","img/blue_2bandit_a.png","70","test","","","","","","","","","","","2","","","","","","","","",""
"null","172296","SARL_v6","SARL_v6a6tu1t53","6154973c69da7c97996a19f6","fixation","","","img/fixation.png","null","","","test","","","","","","","","","","","","","","","","","","","",""
"411.7999999523163","172712","SARL_v6","SARL_v6a6tu1t53","6154973c69da7c97996a19f6","infreq","","","img/orange_2bandit_a2.png","68","","68","test","1","","24","","","","square","circle","23","2","2","1","","","","","","","",""
"null","173106","SARL_v6","SARL_v6a6tu1t53","6154973c69da7c97996a19f6","infreq_resp","","","img/orange_2bandit_a.png","68","img/orange_2bandit_a.png","68","test","","","","","","","","","","","2","","","","","","","","",""
"null","173262","SARL_v6","SARL_v6a6tu1t53","6154973c69da7c97996a19f6","fixation","","","img/fixation.png","null","","","test","","","","","","","","","","","","","","","","","","","",""
"796.7999999523163","174063","SARL_v6","SARL_v6a6tu1t53","6154973c69da7c97996a19f6","freq","","","img/blue_2bandit_a2.png","70","","70","test","1","","25","","","","square","circle","24","3","2","1","","","","","","","",""
"null","174070","SARL_v6","SARL_v6a6tu1t53","6154973c69da7c97996a19f6","freq_resp","","","img/blue_2bandit_a.png","70","img/blue_2bandit_a.png","70","test","","","","","","","","","","","2","","","","","","","","",""
"null","174226","SARL_v6","SARL_v6a6tu1t53","6154973c69da7c97996a19f6","fixation","","","img/fixation.png","null","","","test","","","","","","","","","","","","","","","","","","","",""
"444.40000009536743","174675","SARL_v6","SARL_v6a6tu1t53","6154973c69da7c97996a19f6","infreq","","","img/orange_2bandit_a2.png","68","","68","test","1","","26","","","","square","circle","25","4","2","1","","","","","","","",""
"null","175035","SARL_v6","SARL_v6a6tu1t53","6154973c69da7c97996a19f6","infreq_resp","","","img/orange_2bandit_a.png","68","img/orange_2bandit_a.png","68","test","","","","","","","","","","","2","","","","","","","","",""
"null","175193","SARL_v6","SARL_v6a6tu1t53","6154973c69da7c97996a19f6","fixation","","","img/fixation.png","null","","","test","","","","","","","","","","","","","","","","","","","",""
"375.90000009536743","175573","SARL_v6","SARL_v6a6tu1t53","6154973c69da7c97996a19f6","freq","","","img/blue_2bandit_a2.png","70","","70","test","1","","27","","","","square","circle","26","5","2","1","","","","","","","",""
"null","176006","SARL_v6","SARL_v6a6tu1t53","6154973c69da7c97996a19f6","freq_resp","","","img/blue_2bandit_a.png","70","img/blue_2bandit_a.png","70","test","","","","","","","","","","","2","","","","","","","","",""
"null","176180","SARL_v6","SARL_v6a6tu1t53","6154973c69da7c97996a19f6","fixation","","","img/fixation.png","null","","","test","","","","","","","","","","","","","","","","","","","",""
"323.89999985694885","176511","SARL_v6","SARL_v6a6tu1t53","6154973c69da7c97996a19f6","freq","","","img/blue_2bandit_a2.png","70","","70","test","1","","28","","","","square","circle","27","6","2","1","","","","","","","",""
"null","176997","SARL_v6","SARL_v6a6tu1t53","6154973c69da7c97996a19f6","freq_resp","","","img/blue_2bandit_a.png","70","img/blue_2bandit_a.png","70","test","","","","","","","","","","","2","","","","","","","","",""
"null","177158","SARL_v6","SARL_v6a6tu1t53","6154973c69da7c97996a19f6","fixation","","","img/fixation.png","null","","","test","","","","","","","","","","","","","","","","","","","",""
"303.59999990463257","177470","SARL_v6","SARL_v6a6tu1t53","6154973c69da7c97996a19f6","freq","","","img/blue_2bandit_a2.png","70","","70","test","1","","29","","","","square","circle","28","7","2","1","","","","","","","",""
"null","177976","SARL_v6","SARL_v6a6tu1t53","6154973c69da7c97996a19f6","freq_resp","","","img/blue_2bandit_a.png","70","img/blue_2bandit_a.png","70","test","","","","","","","","","","","2","","","","","","","","",""
"null","178136","SARL_v6","SARL_v6a6tu1t53","6154973c69da7c97996a19f6","fixation","","","img/fixation.png","null","","","test","","","","","","","","","","","","","","","","","","","",""
"305.2000000476837","178446","SARL_v6","SARL_v6a6tu1t53","6154973c69da7c97996a19f6","freq","","","img/blue_2bandit_a2.png","70","","70","test","1","","30","","","","square","circle","29","8","2","1","","","","","","","",""
"null","178961","SARL_v6","SARL_v6a6tu1t53","6154973c69da7c97996a19f6","freq_resp","","","img/blue_2bandit_a.png","70","img/blue_2bandit_a.png","70","test","","","","","","","","","","","2","","","","","","","","",""
"null","179122","SARL_v6","SARL_v6a6tu1t53","6154973c69da7c97996a19f6","fixation","","","img/fixation.png","null","","","test","","","","","","","","","","","","","","","","","","","",""
"453.89999985694885","179585","SARL_v6","SARL_v6a6tu1t53","6154973c69da7c97996a19f6","freq","","","img/blue_2bandit_a2.png","70","","70","test","1","","31","","","","square","circle","30","9","2","1","","","","","","","",""
"null","179950","SARL_v6","SARL_v6a6tu1t53","6154973c69da7c97996a19f6","freq_resp","","","img/blue_2bandit_a.png","70","img/blue_2bandit_a.png","70","test","","","","","","","","","","","2","","","","","","","","",""
"null","180106","SARL_v6","SARL_v6a6tu1t53","6154973c69da7c97996a19f6","fixation","","","img/fixation.png","null","","","test","","","","","","","","","","","","","","","","","","","",""
"447.40000009536743","180562","SARL_v6","SARL_v6a6tu1t53","6154973c69da7c97996a19f6","freq","","","img/blue_2bandit_a2.png","70","","70","test","1","","32","","","","square","circle","31","10","2","1","","","","","","","",""
"null","180933","SARL_v6","SARL_v6a6tu1t53","6154973c69da7c97996a19f6","freq_resp","","","img/blue_2bandit_a.png","70","img/blue_2bandit_a.png","70","test","","","","","","","","","","","2","","","","","","","","",""
"null","181105","SARL_v6","SARL_v6a6tu1t53","6154973c69da7c97996a19f6","fixation","","","img/fixation.png","null","","","test","","","","","","","","","","","","","","","","","","","",""
"324.89999985694885","181439","SARL_v6","SARL_v6a6tu1t53","6154973c69da7c97996a19f6","freq","","","img/blue_2bandit_a2.png","70","","70","test","1","","33","","","","square","circle","32","11","2","1","","","","","","","",""
"null","181924","SARL_v6","SARL_v6a6tu1t53","6154973c69da7c97996a19f6","freq_resp","","","img/blue_2bandit_a.png","70","img/blue_2bandit_a.png","70","test","","","","","","","","","","","2","","","","","","","","",""
"null","182083","SARL_v6","SARL_v6a6tu1t53","6154973c69da7c97996a19f6","fixation","","","img/fixation.png","null","","","test","","","","","","","","","","","","","","","","","","","",""
"320","182413","SARL_v6","SARL_v6a6tu1t53","6154973c69da7c97996a19f6","freq","","","img/blue_2bandit_a2.png","70","","70","test","1","","34","","","","square","circle","33","12","2","1","","","","","","","",""
"null","182905","SARL_v6","SARL_v6a6tu1t53","6154973c69da7c97996a19f6","freq_resp","","","img/blue_2bandit_a.png","70","img/blue_2bandit_a.png","70","test","","","","","","","","","","","2","","","","","","","","",""
"null","183065","SARL_v6","SARL_v6a6tu1t53","6154973c69da7c97996a19f6","fixation","","","img/fixation.png","null","","","test","","","","","","","","","","","","","","","","","","","",""
"316.40000009536743","183390","SARL_v6","SARL_v6a6tu1t53","6154973c69da7c97996a19f6","freq","","","img/blue_2bandit_a2.png","70","","70","test","1","","35","","","","square","circle","34","13","2","1","","","","","","","",""
"null","183885","SARL_v6","SARL_v6a6tu1t53","6154973c69da7c97996a19f6","freq_resp","","","img/blue_2bandit_a.png","70","img/blue_2bandit_a.png","70","test","","","","","","","","","","","2","","","","","","","","",""
"null","184045","SARL_v6","SARL_v6a6tu1t53","6154973c69da7c97996a19f6","fixation","","","img/fixation.png","null","","","test","","","","","","","","","","","","","","","","","","","",""
"329","184380","SARL_v6","SARL_v6a6tu1t53","6154973c69da7c97996a19f6","freq","","","img/blue_2bandit_a2.png","70","","70","test","1","","36","","","","square","circle","35","14","2","1","","","","","","","",""
"null","184861","SARL_v6","SARL_v6a6tu1t53","6154973c69da7c97996a19f6","freq_resp","","","img/blue_2bandit_a.png","70","img/blue_2bandit_a.png","70","test","","","","","","","","","","","2","","","","","","","","",""
"null","185018","SARL_v6","SARL_v6a6tu1t53","6154973c69da7c97996a19f6","fixation","","","img/fixation.png","null","","","test","","","","","","","","","","","","","","","","","","","",""
"282.2999999523163","185305","SARL_v6","SARL_v6a6tu1t53","6154973c69da7c97996a19f6","freq","","","img/blue_2bandit_a2.png","70","","70","test","1","","37","","","","square","circle","36","15","2","1","","","","","","","",""
"null","185826","SARL_v6","SARL_v6a6tu1t53","6154973c69da7c97996a19f6","freq_resp","","","img/blue_2bandit_a.png","70","img/blue_2bandit_a.png","70","test","","","","","","","","","","","2","","","","","","","","",""
"null","185985","SARL_v6","SARL_v6a6tu1t53","6154973c69da7c97996a19f6","fixation","","","img/fixation.png","null","","","test","","","","","","","","","","","","","","","","","","","",""
"385.2999999523163","186374","SARL_v6","SARL_v6a6tu1t53","6154973c69da7c97996a19f6","freq","","","img/blue_2bandit_a2.png","70","","70","test","1","","38","","","","square","circle","37","16","2","1","","","","","","","",""
"null","186794","SARL_v6","SARL_v6a6tu1t53","6154973c69da7c97996a19f6","freq_resp","","","img/blue_2bandit_a.png","70","img/blue_2bandit_a.png","70","test","","","","","","","","","","","2","","","","","","","","",""
"null","186949","SARL_v6","SARL_v6a6tu1t53","6154973c69da7c97996a19f6","fixation","","","img/fixation.png","null","","","test","","","","","","","","","","","","","","","","","","","",""
"330.7000000476837","187288","SARL_v6","SARL_v6a6tu1t53","6154973c69da7c97996a19f6","freq","","","img/blue_2bandit_a2.png","70","","70","test","1","","39","","","","square","circle","38","17","2","1","","","","","","","",""
"null","187808","SARL_v6","SARL_v6a6tu1t53","6154973c69da7c97996a19f6","freq_resp","","","img/blue_2bandit_a.png","70","img/blue_2bandit_a.png","70","test","","","","","","","","","","","2","","","","","","","","",""
"null","187978","SARL_v6","SARL_v6a6tu1t53","6154973c69da7c97996a19f6","fixation","","","img/fixation.png","null","","","test","","","","","","","","","","","","","","","","","","","",""
"332.5","188317","SARL_v6","SARL_v6a6tu1t53","6154973c69da7c97996a19f6","freq","","","img/blue_2bandit_a2.png","70","","70","test","1","","40","","","","square","circle","39","18","2","1","","","","","","","",""
"null","188828","SARL_v6","SARL_v6a6tu1t53","6154973c69da7c97996a19f6","freq_resp","","","img/blue_2bandit_a.png","70","img/blue_2bandit_a.png","70","test","","","","","","","","","","","2","","","","","","","","",""
"null","188998","SARL_v6","SARL_v6a6tu1t53","6154973c69da7c97996a19f6","fixation","","","img/fixation.png","null","","","test","","","","","","","","","","","","","","","","","","","",""
"296.7999999523163","189301","SARL_v6","SARL_v6a6tu1t53","6154973c69da7c97996a19f6","freq","","","img/blue_2bandit_a2.png","70","","70","test","1","","41","","","","square","circle","40","19","2","1","","","","","","","",""
"null","189823","SARL_v6","SARL_v6a6tu1t53","6154973c69da7c97996a19f6","freq_resp","","","img/blue_2bandit_a.png","70","img/blue_2bandit_a.png","70","test","","","","","","","","","","","2","","","","","","","","",""
"null","189990","SARL_v6","SARL_v6a6tu1t53","6154973c69da7c97996a19f6","fixation","","","img/fixation.png","null","","","test","","","","","","","","","","","","","","","","","","","",""
"552","190550","SARL_v6","SARL_v6a6tu1t53","6154973c69da7c97996a19f6","rl","","","img/black_2bandit_a2.png","74","","0","test","","","42","","","-5","square","circle","","0","2","","74","-8","-5","-5","-8","square","2","0"
"null","191325","SARL_v6","SARL_v6a6tu1t53","6154973c69da7c97996a19f6","feedback","","","<div class=""verylowPoints_sq""> -5 </div>","null","","na","test","","","NaN","","","","","","","","2","","74","","","","","","2",""
"554.5","191889","SARL_v6","SARL_v6a6tu1t53","6154973c69da7c97996a19f6","freq","","","img/blue_2bandit_a2.png","70","","70","test","1","","43","","","","square","circle","41","1","3","1","","","","","","","",""
"null","192147","SARL_v6","SARL_v6a6tu1t53","6154973c69da7c97996a19f6","freq_resp","","","img/blue_2bandit_a.png","70","img/blue_2bandit_a.png","70","test","","","","","","","","","","","3","","","","","","","","",""
"null","192311","SARL_v6","SARL_v6a6tu1t53","6154973c69da7c97996a19f6","fixation","","","img/fixation.png","null","","","test","","","","","","","","","","","","","","","","","","","",""
"493.89999985694885","192814","SARL_v6","SARL_v6a6tu1t53","6154973c69da7c97996a19f6","freq","","","img/blue_2bandit_a2.png","70","","70","test","1","","44","","","","square","circle","42","2","3","1","","","","","","","",""
"null","193134","SARL_v6","SARL_v6a6tu1t53","6154973c69da7c97996a19f6","freq_resp","","","img/blue_2bandit_a.png","70","img/blue_2bandit_a.png","70","test","","","","","","","","","","","3","","","","","","","","",""
"null","193307","SARL_v6","SARL_v6a6tu1t53","6154973c69da7c97996a19f6","fixation","","","img/fixation.png","null","","","test","","","","","","","","","","","","","","","","","","","",""
"583.9000000953674","193901","SARL_v6","SARL_v6a6tu1t53","6154973c69da7c97996a19f6","freq","","","img/blue_2bandit_a2.png","70","","70","test","1","","45","","","","square","circle","43","3","3","1","","","","","","","",""
"null","194130","SARL_v6","SARL_v6a6tu1t53","6154973c69da7c97996a19f6","freq_resp","","","img/blue_2bandit_a.png","70","img/blue_2bandit_a.png","70","test","","","","","","","","","","","3","","","","","","","","",""
"null","194290","SARL_v6","SARL_v6a6tu1t53","6154973c69da7c97996a19f6","fixation","","","img/fixation.png","null","","","test","","","","","","","","","","","","","","","","","","","",""
"523.7000000476837","194820","SARL_v6","SARL_v6a6tu1t53","6154973c69da7c97996a19f6","freq","","","img/blue_2bandit_a2.png","70","","70","test","1","","46","","","","square","circle","44","4","3","1","","","","","","","",""
"null","195110","SARL_v6","SARL_v6a6tu1t53","6154973c69da7c97996a19f6","freq_resp","","","img/blue_2bandit_a.png","70","img/blue_2bandit_a.png","70","test","","","","","","","","","","","3","","","","","","","","",""
"null","195266","SARL_v6","SARL_v6a6tu1t53","6154973c69da7c97996a19f6","fixation","","","img/fixation.png","null","","","test","","","","","","","","","","","","","","","","","","","",""
"528.1999998092651","195802","SARL_v6","SARL_v6a6tu1t53","6154973c69da7c97996a19f6","freq","","","img/blue_2bandit_a2.png","70","","70","test","1","","47","","","","square","circle","45","5","3","1","","","","","","","",""
"null","196081","SARL_v6","SARL_v6a6tu1t53","6154973c69da7c97996a19f6","freq_resp","","","img/blue_2bandit_a.png","70","img/blue_2bandit_a.png","70","test","","","","","","","","","","","3","","","","","","","","",""
"null","196238","SARL_v6","SARL_v6a6tu1t53","6154973c69da7c97996a19f6","fixation","","","img/fixation.png","null","","","test","","","","","","","","","","","","","","","","","","","",""
"514.5","196761","SARL_v6","SARL_v6a6tu1t53","6154973c69da7c97996a19f6","freq","","","img/blue_2bandit_a2.png","70","","70","test","1","","48","","","","square","circle","46","6","3","1","","","","","","","",""
"null","197056","SARL_v6","SARL_v6a6tu1t53","6154973c69da7c97996a19f6","freq_resp","","","img/blue_2bandit_a.png","70","img/blue_2bandit_a.png","70","test","","","","","","","","","","","3","","","","","","","","",""
"null","197218","SARL_v6","SARL_v6a6tu1t53","6154973c69da7c97996a19f6","fixation","","","img/fixation.png","null","","","test","","","","","","","","","","","","","","","","","","","",""
"478","197701","SARL_v6","SARL_v6a6tu1t53","6154973c69da7c97996a19f6","freq","","","img/blue_2bandit_a2.png","70","","70","test","1","","49","","","","square","circle","47","7","3","1","","","","","","","",""
"null","198035","SARL_v6","SARL_v6a6tu1t53","6154973c69da7c97996a19f6","freq_resp","","","img/blue_2bandit_a.png","70","img/blue_2bandit_a.png","70","test","","","","","","","","","","","3","","","","","","","","",""
"null","198205","SARL_v6","SARL_v6a6tu1t53","6154973c69da7c97996a19f6","fixation","","","img/fixation.png","null","","","test","","","","","","","","","","","","","","","","","","","",""
"487.2000000476837","198699","SARL_v6","SARL_v6a6tu1t53","6154973c69da7c97996a19f6","freq","","","img/blue_2bandit_a2.png","70","","70","test","1","","50","","","","square","circle","48","8","3","1","","","","","","","",""
"null","199031","SARL_v6","SARL_v6a6tu1t53","6154973c69da7c97996a19f6","freq_resp","","","img/blue_2bandit_a.png","70","img/blue_2bandit_a.png","70","test","","","","","","","","","","","3","","","","","","","","",""
"null","199197","SARL_v6","SARL_v6a6tu1t53","6154973c69da7c97996a19f6","fixation","","","img/fixation.png","null","","","test","","","","","","","","","","","","","","","","","","","",""
"457","199664","SARL_v6","SARL_v6a6tu1t53","6154973c69da7c97996a19f6","freq","","","img/blue_2bandit_a2.png","70","","70","test","1","","51","","","","square","circle","49","9","3","1","","","","","","","",""
"null","200025","SARL_v6","SARL_v6a6tu1t53","6154973c69da7c97996a19f6","freq_resp","","","img/blue_2bandit_a.png","70","img/blue_2bandit_a.png","70","test","","","","","","","","","","","3","","","","","","","","",""
"null","200194","SARL_v6","SARL_v6a6tu1t53","6154973c69da7c97996a19f6","fixation","","","img/fixation.png","null","","","test","","","","","","","","","","","","","","","","","","","",""
"384.5","200584","SARL_v6","SARL_v6a6tu1t53","6154973c69da7c97996a19f6","freq","","","img/blue_2bandit_a2.png","70","","70","test","1","","52","","","","square","circle","50","10","3","1","","","","","","","",""
"null","201018","SARL_v6","SARL_v6a6tu1t53","6154973c69da7c97996a19f6","freq_resp","","","img/blue_2bandit_a.png","70","img/blue_2bandit_a.png","70","test","","","","","","","","","","","3","","","","","","","","",""
"null","201190","SARL_v6","SARL_v6a6tu1t53","6154973c69da7c97996a19f6","fixation","","","img/fixation.png","null","","","test","","","","","","","","","","","","","","","","","","","",""
"317.5","201515","SARL_v6","SARL_v6a6tu1t53","6154973c69da7c97996a19f6","freq","","","img/blue_2bandit_a2.png","70","","70","test","1","","53","","","","square","circle","51","11","3","1","","","","","","","",""
"null","202015","SARL_v6","SARL_v6a6tu1t53","6154973c69da7c97996a19f6","freq_resp","","","img/blue_2bandit_a.png","70","img/blue_2bandit_a.png","70","test","","","","","","","","","","","3","","","","","","","","",""
"null","202175","SARL_v6","SARL_v6a6tu1t53","6154973c69da7c97996a19f6","fixation","","","img/fixation.png","null","","","test","","","","","","","","","","","","","","","","","","","",""
"336.59999990463257","202521","SARL_v6","SARL_v6a6tu1t53","6154973c69da7c97996a19f6","freq","","","img/blue_2bandit_a2.png","70","","70","test","1","","54","","","","square","circle","52","12","3","1","","","","","","","",""
"null","202998","SARL_v6","SARL_v6a6tu1t53","6154973c69da7c97996a19f6","freq_resp","","","img/blue_2bandit_a.png","70","img/blue_2bandit_a.png","70","test","","","","","","","","","","","3","","","","","","","","",""
"null","203172","SARL_v6","SARL_v6a6tu1t53","6154973c69da7c97996a19f6","fixation","","","img/fixation.png","null","","","test","","","","","","","","","","","","","","","","","","","",""
"321.7000000476837","203503","SARL_v6","SARL_v6a6tu1t53","6154973c69da7c97996a19f6","freq","","","img/blue_2bandit_a2.png","70","","70","test","1","","55","","","","square","circle","53","13","3","1","","","","","","","",""
"null","203998","SARL_v6","SARL_v6a6tu1t53","6154973c69da7c97996a19f6","freq_resp","","","img/blue_2bandit_a.png","70","img/blue_2bandit_a.png","70","test","","","","","","","","","","","3","","","","","","","","",""
"null","204170","SARL_v6","SARL_v6a6tu1t53","6154973c69da7c97996a19f6","fixation","","","img/fixation.png","null","","","test","","","","","","","","","","","","","","","","","","","",""
"307.5","204485","SARL_v6","SARL_v6a6tu1t53","6154973c69da7c97996a19f6","freq","","","img/blue_2bandit_a2.png","70","","70","test","1","","56","","","","square","circle","54","14","3","1","","","","","","","",""
"null","204995","SARL_v6","SARL_v6a6tu1t53","6154973c69da7c97996a19f6","freq_resp","","","img/blue_2bandit_a.png","70","img/blue_2bandit_a.png","70","test","","","","","","","","","","","3","","","","","","","","",""
"null","205153","SARL_v6","SARL_v6a6tu1t53","6154973c69da7c97996a19f6","fixation","","","img/fixation.png","null","","","test","","","","","","","","","","","","","","","","","","","",""
"329.30000019073486","205492","SARL_v6","SARL_v6a6tu1t53","6154973c69da7c97996a19f6","freq","","","img/blue_2bandit_a2.png","70","","70","test","1","","57","","","","square","circle","55","15","3","1","","","","","","","",""
"null","205975","SARL_v6","SARL_v6a6tu1t53","6154973c69da7c97996a19f6","freq_resp","","","img/blue_2bandit_a.png","70","img/blue_2bandit_a.png","70","test","","","","","","","","","","","3","","","","","","","","",""
"null","206135","SARL_v6","SARL_v6a6tu1t53","6154973c69da7c97996a19f6","fixation","","","img/fixation.png","null","","","test","","","","","","","","","","","","","","","","","","","",""
"310.59999990463257","206454","SARL_v6","SARL_v6a6tu1t53","6154973c69da7c97996a19f6","freq","","","img/blue_2bandit_a2.png","70","","70","test","1","","58","","","","square","circle","56","16","3","1","","","","","","","",""
"null","206961","SARL_v6","SARL_v6a6tu1t53","6154973c69da7c97996a19f6","freq_resp","","","img/blue_2bandit_a.png","70","img/blue_2bandit_a.png","70","test","","","","","","","","","","","3","","","","","","","","",""
"null","207124","SARL_v6","SARL_v6a6tu1t53","6154973c69da7c97996a19f6","fixation","","","img/fixation.png","null","","","test","","","","","","","","","","","","","","","","","","","",""
"343.40000009536743","207478","SARL_v6","SARL_v6a6tu1t53","6154973c69da7c97996a19f6","freq","","","img/blue_2bandit_a2.png","70","","70","test","1","","59","","","","square","circle","57","17","3","1","","","","","","","",""
"null","207944","SARL_v6","SARL_v6a6tu1t53","6154973c69da7c97996a19f6","freq_resp","","","img/blue_2bandit_a.png","70","img/blue_2bandit_a.png","70","test","","","","","","","","","","","3","","","","","","","","",""
"null","208117","SARL_v6","SARL_v6a6tu1t53","6154973c69da7c97996a19f6","fixation","","","img/fixation.png","null","","","test","","","","","","","","","","","","","","","","","","","",""
"398.2000000476837","208524","SARL_v6","SARL_v6a6tu1t53","6154973c69da7c97996a19f6","infreq","","","img/orange_2bandit_a2.png","68","","68","test","1","","60","","","","square","circle","58","18","3","1","","","","","","","",""
"null","208951","SARL_v6","SARL_v6a6tu1t53","6154973c69da7c97996a19f6","infreq_resp","","","img/orange_2bandit_a.png","68","img/orange_2bandit_a.png","68","test","","","","","","","","","","","3","","","","","","","","",""
"null","209122","SARL_v6","SARL_v6a6tu1t53","6154973c69da7c97996a19f6","fixation","","","img/fixation.png","null","","","test","","","","","","","","","","","","","","","","","","","",""
"347.09999990463257","209474","SARL_v6","SARL_v6a6tu1t53","6154973c69da7c97996a19f6","freq","","","img/blue_2bandit_a2.png","70","","70","test","1","","61","","","","square","circle","59","19","3","1","","","","","","","",""
"null","209949","SARL_v6","SARL_v6a6tu1t53","6154973c69da7c97996a19f6","freq_resp","","","img/blue_2bandit_a.png","70","img/blue_2bandit_a.png","70","test","","","","","","","","","","","3","","","","","","","","",""
"null","210122","SARL_v6","SARL_v6a6tu1t53","6154973c69da7c97996a19f6","fixation","","","img/fixation.png","null","","","test","","","","","","","","","","","","","","","","","","","",""
"300.5","210431","SARL_v6","SARL_v6a6tu1t53","6154973c69da7c97996a19f6","infreq","","","img/orange_2bandit_a2.png","68","","68","test","1","","62","","","","square","circle","60","20","3","1","","","","","","","",""
"null","210947","SARL_v6","SARL_v6a6tu1t53","6154973c69da7c97996a19f6","infreq_resp","","","img/orange_2bandit_a.png","68","img/orange_2bandit_a.png","68","test","","","","","","","","","","","3","","","","","","","","",""
"null","211121","SARL_v6","SARL_v6a6tu1t53","6154973c69da7c97996a19f6","fixation","","","img/fixation.png","null","","","test","","","","","","","","","","","","","","","","","","","",""
"343.2999999523163","211475","SARL_v6","SARL_v6a6tu1t53","6154973c69da7c97996a19f6","freq","","","img/blue_2bandit_a2.png","70","","70","test","1","","63","","","","square","circle","61","21","3","1","","","","","","","",""
"null","211945","SARL_v6","SARL_v6a6tu1t53","6154973c69da7c97996a19f6","freq_resp","","","img/blue_2bandit_a.png","70","img/blue_2bandit_a.png","70","test","","","","","","","","","","","3","","","","","","","","",""
"null","212115","SARL_v6","SARL_v6a6tu1t53","6154973c69da7c97996a19f6","fixation","","","img/fixation.png","null","","","test","","","","","","","","","","","","","","","","","","","",""
"319.7999999523163","212443","SARL_v6","SARL_v6a6tu1t53","6154973c69da7c97996a19f6","freq","","","img/blue_2bandit_a2.png","70","","70","test","1","","64","","","","square","circle","62","22","3","1","","","","","","","",""
"null","212939","SARL_v6","SARL_v6a6tu1t53","6154973c69da7c97996a19f6","freq_resp","","","img/blue_2bandit_a.png","70","img/blue_2bandit_a.png","70","test","","","","","","","","","","","3","","","","","","","","",""
"null","213102","SARL_v6","SARL_v6a6tu1t53","6154973c69da7c97996a19f6","fixation","","","img/fixation.png","null","","","test","","","","","","","","","","","","","","","","","","","",""
"303","213415","SARL_v6","SARL_v6a6tu1t53","6154973c69da7c97996a19f6","freq","","","img/blue_2bandit_a2.png","70","","70","test","1","","65","","","","square","circle","63","23","3","1","","","","","","","",""
"null","213954","SARL_v6","SARL_v6a6tu1t53","6154973c69da7c97996a19f6","freq_resp","","","img/blue_2bandit_a.png","70","img/blue_2bandit_a.png","70","test","","","","","","","","","","","3","","","","","","","","",""
"null","214113","SARL_v6","SARL_v6a6tu1t53","6154973c69da7c97996a19f6","fixation","","","img/fixation.png","null","","","test","","","","","","","","","","","","","","","","","","","",""
"389.7000000476837","214512","SARL_v6","SARL_v6a6tu1t53","6154973c69da7c97996a19f6","freq","","","img/blue_2bandit_a2.png","70","","70","test","1","","66","","","","square","circle","64","24","3","1","","","","","","","",""
"null","214934","SARL_v6","SARL_v6a6tu1t53","6154973c69da7c97996a19f6","freq_resp","","","img/blue_2bandit_a.png","70","img/blue_2bandit_a.png","70","test","","","","","","","","","","","3","","","","","","","","",""
"null","215107","SARL_v6","SARL_v6a6tu1t53","6154973c69da7c97996a19f6","fixation","","","img/fixation.png","null","","","test","","","","","","","","","","","","","","","","","","","",""
"771.4000000953674","215888","SARL_v6","SARL_v6a6tu1t53","6154973c69da7c97996a19f6","rl","","","img/black_2bandit_a2.png","74","","0","test","","","67","","","-4","square","circle","","0","3","","74","-8","-4","-4","-8","square","3","0"
"null","216656","SARL_v6","SARL_v6a6tu1t53","6154973c69da7c97996a19f6","feedback","","","<div class=""verylowPoints_sq""> -4 </div>","null","","na","test","","","NaN","","","","","","","","3","","74","","","","","","3",""
"659.2000000476837","217324","SARL_v6","SARL_v6a6tu1t53","6154973c69da7c97996a19f6","freq","","","img/blue_2bandit_a2.png","70","","70","test","1","","68","","","","square","circle","65","1","4","1","","","","","","","",""
"null","217477","SARL_v6","SARL_v6a6tu1t53","6154973c69da7c97996a19f6","freq_resp","","","img/blue_2bandit_a.png","70","img/blue_2bandit_a.png","70","test","","","","","","","","","","","4","","","","","","","","",""
"null","217637","SARL_v6","SARL_v6a6tu1t53","6154973c69da7c97996a19f6","fixation","","","img/fixation.png","null","","","test","","","","","","","","","","","","","","","","","","","",""
"582.1000001430511","218228","SARL_v6","SARL_v6a6tu1t53","6154973c69da7c97996a19f6","freq","","","img/blue_2bandit_a2.png","70","","70","test","1","","69","","","","square","circle","66","2","4","1","","","","","","","",""
"null","218457","SARL_v6","SARL_v6a6tu1t53","6154973c69da7c97996a19f6","freq_resp","","","img/blue_2bandit_a.png","70","img/blue_2bandit_a.png","70","test","","","","","","","","","","","4","","","","","","","","",""
"null","218617","SARL_v6","SARL_v6a6tu1t53","6154973c69da7c97996a19f6","fixation","","","img/fixation.png","null","","","test","","","","","","","","","","","","","","","","","","","",""
"553.6000001430511","219180","SARL_v6","SARL_v6a6tu1t53","6154973c69da7c97996a19f6","freq","","","img/blue_2bandit_a2.png","70","","70","test","1","","70","","","","square","circle","67","3","4","1","","","","","","","",""
"null","219449","SARL_v6","SARL_v6a6tu1t53","6154973c69da7c97996a19f6","freq_resp","","","img/blue_2bandit_a.png","70","img/blue_2bandit_a.png","70","test","","","","","","","","","","","4","","","","","","","","",""
"null","219609","SARL_v6","SARL_v6a6tu1t53","6154973c69da7c97996a19f6","fixation","","","img/fixation.png","null","","","test","","","","","","","","","","","","","","","","","","","",""
"538.5","220154","SARL_v6","SARL_v6a6tu1t53","6154973c69da7c97996a19f6","freq","","","img/blue_2bandit_a2.png","70","","70","test","1","","71","","","","square","circle","68","4","4","1","","","","","","","",""
"null","220433","SARL_v6","SARL_v6a6tu1t53","6154973c69da7c97996a19f6","freq_resp","","","img/blue_2bandit_a.png","70","img/blue_2bandit_a.png","70","test","","","","","","","","","","","4","","","","","","","","",""
"null","220593","SARL_v6","SARL_v6a6tu1t53","6154973c69da7c97996a19f6","fixation","","","img/fixation.png","null","","","test","","","","","","","","","","","","","","","","","","","",""
"580.6999998092651","221180","SARL_v6","SARL_v6a6tu1t53","6154973c69da7c97996a19f6","freq","","","img/blue_2bandit_a2.png","70","","70","test","1","","72","","","","square","circle","69","5","4","1","","","","","","","",""
"null","221413","SARL_v6","SARL_v6a6tu1t53","6154973c69da7c97996a19f6","freq_resp","","","img/blue_2bandit_a.png","70","img/blue_2bandit_a.png","70","test","","","","","","","","","","","4","","","","","","","","",""
"null","221584","SARL_v6","SARL_v6a6tu1t53","6154973c69da7c97996a19f6","fixation","","","img/fixation.png","null","","","test","","","","","","","","","","","","","","","","","","","",""
"544.1999998092651","222137","SARL_v6","SARL_v6a6tu1t53","6154973c69da7c97996a19f6","freq","","","img/blue_2bandit_a2.png","70","","70","test","1","","73","","","","square","circle","70","6","4","1","","","","","","","",""
"null","222407","SARL_v6","SARL_v6a6tu1t53","6154973c69da7c97996a19f6","freq_resp","","","img/blue_2bandit_a.png","70","img/blue_2bandit_a.png","70","test","","","","","","","","","","","4","","","","","","","","",""
"null","222578","SARL_v6","SARL_v6a6tu1t53","6154973c69da7c97996a19f6","fixation","","","img/fixation.png","null","","","test","","","","","","","","","","","","","","","","","","","",""
"544.7000000476837","223131","SARL_v6","SARL_v6a6tu1t53","6154973c69da7c97996a19f6","infreq","","","img/orange_2bandit_a2.png","68","","68","test","1","","74","","","","square","circle","71","7","4","1","","","","","","","",""
"null","223405","SARL_v6","SARL_v6a6tu1t53","6154973c69da7c97996a19f6","infreq_resp","","","img/orange_2bandit_a.png","68","img/orange_2bandit_a.png","68","test","","","","","","","","","","","4","","","","","","","","",""
"null","223578","SARL_v6","SARL_v6a6tu1t53","6154973c69da7c97996a19f6","fixation","","","img/fixation.png","null","","","test","","","","","","","","","","","","","","","","","","","",""
"435.7999999523163","224020","SARL_v6","SARL_v6a6tu1t53","6154973c69da7c97996a19f6","freq","","","img/blue_2bandit_a2.png","70","","70","test","1","","75","","","","square","circle","72","8","4","1","","","","","","","",""
"null","224406","SARL_v6","SARL_v6a6tu1t53","6154973c69da7c97996a19f6","freq_resp","","","img/blue_2bandit_a.png","70","img/blue_2bandit_a.png","70","test","","","","","","","","","","","4","","","","","","","","",""
"null","224578","SARL_v6","SARL_v6a6tu1t53","6154973c69da7c97996a19f6","fixation","","","img/fixation.png","null","","","test","","","","","","","","","","","","","","","","","","","",""
"415.60000014305115","225002","SARL_v6","SARL_v6a6tu1t53","6154973c69da7c97996a19f6","freq","","","img/blue_2bandit_a2.png","70","","70","test","1","","76","","","","square","circle","73","9","4","1","","","","","","","",""
"null","225396","SARL_v6","SARL_v6a6tu1t53","6154973c69da7c97996a19f6","freq_resp","","","img/blue_2bandit_a.png","70","img/blue_2bandit_a.png","70","test","","","","","","","","","","","4","","","","","","","","",""
"null","225555","SARL_v6","SARL_v6a6tu1t53","6154973c69da7c97996a19f6","fixation","","","img/fixation.png","null","","","test","","","","","","","","","","","","","","","","","","","",""
"464.90000009536743","226028","SARL_v6","SARL_v6a6tu1t53","6154973c69da7c97996a19f6","freq","","","img/blue_2bandit_a2.png","70","","70","test","1","","77","","","","square","circle","74","10","4","1","","","","","","","",""
"null","226378","SARL_v6","SARL_v6a6tu1t53","6154973c69da7c97996a19f6","freq_resp","","","img/blue_2bandit_a.png","70","img/blue_2bandit_a.png","70","test","","","","","","","","","","","4","","","","","","","","",""
"null","226552","SARL_v6","SARL_v6a6tu1t53","6154973c69da7c97996a19f6","fixation","","","img/fixation.png","null","","","test","","","","","","","","","","","","","","","","","","","",""
"351.2000000476837","226912","SARL_v6","SARL_v6a6tu1t53","6154973c69da7c97996a19f6","freq","","","img/blue_2bandit_a2.png","70","","70","test","1","","78","","","","square","circle","75","11","4","1","","","","","","","",""
"null","227371","SARL_v6","SARL_v6a6tu1t53","6154973c69da7c97996a19f6","freq_resp","","","img/blue_2bandit_a.png","70","img/blue_2bandit_a.png","70","test","","","","","","","","","","","4","","","","","","","","",""
"null","227531","SARL_v6","SARL_v6a6tu1t53","6154973c69da7c97996a19f6","fixation","","","img/fixation.png","null","","","test","","","","","","","","","","","","","","","","","","","",""
"450.90000009536743","227986","SARL_v6","SARL_v6a6tu1t53","6154973c69da7c97996a19f6","freq","","","img/blue_2bandit_a2.png","70","","70","test","1","","79","","","","square","circle","76","12","4","1","","","","","","","",""
"null","228351","SARL_v6","SARL_v6a6tu1t53","6154973c69da7c97996a19f6","freq_resp","","","img/blue_2bandit_a.png","70","img/blue_2bandit_a.png","70","test","","","","","","","","","","","4","","","","","","","","",""
"null","228521","SARL_v6","SARL_v6a6tu1t53","6154973c69da7c97996a19f6","fixation","","","img/fixation.png","null","","","test","","","","","","","","","","","","","","","","","","","",""
"338.40000009536743","228869","SARL_v6","SARL_v6a6tu1t53","6154973c69da7c97996a19f6","freq","","","img/blue_2bandit_a2.png","70","","70","test","1","","80","","","","square","circle","77","13","4","1","","","","","","","",""
"null","229344","SARL_v6","SARL_v6a6tu1t53","6154973c69da7c97996a19f6","freq_resp","","","img/blue_2bandit_a.png","70","img/blue_2bandit_a.png","70","test","","","","","","","","","","","4","","","","","","","","",""
"null","229503","SARL_v6","SARL_v6a6tu1t53","6154973c69da7c97996a19f6","fixation","","","img/fixation.png","null","","","test","","","","","","","","","","","","","","","","","","","",""
"319.5","229832","SARL_v6","SARL_v6a6tu1t53","6154973c69da7c97996a19f6","freq","","","img/blue_2bandit_a2.png","70","","70","test","1","","81","","","","square","circle","78","14","4","1","","","","","","","",""
"null","230319","SARL_v6","SARL_v6a6tu1t53","6154973c69da7c97996a19f6","freq_resp","","","img/blue_2bandit_a.png","70","img/blue_2bandit_a.png","70","test","","","","","","","","","","","4","","","","","","","","",""
"null","230489","SARL_v6","SARL_v6a6tu1t53","6154973c69da7c97996a19f6","fixation","","","img/fixation.png","null","","","test","","","","","","","","","","","","","","","","","","","",""
"291.40000009536743","230789","SARL_v6","SARL_v6a6tu1t53","6154973c69da7c97996a19f6","freq","","","img/blue_2bandit_a2.png","70","","70","test","1","","82","","","","square","circle","79","15","4","1","","","","","","","",""
"null","231318","SARL_v6","SARL_v6a6tu1t53","6154973c69da7c97996a19f6","freq_resp","","","img/blue_2bandit_a.png","70","img/blue_2bandit_a.png","70","test","","","","","","","","","","","4","","","","","","","","",""
"null","231487","SARL_v6","SARL_v6a6tu1t53","6154973c69da7c97996a19f6","fixation","","","img/fixation.png","null","","","test","","","","","","","","","","","","","","","","","","","",""
"282.10000014305115","231778","SARL_v6","SARL_v6a6tu1t53","6154973c69da7c97996a19f6","freq","","","img/blue_2bandit_a2.png","70","","70","test","1","","83","","","","square","circle","80","16","4","1","","","","","","","",""
"null","232305","SARL_v6","SARL_v6a6tu1t53","6154973c69da7c97996a19f6","freq_resp","","","img/blue_2bandit_a.png","70","img/blue_2bandit_a.png","70","test","","","","","","","","","","","4","","","","","","","","",""
"null","232470","SARL_v6","SARL_v6a6tu1t53","6154973c69da7c97996a19f6","fixation","","","img/fixation.png","null","","","test","","","","","","","","","","","","","","","","","","","",""
"259.59999990463257","232736","SARL_v6","SARL_v6a6tu1t53","6154973c69da7c97996a19f6","freq","","","img/blue_2bandit_a2.png","70","","70","test","1","","84","","","","square","circle","81","17","4","1","","","","","","","",""
"null","233296","SARL_v6","SARL_v6a6tu1t53","6154973c69da7c97996a19f6","freq_resp","","","img/blue_2bandit_a.png","70","img/blue_2bandit_a.png","70","test","","","","","","","","","","","4","","","","","","","","",""
"null","233456","SARL_v6","SARL_v6a6tu1t53","6154973c69da7c97996a19f6","fixation","","","img/fixation.png","null","","","test","","","","","","","","","","","","","","","","","","","",""
"599.7999999523163","234065","SARL_v6","SARL_v6a6tu1t53","6154973c69da7c97996a19f6","infreq","","","img/orange_2bandit_a2.png","68","","68","test","1","","85","","","","square","circle","82","18","4","1","","","","","","","",""
"null","234290","SARL_v6","SARL_v6a6tu1t53","6154973c69da7c97996a19f6","infreq_resp","","","img/orange_2bandit_a.png","68","img/orange_2bandit_a.png","68","test","","","","","","","","","","","4","","","","","","","","",""
"null","234448","SARL_v6","SARL_v6a6tu1t53","6154973c69da7c97996a19f6","fixation","","","img/fixation.png","null","","","test","","","","","","","","","","","","","","","","","","","",""
"505.39999985694885","234962","SARL_v6","SARL_v6a6tu1t53","6154973c69da7c97996a19f6","freq","","","img/blue_2bandit_a2.png","70","","70","test","1","","86","","","","square","circle","83","19","4","1","","","","","","","",""
"null","235272","SARL_v6","SARL_v6a6tu1t53","6154973c69da7c97996a19f6","freq_resp","","","img/blue_2bandit_a.png","70","img/blue_2bandit_a.png","70","test","","","","","","","","","","","4","","","","","","","","",""
"null","235431","SARL_v6","SARL_v6a6tu1t53","6154973c69da7c97996a19f6","fixation","","","img/fixation.png","null","","","test","","","","","","","","","","","","","","","","","","","",""
"416","235856","SARL_v6","SARL_v6a6tu1t53","6154973c69da7c97996a19f6","rl","","","img/black_2bandit_a2.png","75","","0","test","","","87","","","-12","square","circle","","0","4","","75","-12","0","0","-12","circle","4","0"
"null","236627","SARL_v6","SARL_v6a6tu1t53","6154973c69da7c97996a19f6","feedback","","","<div class=""verylowPoints""> -12 </div>","null","","na","test","","","NaN","","","","","","","","4","","75","","","","","","4",""
"694.7000000476837","237330","SARL_v6","SARL_v6a6tu1t53","6154973c69da7c97996a19f6","freq","","","img/blue_2bandit_a2.png","70","","70","test","1","","88","","","","square","circle","84","1","5","1","","","","","","","",""
"null","237453","SARL_v6","SARL_v6a6tu1t53","6154973c69da7c97996a19f6","freq_resp","","","img/blue_2bandit_a.png","70","img/blue_2bandit_a.png","70","test","","","","","","","","","","","5","","","","","","","","",""
"null","237613","SARL_v6","SARL_v6a6tu1t53","6154973c69da7c97996a19f6","fixation","","","img/fixation.png","null","","","test","","","","","","","","","","","","","","","","","","","",""
"549.4000000953674","238172","SARL_v6","SARL_v6a6tu1t53","6154973c69da7c97996a19f6","freq","","","img/blue_2bandit_a2.png","70","","70","test","1","","89","","","","square","circle","85","2","5","1","","","","","","","",""
"null","238435","SARL_v6","SARL_v6a6tu1t53","6154973c69da7c97996a19f6","freq_resp","","","img/blue_2bandit_a.png","70","img/blue_2bandit_a.png","70","test","","","","","","","","","","","5","","","","","","","","",""
"null","238609","SARL_v6","SARL_v6a6tu1t53","6154973c69da7c97996a19f6","fixation","","","img/fixation.png","null","","","test","","","","","","","","","","","","","","","","","","","",""
"512.8999998569489","239128","SARL_v6","SARL_v6a6tu1t53","6154973c69da7c97996a19f6","freq","","","img/blue_2bandit_a2.png","70","","70","test","1","","90","","","","square","circle","86","3","5","1","","","","","","","",""
"null","239429","SARL_v6","SARL_v6a6tu1t53","6154973c69da7c97996a19f6","freq_resp","","","img/blue_2bandit_a.png","70","img/blue_2bandit_a.png","70","test","","","","","","","","","","","5","","","","","","","","",""
"null","239602","SARL_v6","SARL_v6a6tu1t53","6154973c69da7c97996a19f6","fixation","","","img/fixation.png","null","","","test","","","","","","","","","","","","","","","","","","","",""
"403.7000000476837","240015","SARL_v6","SARL_v6a6tu1t53","6154973c69da7c97996a19f6","infreq","","","img/orange_2bandit_a2.png","68","","68","test","1","","91","","","","square","circle","87","4","5","1","","","","","","","",""
"null","240421","SARL_v6","SARL_v6a6tu1t53","6154973c69da7c97996a19f6","infreq_resp","","","img/orange_2bandit_a.png","68","img/orange_2bandit_a.png","68","test","","","","","","","","","","","5","","","","","","","","",""
"null","240593","SARL_v6","SARL_v6a6tu1t53","6154973c69da7c97996a19f6","fixation","","","img/fixation.png","null","","","test","","","","","","","","","","","","","","","","","","","",""
"481.7999999523163","241084","SARL_v6","SARL_v6a6tu1t53","6154973c69da7c97996a19f6","freq","","","img/blue_2bandit_a2.png","70","","70","test","1","","92","","","","square","circle","88","5","5","1","","","","","","","",""
"null","241418","SARL_v6","SARL_v6a6tu1t53","6154973c69da7c97996a19f6","freq_resp","","","img/blue_2bandit_a.png","70","img/blue_2bandit_a.png","70","test","","","","","","","","","","","5","","","","","","","","",""
"null","241589","SARL_v6","SARL_v6a6tu1t53","6154973c69da7c97996a19f6","fixation","","","img/fixation.png","null","","","test","","","","","","","","","","","","","","","","","","","",""
"400.09999990463257","241995","SARL_v6","SARL_v6a6tu1t53","6154973c69da7c97996a19f6","infreq","","","img/orange_2bandit_a2.png","68","","68","test","1","","93","","","","square","circle","89","6","5","1","","","","","","","",""
"null","242413","SARL_v6","SARL_v6a6tu1t53","6154973c69da7c97996a19f6","infreq_resp","","","img/orange_2bandit_a.png","68","img/orange_2bandit_a.png","68","test","","","","","","","","","","","5","","","","","","","","",""
"null","242573","SARL_v6","SARL_v6a6tu1t53","6154973c69da7c97996a19f6","fixation","","","img/fixation.png","null","","","test","","","","","","","","","","","","","","","","","","","",""
"400.19999980926514","242982","SARL_v6","SARL_v6a6tu1t53","6154973c69da7c97996a19f6","freq","","","img/blue_2bandit_a2.png","70","","70","test","1","","94","","","","square","circle","90","7","5","1","","","","","","","",""
"null","243398","SARL_v6","SARL_v6a6tu1t53","6154973c69da7c97996a19f6","freq_resp","","","img/blue_2bandit_a.png","70","img/blue_2bandit_a.png","70","test","","","","","","","","","","","5","","","","","","","","",""
"null","243573","SARL_v6","SARL_v6a6tu1t53","6154973c69da7c97996a19f6","fixation","","","img/fixation.png","null","","","test","","","","","","","","","","","","","","","","","","","",""
"292.5","243871","SARL_v6","SARL_v6a6tu1t53","6154973c69da7c97996a19f6","freq","","","img/blue_2bandit_a2.png","70","","70","test","1","","95","","","","square","circle","91","8","5","1","","","","","","","",""
"null","244388","SARL_v6","SARL_v6a6tu1t53","6154973c69da7c97996a19f6","freq_resp","","","img/blue_2bandit_a.png","70","img/blue_2bandit_a.png","70","test","","","","","","","","","","","5","","","","","","","","",""
"null","244563","SARL_v6","SARL_v6a6tu1t53","6154973c69da7c97996a19f6","fixation","","","img/fixation.png","null","","","test","","","","","","","","","","","","","","","","","","","",""
"320","244892","SARL_v6","SARL_v6a6tu1t53","6154973c69da7c97996a19f6","freq","","","img/blue_2bandit_a2.png","70","","70","test","1","","96","","","","square","circle","92","9","5","1","","","","","","","",""
"null","245383","SARL_v6","SARL_v6a6tu1t53","6154973c69da7c97996a19f6","freq_resp","","","img/blue_2bandit_a.png","70","img/blue_2bandit_a.png","70","test","","","","","","","","","","","5","","","","","","","","",""
"null","245556","SARL_v6","SARL_v6a6tu1t53","6154973c69da7c97996a19f6","fixation","","","img/fixation.png","null","","","test","","","","","","","","","","","","","","","","","","","",""
"379.7999999523163","245943","SARL_v6","SARL_v6a6tu1t53","6154973c69da7c97996a19f6","freq","","","img/blue_2bandit_a2.png","70","","70","test","1","","97","","","","square","circle","93","10","5","1","","","","","","","",""
"null","246378","SARL_v6","SARL_v6a6tu1t53","6154973c69da7c97996a19f6","freq_resp","","","img/blue_2bandit_a.png","70","img/blue_2bandit_a.png","70","test","","","","","","","","","","","5","","","","","","","","",""
"null","246551","SARL_v6","SARL_v6a6tu1t53","6154973c69da7c97996a19f6","fixation","","","img/fixation.png","null","","","test","","","","","","","","","","","","","","","","","","","",""
"341.59999990463257","246902","SARL_v6","SARL_v6a6tu1t53","6154973c69da7c97996a19f6","freq","","","img/blue_2bandit_a2.png","70","","70","test","1","","98","","","","square","circle","94","11","5","1","","","","","","","",""
"null","247367","SARL_v6","SARL_v6a6tu1t53","6154973c69da7c97996a19f6","freq_resp","","","img/blue_2bandit_a.png","70","img/blue_2bandit_a.png","70","test","","","","","","","","","","","5","","","","","","","","",""
"null","247527","SARL_v6","SARL_v6a6tu1t53","6154973c69da7c97996a19f6","fixation","","","img/fixation.png","null","","","test","","","","","","","","","","","","","","","","","","","",""
"395.7999999523163","247927","SARL_v6","SARL_v6a6tu1t53","6154973c69da7c97996a19f6","freq","","","img/blue_2bandit_a2.png","70","","70","test","1","","99","","","","square","circle","95","12","5","1","","","","","","","",""
"null","248345","SARL_v6","SARL_v6a6tu1t53","6154973c69da7c97996a19f6","freq_resp","","","img/blue_2bandit_a.png","70","img/blue_2bandit_a.png","70","test","","","","","","","","","","","5","","","","","","","","",""
"null","248505","SARL_v6","SARL_v6a6tu1t53","6154973c69da7c97996a19f6","fixation","","","img/fixation.png","null","","","test","","","","","","","","","","","","","","","","","","","",""
"391.90000009536743","248906","SARL_v6","SARL_v6a6tu1t53","6154973c69da7c97996a19f6","freq","","","img/blue_2bandit_a2.png","70","","70","test","1","","100","","","","square","circle","96","13","5","1","","","","","","","",""
"null","249327","SARL_v6","SARL_v6a6tu1t53","6154973c69da7c97996a19f6","freq_resp","","","img/blue_2bandit_a.png","70","img/blue_2bandit_a.png","70","test","","","","","","","","","","","5","","","","","","","","",""
"null","249490","SARL_v6","SARL_v6a6tu1t53","6154973c69da7c97996a19f6","fixation","","","img/fixation.png","null","","","test","","","","","","","","","","","","","","","","","","","",""
"360","249858","SARL_v6","SARL_v6a6tu1t53","6154973c69da7c97996a19f6","freq","","","img/blue_2bandit_a2.png","70","","70","test","1","","101","","","","square","circle","97","14","5","1","","","","","","","",""
"null","250321","SARL_v6","SARL_v6a6tu1t53","6154973c69da7c97996a19f6","freq_resp","","","img/blue_2bandit_a.png","70","img/blue_2bandit_a.png","70","test","","","","","","","","","","","5","","","","","","","","",""
"null","250496","SARL_v6","SARL_v6a6tu1t53","6154973c69da7c97996a19f6","fixation","","","img/fixation.png","null","","","test","","","","","","","","","","","","","","","","","","","",""
"286.7000000476837","250788","SARL_v6","SARL_v6a6tu1t53","6154973c69da7c97996a19f6","freq","","","img/blue_2bandit_a2.png","70","","70","test","1","","102","","","","square","circle","98","15","5","1","","","","","","","",""
"null","251313","SARL_v6","SARL_v6a6tu1t53","6154973c69da7c97996a19f6","freq_resp","","","img/blue_2bandit_a.png","70","img/blue_2bandit_a.png","70","test","","","","","","","","","","","5","","","","","","","","",""
"null","251470","SARL_v6","SARL_v6a6tu1t53","6154973c69da7c97996a19f6","fixation","","","img/fixation.png","null","","","test","","","","","","","","","","","","","","","","","","","",""
"329.90000009536743","251804","SARL_v6","SARL_v6a6tu1t53","6154973c69da7c97996a19f6","infreq","","","img/orange_2bandit_a2.png","68","","68","test","1","","103","","","","square","circle","99","16","5","1","","","","","","","",""
"null","252296","SARL_v6","SARL_v6a6tu1t53","6154973c69da7c97996a19f6","infreq_resp","","","img/orange_2bandit_a.png","68","img/orange_2bandit_a.png","68","test","","","","","","","","","","","5","","","","","","","","",""
"null","252468","SARL_v6","SARL_v6a6tu1t53","6154973c69da7c97996a19f6","fixation","","","img/fixation.png","null","","","test","","","","","","","","","","","","","","","","","","","",""
"338.5","252814","SARL_v6","SARL_v6a6tu1t53","6154973c69da7c97996a19f6","freq","","","img/blue_2bandit_a2.png","70","","70","test","1","","104","","","","square","circle","100","17","5","1","","","","","","","",""
"null","253291","SARL_v6","SARL_v6a6tu1t53","6154973c69da7c97996a19f6","freq_resp","","","img/blue_2bandit_a.png","70","img/blue_2bandit_a.png","70","test","","","","","","","","","","","5","","","","","","","","",""
"null","253452","SARL_v6","SARL_v6a6tu1t53","6154973c69da7c97996a19f6","fixation","","","img/fixation.png","null","","","test","","","","","","","","","","","","","","","","","","","",""
"331.7999999523163","253794","SARL_v6","SARL_v6a6tu1t53","6154973c69da7c97996a19f6","freq","","","img/blue_2bandit_a2.png","70","","70","test","1","","105","","","","square","circle","101","18","5","1","","","","","","","",""
"null","254284","SARL_v6","SARL_v6a6tu1t53","6154973c69da7c97996a19f6","freq_resp","","","img/blue_2bandit_a.png","70","img/blue_2bandit_a.png","70","test","","","","","","","","","","","5","","","","","","","","",""
"null","254445","SARL_v6","SARL_v6a6tu1t53","6154973c69da7c97996a19f6","fixation","","","img/fixation.png","null","","","test","","","","","","","","","","","","","","","","","","","",""
"291","254745","SARL_v6","SARL_v6a6tu1t53","6154973c69da7c97996a19f6","freq","","","img/blue_2bandit_a2.png","70","","70","test","1","","106","","","","square","circle","102","19","5","1","","","","","","","",""
"null","255266","SARL_v6","SARL_v6a6tu1t53","6154973c69da7c97996a19f6","freq_resp","","","img/blue_2bandit_a.png","70","img/blue_2bandit_a.png","70","test","","","","","","","","","","","5","","","","","","","","",""
"null","255424","SARL_v6","SARL_v6a6tu1t53","6154973c69da7c97996a19f6","fixation","","","img/fixation.png","null","","","test","","","","","","","","","","","","","","","","","","","",""
"320.5","255750","SARL_v6","SARL_v6a6tu1t53","6154973c69da7c97996a19f6","freq","","","img/blue_2bandit_a2.png","70","","70","test","1","","107","","","","square","circle","103","20","5","1","","","","","","","",""
"null","256247","SARL_v6","SARL_v6a6tu1t53","6154973c69da7c97996a19f6","freq_resp","","","img/blue_2bandit_a.png","70","img/blue_2bandit_a.png","70","test","","","","","","","","","","","5","","","","","","","","",""
"null","256420","SARL_v6","SARL_v6a6tu1t53","6154973c69da7c97996a19f6","fixation","","","img/fixation.png","null","","","test","","","","","","","","","","","","","","","","","","","",""
"324.60000014305115","256750","SARL_v6","SARL_v6a6tu1t53","6154973c69da7c97996a19f6","freq","","","img/blue_2bandit_a2.png","70","","70","test","1","","108","","","","square","circle","104","21","5","1","","","","","","","",""
"null","257243","SARL_v6","SARL_v6a6tu1t53","6154973c69da7c97996a19f6","freq_resp","","","img/blue_2bandit_a.png","70","img/blue_2bandit_a.png","70","test","","","","","","","","","","","5","","","","","","","","",""
"null","257399","SARL_v6","SARL_v6a6tu1t53","6154973c69da7c97996a19f6","fixation","","","img/fixation.png","null","","","test","","","","","","","","","","","","","","","","","","","",""
"339.30000019073486","257747","SARL_v6","SARL_v6a6tu1t53","6154973c69da7c97996a19f6","freq","","","img/blue_2bandit_a2.png","70","","70","test","1","","109","","","","square","circle","105","22","5","1","","","","","","","",""
"null","258225","SARL_v6","SARL_v6a6tu1t53","6154973c69da7c97996a19f6","freq_resp","","","img/blue_2bandit_a.png","70","img/blue_2bandit_a.png","70","test","","","","","","","","","","","5","","","","","","","","",""
"null","258387","SARL_v6","SARL_v6a6tu1t53","6154973c69da7c97996a19f6","fixation","","","img/fixation.png","null","","","test","","","","","","","","","","","","","","","","","","","",""
"651.5","259057","SARL_v6","SARL_v6a6tu1t53","6154973c69da7c97996a19f6","freq","","","img/blue_2bandit_a2.png","70","","70","test","1","","110","","","","square","circle","106","23","5","1","","","","","","","",""
"null","259219","SARL_v6","SARL_v6a6tu1t53","6154973c69da7c97996a19f6","freq_resp","","","img/blue_2bandit_a.png","70","img/blue_2bandit_a.png","70","test","","","","","","","","","","","5","","","","","","","","",""
"null","259378","SARL_v6","SARL_v6a6tu1t53","6154973c69da7c97996a19f6","fixation","","","img/fixation.png","null","","","test","","","","","","","","","","","","","","","","","","","",""
"722.0999999046326","260107","SARL_v6","SARL_v6a6tu1t53","6154973c69da7c97996a19f6","freq","","","img/blue_2bandit_a2.png","70","","70","test","1","","111","","","","square","circle","107","24","5","1","","","","","","","",""
"null","260203","SARL_v6","SARL_v6a6tu1t53","6154973c69da7c97996a19f6","freq_resp","","","img/blue_2bandit_a.png","70","img/blue_2bandit_a.png","70","test","","","","","","","","","","","5","","","","","","","","",""
"null","260376","SARL_v6","SARL_v6a6tu1t53","6154973c69da7c97996a19f6","fixation","","","img/fixation.png","null","","","test","","","","","","","","","","","","","","","","","","","",""
"596.6999998092651","260983","SARL_v6","SARL_v6a6tu1t53","6154973c69da7c97996a19f6","freq","","","img/blue_2bandit_a2.png","70","","70","test","1","","112","","","","square","circle","108","25","5","1","","","","","","","",""
"null","261198","SARL_v6","SARL_v6a6tu1t53","6154973c69da7c97996a19f6","freq_resp","","","img/blue_2bandit_a.png","70","img/blue_2bandit_a.png","70","test","","","","","","","","","","","5","","","","","","","","",""
"null","261354","SARL_v6","SARL_v6a6tu1t53","6154973c69da7c97996a19f6","fixation","","","img/fixation.png","null","","","test","","","","","","","","","","","","","","","","","","","",""
"602.9000000953674","261961","SARL_v6","SARL_v6a6tu1t53","6154973c69da7c97996a19f6","rl","","","img/black_2bandit_a2.png","74","","0","test","","","113","","","4","square","circle","","0","5","","74","-7","4","4","-7","square","5","0"
"null","262733","SARL_v6","SARL_v6a6tu1t53","6154973c69da7c97996a19f6","feedback","","","<div class=""veryhighPoints_sq""> 4 </div>","null","","na","test","","","NaN","","","","","","","","5","","74","","","","","","5",""
"532.5","263274","SARL_v6","SARL_v6a6tu1t53","6154973c69da7c97996a19f6","freq","","","img/blue_2bandit_a2.png","70","","70","test","1","","114","","","","square","circle","109","1","6","1","","","","","","","",""
"null","263550","SARL_v6","SARL_v6a6tu1t53","6154973c69da7c97996a19f6","freq_resp","","","img/blue_2bandit_a.png","70","img/blue_2bandit_a.png","70","test","","","","","","","","","","","6","","","","","","","","",""
"null","263707","SARL_v6","SARL_v6a6tu1t53","6154973c69da7c97996a19f6","fixation","","","img/fixation.png","null","","","test","","","","","","","","","","","","","","","","","","","",""
"611.9000000953674","264327","SARL_v6","SARL_v6a6tu1t53","6154973c69da7c97996a19f6","infreq","","","img/orange_2bandit_a2.png","70","","68","test","0","","115","","","","square","circle","110","2","6","0.990909090909091","","","","","","","",""
"null","264528","SARL_v6","SARL_v6a6tu1t53","6154973c69da7c97996a19f6","infreq_resp","","","img/orange_2bandit_a.png","70","img/orange_2bandit_a.png","68","test","","","","","","","","","","","6","","","","","","","","",""
"null","264699","SARL_v6","SARL_v6a6tu1t53","6154973c69da7c97996a19f6","fixation","","","img/fixation.png","null","","","test","","","","","","","","","","","","","","","","","","","",""
"566.6000001430511","265274","SARL_v6","SARL_v6a6tu1t53","6154973c69da7c97996a19f6","infreq","","","img/orange_2bandit_a2.png","68","","68","test","1","","116","","","","square","circle","111","3","6","0.990990990990991","","","","","","","",""
"null","265522","SARL_v6","SARL_v6a6tu1t53","6154973c69da7c97996a19f6","infreq_resp","","","img/orange_2bandit_a.png","68","img/orange_2bandit_a.png","68","test","","","","","","","","","","","6","","","","","","","","",""
"null","265697","SARL_v6","SARL_v6a6tu1t53","6154973c69da7c97996a19f6","fixation","","","img/fixation.png","null","","","test","","","","","","","","","","","","","","","","","","","",""
"669.1000001430511","266375","SARL_v6","SARL_v6a6tu1t53","6154973c69da7c97996a19f6","freq","","","img/blue_2bandit_a2.png","70","","70","test","1","","117","","","","square","circle","112","4","6","0.9910714285714286","","","","","","","",""
"null","266518","SARL_v6","SARL_v6a6tu1t53","6154973c69da7c97996a19f6","freq_resp","","","img/blue_2bandit_a.png","70","img/blue_2bandit_a.png","70","test","","","","","","","","","","","6","","","","","","","","",""
"null","266677","SARL_v6","SARL_v6a6tu1t53","6154973c69da7c97996a19f6","fixation","","","img/fixation.png","null","","","test","","","","","","","","","","","","","","","","","","","",""
"575.5999999046326","267263","SARL_v6","SARL_v6a6tu1t53","6154973c69da7c97996a19f6","freq","","","img/blue_2bandit_a2.png","70","","70","test","1","","118","","","","square","circle","113","5","6","0.9911504424778761","","","","","","","",""
"null","267498","SARL_v6","SARL_v6a6tu1t53","6154973c69da7c97996a19f6","freq_resp","","","img/blue_2bandit_a.png","70","img/blue_2bandit_a.png","70","test","","","","","","","","","","","6","","","","","","","","",""
"null","267658","SARL_v6","SARL_v6a6tu1t53","6154973c69da7c97996a19f6","fixation","","","img/fixation.png","null","","","test","","","","","","","","","","","","","","","","","","","",""
"537.0999999046326","268204","SARL_v6","SARL_v6a6tu1t53","6154973c69da7c97996a19f6","freq","","","img/blue_2bandit_a2.png","70","","70","test","1","","119","","","","square","circle","114","6","6","0.9912280701754386","","","","","","","",""
"null","268507","SARL_v6","SARL_v6a6tu1t53","6154973c69da7c97996a19f6","freq_resp","","","img/blue_2bandit_a.png","70","img/blue_2bandit_a.png","70","test","","","","","","","","","","","6","","","","","","","","",""
"null","268670","SARL_v6","SARL_v6a6tu1t53","6154973c69da7c97996a19f6","fixation","","","img/fixation.png","null","","","test","","","","","","","","","","","","","","","","","","","",""
"404.90000009536743","269083","SARL_v6","SARL_v6a6tu1t53","6154973c69da7c97996a19f6","freq","","","img/blue_2bandit_a2.png","70","","70","test","1","","120","","","","square","circle","115","7","6","0.991304347826087","","","","","","","",""
"null","269494","SARL_v6","SARL_v6a6tu1t53","6154973c69da7c97996a19f6","freq_resp","","","img/blue_2bandit_a.png","70","img/blue_2bandit_a.png","70","test","","","","","","","","","","","6","","","","","","","","",""
"null","269652","SARL_v6","SARL_v6a6tu1t53","6154973c69da7c97996a19f6","fixation","","","img/fixation.png","null","","","test","","","","","","","","","","","","","","","","","","","",""
"424.59999990463257","270086","SARL_v6","SARL_v6a6tu1t53","6154973c69da7c97996a19f6","freq","","","img/blue_2bandit_a2.png","70","","70","test","1","","121","","","","square","circle","116","8","6","0.9913793103448276","","","","","","","",""
"null","270478","SARL_v6","SARL_v6a6tu1t53","6154973c69da7c97996a19f6","freq_resp","","","img/blue_2bandit_a.png","70","img/blue_2bandit_a.png","70","test","","","","","","","","","","","6","","","","","","","","",""
"null","270652","SARL_v6","SARL_v6a6tu1t53","6154973c69da7c97996a19f6","fixation","","","img/fixation.png","null","","","test","","","","","","","","","","","","","","","","","","","",""
"372","271034","SARL_v6","SARL_v6a6tu1t53","6154973c69da7c97996a19f6","freq","","","img/blue_2bandit_a2.png","70","","70","test","1","","122","","","","square","circle","117","9","6","0.9914529914529915","","","","","","","",""
"null","271476","SARL_v6","SARL_v6a6tu1t53","6154973c69da7c97996a19f6","freq_resp","","","img/blue_2bandit_a.png","70","img/blue_2bandit_a.png","70","test","","","","","","","","","","","6","","","","","","","","",""
"null","271631","SARL_v6","SARL_v6a6tu1t53","6154973c69da7c97996a19f6","fixation","","","img/fixation.png","null","","","test","","","","","","","","","","","","","","","","","","","",""
"269.7000000476837","271907","SARL_v6","SARL_v6a6tu1t53","6154973c69da7c97996a19f6","freq","","","img/blue_2bandit_a2.png","70","","70","test","1","","123","","","","square","circle","118","10","6","0.9915254237288136","","","","","","","",""
"null","272451","SARL_v6","SARL_v6a6tu1t53","6154973c69da7c97996a19f6","freq_resp","","","img/blue_2bandit_a.png","70","img/blue_2bandit_a.png","70","test","","","","","","","","","","","6","","","","","","","","",""
"null","272612","SARL_v6","SARL_v6a6tu1t53","6154973c69da7c97996a19f6","fixation","","","img/fixation.png","null","","","test","","","","","","","","","","","","","","","","","","","",""
"309.2999999523163","272926","SARL_v6","SARL_v6a6tu1t53","6154973c69da7c97996a19f6","freq","","","img/blue_2bandit_a2.png","70","","70","test","1","","124","","","","square","circle","119","11","6","0.9915966386554622","","","","","","","",""
"null","273433","SARL_v6","SARL_v6a6tu1t53","6154973c69da7c97996a19f6","freq_resp","","","img/blue_2bandit_a.png","70","img/blue_2bandit_a.png","70","test","","","","","","","","","","","6","","","","","","","","",""
"null","273591","SARL_v6","SARL_v6a6tu1t53","6154973c69da7c97996a19f6","fixation","","","img/fixation.png","null","","","test","","","","","","","","","","","","","","","","","","","",""
"319.19999980926514","273915","SARL_v6","SARL_v6a6tu1t53","6154973c69da7c97996a19f6","freq","","","img/blue_2bandit_a2.png","70","","70","test","1","","125","","","","square","circle","120","12","6","0.9916666666666667","","","","","","","",""
"null","274407","SARL_v6","SARL_v6a6tu1t53","6154973c69da7c97996a19f6","freq_resp","","","img/blue_2bandit_a.png","70","img/blue_2bandit_a.png","70","test","","","","","","","","","","","6","","","","","","","","",""
"null","274566","SARL_v6","SARL_v6a6tu1t53","6154973c69da7c97996a19f6","fixation","","","img/fixation.png","null","","","test","","","","","","","","","","","","","","","","","","","",""
"461.39999985694885","275032","SARL_v6","SARL_v6a6tu1t53","6154973c69da7c97996a19f6","freq","","","img/blue_2bandit_a2.png","70","","70","test","1","","126","","","","square","circle","121","13","6","0.9917355371900827","","","","","","","",""
"null","275381","SARL_v6","SARL_v6a6tu1t53","6154973c69da7c97996a19f6","freq_resp","","","img/blue_2bandit_a.png","70","img/blue_2bandit_a.png","70","test","","","","","","","","","","","6","","","","","","","","",""
"null","275537","SARL_v6","SARL_v6a6tu1t53","6154973c69da7c97996a19f6","fixation","","","img/fixation.png","null","","","test","","","","","","","","","","","","","","","","","","","",""
"343.7999999523163","275889","SARL_v6","SARL_v6a6tu1t53","6154973c69da7c97996a19f6","freq","","","img/blue_2bandit_a2.png","70","","70","test","1","","127","","","","square","circle","122","14","6","0.9918032786885246","","","","","","","",""
"null","276363","SARL_v6","SARL_v6a6tu1t53","6154973c69da7c97996a19f6","freq_resp","","","img/blue_2bandit_a.png","70","img/blue_2bandit_a.png","70","test","","","","","","","","","","","6","","","","","","","","",""
"null","276534","SARL_v6","SARL_v6a6tu1t53","6154973c69da7c97996a19f6","fixation","","","img/fixation.png","null","","","test","","","","","","","","","","","","","","","","","","","",""
"339.59999990463257","276883","SARL_v6","SARL_v6a6tu1t53","6154973c69da7c97996a19f6","freq","","","img/blue_2bandit_a2.png","70","","70","test","1","","128","","","","square","circle","123","15","6","0.991869918699187","","","","","","","",""
"null","277360","SARL_v6","SARL_v6a6tu1t53","6154973c69da7c97996a19f6","freq_resp","","","img/blue_2bandit_a.png","70","img/blue_2bandit_a.png","70","test","","","","","","","","","","","6","","","","","","","","",""
"null","277534","SARL_v6","SARL_v6a6tu1t53","6154973c69da7c97996a19f6","fixation","","","img/fixation.png","null","","","test","","","","","","","","","","","","","","","","","","","",""
"280.09999990463257","277819","SARL_v6","SARL_v6a6tu1t53","6154973c69da7c97996a19f6","freq","","","img/blue_2bandit_a2.png","70","","70","test","1","","129","","","","square","circle","124","16","6","0.9919354838709677","","","","","","","",""
"null","278354","SARL_v6","SARL_v6a6tu1t53","6154973c69da7c97996a19f6","freq_resp","","","img/blue_2bandit_a.png","70","img/blue_2bandit_a.png","70","test","","","","","","","","","","","6","","","","","","","","",""
"null","278528","SARL_v6","SARL_v6a6tu1t53","6154973c69da7c97996a19f6","fixation","","","img/fixation.png","null","","","test","","","","","","","","","","","","","","","","","","","",""
"311.40000009536743","278846","SARL_v6","SARL_v6a6tu1t53","6154973c69da7c97996a19f6","freq","","","img/blue_2bandit_a2.png","70","","70","test","1","","130","","","","square","circle","125","17","6","0.992","","","","","","","",""
"null","279352","SARL_v6","SARL_v6a6tu1t53","6154973c69da7c97996a19f6","freq_resp","","","img/blue_2bandit_a.png","70","img/blue_2bandit_a.png","70","test","","","","","","","","","","","6","","","","","","","","",""
"null","279511","SARL_v6","SARL_v6a6tu1t53","6154973c69da7c97996a19f6","fixation","","","img/fixation.png","null","","","test","","","","","","","","","","","","","","","","","","","",""
"307.60000014305115","279825","SARL_v6","SARL_v6a6tu1t53","6154973c69da7c97996a19f6","freq","","","img/blue_2bandit_a2.png","70","","70","test","1","","131","","","","square","circle","126","18","6","0.9920634920634921","","","","","","","",""
"null","280332","SARL_v6","SARL_v6a6tu1t53","6154973c69da7c97996a19f6","freq_resp","","","img/blue_2bandit_a.png","70","img/blue_2bandit_a.png","70","test","","","","","","","","","","","6","","","","","","","","",""
"null","280501","SARL_v6","SARL_v6a6tu1t53","6154973c69da7c97996a19f6","fixation","","","img/fixation.png","null","","","test","","","","","","","","","","","","","","","","","","","",""
"303.60000014305115","280812","SARL_v6","SARL_v6a6tu1t53","6154973c69da7c97996a19f6","freq","","","img/blue_2bandit_a2.png","70","","70","test","1","","132","","","","square","circle","127","19","6","0.9921259842519685","","","","","","","",""
