"rt","time_elapsed","expId","subject","prolificID","trialType","rlType","attType","stimulus","key_press","stim","corrresp","phase","corr","pracCounter","trialNum","rewardOne","rewardTwo","reward","bandOne","bandTwo","attentionNum","attentionRunNum","blockNum","performance","bandChosen","circleVal","squareVal","bandOneVal","bandTwoVal","shapeChosen","rlNum","badFlag"
"19547.799999952316","19550","SARL_v6","SARL_v6rlfb2gdj","63e548d24319702eba4fc949","","","","","","","","","","","","","","","","","","","","","","","","","","","",""
"","21785","SARL_v6","SARL_v6rlfb2gdj","63e548d24319702eba4fc949","fullscreen","fullscreen","fullscreen","","","","","","","","","","","","","","","","","","","","","","","","",""
"54067","75857","SARL_v6","SARL_v6rlfb2gdj","63e548d24319702eba4fc949","","","","","","","","","","","","","","","","","","","","","","","","","","","",""
"null","76662","SARL_v6","SARL_v6rlfb2gdj","63e548d24319702eba4fc949","freqPrac","","","img/blue_2bandit_b2.png","null","img/blue_2bandit_b2.png","70","prac","0","1","","","","","","","","","","","","","","","","","",""
"null","77679","SARL_v6","SARL_v6rlfb2gdj","63e548d24319702eba4fc949","feedback","","","img/tooSlow.png","null","","na","prac","","","","","","","","","","","","","","","","","","","",""
"null","77845","SARL_v6","SARL_v6rlfb2gdj","63e548d24319702eba4fc949","fixation","","","img/fixation.png","null","","","prac","","","","","","","","","","","","","","","","","","","",""
"476.80000019073486","78324","SARL_v6","SARL_v6rlfb2gdj","63e548d24319702eba4fc949","infreqPrac","","","img/orange_2bandit_b2.png","70","img/orange_2bandit_b2.png","68","prac","0","2","","","","","","","","","","","","","","","","","",""
"476.80000019073486","78659","SARL_v6","SARL_v6rlfb2gdj","63e548d24319702eba4fc949","infreqPrac_resp","","","img/orange_2bandit_b.png","70","img/orange_2bandit_b.png","68","prac","","","","","","","","","","","","","","","","","","","",""
"null","79666","SARL_v6","SARL_v6rlfb2gdj","63e548d24319702eba4fc949","feedback","","","img/wrongKey.png","null","","na","prac","","","","","","","","","","","","","","","","","","","",""
"null","79832","SARL_v6","SARL_v6rlfb2gdj","63e548d24319702eba4fc949","fixation","","","img/fixation.png","null","","","prac","","","","","","","","","","","","","","","","","","","",""
"331.5","80166","SARL_v6","SARL_v6rlfb2gdj","63e548d24319702eba4fc949","freqPrac","","","img/blue_2bandit_b2.png","70","img/blue_2bandit_b2.png","70","prac","1","2","","","","","","","","","","","","","","","","","",""
"331.5","80645","SARL_v6","SARL_v6rlfb2gdj","63e548d24319702eba4fc949","freqPrac_resp","","","img/blue_2bandit_b.png","70","img/blue_2bandit_b.png","70","prac","","","","","","","","","","","","","","","","","","","",""
"null","80814","SARL_v6","SARL_v6rlfb2gdj","63e548d24319702eba4fc949","fixation","","","img/fixation.png","null","","","prac","","","","","","","","","","","","","","","","","","","",""
"618","81434","SARL_v6","SARL_v6rlfb2gdj","63e548d24319702eba4fc949","infreqPrac","","","img/orange_2bandit_b2.png","70","img/orange_2bandit_b2.png","68","prac","0","3","","","","","","","","","","","","","","","","","",""
"618","81629","SARL_v6","SARL_v6rlfb2gdj","63e548d24319702eba4fc949","infreqPrac_resp","","","img/orange_2bandit_b.png","70","img/orange_2bandit_b.png","68","prac","","","","","","","","","","","","","","","","","","","",""
"null","82645","SARL_v6","SARL_v6rlfb2gdj","63e548d24319702eba4fc949","feedback","","","img/wrongKey.png","null","","na","prac","","","","","","","","","","","","","","","","","","","",""
"null","82801","SARL_v6","SARL_v6rlfb2gdj","63e548d24319702eba4fc949","fixation","","","img/fixation.png","null","","","prac","","","","","","","","","","","","","","","","","","","",""
"400.2999999523163","83204","SARL_v6","SARL_v6rlfb2gdj","63e548d24319702eba4fc949","infreqPrac","","","img/orange_2bandit_b2.png","70","img/orange_2bandit_b2.png","68","prac","0","4","","","","","","","","","","","","","","","","","",""
"400.2999999523163","83613","SARL_v6","SARL_v6rlfb2gdj","63e548d24319702eba4fc949","infreqPrac_resp","","","img/orange_2bandit_b.png","70","img/orange_2bandit_b.png","68","prac","","","","","","","","","","","","","","","","","","","",""
"null","84617","SARL_v6","SARL_v6rlfb2gdj","63e548d24319702eba4fc949","feedback","","","img/wrongKey.png","null","","na","prac","","","","","","","","","","","","","","","","","","","",""
"null","84770","SARL_v6","SARL_v6rlfb2gdj","63e548d24319702eba4fc949","fixation","","","img/fixation.png","null","","","prac","","","","","","","","","","","","","","","","","","","",""
"195.20000004768372","84968","SARL_v6","SARL_v6rlfb2gdj","63e548d24319702eba4fc949","infreqPrac","","","img/orange_2bandit_b2.png","68","img/orange_2bandit_b2.png","68","prac","1","4","","","","","","","","","","","","","","","","","",""
"195.20000004768372","85575","SARL_v6","SARL_v6rlfb2gdj","63e548d24319702eba4fc949","infreqPrac_resp","","","img/orange_2bandit_b.png","68","img/orange_2bandit_b.png","68","prac","","","","","","","","","","","","","","","","","","","",""
"null","85736","SARL_v6","SARL_v6rlfb2gdj","63e548d24319702eba4fc949","fixation","","","img/fixation.png","null","","","prac","","","","","","","","","","","","","","","","","","","",""
"null","86540","SARL_v6","SARL_v6rlfb2gdj","63e548d24319702eba4fc949","freqPrac","","","img/blue_2bandit_b2.png","null","img/blue_2bandit_b2.png","70","prac","0","5","","","","","","","","","","","","","","","","","",""
"null","87556","SARL_v6","SARL_v6rlfb2gdj","63e548d24319702eba4fc949","feedback","","","img/tooSlow.png","null","","na","prac","","","","","","","","","","","","","","","","","","","",""
"null","87718","SARL_v6","SARL_v6rlfb2gdj","63e548d24319702eba4fc949","fixation","","","img/fixation.png","null","","","prac","","","","","","","","","","","","","","","","","","","",""
"null","88529","SARL_v6","SARL_v6rlfb2gdj","63e548d24319702eba4fc949","infreqPrac","","","img/orange_2bandit_b2.png","null","img/orange_2bandit_b2.png","68","prac","0","6","","","","","","","","","","","","","","","","","",""
"null","89536","SARL_v6","SARL_v6rlfb2gdj","63e548d24319702eba4fc949","feedback","","","img/tooSlow.png","null","","na","prac","","","","","","","","","","","","","","","","","","","",""
"null","89701","SARL_v6","SARL_v6rlfb2gdj","63e548d24319702eba4fc949","fixation","","","img/fixation.png","null","","","prac","","","","","","","","","","","","","","","","","","","",""
"213.29999995231628","89917","SARL_v6","SARL_v6rlfb2gdj","63e548d24319702eba4fc949","freqPrac","","","img/blue_2bandit_b2.png","68","img/blue_2bandit_b2.png","70","prac","0","7","","","","","","","","","","","","","","","","","",""
"213.29999995231628","90518","SARL_v6","SARL_v6rlfb2gdj","63e548d24319702eba4fc949","freqPrac_resp","","","img/blue_2bandit_b.png","68","img/blue_2bandit_b.png","70","prac","","","","","","","","","","","","","","","","","","","",""
"null","91532","SARL_v6","SARL_v6rlfb2gdj","63e548d24319702eba4fc949","feedback","","","img/wrongKey.png","null","","na","prac","","","","","","","","","","","","","","","","","","","",""
"null","91685","SARL_v6","SARL_v6rlfb2gdj","63e548d24319702eba4fc949","fixation","","","img/fixation.png","null","","","prac","","","","","","","","","","","","","","","","","","","",""
"557.1000001430511","92244","SARL_v6","SARL_v6rlfb2gdj","63e548d24319702eba4fc949","freqPrac","","","img/blue_2bandit_b2.png","70","img/blue_2bandit_b2.png","70","prac","1","7","","","","","","","","","","","","","","","","","",""
"557.1000001430511","92504","SARL_v6","SARL_v6rlfb2gdj","63e548d24319702eba4fc949","freqPrac_resp","","","img/blue_2bandit_b.png","70","img/blue_2bandit_b.png","70","prac","","","","","","","","","","","","","","","","","","","",""
"null","92661","SARL_v6","SARL_v6rlfb2gdj","63e548d24319702eba4fc949","fixation","","","img/fixation.png","null","","","prac","","","","","","","","","","","","","","","","","","","",""
"30050.900000095367","122714","SARL_v6","SARL_v6rlfb2gdj","63e548d24319702eba4fc949","","","","","","","","prac","","","","","","","","","","","","","","","","","","","",""
"1100","123817","SARL_v6","SARL_v6rlfb2gdj","63e548d24319702eba4fc949","rlPractice","","","img/black_2bandit_b2.png","75","img/black_2bandit_b2.png","","prac","","","0","","","","","","","","","","","","","","","","",""
"null","124572","SARL_v6","SARL_v6rlfb2gdj","63e548d24319702eba4fc949","feedback","","","<div class=""verylowPoints_sq""> -14 </div>","null","","na","prac","","","1","10","-14","10","","","","","","","","","","","","","",""
"null","124730","SARL_v6","SARL_v6rlfb2gdj","63e548d24319702eba4fc949","fixation","","","img/fixation.png","null","","","prac","","","","","","","","","","","","","","","","","","","",""
"885.2999999523163","125618","SARL_v6","SARL_v6rlfb2gdj","63e548d24319702eba4fc949","rlPractice","","","img/black_2bandit_b2.png","75","img/black_2bandit_b2.png","","prac","","","1","","","","","","","","","","","","","","","","",""
"null","126376","SARL_v6","SARL_v6rlfb2gdj","63e548d24319702eba4fc949","feedback","","","<div class=""verylowPoints_sq""> -5 </div>","null","","na","prac","","","2","5","-5","5","","","","","","","","","","","","","",""
"null","126543","SARL_v6","SARL_v6rlfb2gdj","63e548d24319702eba4fc949","fixation","","","img/fixation.png","null","","","prac","","","","","","","","","","","","","","","","","","","",""
"444.59999990463257","126989","SARL_v6","SARL_v6rlfb2gdj","63e548d24319702eba4fc949","rlPractice","","","img/black_2bandit_b2.png","75","img/black_2bandit_b2.png","","prac","","","2","","","","","","","","","","","","","","","","",""
"null","127753","SARL_v6","SARL_v6rlfb2gdj","63e548d24319702eba4fc949","feedback","","","<div class=""veryhighPoints_sq""> 2 </div>","null","","na","prac","","","3","30","2","30","","","","","","","","","","","","","",""
"null","127914","SARL_v6","SARL_v6rlfb2gdj","63e548d24319702eba4fc949","fixation","","","img/fixation.png","null","","","prac","","","","","","","","","","","","","","","","","","","",""
"669.7999999523163","128586","SARL_v6","SARL_v6rlfb2gdj","63e548d24319702eba4fc949","rlPractice","","","img/black_2bandit_b2.png","75","img/black_2bandit_b2.png","","prac","","","3","","","","","","","","","","","","","","","","",""
"null","129354","SARL_v6","SARL_v6rlfb2gdj","63e548d24319702eba4fc949","feedback","","","<div class=""veryhighPoints_sq""> 20 </div>","null","","na","prac","","","4","-2","20","-2","","","","","","","","","","","","","",""
"null","129507","SARL_v6","SARL_v6rlfb2gdj","63e548d24319702eba4fc949","fixation","","","img/fixation.png","null","","","prac","","","","","","","","","","","","","","","","","","","",""
"50170.200000047684","179679","SARL_v6","SARL_v6rlfb2gdj","63e548d24319702eba4fc949","","","","","","","","prac","","","","","","","","","","","","","","","","","","","",""
"null","180489","SARL_v6","SARL_v6rlfb2gdj","63e548d24319702eba4fc949","mixAttFreqPrac","","","img/blue_2bandit_b2.png","null","img/blue_2bandit_b2.png","70","prac","","","1","","","","","","","","","","","","","","","","",""
"null","180655","SARL_v6","SARL_v6rlfb2gdj","63e548d24319702eba4fc949","fixation","","","img/fixation.png","null","","","prac","","","","","","","","","","","","","","","","","","","",""
"null","181459","SARL_v6","SARL_v6rlfb2gdj","63e548d24319702eba4fc949","mixAttInfreqPrac","","","img/orange_2bandit_b2.png","null","img/orange_2bandit_b2.png","68","prac","","","2","","","","","","","","","","","","","","","","",""
"null","181617","SARL_v6","SARL_v6rlfb2gdj","63e548d24319702eba4fc949","fixation","","","img/fixation.png","null","","","prac","","","","","","","","","","","","","","","","","","","",""
"null","182423","SARL_v6","SARL_v6rlfb2gdj","63e548d24319702eba4fc949","mixAttInfreqPrac","","","img/orange_2bandit_b2.png","null","img/orange_2bandit_b2.png","68","prac","","","3","","","","","","","","","","","","","","","","",""
"null","182582","SARL_v6","SARL_v6rlfb2gdj","63e548d24319702eba4fc949","fixation","","","img/fixation.png","null","","","prac","","","","","","","","","","","","","","","","","","","",""
"148.5","182733","SARL_v6","SARL_v6rlfb2gdj","63e548d24319702eba4fc949","mixAttInfreqPrac","","","img/orange_2bandit_b2.png","68","img/orange_2bandit_b2.png","68","prac","","","4","","","","","","","","","","","","","","","","",""
"148.5","183390","SARL_v6","SARL_v6rlfb2gdj","63e548d24319702eba4fc949","infreqPrac_resp","","","img/orange_2bandit_b.png","68","img/blue_2bandit_b.png","68","prac","","","4","","","","","","","","","","","","","","","","",""
"null","183548","SARL_v6","SARL_v6rlfb2gdj","63e548d24319702eba4fc949","fixation","","","img/fixation.png","null","","","prac","","","","","","","","","","","","","","","","","","","",""
"null","184364","SARL_v6","SARL_v6rlfb2gdj","63e548d24319702eba4fc949","mixAttFreqPrac","","","img/blue_2bandit_b2.png","null","img/blue_2bandit_b2.png","70","prac","","","5","","","","","","","","","","","","","","","","",""
"null","184530","SARL_v6","SARL_v6rlfb2gdj","63e548d24319702eba4fc949","fixation","","","img/fixation.png","null","","","prac","","","","","","","","","","","","","","","","","","","",""
"716.9000000953674","185249","SARL_v6","SARL_v6rlfb2gdj","63e548d24319702eba4fc949","mixRLPractice","","","img/black_2bandit_b2.png","74","img/black_2bandit_b2.png","","prac","","","5","","","","","","","","","","","","","","","","",""
"null","186013","SARL_v6","SARL_v6rlfb2gdj","63e548d24319702eba4fc949","feedback","","","<div class=""verylowPoints""> -14 </div>","null","","na","prac","","","6","-14","10","-14","","","","","","","","","","","","","",""
"null","186180","SARL_v6","SARL_v6rlfb2gdj","63e548d24319702eba4fc949","fixation","","","img/fixation.png","null","","","prac","","","","","","","","","","","","","","","","","","","",""
"694","186876","SARL_v6","SARL_v6rlfb2gdj","63e548d24319702eba4fc949","mixAttFreqPrac","","","img/blue_2bandit_b2.png","70","img/blue_2bandit_b2.png","70","prac","","","7","","","","","","","","","","","","","","","","",""
"694","186991","SARL_v6","SARL_v6rlfb2gdj","63e548d24319702eba4fc949","freqPrac_resp","","","img/blue_2bandit_b.png","70","img/blue_2bandit_b.png","70","prac","","","7","","","","","","","","","","","","","","","","",""
"null","187154","SARL_v6","SARL_v6rlfb2gdj","63e548d24319702eba4fc949","fixation","","","img/fixation.png","null","","","prac","","","","","","","","","","","","","","","","","","","",""
"565.1999998092651","187721","SARL_v6","SARL_v6rlfb2gdj","63e548d24319702eba4fc949","mixAttInfreqPrac","","","img/orange_2bandit_b2.png","68","img/orange_2bandit_b2.png","68","prac","","","8","","","","","","","","","","","","","","","","",""
"565.1999998092651","187963","SARL_v6","SARL_v6rlfb2gdj","63e548d24319702eba4fc949","infreqPrac_resp","","","img/orange_2bandit_b.png","68","img/blue_2bandit_b.png","68","prac","","","8","","","","","","","","","","","","","","","","",""
"null","188129","SARL_v6","SARL_v6rlfb2gdj","63e548d24319702eba4fc949","fixation","","","img/fixation.png","null","","","prac","","","","","","","","","","","","","","","","","","","",""
"320.7999999523163","188452","SARL_v6","SARL_v6rlfb2gdj","63e548d24319702eba4fc949","mixAttFreqPrac","","","img/blue_2bandit_b2.png","70","img/blue_2bandit_b2.png","70","prac","","","9","","","","","","","","","","","","","","","","",""
"320.7999999523163","188935","SARL_v6","SARL_v6rlfb2gdj","63e548d24319702eba4fc949","freqPrac_resp","","","img/blue_2bandit_b.png","70","img/blue_2bandit_b.png","70","prac","","","9","","","","","","","","","","","","","","","","",""
"null","189090","SARL_v6","SARL_v6rlfb2gdj","63e548d24319702eba4fc949","fixation","","","img/fixation.png","null","","","prac","","","","","","","","","","","","","","","","","","","",""
"552","189644","SARL_v6","SARL_v6rlfb2gdj","63e548d24319702eba4fc949","mixAttFreqPrac","","","img/blue_2bandit_b2.png","70","img/blue_2bandit_b2.png","70","prac","","","10","","","","","","","","","","","","","","","","",""
"552","189898","SARL_v6","SARL_v6rlfb2gdj","63e548d24319702eba4fc949","freqPrac_resp","","","img/blue_2bandit_b.png","70","img/blue_2bandit_b.png","70","prac","","","10","","","","","","","","","","","","","","","","",""
"null","190055","SARL_v6","SARL_v6rlfb2gdj","63e548d24319702eba4fc949","fixation","","","img/fixation.png","null","","","prac","","","","","","","","","","","","","","","","","","","",""
"396.60000014305115","190454","SARL_v6","SARL_v6rlfb2gdj","63e548d24319702eba4fc949","mixAttInfreqPrac","","","img/orange_2bandit_b2.png","68","img/orange_2bandit_b2.png","68","prac","","","11","","","","","","","","","","","","","","","","",""
"396.60000014305115","190872","SARL_v6","SARL_v6rlfb2gdj","63e548d24319702eba4fc949","infreqPrac_resp","","","img/orange_2bandit_b.png","68","img/blue_2bandit_b.png","68","prac","","","11","","","","","","","","","","","","","","","","",""
"null","191037","SARL_v6","SARL_v6rlfb2gdj","63e548d24319702eba4fc949","fixation","","","img/fixation.png","null","","","prac","","","","","","","","","","","","","","","","","","","",""
"491.89999985694885","191530","SARL_v6","SARL_v6rlfb2gdj","63e548d24319702eba4fc949","mixRLPractice","","","img/black_2bandit_b2.png","74","img/black_2bandit_b2.png","","prac","","","11","","","","","","","","","","","","","","","","",""
"null","192284","SARL_v6","SARL_v6rlfb2gdj","63e548d24319702eba4fc949","feedback","","","<div class=""veryhighPoints""> 5 </div>","null","","na","prac","","","12","5","-5","5","","","","","","","","","","","","","",""
"null","192438","SARL_v6","SARL_v6rlfb2gdj","63e548d24319702eba4fc949","fixation","","","img/fixation.png","null","","","prac","","","","","","","","","","","","","","","","","","","",""
"9148.200000047684","201588","SARL_v6","SARL_v6rlfb2gdj","63e548d24319702eba4fc949","","","","","","","","prac","","","","","","","","","","","","","","","","","","","",""
"731.9000000953674","202323","SARL_v6","SARL_v6rlfb2gdj","63e548d24319702eba4fc949","freq","","","img/blue_2bandit_b2.png","70","","70","test","1","","1","","","","circle","square","1","1","1","1","","","","","","","",""
"null","202401","SARL_v6","SARL_v6rlfb2gdj","63e548d24319702eba4fc949","freq_resp","","","img/blue_2bandit_b.png","70","img/blue_2bandit_b.png","70","test","","","","","","","","","","","1","","","","","","","","",""
"null","202568","SARL_v6","SARL_v6rlfb2gdj","63e548d24319702eba4fc949","fixation","","","img/fixation.png","null","","","test","","","","","","","","","","","","","","","","","","","",""
"457.7999999523163","203029","SARL_v6","SARL_v6rlfb2gdj","63e548d24319702eba4fc949","freq","","","img/blue_2bandit_b2.png","70","","70","test","1","","2","","","","circle","square","2","2","1","1","","","","","","","",""
"null","203378","SARL_v6","SARL_v6rlfb2gdj","63e548d24319702eba4fc949","freq_resp","","","img/blue_2bandit_b.png","70","img/blue_2bandit_b.png","70","test","","","","","","","","","","","1","","","","","","","","",""
"null","203543","SARL_v6","SARL_v6rlfb2gdj","63e548d24319702eba4fc949","fixation","","","img/fixation.png","null","","","test","","","","","","","","","","","","","","","","","","","",""
"null","204347","SARL_v6","SARL_v6rlfb2gdj","63e548d24319702eba4fc949","freq","","","img/blue_2bandit_b2.png","null","","70","test","0","","3","","","","circle","square","3","3","1","0.6666666666666666","","","","","","","",""
"null","204510","SARL_v6","SARL_v6rlfb2gdj","63e548d24319702eba4fc949","fixation","","","img/fixation.png","null","","","test","","","","","","","","","","","","","","","","","","","",""
"null","205327","SARL_v6","SARL_v6rlfb2gdj","63e548d24319702eba4fc949","freq","","","img/blue_2bandit_b2.png","null","","70","test","0","","4","","","","circle","square","4","4","1","0.5","","","","","","","",""
"null","205486","SARL_v6","SARL_v6rlfb2gdj","63e548d24319702eba4fc949","fixation","","","img/fixation.png","null","","","test","","","","","","","","","","","","","","","","","","","",""
"284.19999980926514","205772","SARL_v6","SARL_v6rlfb2gdj","63e548d24319702eba4fc949","freq","","","img/blue_2bandit_b2.png","70","","70","test","1","","5","","","","circle","square","5","5","1","0.6","","","","","","","",""
"null","206296","SARL_v6","SARL_v6rlfb2gdj","63e548d24319702eba4fc949","freq_resp","","","img/blue_2bandit_b.png","70","img/blue_2bandit_b.png","70","test","","","","","","","","","","","1","","","","","","","","",""
"null","206460","SARL_v6","SARL_v6rlfb2gdj","63e548d24319702eba4fc949","fixation","","","img/fixation.png","null","","","test","","","","","","","","","","","","","","","","","","","",""
"565.7999999523163","207028","SARL_v6","SARL_v6rlfb2gdj","63e548d24319702eba4fc949","infreq","","","img/orange_2bandit_b2.png","68","","68","test","1","","6","","","","circle","square","6","6","1","0.6666666666666666","","","","","","","",""
"null","207272","SARL_v6","SARL_v6rlfb2gdj","63e548d24319702eba4fc949","infreq_resp","","","img/orange_2bandit_b.png","68","img/orange_2bandit_b.png","68","test","","","","","","","","","","","1","","","","","","","","",""
"null","207434","SARL_v6","SARL_v6rlfb2gdj","63e548d24319702eba4fc949","fixation","","","img/fixation.png","null","","","test","","","","","","","","","","","","","","","","","","","",""
"423","207859","SARL_v6","SARL_v6rlfb2gdj","63e548d24319702eba4fc949","freq","","","img/blue_2bandit_b2.png","70","","70","test","1","","7","","","","circle","square","7","7","1","0.7142857142857143","","","","","","","",""
"null","208254","SARL_v6","SARL_v6rlfb2gdj","63e548d24319702eba4fc949","freq_resp","","","img/blue_2bandit_b.png","70","img/blue_2bandit_b.png","70","test","","","","","","","","","","","1","","","","","","","","",""
"null","208418","SARL_v6","SARL_v6rlfb2gdj","63e548d24319702eba4fc949","fixation","","","img/fixation.png","null","","","test","","","","","","","","","","","","","","","","","","","",""
"325.2999999523163","208745","SARL_v6","SARL_v6rlfb2gdj","63e548d24319702eba4fc949","freq","","","img/blue_2bandit_b2.png","70","","70","test","1","","8","","","","circle","square","8","8","1","0.75","","","","","","","",""
"null","209223","SARL_v6","SARL_v6rlfb2gdj","63e548d24319702eba4fc949","freq_resp","","","img/blue_2bandit_b.png","70","img/blue_2bandit_b.png","70","test","","","","","","","","","","","1","","","","","","","","",""
"null","209381","SARL_v6","SARL_v6rlfb2gdj","63e548d24319702eba4fc949","fixation","","","img/fixation.png","null","","","test","","","","","","","","","","","","","","","","","","","",""
"313.30000019073486","209697","SARL_v6","SARL_v6rlfb2gdj","63e548d24319702eba4fc949","freq","","","img/blue_2bandit_b2.png","70","","70","test","1","","9","","","","circle","square","9","9","1","0.7777777777777778","","","","","","","",""
"null","210196","SARL_v6","SARL_v6rlfb2gdj","63e548d24319702eba4fc949","freq_resp","","","img/blue_2bandit_b.png","70","img/blue_2bandit_b.png","70","test","","","","","","","","","","","1","","","","","","","","",""
"null","210363","SARL_v6","SARL_v6rlfb2gdj","63e548d24319702eba4fc949","fixation","","","img/fixation.png","null","","","test","","","","","","","","","","","","","","","","","","","",""
"308.2000000476837","210673","SARL_v6","SARL_v6rlfb2gdj","63e548d24319702eba4fc949","freq","","","img/blue_2bandit_b2.png","70","","70","test","1","","10","","","","circle","square","10","10","1","0.8","","","","","","","",""
"null","211180","SARL_v6","SARL_v6rlfb2gdj","63e548d24319702eba4fc949","freq_resp","","","img/blue_2bandit_b.png","70","img/blue_2bandit_b.png","70","test","","","","","","","","","","","1","","","","","","","","",""
"null","211345","SARL_v6","SARL_v6rlfb2gdj","63e548d24319702eba4fc949","fixation","","","img/fixation.png","null","","","test","","","","","","","","","","","","","","","","","","","",""
"311.5","211659","SARL_v6","SARL_v6rlfb2gdj","63e548d24319702eba4fc949","freq","","","img/blue_2bandit_b2.png","70","","70","test","1","","11","","","","circle","square","11","11","1","0.8181818181818182","","","","","","","",""
"null","212164","SARL_v6","SARL_v6rlfb2gdj","63e548d24319702eba4fc949","freq_resp","","","img/blue_2bandit_b.png","70","img/blue_2bandit_b.png","70","test","","","","","","","","","","","1","","","","","","","","",""
"null","212332","SARL_v6","SARL_v6rlfb2gdj","63e548d24319702eba4fc949","fixation","","","img/fixation.png","null","","","test","","","","","","","","","","","","","","","","","","","",""
"265.7000000476837","212600","SARL_v6","SARL_v6rlfb2gdj","63e548d24319702eba4fc949","freq","","","img/blue_2bandit_b2.png","70","","70","test","1","","12","","","","circle","square","12","12","1","0.8333333333333334","","","","","","","",""
"null","213145","SARL_v6","SARL_v6rlfb2gdj","63e548d24319702eba4fc949","freq_resp","","","img/blue_2bandit_b.png","70","img/blue_2bandit_b.png","70","test","","","","","","","","","","","1","","","","","","","","",""
"null","213309","SARL_v6","SARL_v6rlfb2gdj","63e548d24319702eba4fc949","fixation","","","img/fixation.png","null","","","test","","","","","","","","","","","","","","","","","","","",""
"269.10000014305115","213581","SARL_v6","SARL_v6rlfb2gdj","63e548d24319702eba4fc949","freq","","","img/blue_2bandit_b2.png","70","","70","test","1","","13","","","","circle","square","13","13","1","0.8461538461538461","","","","","","","",""
"null","214121","SARL_v6","SARL_v6rlfb2gdj","63e548d24319702eba4fc949","freq_resp","","","img/blue_2bandit_b.png","70","img/blue_2bandit_b.png","70","test","","","","","","","","","","","1","","","","","","","","",""
"null","214281","SARL_v6","SARL_v6rlfb2gdj","63e548d24319702eba4fc949","fixation","","","img/fixation.png","null","","","test","","","","","","","","","","","","","","","","","","","",""
"258.7000000476837","214542","SARL_v6","SARL_v6rlfb2gdj","63e548d24319702eba4fc949","freq","","","img/blue_2bandit_b2.png","70","","70","test","1","","14","","","","circle","square","14","14","1","0.8571428571428571","","","","","","","",""
"null","215094","SARL_v6","SARL_v6rlfb2gdj","63e548d24319702eba4fc949","freq_resp","","","img/blue_2bandit_b.png","70","img/blue_2bandit_b.png","70","test","","","","","","","","","","","1","","","","","","","","",""
"null","215258","SARL_v6","SARL_v6rlfb2gdj","63e548d24319702eba4fc949","fixation","","","img/fixation.png","null","","","test","","","","","","","","","","","","","","","","","","","",""
"283.09999990463257","215543","SARL_v6","SARL_v6rlfb2gdj","63e548d24319702eba4fc949","freq","","","img/blue_2bandit_b2.png","70","","70","test","1","","15","","","","circle","square","15","15","1","0.8666666666666667","","","","","","","",""
"null","216070","SARL_v6","SARL_v6rlfb2gdj","63e548d24319702eba4fc949","freq_resp","","","img/blue_2bandit_b.png","70","img/blue_2bandit_b.png","70","test","","","","","","","","","","","1","","","","","","","","",""
"null","216233","SARL_v6","SARL_v6rlfb2gdj","63e548d24319702eba4fc949","fixation","","","img/fixation.png","null","","","test","","","","","","","","","","","","","","","","","","","",""
"253.60000014305115","216489","SARL_v6","SARL_v6rlfb2gdj","63e548d24319702eba4fc949","freq","","","img/blue_2bandit_b2.png","70","","70","test","1","","16","","","","circle","square","16","16","1","0.875","","","","","","","",""
"null","217051","SARL_v6","SARL_v6rlfb2gdj","63e548d24319702eba4fc949","freq_resp","","","img/blue_2bandit_b.png","70","img/blue_2bandit_b.png","70","test","","","","","","","","","","","1","","","","","","","","",""
"null","217216","SARL_v6","SARL_v6rlfb2gdj","63e548d24319702eba4fc949","fixation","","","img/fixation.png","null","","","test","","","","","","","","","","","","","","","","","","","",""
"246.5","217465","SARL_v6","SARL_v6rlfb2gdj","63e548d24319702eba4fc949","freq","","","img/blue_2bandit_b2.png","70","","70","test","1","","17","","","","circle","square","17","17","1","0.8823529411764706","","","","","","","",""
"null","218035","SARL_v6","SARL_v6rlfb2gdj","63e548d24319702eba4fc949","freq_resp","","","img/blue_2bandit_b.png","70","img/blue_2bandit_b.png","70","test","","","","","","","","","","","1","","","","","","","","",""
"null","218199","SARL_v6","SARL_v6rlfb2gdj","63e548d24319702eba4fc949","fixation","","","img/fixation.png","null","","","test","","","","","","","","","","","","","","","","","","","",""
"245.29999995231628","218446","SARL_v6","SARL_v6rlfb2gdj","63e548d24319702eba4fc949","freq","","","img/blue_2bandit_b2.png","70","","70","test","1","","18","","","","circle","square","18","18","1","0.8888888888888888","","","","","","","",""
"null","219007","SARL_v6","SARL_v6rlfb2gdj","63e548d24319702eba4fc949","freq_resp","","","img/blue_2bandit_b.png","70","img/blue_2bandit_b.png","70","test","","","","","","","","","","","1","","","","","","","","",""
"null","219167","SARL_v6","SARL_v6rlfb2gdj","63e548d24319702eba4fc949","fixation","","","img/fixation.png","null","","","test","","","","","","","","","","","","","","","","","","","",""
"237.5","219407","SARL_v6","SARL_v6rlfb2gdj","63e548d24319702eba4fc949","infreq","","","img/orange_2bandit_b2.png","70","","68","test","0","","19","","","","circle","square","19","19","1","0.8421052631578947","","","","","","","",""
"null","219975","SARL_v6","SARL_v6rlfb2gdj","63e548d24319702eba4fc949","infreq_resp","","","img/orange_2bandit_b.png","70","img/orange_2bandit_b.png","68","test","","","","","","","","","","","1","","","","","","","","",""
"null","220134","SARL_v6","SARL_v6rlfb2gdj","63e548d24319702eba4fc949","fixation","","","img/fixation.png","null","","","test","","","","","","","","","","","","","","","","","","","",""
"443.60000014305115","220579","SARL_v6","SARL_v6rlfb2gdj","63e548d24319702eba4fc949","freq","","","img/blue_2bandit_b2.png","70","","70","test","1","","20","","","","circle","square","20","20","1","0.85","","","","","","","",""
"null","220954","SARL_v6","SARL_v6rlfb2gdj","63e548d24319702eba4fc949","freq_resp","","","img/blue_2bandit_b.png","70","img/blue_2bandit_b.png","70","test","","","","","","","","","","","1","","","","","","","","",""
"null","221118","SARL_v6","SARL_v6rlfb2gdj","63e548d24319702eba4fc949","fixation","","","img/fixation.png","null","","","test","","","","","","","","","","","","","","","","","","","",""
"329.5","221449","SARL_v6","SARL_v6rlfb2gdj","63e548d24319702eba4fc949","freq","","","img/blue_2bandit_b2.png","70","","70","test","1","","21","","","","circle","square","21","21","1","0.8571428571428571","","","","","","","",""
"null","221922","SARL_v6","SARL_v6rlfb2gdj","63e548d24319702eba4fc949","freq_resp","","","img/blue_2bandit_b.png","70","img/blue_2bandit_b.png","70","test","","","","","","","","","","","1","","","","","","","","",""
"null","222076","SARL_v6","SARL_v6rlfb2gdj","63e548d24319702eba4fc949","fixation","","","img/fixation.png","null","","","test","","","","","","","","","","","","","","","","","","","",""
"293","222372","SARL_v6","SARL_v6rlfb2gdj","63e548d24319702eba4fc949","freq","","","img/blue_2bandit_b2.png","70","","70","test","1","","22","","","","circle","square","22","22","1","0.8636363636363636","","","","","","","",""
"null","222894","SARL_v6","SARL_v6rlfb2gdj","63e548d24319702eba4fc949","freq_resp","","","img/blue_2bandit_b.png","70","img/blue_2bandit_b.png","70","test","","","","","","","","","","","1","","","","","","","","",""
"null","223060","SARL_v6","SARL_v6rlfb2gdj","63e548d24319702eba4fc949","fixation","","","img/fixation.png","null","","","test","","","","","","","","","","","","","","","","","","","",""
"284.2000000476837","223347","SARL_v6","SARL_v6rlfb2gdj","63e548d24319702eba4fc949","freq","","","img/blue_2bandit_b2.png","70","","70","test","1","","23","","","","circle","square","23","23","1","0.8695652173913043","","","","","","","",""
"null","223875","SARL_v6","SARL_v6rlfb2gdj","63e548d24319702eba4fc949","freq_resp","","","img/blue_2bandit_b.png","70","img/blue_2bandit_b.png","70","test","","","","","","","","","","","1","","","","","","","","",""
"null","224043","SARL_v6","SARL_v6rlfb2gdj","63e548d24319702eba4fc949","fixation","","","img/fixation.png","null","","","test","","","","","","","","","","","","","","","","","","","",""
"248","224294","SARL_v6","SARL_v6rlfb2gdj","63e548d24319702eba4fc949","freq","","","img/blue_2bandit_b2.png","70","","70","test","1","","24","","","","circle","square","24","24","1","0.875","","","","","","","",""
"null","224849","SARL_v6","SARL_v6rlfb2gdj","63e548d24319702eba4fc949","freq_resp","","","img/blue_2bandit_b.png","70","img/blue_2bandit_b.png","70","test","","","","","","","","","","","1","","","","","","","","",""
"null","225013","SARL_v6","SARL_v6rlfb2gdj","63e548d24319702eba4fc949","fixation","","","img/fixation.png","null","","","test","","","","","","","","","","","","","","","","","","","",""
"333.2000000476837","225349","SARL_v6","SARL_v6rlfb2gdj","63e548d24319702eba4fc949","freq","","","img/blue_2bandit_b2.png","70","","70","test","1","","25","","","","circle","square","25","25","1","0.88","","","","","","","",""
"null","225829","SARL_v6","SARL_v6rlfb2gdj","63e548d24319702eba4fc949","freq_resp","","","img/blue_2bandit_b.png","70","img/blue_2bandit_b.png","70","test","","","","","","","","","","","1","","","","","","","","",""
"null","225984","SARL_v6","SARL_v6rlfb2gdj","63e548d24319702eba4fc949","fixation","","","img/fixation.png","null","","","test","","","","","","","","","","","","","","","","","","","",""
"289.2999999523163","226275","SARL_v6","SARL_v6rlfb2gdj","63e548d24319702eba4fc949","freq","","","img/blue_2bandit_b2.png","70","","70","test","1","","26","","","","circle","square","26","26","1","0.8846153846153846","","","","","","","",""
"null","226797","SARL_v6","SARL_v6rlfb2gdj","63e548d24319702eba4fc949","freq_resp","","","img/blue_2bandit_b.png","70","img/blue_2bandit_b.png","70","test","","","","","","","","","","","1","","","","","","","","",""
"null","226951","SARL_v6","SARL_v6rlfb2gdj","63e548d24319702eba4fc949","fixation","","","img/fixation.png","null","","","test","","","","","","","","","","","","","","","","","","","",""
"668.0999999046326","227622","SARL_v6","SARL_v6rlfb2gdj","63e548d24319702eba4fc949","rl","","","img/black_2bandit_b2.png","74","","0","test","","","27","","","-3","circle","square","","0","1","","74","-3","-3","-3","-3","circle","1","0"
"null","228380","SARL_v6","SARL_v6rlfb2gdj","63e548d24319702eba4fc949","feedback","","","<div class=""verylowPoints""> -3 </div>","null","","na","test","","","NaN","","","","","","","","1","","74","","","","","","1",""
"777.5","229159","SARL_v6","SARL_v6rlfb2gdj","63e548d24319702eba4fc949","freq","","","img/blue_2bandit_b2.png","70","","70","test","1","","28","","","","circle","square","27","1","2","0.8888888888888888","","","","","","","",""
"null","229189","SARL_v6","SARL_v6rlfb2gdj","63e548d24319702eba4fc949","freq_resp","","","img/blue_2bandit_b.png","70","img/blue_2bandit_b.png","70","test","","","","","","","","","","","2","","","","","","","","",""
"null","229344","SARL_v6","SARL_v6rlfb2gdj","63e548d24319702eba4fc949","fixation","","","img/fixation.png","null","","","test","","","","","","","","","","","","","","","","","","","",""
"null","230154","SARL_v6","SARL_v6rlfb2gdj","63e548d24319702eba4fc949","freq","","","img/blue_2bandit_b2.png","null","","70","test","0","","29","","","","circle","square","28","2","2","0.8571428571428571","","","","","","","",""
"null","230314","SARL_v6","SARL_v6rlfb2gdj","63e548d24319702eba4fc949","fixation","","","img/fixation.png","null","","","test","","","","","","","","","","","","","","","","","","","",""
"null","231123","SARL_v6","SARL_v6rlfb2gdj","63e548d24319702eba4fc949","freq","","","img/blue_2bandit_b2.png","null","","70","test","0","","30","","","","circle","square","29","3","2","0.8275862068965517","","","","","","","",""
"null","231282","SARL_v6","SARL_v6rlfb2gdj","63e548d24319702eba4fc949","fixation","","","img/fixation.png","null","","","test","","","","","","","","","","","","","","","","","","","",""
"312.7000000476837","231597","SARL_v6","SARL_v6rlfb2gdj","63e548d24319702eba4fc949","freq","","","img/blue_2bandit_b2.png","70","","70","test","1","","31","","","","circle","square","30","4","2","0.8333333333333334","","","","","","","",""
"null","232095","SARL_v6","SARL_v6rlfb2gdj","63e548d24319702eba4fc949","freq_resp","","","img/blue_2bandit_b.png","70","img/blue_2bandit_b.png","70","test","","","","","","","","","","","2","","","","","","","","",""
"null","232249","SARL_v6","SARL_v6rlfb2gdj","63e548d24319702eba4fc949","fixation","","","img/fixation.png","null","","","test","","","","","","","","","","","","","","","","","","","",""
"290.89999985694885","232543","SARL_v6","SARL_v6rlfb2gdj","63e548d24319702eba4fc949","freq","","","img/blue_2bandit_b2.png","70","","70","test","1","","32","","","","circle","square","31","5","2","0.8387096774193549","","","","","","","",""
"null","233055","SARL_v6","SARL_v6rlfb2gdj","63e548d24319702eba4fc949","freq_resp","","","img/blue_2bandit_b.png","70","img/blue_2bandit_b.png","70","test","","","","","","","","","","","2","","","","","","","","",""
"null","233211","SARL_v6","SARL_v6rlfb2gdj","63e548d24319702eba4fc949","fixation","","","img/fixation.png","null","","","test","","","","","","","","","","","","","","","","","","","",""
"276","233489","SARL_v6","SARL_v6rlfb2gdj","63e548d24319702eba4fc949","freq","","","img/blue_2bandit_b2.png","70","","70","test","1","","33","","","","circle","square","32","6","2","0.84375","","","","","","","",""
"null","234024","SARL_v6","SARL_v6rlfb2gdj","63e548d24319702eba4fc949","freq_resp","","","img/blue_2bandit_b.png","70","img/blue_2bandit_b.png","70","test","","","","","","","","","","","2","","","","","","","","",""
"null","234183","SARL_v6","SARL_v6rlfb2gdj","63e548d24319702eba4fc949","fixation","","","img/fixation.png","null","","","test","","","","","","","","","","","","","","","","","","","",""
"269.89999985694885","234456","SARL_v6","SARL_v6rlfb2gdj","63e548d24319702eba4fc949","freq","","","img/blue_2bandit_b2.png","70","","70","test","1","","34","","","","circle","square","33","7","2","0.8484848484848485","","","","","","","",""
"null","234989","SARL_v6","SARL_v6rlfb2gdj","63e548d24319702eba4fc949","freq_resp","","","img/blue_2bandit_b.png","70","img/blue_2bandit_b.png","70","test","","","","","","","","","","","2","","","","","","","","",""
"null","235148","SARL_v6","SARL_v6rlfb2gdj","63e548d24319702eba4fc949","fixation","","","img/fixation.png","null","","","test","","","","","","","","","","","","","","","","","","","",""
"296.7000000476837","235447","SARL_v6","SARL_v6rlfb2gdj","63e548d24319702eba4fc949","freq","","","img/blue_2bandit_b2.png","70","","70","test","1","","35","","","","circle","square","34","8","2","0.8529411764705882","","","","","","","",""
"null","235959","SARL_v6","SARL_v6rlfb2gdj","63e548d24319702eba4fc949","freq_resp","","","img/blue_2bandit_b.png","70","img/blue_2bandit_b.png","70","test","","","","","","","","","","","2","","","","","","","","",""
"null","236123","SARL_v6","SARL_v6rlfb2gdj","63e548d24319702eba4fc949","fixation","","","img/fixation.png","null","","","test","","","","","","","","","","","","","","","","","","","",""
"382.5","236508","SARL_v6","SARL_v6rlfb2gdj","63e548d24319702eba4fc949","infreq","","","img/orange_2bandit_b2.png","68","","68","test","1","","36","","","","circle","square","35","9","2","0.8571428571428571","","","","","","","",""
"null","236933","SARL_v6","SARL_v6rlfb2gdj","63e548d24319702eba4fc949","infreq_resp","","","img/orange_2bandit_b.png","68","img/orange_2bandit_b.png","68","test","","","","","","","","","","","2","","","","","","","","",""
"null","237091","SARL_v6","SARL_v6rlfb2gdj","63e548d24319702eba4fc949","fixation","","","img/fixation.png","null","","","test","","","","","","","","","","","","","","","","","","","",""
"400.7999999523163","237494","SARL_v6","SARL_v6rlfb2gdj","63e548d24319702eba4fc949","freq","","","img/blue_2bandit_b2.png","70","","70","test","1","","37","","","","circle","square","36","10","2","0.8611111111111112","","","","","","","",""
"null","237900","SARL_v6","SARL_v6rlfb2gdj","63e548d24319702eba4fc949","freq_resp","","","img/blue_2bandit_b.png","70","img/blue_2bandit_b.png","70","test","","","","","","","","","","","2","","","","","","","","",""
"null","238064","SARL_v6","SARL_v6rlfb2gdj","63e548d24319702eba4fc949","fixation","","","img/fixation.png","null","","","test","","","","","","","","","","","","","","","","","","","",""
"487.90000009536743","238554","SARL_v6","SARL_v6rlfb2gdj","63e548d24319702eba4fc949","freq","","","img/blue_2bandit_b2.png","70","","70","test","1","","38","","","","circle","square","37","11","2","0.8648648648648649","","","","","","","",""
"null","238871","SARL_v6","SARL_v6rlfb2gdj","63e548d24319702eba4fc949","freq_resp","","","img/blue_2bandit_b.png","70","img/blue_2bandit_b.png","70","test","","","","","","","","","","","2","","","","","","","","",""
"null","239031","SARL_v6","SARL_v6rlfb2gdj","63e548d24319702eba4fc949","fixation","","","img/fixation.png","null","","","test","","","","","","","","","","","","","","","","","","","",""
"437.7999999523163","239471","SARL_v6","SARL_v6rlfb2gdj","63e548d24319702eba4fc949","freq","","","img/blue_2bandit_b2.png","70","","70","test","1","","39","","","","circle","square","38","12","2","0.868421052631579","","","","","","","",""
"null","239844","SARL_v6","SARL_v6rlfb2gdj","63e548d24319702eba4fc949","freq_resp","","","img/blue_2bandit_b.png","70","img/blue_2bandit_b.png","70","test","","","","","","","","","","","2","","","","","","","","",""
"null","240011","SARL_v6","SARL_v6rlfb2gdj","63e548d24319702eba4fc949","fixation","","","img/fixation.png","null","","","test","","","","","","","","","","","","","","","","","","","",""
"429.2999999523163","240443","SARL_v6","SARL_v6rlfb2gdj","63e548d24319702eba4fc949","freq","","","img/blue_2bandit_b2.png","70","","70","test","1","","40","","","","circle","square","39","13","2","0.8717948717948718","","","","","","","",""
"null","240830","SARL_v6","SARL_v6rlfb2gdj","63e548d24319702eba4fc949","freq_resp","","","img/blue_2bandit_b.png","70","img/blue_2bandit_b.png","70","test","","","","","","","","","","","2","","","","","","","","",""
"null","240983","SARL_v6","SARL_v6rlfb2gdj","63e548d24319702eba4fc949","fixation","","","img/fixation.png","null","","","test","","","","","","","","","","","","","","","","","","","",""
"233.90000009536743","241219","SARL_v6","SARL_v6rlfb2gdj","63e548d24319702eba4fc949","freq","","","img/blue_2bandit_b2.png","70","","70","test","1","","41","","","","circle","square","40","14","2","0.875","","","","","","","",""
"null","241789","SARL_v6","SARL_v6rlfb2gdj","63e548d24319702eba4fc949","freq_resp","","","img/blue_2bandit_b.png","70","img/blue_2bandit_b.png","70","test","","","","","","","","","","","2","","","","","","","","",""
"null","241944","SARL_v6","SARL_v6rlfb2gdj","63e548d24319702eba4fc949","fixation","","","img/fixation.png","null","","","test","","","","","","","","","","","","","","","","","","","",""
"233.89999985694885","242181","SARL_v6","SARL_v6rlfb2gdj","63e548d24319702eba4fc949","freq","","","img/blue_2bandit_b2.png","70","","70","test","1","","42","","","","circle","square","41","15","2","0.8780487804878049","","","","","","","",""
"null","242753","SARL_v6","SARL_v6rlfb2gdj","63e548d24319702eba4fc949","freq_resp","","","img/blue_2bandit_b.png","70","img/blue_2bandit_b.png","70","test","","","","","","","","","","","2","","","","","","","","",""
"null","242915","SARL_v6","SARL_v6rlfb2gdj","63e548d24319702eba4fc949","fixation","","","img/fixation.png","null","","","test","","","","","","","","","","","","","","","","","","","",""
"270.40000009536743","243188","SARL_v6","SARL_v6rlfb2gdj","63e548d24319702eba4fc949","freq","","","img/blue_2bandit_b2.png","70","","70","test","1","","43","","","","circle","square","42","16","2","0.8809523809523809","","","","","","","",""
"null","243723","SARL_v6","SARL_v6rlfb2gdj","63e548d24319702eba4fc949","freq_resp","","","img/blue_2bandit_b.png","70","img/blue_2bandit_b.png","70","test","","","","","","","","","","","2","","","","","","","","",""
"null","243881","SARL_v6","SARL_v6rlfb2gdj","63e548d24319702eba4fc949","fixation","","","img/fixation.png","null","","","test","","","","","","","","","","","","","","","","","","","",""
"453.30000019073486","244337","SARL_v6","SARL_v6rlfb2gdj","63e548d24319702eba4fc949","infreq","","","img/orange_2bandit_b2.png","68","","68","test","1","","44","","","","circle","square","43","17","2","0.8837209302325582","","","","","","","",""
"null","244694","SARL_v6","SARL_v6rlfb2gdj","63e548d24319702eba4fc949","infreq_resp","","","img/orange_2bandit_b.png","68","img/orange_2bandit_b.png","68","test","","","","","","","","","","","2","","","","","","","","",""
"null","244848","SARL_v6","SARL_v6rlfb2gdj","63e548d24319702eba4fc949","fixation","","","img/fixation.png","null","","","test","","","","","","","","","","","","","","","","","","","",""
"629.2000000476837","245479","SARL_v6","SARL_v6rlfb2gdj","63e548d24319702eba4fc949","infreq","","","img/orange_2bandit_b2.png","68","","68","test","1","","45","","","","circle","square","44","18","2","0.8863636363636364","","","","","","","",""
"null","245654","SARL_v6","SARL_v6rlfb2gdj","63e548d24319702eba4fc949","infreq_resp","","","img/orange_2bandit_b.png","68","img/orange_2bandit_b.png","68","test","","","","","","","","","","","2","","","","","","","","",""
"null","245814","SARL_v6","SARL_v6rlfb2gdj","63e548d24319702eba4fc949","fixation","","","img/fixation.png","null","","","test","","","","","","","","","","","","","","","","","","","",""
"549.1000001430511","246365","SARL_v6","SARL_v6rlfb2gdj","63e548d24319702eba4fc949","freq","","","img/blue_2bandit_b2.png","70","","70","test","1","","46","","","","circle","square","45","19","2","0.8888888888888888","","","","","","","",""
"null","246625","SARL_v6","SARL_v6rlfb2gdj","63e548d24319702eba4fc949","freq_resp","","","img/blue_2bandit_b.png","70","img/blue_2bandit_b.png","70","test","","","","","","","","","","","2","","","","","","","","",""
"null","246782","SARL_v6","SARL_v6rlfb2gdj","63e548d24319702eba4fc949","fixation","","","img/fixation.png","null","","","test","","","","","","","","","","","","","","","","","","","",""
"287.59999990463257","247071","SARL_v6","SARL_v6rlfb2gdj","63e548d24319702eba4fc949","freq","","","img/blue_2bandit_b2.png","70","","70","test","1","","47","","","","circle","square","46","20","2","0.8913043478260869","","","","","","","",""
"null","247590","SARL_v6","SARL_v6rlfb2gdj","63e548d24319702eba4fc949","freq_resp","","","img/blue_2bandit_b.png","70","img/blue_2bandit_b.png","70","test","","","","","","","","","","","2","","","","","","","","",""
"null","247754","SARL_v6","SARL_v6rlfb2gdj","63e548d24319702eba4fc949","fixation","","","img/fixation.png","null","","","test","","","","","","","","","","","","","","","","","","","",""
"391.90000009536743","248149","SARL_v6","SARL_v6rlfb2gdj","63e548d24319702eba4fc949","freq","","","img/blue_2bandit_b2.png","70","","70","test","1","","48","","","","circle","square","47","21","2","0.8936170212765957","","","","","","","",""
"null","248565","SARL_v6","SARL_v6rlfb2gdj","63e548d24319702eba4fc949","freq_resp","","","img/blue_2bandit_b.png","70","img/blue_2bandit_b.png","70","test","","","","","","","","","","","2","","","","","","","","",""
"null","248731","SARL_v6","SARL_v6rlfb2gdj","63e548d24319702eba4fc949","fixation","","","img/fixation.png","null","","","test","","","","","","","","","","","","","","","","","","","",""
"615.2999999523163","249348","SARL_v6","SARL_v6rlfb2gdj","63e548d24319702eba4fc949","rl","","","img/black_2bandit_b2.png","74","","0","test","","","49","","","-5","circle","square","","0","2","","74","-5","-8","-5","-8","circle","2","0"
"null","250107","SARL_v6","SARL_v6rlfb2gdj","63e548d24319702eba4fc949","feedback","","","<div class=""verylowPoints""> -5 </div>","null","","na","test","","","NaN","","","","","","","","2","","74","","","","","","2",""
"706","250816","SARL_v6","SARL_v6rlfb2gdj","63e548d24319702eba4fc949","freq","","","img/blue_2bandit_b2.png","70","","70","test","1","","50","","","","circle","square","48","1","3","0.8958333333333334","","","","","","","",""
"null","250917","SARL_v6","SARL_v6rlfb2gdj","63e548d24319702eba4fc949","freq_resp","","","img/blue_2bandit_b.png","70","img/blue_2bandit_b.png","70","test","","","","","","","","","","","3","","","","","","","","",""
"null","251080","SARL_v6","SARL_v6rlfb2gdj","63e548d24319702eba4fc949","fixation","","","img/fixation.png","null","","","test","","","","","","","","","","","","","","","","","","","",""
"634.5","251717","SARL_v6","SARL_v6rlfb2gdj","63e548d24319702eba4fc949","freq","","","img/blue_2bandit_b2.png","70","","70","test","1","","51","","","","circle","square","49","2","3","0.8979591836734694","","","","","","","",""
"null","251895","SARL_v6","SARL_v6rlfb2gdj","63e548d24319702eba4fc949","freq_resp","","","img/blue_2bandit_b.png","70","img/blue_2bandit_b.png","70","test","","","","","","","","","","","3","","","","","","","","",""
"null","252049","SARL_v6","SARL_v6rlfb2gdj","63e548d24319702eba4fc949","fixation","","","img/fixation.png","null","","","test","","","","","","","","","","","","","","","","","","","",""
"701.2999999523163","252753","SARL_v6","SARL_v6rlfb2gdj","63e548d24319702eba4fc949","freq","","","img/blue_2bandit_b2.png","70","","70","test","1","","52","","","","circle","square","50","3","3","0.9","","","","","","","",""
"null","252866","SARL_v6","SARL_v6rlfb2gdj","63e548d24319702eba4fc949","freq_resp","","","img/blue_2bandit_b.png","70","img/blue_2bandit_b.png","70","test","","","","","","","","","","","3","","","","","","","","",""
"null","253022","SARL_v6","SARL_v6rlfb2gdj","63e548d24319702eba4fc949","fixation","","","img/fixation.png","null","","","test","","","","","","","","","","","","","","","","","","","",""
"679.5","253704","SARL_v6","SARL_v6rlfb2gdj","63e548d24319702eba4fc949","freq","","","img/blue_2bandit_b2.png","70","","70","test","1","","53","","","","circle","square","51","4","3","0.9019607843137255","","","","","","","",""
"null","253840","SARL_v6","SARL_v6rlfb2gdj","63e548d24319702eba4fc949","freq_resp","","","img/blue_2bandit_b.png","70","img/blue_2bandit_b.png","70","test","","","","","","","","","","","3","","","","","","","","",""
"null","253999","SARL_v6","SARL_v6rlfb2gdj","63e548d24319702eba4fc949","fixation","","","img/fixation.png","null","","","test","","","","","","","","","","","","","","","","","","","",""
"639.5","254641","SARL_v6","SARL_v6rlfb2gdj","63e548d24319702eba4fc949","freq","","","img/blue_2bandit_b2.png","70","","70","test","1","","54","","","","circle","square","52","5","3","0.9038461538461539","","","","","","","",""
"null","254813","SARL_v6","SARL_v6rlfb2gdj","63e548d24319702eba4fc949","freq_resp","","","img/blue_2bandit_b.png","70","img/blue_2bandit_b.png","70","test","","","","","","","","","","","3","","","","","","","","",""
"null","254979","SARL_v6","SARL_v6rlfb2gdj","63e548d24319702eba4fc949","fixation","","","img/fixation.png","null","","","test","","","","","","","","","","","","","","","","","","","",""
"444.89999985694885","255426","SARL_v6","SARL_v6rlfb2gdj","63e548d24319702eba4fc949","freq","","","img/blue_2bandit_b2.png","70","","70","test","1","","55","","","","circle","square","53","6","3","0.9056603773584906","","","","","","","",""
"null","255796","SARL_v6","SARL_v6rlfb2gdj","63e548d24319702eba4fc949","freq_resp","","","img/blue_2bandit_b.png","70","img/blue_2bandit_b.png","70","test","","","","","","","","","","","3","","","","","","","","",""
"null","255959","SARL_v6","SARL_v6rlfb2gdj","63e548d24319702eba4fc949","fixation","","","img/fixation.png","null","","","test","","","","","","","","","","","","","","","","","","","",""
"345.5","256306","SARL_v6","SARL_v6rlfb2gdj","63e548d24319702eba4fc949","freq","","","img/blue_2bandit_b2.png","70","","70","test","1","","56","","","","circle","square","54","7","3","0.9074074074074074","","","","","","","",""
"null","256765","SARL_v6","SARL_v6rlfb2gdj","63e548d24319702eba4fc949","freq_resp","","","img/blue_2bandit_b.png","70","img/blue_2bandit_b.png","70","test","","","","","","","","","","","3","","","","","","","","",""
"null","256928","SARL_v6","SARL_v6rlfb2gdj","63e548d24319702eba4fc949","fixation","","","img/fixation.png","null","","","test","","","","","","","","","","","","","","","","","","","",""
"317.39999985694885","257248","SARL_v6","SARL_v6rlfb2gdj","63e548d24319702eba4fc949","freq","","","img/blue_2bandit_b2.png","70","","70","test","1","","57","","","","circle","square","55","8","3","0.9090909090909091","","","","","","","",""
"null","257735","SARL_v6","SARL_v6rlfb2gdj","63e548d24319702eba4fc949","freq_resp","","","img/blue_2bandit_b.png","70","img/blue_2bandit_b.png","70","test","","","","","","","","","","","3","","","","","","","","",""
"null","257896","SARL_v6","SARL_v6rlfb2gdj","63e548d24319702eba4fc949","fixation","","","img/fixation.png","null","","","test","","","","","","","","","","","","","","","","","","","",""
"256.40000009536743","258155","SARL_v6","SARL_v6rlfb2gdj","63e548d24319702eba4fc949","freq","","","img/blue_2bandit_b2.png","70","","70","test","1","","58","","","","circle","square","56","9","3","0.9107142857142857","","","","","","","",""
"null","258712","SARL_v6","SARL_v6rlfb2gdj","63e548d24319702eba4fc949","freq_resp","","","img/blue_2bandit_b.png","70","img/blue_2bandit_b.png","70","test","","","","","","","","","","","3","","","","","","","","",""
"null","258873","SARL_v6","SARL_v6rlfb2gdj","63e548d24319702eba4fc949","fixation","","","img/fixation.png","null","","","test","","","","","","","","","","","","","","","","","","","",""
"470","259346","SARL_v6","SARL_v6rlfb2gdj","63e548d24319702eba4fc949","infreq","","","img/orange_2bandit_b2.png","68","","68","test","1","","59","","","","circle","square","57","10","3","0.9122807017543859","","","","","","","",""
"null","259686","SARL_v6","SARL_v6rlfb2gdj","63e548d24319702eba4fc949","infreq_resp","","","img/orange_2bandit_b.png","68","img/orange_2bandit_b.png","68","test","","","","","","","","","","","3","","","","","","","","",""
"null","259846","SARL_v6","SARL_v6rlfb2gdj","63e548d24319702eba4fc949","fixation","","","img/fixation.png","null","","","test","","","","","","","","","","","","","","","","","","","",""
"473.2000000476837","260322","SARL_v6","SARL_v6rlfb2gdj","63e548d24319702eba4fc949","infreq","","","img/orange_2bandit_b2.png","68","","68","test","1","","60","","","","circle","square","58","11","3","0.9137931034482759","","","","","","","",""
"null","260654","SARL_v6","SARL_v6rlfb2gdj","63e548d24319702eba4fc949","infreq_resp","","","img/orange_2bandit_b.png","68","img/orange_2bandit_b.png","68","test","","","","","","","","","","","3","","","","","","","","",""
"null","260813","SARL_v6","SARL_v6rlfb2gdj","63e548d24319702eba4fc949","fixation","","","img/fixation.png","null","","","test","","","","","","","","","","","","","","","","","","","",""
"408","261223","SARL_v6","SARL_v6rlfb2gdj","63e548d24319702eba4fc949","freq","","","img/blue_2bandit_b2.png","70","","70","test","1","","61","","","","circle","square","59","12","3","0.9152542372881356","","","","","","","",""
"null","261631","SARL_v6","SARL_v6rlfb2gdj","63e548d24319702eba4fc949","freq_resp","","","img/blue_2bandit_b.png","70","img/blue_2bandit_b.png","70","test","","","","","","","","","","","3","","","","","","","","",""
"null","261796","SARL_v6","SARL_v6rlfb2gdj","63e548d24319702eba4fc949","fixation","","","img/fixation.png","null","","","test","","","","","","","","","","","","","","","","","","","",""
"306.2999999523163","262104","SARL_v6","SARL_v6rlfb2gdj","63e548d24319702eba4fc949","freq","","","img/blue_2bandit_b2.png","70","","70","test","1","","62","","","","circle","square","60","13","3","0.9166666666666666","","","","","","","",""
"null","262607","SARL_v6","SARL_v6rlfb2gdj","63e548d24319702eba4fc949","freq_resp","","","img/blue_2bandit_b.png","70","img/blue_2bandit_b.png","70","test","","","","","","","","","","","3","","","","","","","","",""
"null","262769","SARL_v6","SARL_v6rlfb2gdj","63e548d24319702eba4fc949","fixation","","","img/fixation.png","null","","","test","","","","","","","","","","","","","","","","","","","",""
"259","263030","SARL_v6","SARL_v6rlfb2gdj","63e548d24319702eba4fc949","freq","","","img/blue_2bandit_b2.png","70","","70","test","1","","63","","","","circle","square","61","14","3","0.9180327868852459","","","","","","","",""
"null","263587","SARL_v6","SARL_v6rlfb2gdj","63e548d24319702eba4fc949","freq_resp","","","img/blue_2bandit_b.png","70","img/blue_2bandit_b.png","70","test","","","","","","","","","","","3","","","","","","","","",""
"null","263753","SARL_v6","SARL_v6rlfb2gdj","63e548d24319702eba4fc949","fixation","","","img/fixation.png","null","","","test","","","","","","","","","","","","","","","","","","","",""
"260.2000000476837","264016","SARL_v6","SARL_v6rlfb2gdj","63e548d24319702eba4fc949","freq","","","img/blue_2bandit_b2.png","70","","70","test","1","","64","","","","circle","square","62","15","3","0.9193548387096774","","","","","","","",""
"null","264571","SARL_v6","SARL_v6rlfb2gdj","63e548d24319702eba4fc949","freq_resp","","","img/blue_2bandit_b.png","70","img/blue_2bandit_b.png","70","test","","","","","","","","","","","3","","","","","","","","",""
"null","264736","SARL_v6","SARL_v6rlfb2gdj","63e548d24319702eba4fc949","fixation","","","img/fixation.png","null","","","test","","","","","","","","","","","","","","","","","","","",""
"253.20000004768372","264991","SARL_v6","SARL_v6rlfb2gdj","63e548d24319702eba4fc949","freq","","","img/blue_2bandit_b2.png","70","","70","test","1","","65","","","","circle","square","63","16","3","0.9206349206349206","","","","","","","",""
"null","265546","SARL_v6","SARL_v6rlfb2gdj","63e548d24319702eba4fc949","freq_resp","","","img/blue_2bandit_b.png","70","img/blue_2bandit_b.png","70","test","","","","","","","","","","","3","","","","","","","","",""
"null","265711","SARL_v6","SARL_v6rlfb2gdj","63e548d24319702eba4fc949","fixation","","","img/fixation.png","null","","","test","","","","","","","","","","","","","","","","","","","",""
"265.19999980926514","265978","SARL_v6","SARL_v6rlfb2gdj","63e548d24319702eba4fc949","freq","","","img/blue_2bandit_b2.png","70","","70","test","1","","66","","","","circle","square","64","17","3","0.921875","","","","","","","",""
"null","266520","SARL_v6","SARL_v6rlfb2gdj","63e548d24319702eba4fc949","freq_resp","","","img/blue_2bandit_b.png","70","img/blue_2bandit_b.png","70","test","","","","","","","","","","","3","","","","","","","","",""
"null","266683","SARL_v6","SARL_v6rlfb2gdj","63e548d24319702eba4fc949","fixation","","","img/fixation.png","null","","","test","","","","","","","","","","","","","","","","","","","",""
"289.39999985694885","266974","SARL_v6","SARL_v6rlfb2gdj","63e548d24319702eba4fc949","freq","","","img/blue_2bandit_b2.png","70","","70","test","1","","67","","","","circle","square","65","18","3","0.9230769230769231","","","","","","","",""
"null","267489","SARL_v6","SARL_v6rlfb2gdj","63e548d24319702eba4fc949","freq_resp","","","img/blue_2bandit_b.png","70","img/blue_2bandit_b.png","70","test","","","","","","","","","","","3","","","","","","","","",""
"null","267646","SARL_v6","SARL_v6rlfb2gdj","63e548d24319702eba4fc949","fixation","","","img/fixation.png","null","","","test","","","","","","","","","","","","","","","","","","","",""
"132.29999995231628","267780","SARL_v6","SARL_v6rlfb2gdj","63e548d24319702eba4fc949","freq","","","img/blue_2bandit_b2.png","70","","70","test","1","","68","","","","circle","square","66","19","3","0.9242424242424242","","","","","","","",""
"null","268465","SARL_v6","SARL_v6rlfb2gdj","63e548d24319702eba4fc949","freq_resp","","","img/blue_2bandit_b.png","70","img/blue_2bandit_b.png","70","test","","","","","","","","","","","3","","","","","","","","",""
"null","268625","SARL_v6","SARL_v6rlfb2gdj","63e548d24319702eba4fc949","fixation","","","img/fixation.png","null","","","test","","","","","","","","","","","","","","","","","","","",""
"109.09999990463257","268736","SARL_v6","SARL_v6rlfb2gdj","63e548d24319702eba4fc949","freq","","","img/blue_2bandit_b2.png","70","","70","test","1","","69","","","","circle","square","67","20","3","0.9253731343283582","","","","","","","",""
"null","269429","SARL_v6","SARL_v6rlfb2gdj","63e548d24319702eba4fc949","freq_resp","","","img/blue_2bandit_b.png","70","img/blue_2bandit_b.png","70","test","","","","","","","","","","","3","","","","","","","","",""
"null","269589","SARL_v6","SARL_v6rlfb2gdj","63e548d24319702eba4fc949","fixation","","","img/fixation.png","null","","","test","","","","","","","","","","","","","","","","","","","",""
"111.70000004768372","269703","SARL_v6","SARL_v6rlfb2gdj","63e548d24319702eba4fc949","freq","","","img/blue_2bandit_b2.png","70","","70","test","1","","70","","","","circle","square","68","21","3","0.9264705882352942","","","","","","","",""
"null","270404","SARL_v6","SARL_v6rlfb2gdj","63e548d24319702eba4fc949","freq_resp","","","img/blue_2bandit_b.png","70","img/blue_2bandit_b.png","70","test","","","","","","","","","","","3","","","","","","","","",""
"null","270569","SARL_v6","SARL_v6rlfb2gdj","63e548d24319702eba4fc949","fixation","","","img/fixation.png","null","","","test","","","","","","","","","","","","","","","","","","","",""
"1128.7999999523163","271700","SARL_v6","SARL_v6rlfb2gdj","63e548d24319702eba4fc949","rl","","","img/black_2bandit_b2.png","75","","0","test","","","71","","","-8","circle","square","","0","3","","75","-4","-8","-4","-8","square","3","0"
"null","272456","SARL_v6","SARL_v6rlfb2gdj","63e548d24319702eba4fc949","feedback","","","<div class=""verylowPoints_sq""> -8 </div>","null","","na","test","","","NaN","","","","","","","","3","","75","","","","","","3",""
"779.4000000953674","273237","SARL_v6","SARL_v6rlfb2gdj","63e548d24319702eba4fc949","freq","","","img/blue_2bandit_b2.png","70","","70","test","1","","72","","","","circle","square","69","1","4","0.927536231884058","","","","","","","",""
"null","273260","SARL_v6","SARL_v6rlfb2gdj","63e548d24319702eba4fc949","freq_resp","","","img/blue_2bandit_b.png","70","img/blue_2bandit_b.png","70","test","","","","","","","","","","","4","","","","","","","","",""
"null","273413","SARL_v6","SARL_v6rlfb2gdj","63e548d24319702eba4fc949","fixation","","","img/fixation.png","null","","","test","","","","","","","","","","","","","","","","","","","",""
"698.3999998569489","274114","SARL_v6","SARL_v6rlfb2gdj","63e548d24319702eba4fc949","freq","","","img/blue_2bandit_b2.png","70","","70","test","1","","73","","","","circle","square","70","2","4","0.9285714285714286","","","","","","","",""
"null","274230","SARL_v6","SARL_v6rlfb2gdj","63e548d24319702eba4fc949","freq_resp","","","img/blue_2bandit_b.png","70","img/blue_2bandit_b.png","70","test","","","","","","","","","","","4","","","","","","","","",""
"null","274386","SARL_v6","SARL_v6rlfb2gdj","63e548d24319702eba4fc949","fixation","","","img/fixation.png","null","","","test","","","","","","","","","","","","","","","","","","","",""
"354.5","274743","SARL_v6","SARL_v6rlfb2gdj","63e548d24319702eba4fc949","freq","","","img/blue_2bandit_b2.png","70","","70","test","1","","74","","","","circle","square","71","3","4","0.9295774647887324","","","","","","","",""
"null","275206","SARL_v6","SARL_v6rlfb2gdj","63e548d24319702eba4fc949","freq_resp","","","img/blue_2bandit_b.png","70","img/blue_2bandit_b.png","70","test","","","","","","","","","","","4","","","","","","","","",""
"null","275373","SARL_v6","SARL_v6rlfb2gdj","63e548d24319702eba4fc949","fixation","","","img/fixation.png","null","","","test","","","","","","","","","","","","","","","","","","","",""
"319.39999985694885","275695","SARL_v6","SARL_v6rlfb2gdj","63e548d24319702eba4fc949","freq","","","img/blue_2bandit_b2.png","70","","70","test","1","","75","","","","circle","square","72","4","4","0.9305555555555556","","","","","","","",""
"null","276190","SARL_v6","SARL_v6rlfb2gdj","63e548d24319702eba4fc949","freq_resp","","","img/blue_2bandit_b.png","70","img/blue_2bandit_b.png","70","test","","","","","","","","","","","4","","","","","","","","",""
"null","276357","SARL_v6","SARL_v6rlfb2gdj","63e548d24319702eba4fc949","fixation","","","img/fixation.png","null","","","test","","","","","","","","","","","","","","","","","","","",""
"280.90000009536743","276641","SARL_v6","SARL_v6rlfb2gdj","63e548d24319702eba4fc949","freq","","","img/blue_2bandit_b2.png","70","","70","test","1","","76","","","","circle","square","73","5","4","0.9315068493150684","","","","","","","",""
"null","277171","SARL_v6","SARL_v6rlfb2gdj","63e548d24319702eba4fc949","freq_resp","","","img/blue_2bandit_b.png","70","img/blue_2bandit_b.png","70","test","","","","","","","","","","","4","","","","","","","","",""
"null","277338","SARL_v6","SARL_v6rlfb2gdj","63e548d24319702eba4fc949","fixation","","","img/fixation.png","null","","","test","","","","","","","","","","","","","","","","","","","",""
"251.5","277592","SARL_v6","SARL_v6rlfb2gdj","63e548d24319702eba4fc949","freq","","","img/blue_2bandit_b2.png","70","","70","test","1","","77","","","","circle","square","74","6","4","0.9324324324324325","","","","","","","",""
"null","278152","SARL_v6","SARL_v6rlfb2gdj","63e548d24319702eba4fc949","freq_resp","","","img/blue_2bandit_b.png","70","img/blue_2bandit_b.png","70","test","","","","","","","","","","","4","","","","","","","","",""
"null","278315","SARL_v6","SARL_v6rlfb2gdj","63e548d24319702eba4fc949","fixation","","","img/fixation.png","null","","","test","","","","","","","","","","","","","","","","","","","",""
"282.09999990463257","278599","SARL_v6","SARL_v6rlfb2gdj","63e548d24319702eba4fc949","infreq","","","img/orange_2bandit_b2.png","70","","68","test","0","","78","","","","circle","square","75","7","4","0.92","","","","","","","",""
"null","279120","SARL_v6","SARL_v6rlfb2gdj","63e548d24319702eba4fc949","infreq_resp","","","img/orange_2bandit_b.png","70","img/orange_2bandit_b.png","68","test","","","","","","","","","","","4","","","","","","","","",""
"null","279279","SARL_v6","SARL_v6rlfb2gdj","63e548d24319702eba4fc949","fixation","","","img/fixation.png","null","","","test","","","","","","","","","","","","","","","","","","","",""
"568.9000000953674","279850","SARL_v6","SARL_v6rlfb2gdj","63e548d24319702eba4fc949","freq","","","img/blue_2bandit_b2.png","70","","70","test","1","","79","","","","circle","square","76","8","4","0.9210526315789473","","","","","","","",""
"null","280089","SARL_v6","SARL_v6rlfb2gdj","63e548d24319702eba4fc949","freq_resp","","","img/blue_2bandit_b.png","70","img/blue_2bandit_b.png","70","test","","","","","","","","","","","4","","","","","","","","",""
"null","280244","SARL_v6","SARL_v6rlfb2gdj","63e548d24319702eba4fc949","fixation","","","img/fixation.png","null","","","test","","","","","","","","","","","","","","","","","","","",""
"454.80000019073486","280701","SARL_v6","SARL_v6rlfb2gdj","63e548d24319702eba4fc949","freq","","","img/blue_2bandit_b2.png","70","","70","test","1","","80","","","","circle","square","77","9","4","0.922077922077922","","","","","","","",""
"null","281058","SARL_v6","SARL_v6rlfb2gdj","63e548d24319702eba4fc949","freq_resp","","","img/blue_2bandit_b.png","70","img/blue_2bandit_b.png","70","test","","","","","","","","","","","4","","","","","","","","",""
"null","281225","SARL_v6","SARL_v6rlfb2gdj","63e548d24319702eba4fc949","fixation","","","img/fixation.png","null","","","test","","","","","","","","","","","","","","","","","","","",""
"263.69999980926514","281491","SARL_v6","SARL_v6rlfb2gdj","63e548d24319702eba4fc949","freq","","","img/blue_2bandit_b2.png","70","","70","test","1","","81","","","","circle","square","78","10","4","0.9230769230769231","","","","","","","",""
"null","282031","SARL_v6","SARL_v6rlfb2gdj","63e548d24319702eba4fc949","freq_resp","","","img/blue_2bandit_b.png","70","img/blue_2bandit_b.png","70","test","","","","","","","","","","","4","","","","","","","","",""
"null","282193","SARL_v6","SARL_v6rlfb2gdj","63e548d24319702eba4fc949","fixation","","","img/fixation.png","null","","","test","","","","","","","","","","","","","","","","","","","",""
"262.19999980926514","282457","SARL_v6","SARL_v6rlfb2gdj","63e548d24319702eba4fc949","freq","","","img/blue_2bandit_b2.png","70","","70","test","1","","82","","","","circle","square","79","11","4","0.9240506329113924","","","","","","","",""
"null","283002","SARL_v6","SARL_v6rlfb2gdj","63e548d24319702eba4fc949","freq_resp","","","img/blue_2bandit_b.png","70","img/blue_2bandit_b.png","70","test","","","","","","","","","","","4","","","","","","","","",""
"null","283155","SARL_v6","SARL_v6rlfb2gdj","63e548d24319702eba4fc949","fixation","","","img/fixation.png","null","","","test","","","","","","","","","","","","","","","","","","","",""
"276.2999999523163","283434","SARL_v6","SARL_v6rlfb2gdj","63e548d24319702eba4fc949","freq","","","img/blue_2bandit_b2.png","70","","70","test","1","","83","","","","circle","square","80","12","4","0.925","","","","","","","",""
"null","283968","SARL_v6","SARL_v6rlfb2gdj","63e548d24319702eba4fc949","freq_resp","","","img/blue_2bandit_b.png","70","img/blue_2bandit_b.png","70","test","","","","","","","","","","","4","","","","","","","","",""
"null","284129","SARL_v6","SARL_v6rlfb2gdj","63e548d24319702eba4fc949","fixation","","","img/fixation.png","null","","","test","","","","","","","","","","","","","","","","","","","",""
"349.2999999523163","284480","SARL_v6","SARL_v6rlfb2gdj","63e548d24319702eba4fc949","freq","","","img/blue_2bandit_b2.png","70","","70","test","1","","84","","","","circle","square","81","13","4","0.9259259259259259","","","","","","","",""
"null","284937","SARL_v6","SARL_v6rlfb2gdj","63e548d24319702eba4fc949","freq_resp","","","img/blue_2bandit_b.png","70","img/blue_2bandit_b.png","70","test","","","","","","","","","","","4","","","","","","","","",""
"null","285093","SARL_v6","SARL_v6rlfb2gdj","63e548d24319702eba4fc949","fixation","","","img/fixation.png","null","","","test","","","","","","","","","","","","","","","","","","","",""
"420.40000009536743","285516","SARL_v6","SARL_v6rlfb2gdj","63e548d24319702eba4fc949","infreq","","","img/orange_2bandit_b2.png","68","","68","test","1","","85","","","","circle","square","82","14","4","0.926829268292683","","","","","","","",""
"null","285905","SARL_v6","SARL_v6rlfb2gdj","63e548d24319702eba4fc949","infreq_resp","","","img/orange_2bandit_b.png","68","img/orange_2bandit_b.png","68","test","","","","","","","","","","","4","","","","","","","","",""
"null","286059","SARL_v6","SARL_v6rlfb2gdj","63e548d24319702eba4fc949","fixation","","","img/fixation.png","null","","","test","","","","","","","","","","","","","","","","","","","",""
"431.59999990463257","286493","SARL_v6","SARL_v6rlfb2gdj","63e548d24319702eba4fc949","freq","","","img/blue_2bandit_b2.png","70","","70","test","1","","86","","","","circle","square","83","15","4","0.927710843373494","","","","","","","",""
"null","286879","SARL_v6","SARL_v6rlfb2gdj","63e548d24319702eba4fc949","freq_resp","","","img/blue_2bandit_b.png","70","img/blue_2bandit_b.png","70","test","","","","","","","","","","","4","","","","","","","","",""
"null","287043","SARL_v6","SARL_v6rlfb2gdj","63e548d24319702eba4fc949","fixation","","","img/fixation.png","null","","","test","","","","","","","","","","","","","","","","","","","",""
"478.80000019073486","287524","SARL_v6","SARL_v6rlfb2gdj","63e548d24319702eba4fc949","freq","","","img/blue_2bandit_b2.png","70","","70","test","1","","87","","","","circle","square","84","16","4","0.9285714285714286","","","","","","","",""
"null","287850","SARL_v6","SARL_v6rlfb2gdj","63e548d24319702eba4fc949","freq_resp","","","img/blue_2bandit_b.png","70","img/blue_2bandit_b.png","70","test","","","","","","","","","","","4","","","","","","","","",""
"null","288009","SARL_v6","SARL_v6rlfb2gdj","63e548d24319702eba4fc949","fixation","","","img/fixation.png","null","","","test","","","","","","","","","","","","","","","","","","","",""
"332.60000014305115","288344","SARL_v6","SARL_v6rlfb2gdj","63e548d24319702eba4fc949","freq","","","img/blue_2bandit_b2.png","70","","70","test","1","","88","","","","circle","square","85","17","4","0.9294117647058824","","","","","","","",""
"null","288821","SARL_v6","SARL_v6rlfb2gdj","63e548d24319702eba4fc949","freq_resp","","","img/blue_2bandit_b.png","70","img/blue_2bandit_b.png","70","test","","","","","","","","","","","4","","","","","","","","",""
"null","288977","SARL_v6","SARL_v6rlfb2gdj","63e548d24319702eba4fc949","fixation","","","img/fixation.png","null","","","test","","","","","","","","","","","","","","","","","","","",""
"420.80000019073486","289400","SARL_v6","SARL_v6rlfb2gdj","63e548d24319702eba4fc949","freq","","","img/blue_2bandit_b2.png","70","","70","test","1","","89","","","","circle","square","86","18","4","0.9302325581395349","","","","","","","",""
"null","289795","SARL_v6","SARL_v6rlfb2gdj","63e548d24319702eba4fc949","freq_resp","","","img/blue_2bandit_b.png","70","img/blue_2bandit_b.png","70","test","","","","","","","","","","","4","","","","","","","","",""
"null","289951","SARL_v6","SARL_v6rlfb2gdj","63e548d24319702eba4fc949","fixation","","","img/fixation.png","null","","","test","","","","","","","","","","","","","","","","","","","",""
"294.2999999523163","290248","SARL_v6","SARL_v6rlfb2gdj","63e548d24319702eba4fc949","freq","","","img/blue_2bandit_b2.png","70","","70","test","1","","90","","","","circle","square","87","19","4","0.9310344827586207","","","","","","","",""
"null","290769","SARL_v6","SARL_v6rlfb2gdj","63e548d24319702eba4fc949","freq_resp","","","img/blue_2bandit_b.png","70","img/blue_2bandit_b.png","70","test","","","","","","","","","","","4","","","","","","","","",""
"null","290932","SARL_v6","SARL_v6rlfb2gdj","63e548d24319702eba4fc949","fixation","","","img/fixation.png","null","","","test","","","","","","","","","","","","","","","","","","","",""
"278.60000014305115","291213","SARL_v6","SARL_v6rlfb2gdj","63e548d24319702eba4fc949","freq","","","img/blue_2bandit_b2.png","70","","70","test","1","","91","","","","circle","square","88","20","4","0.9318181818181818","","","","","","","",""
"null","291751","SARL_v6","SARL_v6rlfb2gdj","63e548d24319702eba4fc949","freq_resp","","","img/blue_2bandit_b.png","70","img/blue_2bandit_b.png","70","test","","","","","","","","","","","4","","","","","","","","",""
"null","291916","SARL_v6","SARL_v6rlfb2gdj","63e548d24319702eba4fc949","fixation","","","img/fixation.png","null","","","test","","","","","","","","","","","","","","","","","","","",""
"276.7999999523163","292194","SARL_v6","SARL_v6rlfb2gdj","63e548d24319702eba4fc949","freq","","","img/blue_2bandit_b2.png","70","","70","test","1","","92","","","","circle","square","89","21","4","0.9325842696629213","","","","","","","",""
"null","292731","SARL_v6","SARL_v6rlfb2gdj","63e548d24319702eba4fc949","freq_resp","","","img/blue_2bandit_b.png","70","img/blue_2bandit_b.png","70","test","","","","","","","","","","","4","","","","","","","","",""
"null","292891","SARL_v6","SARL_v6rlfb2gdj","63e548d24319702eba4fc949","fixation","","","img/fixation.png","null","","","test","","","","","","","","","","","","","","","","","","","",""
"702.9000000953674","293596","SARL_v6","SARL_v6rlfb2gdj","63e548d24319702eba4fc949","rl","","","img/black_2bandit_b2.png","74","","0","test","","","93","","","0","circle","square","","0","4","","74","0","-12","0","-12","circle","4","0"
"null","294353","SARL_v6","SARL_v6rlfb2gdj","63e548d24319702eba4fc949","feedback","","","<div class=""verylowPoints""> 0 </div>","null","","na","test","","","NaN","","","","","","","","4","","74","","","","","","4",""
"706.3000001907349","295062","SARL_v6","SARL_v6rlfb2gdj","63e548d24319702eba4fc949","freq","","","img/blue_2bandit_b2.png","70","","70","test","1","","94","","","","circle","square","90","1","5","0.9333333333333333","","","","","","","",""
"null","295162","SARL_v6","SARL_v6rlfb2gdj","63e548d24319702eba4fc949","freq_resp","","","img/blue_2bandit_b.png","70","img/blue_2bandit_b.png","70","test","","","","","","","","","","","5","","","","","","","","",""
"null","295324","SARL_v6","SARL_v6rlfb2gdj","63e548d24319702eba4fc949","fixation","","","img/fixation.png","null","","","test","","","","","","","","","","","","","","","","","","","",""
"661.7000000476837","295988","SARL_v6","SARL_v6rlfb2gdj","63e548d24319702eba4fc949","freq","","","img/blue_2bandit_b2.png","70","","70","test","1","","95","","","","circle","square","91","2","5","0.9340659340659341","","","","","","","",""
"null","296141","SARL_v6","SARL_v6rlfb2gdj","63e548d24319702eba4fc949","freq_resp","","","img/blue_2bandit_b.png","70","img/blue_2bandit_b.png","70","test","","","","","","","","","","","5","","","","","","","","",""
"null","296301","SARL_v6","SARL_v6rlfb2gdj","63e548d24319702eba4fc949","fixation","","","img/fixation.png","null","","","test","","","","","","","","","","","","","","","","","","","",""
"395.89999985694885","296699","SARL_v6","SARL_v6rlfb2gdj","63e548d24319702eba4fc949","freq","","","img/blue_2bandit_b2.png","70","","70","test","1","","96","","","","circle","square","92","3","5","0.9347826086956522","","","","","","","",""
"null","297109","SARL_v6","SARL_v6rlfb2gdj","63e548d24319702eba4fc949","freq_resp","","","img/blue_2bandit_b.png","70","img/blue_2bandit_b.png","70","test","","","","","","","","","","","5","","","","","","","","",""
"null","297267","SARL_v6","SARL_v6rlfb2gdj","63e548d24319702eba4fc949","fixation","","","img/fixation.png","null","","","test","","","","","","","","","","","","","","","","","","","",""
"626.3999998569489","297895","SARL_v6","SARL_v6rlfb2gdj","63e548d24319702eba4fc949","freq","","","img/blue_2bandit_b2.png","70","","70","test","1","","97","","","","circle","square","93","4","5","0.9354838709677419","","","","","","","",""
"null","298082","SARL_v6","SARL_v6rlfb2gdj","63e548d24319702eba4fc949","freq_resp","","","img/blue_2bandit_b.png","70","img/blue_2bandit_b.png","70","test","","","","","","","","","","","5","","","","","","","","",""
"null","298241","SARL_v6","SARL_v6rlfb2gdj","63e548d24319702eba4fc949","fixation","","","img/fixation.png","null","","","test","","","","","","","","","","","","","","","","","","","",""
"642.6999998092651","298885","SARL_v6","SARL_v6rlfb2gdj","63e548d24319702eba4fc949","infreq","","","img/orange_2bandit_b2.png","70","","68","test","0","","98","","","","circle","square","94","5","5","0.925531914893617","","","","","","","",""
"null","299058","SARL_v6","SARL_v6rlfb2gdj","63e548d24319702eba4fc949","infreq_resp","","","img/orange_2bandit_b.png","70","img/orange_2bandit_b.png","68","test","","","","","","","","","","","5","","","","","","","","",""
"null","299223","SARL_v6","SARL_v6rlfb2gdj","63e548d24319702eba4fc949","fixation","","","img/fixation.png","null","","","test","","","","","","","","","","","","","","","","","","","",""
"511.69999980926514","299737","SARL_v6","SARL_v6rlfb2gdj","63e548d24319702eba4fc949","infreq","","","img/orange_2bandit_b2.png","68","","68","test","1","","99","","","","circle","square","95","6","5","0.9263157894736842","","","","","","","",""
"null","300032","SARL_v6","SARL_v6rlfb2gdj","63e548d24319702eba4fc949","infreq_resp","","","img/orange_2bandit_b.png","68","img/orange_2bandit_b.png","68","test","","","","","","","","","","","5","","","","","","","","",""
"null","300191","SARL_v6","SARL_v6rlfb2gdj","63e548d24319702eba4fc949","fixation","","","img/fixation.png","null","","","test","","","","","","","","","","","","","","","","","","","",""
"560.3999998569489","300754","SARL_v6","SARL_v6rlfb2gdj","63e548d24319702eba4fc949","freq","","","img/blue_2bandit_b2.png","70","","70","test","1","","100","","","","circle","square","96","7","5","0.9270833333333334","","","","","","","",""
"null","301002","SARL_v6","SARL_v6rlfb2gdj","63e548d24319702eba4fc949","freq_resp","","","img/blue_2bandit_b.png","70","img/blue_2bandit_b.png","70","test","","","","","","","","","","","5","","","","","","","","",""
"null","301158","SARL_v6","SARL_v6rlfb2gdj","63e548d24319702eba4fc949","fixation","","","img/fixation.png","null","","","test","","","","","","","","","","","","","","","","","","","",""
"624","301785","SARL_v6","SARL_v6rlfb2gdj","63e548d24319702eba4fc949","freq","","","img/blue_2bandit_b2.png","70","","70","test","1","","101","","","","circle","square","97","8","5","0.9278350515463918","","","","","","","",""
"null","301968","SARL_v6","SARL_v6rlfb2gdj","63e548d24319702eba4fc949","freq_resp","","","img/blue_2bandit_b.png","70","img/blue_2bandit_b.png","70","test","","","","","","","","","","","5","","","","","","","","",""
"null","302134","SARL_v6","SARL_v6rlfb2gdj","63e548d24319702eba4fc949","fixation","","","img/fixation.png","null","","","test","","","","","","","","","","","","","","","","","","","",""
"729.2000000476837","302866","SARL_v6","SARL_v6rlfb2gdj","63e548d24319702eba4fc949","freq","","","img/blue_2bandit_b2.png","70","","70","test","1","","102","","","","circle","square","98","9","5","0.9285714285714286","","","","","","","",""
"null","302951","SARL_v6","SARL_v6rlfb2gdj","63e548d24319702eba4fc949","freq_resp","","","img/blue_2bandit_b.png","70","img/blue_2bandit_b.png","70","test","","","","","","","","","","","5","","","","","","","","",""
"null","303110","SARL_v6","SARL_v6rlfb2gdj","63e548d24319702eba4fc949","fixation","","","img/fixation.png","null","","","test","","","","","","","","","","","","","","","","","","","",""
"750.0999999046326","303862","SARL_v6","SARL_v6rlfb2gdj","63e548d24319702eba4fc949","freq","","","img/blue_2bandit_b2.png","70","","70","test","1","","103","","","","circle","square","99","10","5","0.9292929292929293","","","","","","","",""
"null","303929","SARL_v6","SARL_v6rlfb2gdj","63e548d24319702eba4fc949","freq_resp","","","img/blue_2bandit_b.png","70","img/blue_2bandit_b.png","70","test","","","","","","","","","","","5","","","","","","","","",""
"null","304090","SARL_v6","SARL_v6rlfb2gdj","63e548d24319702eba4fc949","fixation","","","img/fixation.png","null","","","test","","","","","","","","","","","","","","","","","","","",""
"600.9000000953674","304693","SARL_v6","SARL_v6rlfb2gdj","63e548d24319702eba4fc949","freq","","","img/blue_2bandit_b2.png","70","","70","test","1","","104","","","","circle","square","100","11","5","0.93","","","","","","","",""
"null","304903","SARL_v6","SARL_v6rlfb2gdj","63e548d24319702eba4fc949","freq_resp","","","img/blue_2bandit_b.png","70","img/blue_2bandit_b.png","70","test","","","","","","","","","","","5","","","","","","","","",""
"null","305067","SARL_v6","SARL_v6rlfb2gdj","63e548d24319702eba4fc949","fixation","","","img/fixation.png","null","","","test","","","","","","","","","","","","","","","","","","","",""
"559.7999999523163","305629","SARL_v6","SARL_v6rlfb2gdj","63e548d24319702eba4fc949","freq","","","img/blue_2bandit_b2.png","70","","70","test","1","","105","","","","circle","square","101","12","5","0.9306930693069307","","","","","","","",""
"null","305880","SARL_v6","SARL_v6rlfb2gdj","63e548d24319702eba4fc949","freq_resp","","","img/blue_2bandit_b.png","70","img/blue_2bandit_b.png","70","test","","","","","","","","","","","5","","","","","","","","",""
"null","306037","SARL_v6","SARL_v6rlfb2gdj","63e548d24319702eba4fc949","fixation","","","img/fixation.png","null","","","test","","","","","","","","","","","","","","","","","","","",""
"531.2999999523163","306571","SARL_v6","SARL_v6rlfb2gdj","63e548d24319702eba4fc949","freq","","","img/blue_2bandit_b2.png","70","","70","test","1","","106","","","","circle","square","102","13","5","0.9313725490196079","","","","","","","",""
"null","306851","SARL_v6","SARL_v6rlfb2gdj","63e548d24319702eba4fc949","freq_resp","","","img/blue_2bandit_b.png","70","img/blue_2bandit_b.png","70","test","","","","","","","","","","","5","","","","","","","","",""
"null","307018","SARL_v6","SARL_v6rlfb2gdj","63e548d24319702eba4fc949","fixation","","","img/fixation.png","null","","","test","","","","","","","","","","","","","","","","","","","",""
"480.7000000476837","307500","SARL_v6","SARL_v6rlfb2gdj","63e548d24319702eba4fc949","freq","","","img/blue_2bandit_b2.png","70","","70","test","1","","107","","","","circle","square","103","14","5","0.9320388349514563","","","","","","","",""
"null","307830","SARL_v6","SARL_v6rlfb2gdj","63e548d24319702eba4fc949","freq_resp","","","img/blue_2bandit_b.png","70","img/blue_2bandit_b.png","70","test","","","","","","","","","","","5","","","","","","","","",""
"null","307988","SARL_v6","SARL_v6rlfb2gdj","63e548d24319702eba4fc949","fixation","","","img/fixation.png","null","","","test","","","","","","","","","","","","","","","","","","","",""
"426.2999999523163","308417","SARL_v6","SARL_v6rlfb2gdj","63e548d24319702eba4fc949","freq","","","img/blue_2bandit_b2.png","70","","70","test","1","","108","","","","circle","square","104","15","5","0.9326923076923077","","","","","","","",""
"null","308803","SARL_v6","SARL_v6rlfb2gdj","63e548d24319702eba4fc949","freq_resp","","","img/blue_2bandit_b.png","70","img/blue_2bandit_b.png","70","test","","","","","","","","","","","5","","","","","","","","",""
"null","308965","SARL_v6","SARL_v6rlfb2gdj","63e548d24319702eba4fc949","fixation","","","img/fixation.png","null","","","test","","","","","","","","","","","","","","","","","","","",""
"410.10000014305115","309378","SARL_v6","SARL_v6rlfb2gdj","63e548d24319702eba4fc949","freq","","","img/blue_2bandit_b2.png","70","","70","test","1","","109","","","","circle","square","105","16","5","0.9333333333333333","","","","","","","",""
"null","309775","SARL_v6","SARL_v6rlfb2gdj","63e548d24319702eba4fc949","freq_resp","","","img/blue_2bandit_b.png","70","img/blue_2bandit_b.png","70","test","","","","","","","","","","","5","","","","","","","","",""
"null","309939","SARL_v6","SARL_v6rlfb2gdj","63e548d24319702eba4fc949","fixation","","","img/fixation.png","null","","","test","","","","","","","","","","","","","","","","","","","",""
"372.7999999523163","310314","SARL_v6","SARL_v6rlfb2gdj","63e548d24319702eba4fc949","freq","","","img/blue_2bandit_b2.png","70","","70","test","1","","110","","","","circle","square","106","17","5","0.9339622641509434","","","","","","","",""
"null","310755","SARL_v6","SARL_v6rlfb2gdj","63e548d24319702eba4fc949","freq_resp","","","img/blue_2bandit_b.png","70","img/blue_2bandit_b.png","70","test","","","","","","","","","","","5","","","","","","","","",""
"null","310923","SARL_v6","SARL_v6rlfb2gdj","63e548d24319702eba4fc949","fixation","","","img/fixation.png","null","","","test","","","","","","","","","","","","","","","","","","","",""
"375.09999990463257","311300","SARL_v6","SARL_v6rlfb2gdj","63e548d24319702eba4fc949","freq","","","img/blue_2bandit_b2.png","70","","70","test","1","","111","","","","circle","square","107","18","5","0.9345794392523364","","","","","","","",""
"null","311727","SARL_v6","SARL_v6rlfb2gdj","63e548d24319702eba4fc949","freq_resp","","","img/blue_2bandit_b.png","70","img/blue_2bandit_b.png","70","test","","","","","","","","","","","5","","","","","","","","",""
"null","311888","SARL_v6","SARL_v6rlfb2gdj","63e548d24319702eba4fc949","fixation","","","img/fixation.png","null","","","test","","","","","","","","","","","","","","","","","","","",""
"297.89999985694885","312188","SARL_v6","SARL_v6rlfb2gdj","63e548d24319702eba4fc949","freq","","","img/blue_2bandit_b2.png","70","","70","test","1","","112","","","","circle","square","108","19","5","0.9351851851851852","","","","","","","",""
"null","312701","SARL_v6","SARL_v6rlfb2gdj","63e548d24319702eba4fc949","freq_resp","","","img/blue_2bandit_b.png","70","img/blue_2bandit_b.png","70","test","","","","","","","","","","","5","","","","","","","","",""
"null","312866","SARL_v6","SARL_v6rlfb2gdj","63e548d24319702eba4fc949","fixation","","","img/fixation.png","null","","","test","","","","","","","","","","","","","","","","","","","",""
"304.39999985694885","313173","SARL_v6","SARL_v6rlfb2gdj","63e548d24319702eba4fc949","freq","","","img/blue_2bandit_b2.png","70","","70","test","1","","113","","","","circle","square","109","20","5","0.9357798165137615","","","","","","","",""
"null","313680","SARL_v6","SARL_v6rlfb2gdj","63e548d24319702eba4fc949","freq_resp","","","img/blue_2bandit_b.png","70","img/blue_2bandit_b.png","70","test","","","","","","","","","","","5","","","","","","","","",""
"null","313839","SARL_v6","SARL_v6rlfb2gdj","63e548d24319702eba4fc949","fixation","","","img/fixation.png","null","","","test","","","","","","","","","","","","","","","","","","","",""
"287.7999999523163","314130","SARL_v6","SARL_v6rlfb2gdj","63e548d24319702eba4fc949","freq","","","img/blue_2bandit_b2.png","70","","70","test","1","","114","","","","circle","square","110","21","5","0.9363636363636364","","","","","","","",""
"null","314648","SARL_v6","SARL_v6rlfb2gdj","63e548d24319702eba4fc949","freq_resp","","","img/blue_2bandit_b.png","70","img/blue_2bandit_b.png","70","test","","","","","","","","","","","5","","","","","","","","",""
"null","314812","SARL_v6","SARL_v6rlfb2gdj","63e548d24319702eba4fc949","fixation","","","img/fixation.png","null","","","test","","","","","","","","","","","","","","","","","","","",""
"269.89999985694885","315084","SARL_v6","SARL_v6rlfb2gdj","63e548d24319702eba4fc949","freq","","","img/blue_2bandit_b2.png","70","","70","test","1","","115","","","","circle","square","111","22","5","0.9369369369369369","","","","","","","",""
"null","315626","SARL_v6","SARL_v6rlfb2gdj","63e548d24319702eba4fc949","freq_resp","","","img/blue_2bandit_b.png","70","img/blue_2bandit_b.png","70","test","","","","","","","","","","","5","","","","","","","","",""
"null","315788","SARL_v6","SARL_v6rlfb2gdj","63e548d24319702eba4fc949","fixation","","","img/fixation.png","null","","","test","","","","","","","","","","","","","","","","","","","",""
"311","316101","SARL_v6","SARL_v6rlfb2gdj","63e548d24319702eba4fc949","freq","","","img/blue_2bandit_b2.png","70","","70","test","1","","116","","","","circle","square","112","23","5","0.9375","","","","","","","",""
"null","316595","SARL_v6","SARL_v6rlfb2gdj","63e548d24319702eba4fc949","freq_resp","","","img/blue_2bandit_b.png","70","img/blue_2bandit_b.png","70","test","","","","","","","","","","","5","","","","","","","","",""
"null","316755","SARL_v6","SARL_v6rlfb2gdj","63e548d24319702eba4fc949","fixation","","","img/fixation.png","null","","","test","","","","","","","","","","","","","","","","","","","",""
"525.7999999523163","317283","SARL_v6","SARL_v6rlfb2gdj","63e548d24319702eba4fc949","infreq","","","img/orange_2bandit_b2.png","68","","68","test","1","","117","","","","circle","square","113","24","5","0.9380530973451328","","","","","","","",""
"null","317564","SARL_v6","SARL_v6rlfb2gdj","63e548d24319702eba4fc949","infreq_resp","","","img/orange_2bandit_b.png","68","img/orange_2bandit_b.png","68","test","","","","","","","","","","","5","","","","","","","","",""
"null","317730","SARL_v6","SARL_v6rlfb2gdj","63e548d24319702eba4fc949","fixation","","","img/fixation.png","null","","","test","","","","","","","","","","","","","","","","","","","",""
"477.5","318209","SARL_v6","SARL_v6rlfb2gdj","63e548d24319702eba4fc949","freq","","","img/blue_2bandit_b2.png","70","","70","test","1","","118","","","","circle","square","114","25","5","0.9385964912280702","","","","","","","",""
"null","318543","SARL_v6","SARL_v6rlfb2gdj","63e548d24319702eba4fc949","freq_resp","","","img/blue_2bandit_b.png","70","img/blue_2bandit_b.png","70","test","","","","","","","","","","","5","","","","","","","","",""
"null","318697","SARL_v6","SARL_v6rlfb2gdj","63e548d24319702eba4fc949","fixation","","","img/fixation.png","null","","","test","","","","","","","","","","","","","","","","","","","",""
"659.5","319359","SARL_v6","SARL_v6rlfb2gdj","63e548d24319702eba4fc949","rl","","","img/black_2bandit_b2.png","74","","0","test","","","119","","","4","circle","square","","0","5","","74","4","-7","4","-7","circle","5","0"
"null","320113","SARL_v6","SARL_v6rlfb2gdj","63e548d24319702eba4fc949","feedback","","","<div class=""veryhighPoints""> 4 </div>","null","","na","test","","","NaN","","","","","","","","5","","74","","","","","","5",""
"null","320922","SARL_v6","SARL_v6rlfb2gdj","63e548d24319702eba4fc949","freq","","","img/blue_2bandit_b2.png","null","","70","test","0","","120","","","","circle","square","115","1","6","0.9304347826086956","","","","","","","",""
"null","321081","SARL_v6","SARL_v6rlfb2gdj","63e548d24319702eba4fc949","fixation","","","img/fixation.png","null","","","test","","","","","","","","","","","","","","","","","","","",""
"790.2000000476837","321873","SARL_v6","SARL_v6rlfb2gdj","63e548d24319702eba4fc949","freq","","","img/blue_2bandit_b2.png","70","","70","test","1","","121","","","","circle","square","116","2","6","0.9310344827586207","","","","","","","",""
"null","321890","SARL_v6","SARL_v6rlfb2gdj","63e548d24319702eba4fc949","freq_resp","","","img/blue_2bandit_b.png","70","img/blue_2bandit_b.png","70","test","","","","","","","","","","","6","","","","","","","","",""
"null","322054","SARL_v6","SARL_v6rlfb2gdj","63e548d24319702eba4fc949","fixation","","","img/fixation.png","null","","","test","","","","","","","","","","","","","","","","","","","",""
"586.7000000476837","322643","SARL_v6","SARL_v6rlfb2gdj","63e548d24319702eba4fc949","freq","","","img/blue_2bandit_b2.png","70","","70","test","1","","122","","","","circle","square","117","3","6","0.9316239316239316","","","","","","","",""
"null","322866","SARL_v6","SARL_v6rlfb2gdj","63e548d24319702eba4fc949","freq_resp","","","img/blue_2bandit_b.png","70","img/blue_2bandit_b.png","70","test","","","","","","","","","","","6","","","","","","","","",""
"null","323030","SARL_v6","SARL_v6rlfb2gdj","63e548d24319702eba4fc949","fixation","","","img/fixation.png","null","","","test","","","","","","","","","","","","","","","","","","","",""
"526.0999999046326","323560","SARL_v6","SARL_v6rlfb2gdj","63e548d24319702eba4fc949","freq","","","img/blue_2bandit_b2.png","70","","70","test","1","","123","","","","circle","square","118","4","6","0.9322033898305084","","","","","","","",""
"null","323845","SARL_v6","SARL_v6rlfb2gdj","63e548d24319702eba4fc949","freq_resp","","","img/blue_2bandit_b.png","70","img/blue_2bandit_b.png","70","test","","","","","","","","","","","6","","","","","","","","",""
"null","324000","SARL_v6","SARL_v6rlfb2gdj","63e548d24319702eba4fc949","fixation","","","img/fixation.png","null","","","test","","","","","","","","","","","","","","","","","","","",""
"583.2000000476837","324585","SARL_v6","SARL_v6rlfb2gdj","63e548d24319702eba4fc949","freq","","","img/blue_2bandit_b2.png","70","","70","test","1","","124","","","","circle","square","119","5","6","0.9327731092436975","","","","","","","",""
"null","324811","SARL_v6","SARL_v6rlfb2gdj","63e548d24319702eba4fc949","freq_resp","","","img/blue_2bandit_b.png","70","img/blue_2bandit_b.png","70","test","","","","","","","","","","","6","","","","","","","","",""
"null","324978","SARL_v6","SARL_v6rlfb2gdj","63e548d24319702eba4fc949","fixation","","","img/fixation.png","null","","","test","","","","","","","","","","","","","","","","","","","",""
"426.7000000476837","325407","SARL_v6","SARL_v6rlfb2gdj","63e548d24319702eba4fc949","freq","","","img/blue_2bandit_b2.png","70","","70","test","1","","125","","","","circle","square","120","6","6","0.9333333333333333","","","","","","","",""
"null","325791","SARL_v6","SARL_v6rlfb2gdj","63e548d24319702eba4fc949","freq_resp","","","img/blue_2bandit_b.png","70","img/blue_2bandit_b.png","70","test","","","","","","","","","","","6","","","","","","","","",""
"null","325947","SARL_v6","SARL_v6rlfb2gdj","63e548d24319702eba4fc949","fixation","","","img/fixation.png","null","","","test","","","","","","","","","","","","","","","","","","","",""
"314.2999999523163","326263","SARL_v6","SARL_v6rlfb2gdj","63e548d24319702eba4fc949","freq","","","img/blue_2bandit_b2.png","70","","70","test","1","","126","","","","circle","square","121","7","6","0.9338842975206612","","","","","","","",""
"null","326755","SARL_v6","SARL_v6rlfb2gdj","63e548d24319702eba4fc949","freq_resp","","","img/blue_2bandit_b.png","70","img/blue_2bandit_b.png","70","test","","","","","","","","","","","6","","","","","","","","",""
"null","326921","SARL_v6","SARL_v6rlfb2gdj","63e548d24319702eba4fc949","fixation","","","img/fixation.png","null","","","test","","","","","","","","","","","","","","","","","","","",""
"292","327215","SARL_v6","SARL_v6rlfb2gdj","63e548d24319702eba4fc949","freq","","","img/blue_2bandit_b2.png","70","","70","test","1","","127","","","","circle","square","122","8","6","0.9344262295081968","","","","","","","",""
"null","327727","SARL_v6","SARL_v6rlfb2gdj","63e548d24319702eba4fc949","freq_resp","","","img/blue_2bandit_b.png","70","img/blue_2bandit_b.png","70","test","","","","","","","","","","","6","","","","","","","","",""
"null","327888","SARL_v6","SARL_v6rlfb2gdj","63e548d24319702eba4fc949","fixation","","","img/fixation.png","null","","","test","","","","","","","","","","","","","","","","","","","",""
"489.2999999523163","328380","SARL_v6","SARL_v6rlfb2gdj","63e548d24319702eba4fc949","infreq","","","img/orange_2bandit_b2.png","68","","68","test","1","","128","","","","circle","square","123","9","6","0.9349593495934959","","","","","","","",""
"null","328699","SARL_v6","SARL_v6rlfb2gdj","63e548d24319702eba4fc949","infreq_resp","","","img/orange_2bandit_b.png","68","img/orange_2bandit_b.png","68","test","","","","","","","","","","","6","","","","","","","","",""
"null","328863","SARL_v6","SARL_v6rlfb2gdj","63e548d24319702eba4fc949","fixation","","","img/fixation.png","null","","","test","","","","","","","","","","","","","","","","","","","",""
"625.1000001430511","329491","SARL_v6","SARL_v6rlfb2gdj","63e548d24319702eba4fc949","freq","","","img/blue_2bandit_b2.png","70","","70","test","1","","129","","","","circle","square","124","10","6","0.9354838709677419","","","","","","","",""
"null","329669","SARL_v6","SARL_v6rlfb2gdj","63e548d24319702eba4fc949","freq_resp","","","img/blue_2bandit_b.png","70","img/blue_2bandit_b.png","70","test","","","","","","","","","","","6","","","","","","","","",""
"null","329836","SARL_v6","SARL_v6rlfb2gdj","63e548d24319702eba4fc949","fixation","","","img/fixation.png","null","","","test","","","","","","","","","","","","","","","","","","","",""
"613.7999999523163","330452","SARL_v6","SARL_v6rlfb2gdj","63e548d24319702eba4fc949","freq","","","img/blue_2bandit_b2.png","70","","70","test","1","","130","","","","circle","square","125","11","6","0.936","","","","","","","",""
"null","330642","SARL_v6","SARL_v6rlfb2gdj","63e548d24319702eba4fc949","freq_resp","","","img/blue_2bandit_b.png","70","img/blue_2bandit_b.png","70","test","","","","","","","","","","","6","","","","","","","","",""
"null","330803","SARL_v6","SARL_v6rlfb2gdj","63e548d24319702eba4fc949","fixation","","","img/fixation.png","null","","","test","","","","","","","","","","","","","","","","","","","",""
"522.7999999523163","331328","SARL_v6","SARL_v6rlfb2gdj","63e548d24319702eba4fc949","freq","","","img/blue_2bandit_b2.png","70","","70","test","1","","131","","","","circle","square","126","12","6","0.9365079365079365","","","","","","","",""
"null","331621","SARL_v6","SARL_v6rlfb2gdj","63e548d24319702eba4fc949","freq_resp","","","img/blue_2bandit_b.png","70","img/blue_2bandit_b.png","70","test","","","","","","","","","","","6","","","","","","","","",""
"null","331787","SARL_v6","SARL_v6rlfb2gdj","63e548d24319702eba4fc949","fixation","","","img/fixation.png","null","","","test","","","","","","","","","","","","","","","","","","","",""
