"rt","time_elapsed","expId","subject","prolificID","trialType","rlType","attType","stimulus","key_press","stim","corrresp","phase","corr","pracCounter","trialNum","rewardOne","rewardTwo","reward","bandOne","bandTwo","attentionNum","attentionRunNum","blockNum","performance","bandChosen","circleVal","squareVal","bandOneVal","bandTwoVal","shapeChosen","rlNum","badFlag"
"17384.90000000596","17414","SARL_v6","SARL_v6bob5m7w2","6176ad85f02bff3e92952593","","","","","","","","","","","","","","","","","","","","","","","","","","","",""
"","22411","SARL_v6","SARL_v6bob5m7w2","6176ad85f02bff3e92952593","fullscreen","fullscreen","fullscreen","","","","","","","","","","","","","","","","","","","","","","","","",""
"149486.20000001788","171914","SARL_v6","SARL_v6bob5m7w2","6176ad85f02bff3e92952593","","","","","","","","","","","","","","","","","","","","","","","","","","","",""
"null","172730","SARL_v6","SARL_v6bob5m7w2","6176ad85f02bff3e92952593","freqPrac","","","img/blue_2bandit_b2.png","null","img/blue_2bandit_b2.png","70","prac","0","1","","","","","","","","","","","","","","","","","",""
"null","173751","SARL_v6","SARL_v6bob5m7w2","6176ad85f02bff3e92952593","feedback","","","img/tooSlow.png","null","","na","prac","","","","","","","","","","","","","","","","","","","",""
"null","173920","SARL_v6","SARL_v6bob5m7w2","6176ad85f02bff3e92952593","fixation","","","img/fixation.png","null","","","prac","","","","","","","","","","","","","","","","","","","",""
"null","174730","SARL_v6","SARL_v6bob5m7w2","6176ad85f02bff3e92952593","infreqPrac","","","img/orange_2bandit_b2.png","null","img/orange_2bandit_b2.png","68","prac","0","2","","","","","","","","","","","","","","","","","",""
"null","175752","SARL_v6","SARL_v6bob5m7w2","6176ad85f02bff3e92952593","feedback","","","img/tooSlow.png","null","","na","prac","","","","","","","","","","","","","","","","","","","",""
"null","175925","SARL_v6","SARL_v6bob5m7w2","6176ad85f02bff3e92952593","fixation","","","img/fixation.png","null","","","prac","","","","","","","","","","","","","","","","","","","",""
"577.9000000059605","176512","SARL_v6","SARL_v6bob5m7w2","6176ad85f02bff3e92952593","freqPrac","","","img/blue_2bandit_b2.png","70","img/blue_2bandit_b2.png","70","prac","1","2","","","","","","","","","","","","","","","","","",""
"577.9000000059605","176752","SARL_v6","SARL_v6bob5m7w2","6176ad85f02bff3e92952593","freqPrac_resp","","","img/blue_2bandit_b.png","70","img/blue_2bandit_b.png","70","prac","","","","","","","","","","","","","","","","","","","",""
"null","176926","SARL_v6","SARL_v6bob5m7w2","6176ad85f02bff3e92952593","fixation","","","img/fixation.png","null","","","prac","","","","","","","","","","","","","","","","","","","",""
"536.6999999880791","177471","SARL_v6","SARL_v6bob5m7w2","6176ad85f02bff3e92952593","infreqPrac","","","img/orange_2bandit_b2.png","68","img/orange_2bandit_b2.png","68","prac","1","2","","","","","","","","","","","","","","","","","",""
"536.6999999880791","177746","SARL_v6","SARL_v6bob5m7w2","6176ad85f02bff3e92952593","infreqPrac_resp","","","img/orange_2bandit_b.png","68","img/orange_2bandit_b.png","68","prac","","","","","","","","","","","","","","","","","","","",""
"null","177908","SARL_v6","SARL_v6bob5m7w2","6176ad85f02bff3e92952593","fixation","","","img/fixation.png","null","","","prac","","","","","","","","","","","","","","","","","","","",""
"543.8000000119209","178461","SARL_v6","SARL_v6bob5m7w2","6176ad85f02bff3e92952593","infreqPrac","","","img/orange_2bandit_b2.png","68","img/orange_2bandit_b2.png","68","prac","1","2","","","","","","","","","","","","","","","","","",""
"543.8000000119209","178734","SARL_v6","SARL_v6bob5m7w2","6176ad85f02bff3e92952593","infreqPrac_resp","","","img/orange_2bandit_b.png","68","img/orange_2bandit_b.png","68","prac","","","","","","","","","","","","","","","","","","","",""
"null","178909","SARL_v6","SARL_v6bob5m7w2","6176ad85f02bff3e92952593","fixation","","","img/fixation.png","null","","","prac","","","","","","","","","","","","","","","","","","","",""
"359","179276","SARL_v6","SARL_v6bob5m7w2","6176ad85f02bff3e92952593","infreqPrac","","","img/orange_2bandit_b2.png","68","img/orange_2bandit_b2.png","68","prac","1","2","","","","","","","","","","","","","","","","","",""
"359","179739","SARL_v6","SARL_v6bob5m7w2","6176ad85f02bff3e92952593","infreqPrac_resp","","","img/orange_2bandit_b.png","68","img/orange_2bandit_b.png","68","prac","","","","","","","","","","","","","","","","","","","",""
"null","179910","SARL_v6","SARL_v6bob5m7w2","6176ad85f02bff3e92952593","fixation","","","img/fixation.png","null","","","prac","","","","","","","","","","","","","","","","","","","",""
"501.7000000178814","180419","SARL_v6","SARL_v6bob5m7w2","6176ad85f02bff3e92952593","freqPrac","","","img/blue_2bandit_b2.png","70","img/blue_2bandit_b2.png","70","prac","1","2","","","","","","","","","","","","","","","","","",""
"501.7000000178814","180732","SARL_v6","SARL_v6bob5m7w2","6176ad85f02bff3e92952593","freqPrac_resp","","","img/blue_2bandit_b.png","70","img/blue_2bandit_b.png","70","prac","","","","","","","","","","","","","","","","","","","",""
"null","180895","SARL_v6","SARL_v6bob5m7w2","6176ad85f02bff3e92952593","fixation","","","img/fixation.png","null","","","prac","","","","","","","","","","","","","","","","","","","",""
"408","181311","SARL_v6","SARL_v6bob5m7w2","6176ad85f02bff3e92952593","infreqPrac","","","img/orange_2bandit_b2.png","68","img/orange_2bandit_b2.png","68","prac","1","2","","","","","","","","","","","","","","","","","",""
"408","181718","SARL_v6","SARL_v6bob5m7w2","6176ad85f02bff3e92952593","infreqPrac_resp","","","img/orange_2bandit_b.png","68","img/orange_2bandit_b.png","68","prac","","","","","","","","","","","","","","","","","","","",""
"null","181878","SARL_v6","SARL_v6bob5m7w2","6176ad85f02bff3e92952593","fixation","","","img/fixation.png","null","","","prac","","","","","","","","","","","","","","","","","","","",""
"637.7000000178814","182524","SARL_v6","SARL_v6bob5m7w2","6176ad85f02bff3e92952593","freqPrac","","","img/blue_2bandit_b2.png","70","img/blue_2bandit_b2.png","70","prac","1","2","","","","","","","","","","","","","","","","","",""
"637.7000000178814","182710","SARL_v6","SARL_v6bob5m7w2","6176ad85f02bff3e92952593","freqPrac_resp","","","img/blue_2bandit_b.png","70","img/blue_2bandit_b.png","70","prac","","","","","","","","","","","","","","","","","","","",""
"null","182876","SARL_v6","SARL_v6bob5m7w2","6176ad85f02bff3e92952593","fixation","","","img/fixation.png","null","","","prac","","","","","","","","","","","","","","","","","","","",""
"484.09999999403954","183380","SARL_v6","SARL_v6bob5m7w2","6176ad85f02bff3e92952593","freqPrac","","","img/blue_2bandit_b2.png","70","img/blue_2bandit_b2.png","70","prac","1","2","","","","","","","","","","","","","","","","","",""
"484.09999999403954","183723","SARL_v6","SARL_v6bob5m7w2","6176ad85f02bff3e92952593","freqPrac_resp","","","img/blue_2bandit_b.png","70","img/blue_2bandit_b.png","70","prac","","","","","","","","","","","","","","","","","","","",""
"null","183904","SARL_v6","SARL_v6bob5m7w2","6176ad85f02bff3e92952593","fixation","","","img/fixation.png","null","","","prac","","","","","","","","","","","","","","","","","","","",""
"57328.09999999404","241246","SARL_v6","SARL_v6bob5m7w2","6176ad85f02bff3e92952593","","","","","","","","prac","","","","","","","","","","","","","","","","","","","",""
"679.0999999940395","241951","SARL_v6","SARL_v6bob5m7w2","6176ad85f02bff3e92952593","rlPractice","","","img/black_2bandit_b2.png","74","img/black_2bandit_b2.png","","prac","","","0","","","","","","","","","","","","","","","","",""
"null","242741","SARL_v6","SARL_v6bob5m7w2","6176ad85f02bff3e92952593","feedback","","","<div class=""veryhighPoints""> 10 </div>","null","","na","prac","","","1","10","-14","10","","","","","","","","","","","","","",""
"null","242915","SARL_v6","SARL_v6bob5m7w2","6176ad85f02bff3e92952593","fixation","","","img/fixation.png","null","","","prac","","","","","","","","","","","","","","","","","","","",""
"406.40000000596046","243340","SARL_v6","SARL_v6bob5m7w2","6176ad85f02bff3e92952593","rlPractice","","","img/black_2bandit_b2.png","75","img/black_2bandit_b2.png","","prac","","","1","","","","","","","","","","","","","","","","",""
"null","244122","SARL_v6","SARL_v6bob5m7w2","6176ad85f02bff3e92952593","feedback","","","<div class=""verylowPoints_sq""> -5 </div>","null","","na","prac","","","2","5","-5","5","","","","","","","","","","","","","",""
"null","244298","SARL_v6","SARL_v6bob5m7w2","6176ad85f02bff3e92952593","fixation","","","img/fixation.png","null","","","prac","","","","","","","","","","","","","","","","","","","",""
"366.09999999403954","244676","SARL_v6","SARL_v6bob5m7w2","6176ad85f02bff3e92952593","rlPractice","","","img/black_2bandit_b2.png","74","img/black_2bandit_b2.png","","prac","","","2","","","","","","","","","","","","","","","","",""
"null","245453","SARL_v6","SARL_v6bob5m7w2","6176ad85f02bff3e92952593","feedback","","","<div class=""veryhighPoints""> 30 </div>","null","","na","prac","","","3","30","2","30","","","","","","","","","","","","","",""
"null","245631","SARL_v6","SARL_v6bob5m7w2","6176ad85f02bff3e92952593","fixation","","","img/fixation.png","null","","","prac","","","","","","","","","","","","","","","","","","","",""
"343.7000000178814","245986","SARL_v6","SARL_v6bob5m7w2","6176ad85f02bff3e92952593","rlPractice","","","img/black_2bandit_b2.png","74","img/black_2bandit_b2.png","","prac","","","3","","","","","","","","","","","","","","","","",""
"null","246751","SARL_v6","SARL_v6bob5m7w2","6176ad85f02bff3e92952593","feedback","","","<div class=""verylowPoints""> -2 </div>","null","","na","prac","","","4","-2","20","-2","","","","","","","","","","","","","",""
"null","246937","SARL_v6","SARL_v6bob5m7w2","6176ad85f02bff3e92952593","fixation","","","img/fixation.png","null","","","prac","","","","","","","","","","","","","","","","","","","",""
"20713","267664","SARL_v6","SARL_v6bob5m7w2","6176ad85f02bff3e92952593","","","","","","","","prac","","","","","","","","","","","","","","","","","","","",""
"null","268488","SARL_v6","SARL_v6bob5m7w2","6176ad85f02bff3e92952593","mixAttFreqPrac","","","img/blue_2bandit_b2.png","null","img/blue_2bandit_b2.png","70","prac","","","1","","","","","","","","","","","","","","","","",""
"46.5","268661","SARL_v6","SARL_v6bob5m7w2","6176ad85f02bff3e92952593","fixation","","","img/fixation.png","70","","","prac","","","","","","","","","","","","","","","","","","","",""
"579.3999999761581","269260","SARL_v6","SARL_v6bob5m7w2","6176ad85f02bff3e92952593","mixAttInfreqPrac","","","img/orange_2bandit_b2.png","68","img/orange_2bandit_b2.png","68","prac","","","2","","","","","","","","","","","","","","","","",""
"579.3999999761581","269500","SARL_v6","SARL_v6bob5m7w2","6176ad85f02bff3e92952593","infreqPrac_resp","","","img/orange_2bandit_b.png","68","img/blue_2bandit_b.png","68","prac","","","2","","","","","","","","","","","","","","","","",""
"null","269678","SARL_v6","SARL_v6bob5m7w2","6176ad85f02bff3e92952593","fixation","","","img/fixation.png","null","","","prac","","","","","","","","","","","","","","","","","","","",""
"456.30000001192093","270153","SARL_v6","SARL_v6bob5m7w2","6176ad85f02bff3e92952593","mixAttInfreqPrac","","","img/orange_2bandit_b2.png","68","img/orange_2bandit_b2.png","68","prac","","","3","","","","","","","","","","","","","","","","",""
"456.30000001192093","270527","SARL_v6","SARL_v6bob5m7w2","6176ad85f02bff3e92952593","infreqPrac_resp","","","img/orange_2bandit_b.png","68","img/blue_2bandit_b.png","68","prac","","","3","","","","","","","","","","","","","","","","",""
"null","270712","SARL_v6","SARL_v6bob5m7w2","6176ad85f02bff3e92952593","fixation","","","img/fixation.png","null","","","prac","","","","","","","","","","","","","","","","","","","",""
"397.5","271127","SARL_v6","SARL_v6bob5m7w2","6176ad85f02bff3e92952593","mixAttInfreqPrac","","","img/orange_2bandit_b2.png","68","img/orange_2bandit_b2.png","68","prac","","","4","","","","","","","","","","","","","","","","",""
"397.5","271560","SARL_v6","SARL_v6bob5m7w2","6176ad85f02bff3e92952593","infreqPrac_resp","","","img/orange_2bandit_b.png","68","img/blue_2bandit_b.png","68","prac","","","4","","","","","","","","","","","","","","","","",""
"null","271730","SARL_v6","SARL_v6bob5m7w2","6176ad85f02bff3e92952593","fixation","","","img/fixation.png","null","","","prac","","","","","","","","","","","","","","","","","","","",""
"375.30000001192093","272120","SARL_v6","SARL_v6bob5m7w2","6176ad85f02bff3e92952593","mixAttFreqPrac","","","img/blue_2bandit_b2.png","68","img/blue_2bandit_b2.png","70","prac","","","5","","","","","","","","","","","","","","","","",""
"375.30000001192093","272575","SARL_v6","SARL_v6bob5m7w2","6176ad85f02bff3e92952593","freqPrac_resp","","","img/blue_2bandit_b.png","68","img/blue_2bandit_b.png","70","prac","","","5","","","","","","","","","","","","","","","","",""
"null","272751","SARL_v6","SARL_v6bob5m7w2","6176ad85f02bff3e92952593","fixation","","","img/fixation.png","null","","","prac","","","","","","","","","","","","","","","","","","","",""
"751.5999999940395","273522","SARL_v6","SARL_v6bob5m7w2","6176ad85f02bff3e92952593","mixRLPractice","","","img/black_2bandit_b2.png","74","img/black_2bandit_b2.png","","prac","","","5","","","","","","","","","","","","","","","","",""
"null","274305","SARL_v6","SARL_v6bob5m7w2","6176ad85f02bff3e92952593","feedback","","","<div class=""verylowPoints""> -14 </div>","null","","na","prac","","","6","-14","10","-14","","","","","","","","","","","","","",""
"null","274475","SARL_v6","SARL_v6bob5m7w2","6176ad85f02bff3e92952593","fixation","","","img/fixation.png","null","","","prac","","","","","","","","","","","","","","","","","","","",""
"555.0999999940395","275046","SARL_v6","SARL_v6bob5m7w2","6176ad85f02bff3e92952593","mixAttFreqPrac","","","img/blue_2bandit_b2.png","70","img/blue_2bandit_b2.png","70","prac","","","7","","","","","","","","","","","","","","","","",""
"555.0999999940395","275323","SARL_v6","SARL_v6bob5m7w2","6176ad85f02bff3e92952593","freqPrac_resp","","","img/blue_2bandit_b.png","70","img/blue_2bandit_b.png","70","prac","","","7","","","","","","","","","","","","","","","","",""
"null","275497","SARL_v6","SARL_v6bob5m7w2","6176ad85f02bff3e92952593","fixation","","","img/fixation.png","null","","","prac","","","","","","","","","","","","","","","","","","","",""
"null","276318","SARL_v6","SARL_v6bob5m7w2","6176ad85f02bff3e92952593","mixAttInfreqPrac","","","img/orange_2bandit_b2.png","null","img/orange_2bandit_b2.png","68","prac","","","8","","","","","","","","","","","","","","","","",""
"null","276496","SARL_v6","SARL_v6bob5m7w2","6176ad85f02bff3e92952593","fixation","","","img/fixation.png","null","","","prac","","","","","","","","","","","","","","","","","","","",""
"594.2000000178814","277109","SARL_v6","SARL_v6bob5m7w2","6176ad85f02bff3e92952593","mixAttFreqPrac","","","img/blue_2bandit_b2.png","70","img/blue_2bandit_b2.png","70","prac","","","9","","","","","","","","","","","","","","","","",""
"594.2000000178814","277344","SARL_v6","SARL_v6bob5m7w2","6176ad85f02bff3e92952593","freqPrac_resp","","","img/blue_2bandit_b.png","70","img/blue_2bandit_b.png","70","prac","","","9","","","","","","","","","","","","","","","","",""
"null","277514","SARL_v6","SARL_v6bob5m7w2","6176ad85f02bff3e92952593","fixation","","","img/fixation.png","null","","","prac","","","","","","","","","","","","","","","","","","","",""
"657.9000000059605","278188","SARL_v6","SARL_v6bob5m7w2","6176ad85f02bff3e92952593","mixAttFreqPrac","","","img/blue_2bandit_b2.png","70","img/blue_2bandit_b2.png","70","prac","","","10","","","","","","","","","","","","","","","","",""
"657.9000000059605","278350","SARL_v6","SARL_v6bob5m7w2","6176ad85f02bff3e92952593","freqPrac_resp","","","img/blue_2bandit_b.png","70","img/blue_2bandit_b.png","70","prac","","","10","","","","","","","","","","","","","","","","",""
"null","278531","SARL_v6","SARL_v6bob5m7w2","6176ad85f02bff3e92952593","fixation","","","img/fixation.png","null","","","prac","","","","","","","","","","","","","","","","","","","",""
"717.5999999940395","279269","SARL_v6","SARL_v6bob5m7w2","6176ad85f02bff3e92952593","mixAttInfreqPrac","","","img/orange_2bandit_b2.png","68","img/orange_2bandit_b2.png","68","prac","","","11","","","","","","","","","","","","","","","","",""
"717.5999999940395","279387","SARL_v6","SARL_v6bob5m7w2","6176ad85f02bff3e92952593","infreqPrac_resp","","","img/orange_2bandit_b.png","68","img/blue_2bandit_b.png","68","prac","","","11","","","","","","","","","","","","","","","","",""
"null","279558","SARL_v6","SARL_v6bob5m7w2","6176ad85f02bff3e92952593","fixation","","","img/fixation.png","null","","","prac","","","","","","","","","","","","","","","","","","","",""
"725.8999999761581","280302","SARL_v6","SARL_v6bob5m7w2","6176ad85f02bff3e92952593","mixRLPractice","","","img/black_2bandit_b2.png","75","img/black_2bandit_b2.png","","prac","","","11","","","","","","","","","","","","","","","","",""
"null","281073","SARL_v6","SARL_v6bob5m7w2","6176ad85f02bff3e92952593","feedback","","","<div class=""verylowPoints_sq""> -5 </div>","null","","na","prac","","","12","5","-5","5","","","","","","","","","","","","","",""
"null","281243","SARL_v6","SARL_v6bob5m7w2","6176ad85f02bff3e92952593","fixation","","","img/fixation.png","null","","","prac","","","","","","","","","","","","","","","","","","","",""
"19115.19999998808","300372","SARL_v6","SARL_v6bob5m7w2","6176ad85f02bff3e92952593","","","","","","","","prac","","","","","","","","","","","","","","","","","","","",""
"500.80000001192093","300882","SARL_v6","SARL_v6bob5m7w2","6176ad85f02bff3e92952593","freq","","","img/blue_2bandit_b2.png","70","","70","test","1","","1","","","","circle","square","1","1","1","1","","","","","","","",""
"null","301193","SARL_v6","SARL_v6bob5m7w2","6176ad85f02bff3e92952593","freq_resp","","","img/blue_2bandit_b.png","70","img/blue_2bandit_b.png","70","test","","","","","","","","","","","1","","","","","","","","",""
"null","301366","SARL_v6","SARL_v6bob5m7w2","6176ad85f02bff3e92952593","fixation","","","img/fixation.png","null","","","test","","","","","","","","","","","","","","","","","","","",""
"459.90000000596046","301835","SARL_v6","SARL_v6bob5m7w2","6176ad85f02bff3e92952593","freq","","","img/blue_2bandit_b2.png","70","","70","test","1","","2","","","","circle","square","2","2","1","1","","","","","","","",""
"null","302190","SARL_v6","SARL_v6bob5m7w2","6176ad85f02bff3e92952593","freq_resp","","","img/blue_2bandit_b.png","70","img/blue_2bandit_b.png","70","test","","","","","","","","","","","1","","","","","","","","",""
"null","302352","SARL_v6","SARL_v6bob5m7w2","6176ad85f02bff3e92952593","fixation","","","img/fixation.png","null","","","test","","","","","","","","","","","","","","","","","","","",""
"512.5999999940395","302881","SARL_v6","SARL_v6bob5m7w2","6176ad85f02bff3e92952593","infreq","","","img/orange_2bandit_b2.png","68","","68","test","1","","3","","","","circle","square","3","3","1","1","","","","","","","",""
"null","303200","SARL_v6","SARL_v6bob5m7w2","6176ad85f02bff3e92952593","infreq_resp","","","img/orange_2bandit_b.png","68","img/orange_2bandit_b.png","68","test","","","","","","","","","","","1","","","","","","","","",""
"null","303375","SARL_v6","SARL_v6bob5m7w2","6176ad85f02bff3e92952593","fixation","","","img/fixation.png","null","","","test","","","","","","","","","","","","","","","","","","","",""
"540.9000000059605","303932","SARL_v6","SARL_v6bob5m7w2","6176ad85f02bff3e92952593","freq","","","img/blue_2bandit_b2.png","70","","70","test","1","","4","","","","circle","square","4","4","1","1","","","","","","","",""
"null","304220","SARL_v6","SARL_v6bob5m7w2","6176ad85f02bff3e92952593","freq_resp","","","img/blue_2bandit_b.png","70","img/blue_2bandit_b.png","70","test","","","","","","","","","","","1","","","","","","","","",""
"null","304398","SARL_v6","SARL_v6bob5m7w2","6176ad85f02bff3e92952593","fixation","","","img/fixation.png","null","","","test","","","","","","","","","","","","","","","","","","","",""
"416.2000000178814","304827","SARL_v6","SARL_v6bob5m7w2","6176ad85f02bff3e92952593","freq","","","img/blue_2bandit_b2.png","70","","70","test","1","","5","","","","circle","square","5","5","1","1","","","","","","","",""
"null","305228","SARL_v6","SARL_v6bob5m7w2","6176ad85f02bff3e92952593","freq_resp","","","img/blue_2bandit_b.png","70","img/blue_2bandit_b.png","70","test","","","","","","","","","","","1","","","","","","","","",""
"null","305421","SARL_v6","SARL_v6bob5m7w2","6176ad85f02bff3e92952593","fixation","","","img/fixation.png","null","","","test","","","","","","","","","","","","","","","","","","","",""
"442.80000001192093","305884","SARL_v6","SARL_v6bob5m7w2","6176ad85f02bff3e92952593","freq","","","img/blue_2bandit_b2.png","70","","70","test","1","","6","","","","circle","square","6","6","1","1","","","","","","","",""
"null","306264","SARL_v6","SARL_v6bob5m7w2","6176ad85f02bff3e92952593","freq_resp","","","img/blue_2bandit_b.png","70","img/blue_2bandit_b.png","70","test","","","","","","","","","","","1","","","","","","","","",""
"null","306448","SARL_v6","SARL_v6bob5m7w2","6176ad85f02bff3e92952593","fixation","","","img/fixation.png","null","","","test","","","","","","","","","","","","","","","","","","","",""
"391.40000000596046","306860","SARL_v6","SARL_v6bob5m7w2","6176ad85f02bff3e92952593","freq","","","img/blue_2bandit_b2.png","70","","70","test","1","","7","","","","circle","square","7","7","1","1","","","","","","","",""
"null","307295","SARL_v6","SARL_v6bob5m7w2","6176ad85f02bff3e92952593","freq_resp","","","img/blue_2bandit_b.png","70","img/blue_2bandit_b.png","70","test","","","","","","","","","","","1","","","","","","","","",""
"null","307480","SARL_v6","SARL_v6bob5m7w2","6176ad85f02bff3e92952593","fixation","","","img/fixation.png","null","","","test","","","","","","","","","","","","","","","","","","","",""
"375.80000001192093","307875","SARL_v6","SARL_v6bob5m7w2","6176ad85f02bff3e92952593","freq","","","img/blue_2bandit_b2.png","70","","70","test","1","","8","","","","circle","square","8","8","1","1","","","","","","","",""
"null","308329","SARL_v6","SARL_v6bob5m7w2","6176ad85f02bff3e92952593","freq_resp","","","img/blue_2bandit_b.png","70","img/blue_2bandit_b.png","70","test","","","","","","","","","","","1","","","","","","","","",""
"null","308499","SARL_v6","SARL_v6bob5m7w2","6176ad85f02bff3e92952593","fixation","","","img/fixation.png","null","","","test","","","","","","","","","","","","","","","","","","","",""
"435.5","308953","SARL_v6","SARL_v6bob5m7w2","6176ad85f02bff3e92952593","freq","","","img/blue_2bandit_b2.png","70","","70","test","1","","9","","","","circle","square","9","9","1","1","","","","","","","",""
"null","309348","SARL_v6","SARL_v6bob5m7w2","6176ad85f02bff3e92952593","freq_resp","","","img/blue_2bandit_b.png","70","img/blue_2bandit_b.png","70","test","","","","","","","","","","","1","","","","","","","","",""
"null","309529","SARL_v6","SARL_v6bob5m7w2","6176ad85f02bff3e92952593","fixation","","","img/fixation.png","null","","","test","","","","","","","","","","","","","","","","","","","",""
"530.3999999761581","310079","SARL_v6","SARL_v6bob5m7w2","6176ad85f02bff3e92952593","infreq","","","img/orange_2bandit_b2.png","68","","68","test","1","","10","","","","circle","square","10","10","1","1","","","","","","","",""
"null","310374","SARL_v6","SARL_v6bob5m7w2","6176ad85f02bff3e92952593","infreq_resp","","","img/orange_2bandit_b.png","68","img/orange_2bandit_b.png","68","test","","","","","","","","","","","1","","","","","","","","",""
"null","310547","SARL_v6","SARL_v6bob5m7w2","6176ad85f02bff3e92952593","fixation","","","img/fixation.png","null","","","test","","","","","","","","","","","","","","","","","","","",""
"554.5999999940395","311120","SARL_v6","SARL_v6bob5m7w2","6176ad85f02bff3e92952593","freq","","","img/blue_2bandit_b2.png","70","","70","test","1","","11","","","","circle","square","11","11","1","1","","","","","","","",""
"null","311395","SARL_v6","SARL_v6bob5m7w2","6176ad85f02bff3e92952593","freq_resp","","","img/blue_2bandit_b.png","70","img/blue_2bandit_b.png","70","test","","","","","","","","","","","1","","","","","","","","",""
"null","311566","SARL_v6","SARL_v6bob5m7w2","6176ad85f02bff3e92952593","fixation","","","img/fixation.png","null","","","test","","","","","","","","","","","","","","","","","","","",""
"608","312195","SARL_v6","SARL_v6bob5m7w2","6176ad85f02bff3e92952593","freq","","","img/blue_2bandit_b2.png","70","","70","test","1","","12","","","","circle","square","12","12","1","1","","","","","","","",""
"null","312410","SARL_v6","SARL_v6bob5m7w2","6176ad85f02bff3e92952593","freq_resp","","","img/blue_2bandit_b.png","70","img/blue_2bandit_b.png","70","test","","","","","","","","","","","1","","","","","","","","",""
"null","312583","SARL_v6","SARL_v6bob5m7w2","6176ad85f02bff3e92952593","fixation","","","img/fixation.png","null","","","test","","","","","","","","","","","","","","","","","","","",""
"517.7000000178814","313120","SARL_v6","SARL_v6bob5m7w2","6176ad85f02bff3e92952593","freq","","","img/blue_2bandit_b2.png","70","","70","test","1","","13","","","","circle","square","13","13","1","1","","","","","","","",""
"null","313415","SARL_v6","SARL_v6bob5m7w2","6176ad85f02bff3e92952593","freq_resp","","","img/blue_2bandit_b.png","70","img/blue_2bandit_b.png","70","test","","","","","","","","","","","1","","","","","","","","",""
"null","313598","SARL_v6","SARL_v6bob5m7w2","6176ad85f02bff3e92952593","fixation","","","img/fixation.png","null","","","test","","","","","","","","","","","","","","","","","","","",""
"610","314228","SARL_v6","SARL_v6bob5m7w2","6176ad85f02bff3e92952593","infreq","","","img/orange_2bandit_b2.png","68","","68","test","1","","14","","","","circle","square","14","14","1","1","","","","","","","",""
"null","314451","SARL_v6","SARL_v6bob5m7w2","6176ad85f02bff3e92952593","infreq_resp","","","img/orange_2bandit_b.png","68","img/orange_2bandit_b.png","68","test","","","","","","","","","","","1","","","","","","","","",""
"null","314633","SARL_v6","SARL_v6bob5m7w2","6176ad85f02bff3e92952593","fixation","","","img/fixation.png","null","","","test","","","","","","","","","","","","","","","","","","","",""
"538.2999999821186","315193","SARL_v6","SARL_v6bob5m7w2","6176ad85f02bff3e92952593","freq","","","img/blue_2bandit_b2.png","70","","70","test","1","","15","","","","circle","square","15","15","1","1","","","","","","","",""
"null","315474","SARL_v6","SARL_v6bob5m7w2","6176ad85f02bff3e92952593","freq_resp","","","img/blue_2bandit_b.png","70","img/blue_2bandit_b.png","70","test","","","","","","","","","","","1","","","","","","","","",""
"null","315654","SARL_v6","SARL_v6bob5m7w2","6176ad85f02bff3e92952593","fixation","","","img/fixation.png","null","","","test","","","","","","","","","","","","","","","","","","","",""
"696.1999999880791","316371","SARL_v6","SARL_v6bob5m7w2","6176ad85f02bff3e92952593","freq","","","img/blue_2bandit_b2.png","70","","70","test","1","","16","","","","circle","square","16","16","1","1","","","","","","","",""
"null","316506","SARL_v6","SARL_v6bob5m7w2","6176ad85f02bff3e92952593","freq_resp","","","img/blue_2bandit_b.png","70","img/blue_2bandit_b.png","70","test","","","","","","","","","","","1","","","","","","","","",""
"null","316677","SARL_v6","SARL_v6bob5m7w2","6176ad85f02bff3e92952593","fixation","","","img/fixation.png","null","","","test","","","","","","","","","","","","","","","","","","","",""
"432.40000000596046","317127","SARL_v6","SARL_v6bob5m7w2","6176ad85f02bff3e92952593","freq","","","img/blue_2bandit_b2.png","70","","70","test","1","","17","","","","circle","square","17","17","1","1","","","","","","","",""
"null","317515","SARL_v6","SARL_v6bob5m7w2","6176ad85f02bff3e92952593","freq_resp","","","img/blue_2bandit_b.png","70","img/blue_2bandit_b.png","70","test","","","","","","","","","","","1","","","","","","","","",""
"null","317684","SARL_v6","SARL_v6bob5m7w2","6176ad85f02bff3e92952593","fixation","","","img/fixation.png","null","","","test","","","","","","","","","","","","","","","","","","","",""
"394","318098","SARL_v6","SARL_v6bob5m7w2","6176ad85f02bff3e92952593","freq","","","img/blue_2bandit_b2.png","70","","70","test","1","","18","","","","circle","square","18","18","1","1","","","","","","","",""
"null","318535","SARL_v6","SARL_v6bob5m7w2","6176ad85f02bff3e92952593","freq_resp","","","img/blue_2bandit_b.png","70","img/blue_2bandit_b.png","70","test","","","","","","","","","","","1","","","","","","","","",""
"null","318718","SARL_v6","SARL_v6bob5m7w2","6176ad85f02bff3e92952593","fixation","","","img/fixation.png","null","","","test","","","","","","","","","","","","","","","","","","","",""
"353.09999999403954","319091","SARL_v6","SARL_v6bob5m7w2","6176ad85f02bff3e92952593","freq","","","img/blue_2bandit_b2.png","70","","70","test","1","","19","","","","circle","square","19","19","1","1","","","","","","","",""
"null","319565","SARL_v6","SARL_v6bob5m7w2","6176ad85f02bff3e92952593","freq_resp","","","img/blue_2bandit_b.png","70","img/blue_2bandit_b.png","70","test","","","","","","","","","","","1","","","","","","","","",""
"null","319737","SARL_v6","SARL_v6bob5m7w2","6176ad85f02bff3e92952593","fixation","","","img/fixation.png","null","","","test","","","","","","","","","","","","","","","","","","","",""
"454.09999999403954","320209","SARL_v6","SARL_v6bob5m7w2","6176ad85f02bff3e92952593","freq","","","img/blue_2bandit_b2.png","70","","70","test","1","","20","","","","circle","square","20","20","1","1","","","","","","","",""
"null","320588","SARL_v6","SARL_v6bob5m7w2","6176ad85f02bff3e92952593","freq_resp","","","img/blue_2bandit_b.png","70","img/blue_2bandit_b.png","70","test","","","","","","","","","","","1","","","","","","","","",""
"null","320768","SARL_v6","SARL_v6bob5m7w2","6176ad85f02bff3e92952593","fixation","","","img/fixation.png","null","","","test","","","","","","","","","","","","","","","","","","","",""
"361.2000000178814","321149","SARL_v6","SARL_v6bob5m7w2","6176ad85f02bff3e92952593","freq","","","img/blue_2bandit_b2.png","70","","70","test","1","","21","","","","circle","square","21","21","1","1","","","","","","","",""
"null","321616","SARL_v6","SARL_v6bob5m7w2","6176ad85f02bff3e92952593","freq_resp","","","img/blue_2bandit_b.png","70","img/blue_2bandit_b.png","70","test","","","","","","","","","","","1","","","","","","","","",""
"null","321787","SARL_v6","SARL_v6bob5m7w2","6176ad85f02bff3e92952593","fixation","","","img/fixation.png","null","","","test","","","","","","","","","","","","","","","","","","","",""
"403.90000000596046","322210","SARL_v6","SARL_v6bob5m7w2","6176ad85f02bff3e92952593","freq","","","img/blue_2bandit_b2.png","70","","70","test","1","","22","","","","circle","square","22","22","1","1","","","","","","","",""
"null","322637","SARL_v6","SARL_v6bob5m7w2","6176ad85f02bff3e92952593","freq_resp","","","img/blue_2bandit_b.png","70","img/blue_2bandit_b.png","70","test","","","","","","","","","","","1","","","","","","","","",""
"null","322820","SARL_v6","SARL_v6bob5m7w2","6176ad85f02bff3e92952593","fixation","","","img/fixation.png","null","","","test","","","","","","","","","","","","","","","","","","","",""
"338.19999998807907","323169","SARL_v6","SARL_v6bob5m7w2","6176ad85f02bff3e92952593","freq","","","img/blue_2bandit_b2.png","70","","70","test","1","","23","","","","circle","square","23","23","1","1","","","","","","","",""
"null","323650","SARL_v6","SARL_v6bob5m7w2","6176ad85f02bff3e92952593","freq_resp","","","img/blue_2bandit_b.png","70","img/blue_2bandit_b.png","70","test","","","","","","","","","","","1","","","","","","","","",""
"null","323814","SARL_v6","SARL_v6bob5m7w2","6176ad85f02bff3e92952593","fixation","","","img/fixation.png","null","","","test","","","","","","","","","","","","","","","","","","","",""
"703.1999999880791","324535","SARL_v6","SARL_v6bob5m7w2","6176ad85f02bff3e92952593","rl","","","img/black_2bandit_b2.png","75","","0","test","","","24","","","-3","circle","square","","0","1","","75","-3","-3","-3","-3","square","1","0"
"null","325307","SARL_v6","SARL_v6bob5m7w2","6176ad85f02bff3e92952593","feedback","","","<div class=""verylowPoints_sq""> -3 </div>","null","","na","test","","","NaN","","","","","","","","1","","75","","","","","","1",""
"631.5","325958","SARL_v6","SARL_v6bob5m7w2","6176ad85f02bff3e92952593","freq","","","img/blue_2bandit_b2.png","70","","70","test","1","","25","","","","circle","square","24","1","2","1","","","","","","","",""
"null","326154","SARL_v6","SARL_v6bob5m7w2","6176ad85f02bff3e92952593","freq_resp","","","img/blue_2bandit_b.png","70","img/blue_2bandit_b.png","70","test","","","","","","","","","","","2","","","","","","","","",""
"null","326324","SARL_v6","SARL_v6bob5m7w2","6176ad85f02bff3e92952593","fixation","","","img/fixation.png","null","","","test","","","","","","","","","","","","","","","","","","","",""
"381.59999999403954","326724","SARL_v6","SARL_v6bob5m7w2","6176ad85f02bff3e92952593","freq","","","img/blue_2bandit_b2.png","70","","70","test","1","","26","","","","circle","square","25","2","2","1","","","","","","","",""
"null","327170","SARL_v6","SARL_v6bob5m7w2","6176ad85f02bff3e92952593","freq_resp","","","img/blue_2bandit_b.png","70","img/blue_2bandit_b.png","70","test","","","","","","","","","","","2","","","","","","","","",""
"null","327339","SARL_v6","SARL_v6bob5m7w2","6176ad85f02bff3e92952593","fixation","","","img/fixation.png","null","","","test","","","","","","","","","","","","","","","","","","","",""
"162.7999999821186","327526","SARL_v6","SARL_v6bob5m7w2","6176ad85f02bff3e92952593","infreq","","","img/orange_2bandit_b2.png","70","","68","test","0","","27","","","","circle","square","26","3","2","0.9615384615384616","","","","","","","",""
"null","328190","SARL_v6","SARL_v6bob5m7w2","6176ad85f02bff3e92952593","infreq_resp","","","img/orange_2bandit_b.png","70","img/orange_2bandit_b.png","68","test","","","","","","","","","","","2","","","","","","","","",""
"null","328372","SARL_v6","SARL_v6bob5m7w2","6176ad85f02bff3e92952593","fixation","","","img/fixation.png","null","","","test","","","","","","","","","","","","","","","","","","","",""
"455.69999998807907","328847","SARL_v6","SARL_v6bob5m7w2","6176ad85f02bff3e92952593","freq","","","img/blue_2bandit_b2.png","70","","70","test","1","","28","","","","circle","square","27","4","2","0.9629629629629629","","","","","","","",""
"null","329211","SARL_v6","SARL_v6bob5m7w2","6176ad85f02bff3e92952593","freq_resp","","","img/blue_2bandit_b.png","70","img/blue_2bandit_b.png","70","test","","","","","","","","","","","2","","","","","","","","",""
"null","329390","SARL_v6","SARL_v6bob5m7w2","6176ad85f02bff3e92952593","fixation","","","img/fixation.png","null","","","test","","","","","","","","","","","","","","","","","","","",""
"491.90000000596046","329902","SARL_v6","SARL_v6bob5m7w2","6176ad85f02bff3e92952593","freq","","","img/blue_2bandit_b2.png","70","","70","test","1","","29","","","","circle","square","28","5","2","0.9642857142857143","","","","","","","",""
"null","330230","SARL_v6","SARL_v6bob5m7w2","6176ad85f02bff3e92952593","freq_resp","","","img/blue_2bandit_b.png","70","img/blue_2bandit_b.png","70","test","","","","","","","","","","","2","","","","","","","","",""
"null","330410","SARL_v6","SARL_v6bob5m7w2","6176ad85f02bff3e92952593","fixation","","","img/fixation.png","null","","","test","","","","","","","","","","","","","","","","","","","",""
"495.2999999821186","330926","SARL_v6","SARL_v6bob5m7w2","6176ad85f02bff3e92952593","freq","","","img/blue_2bandit_b2.png","70","","70","test","1","","30","","","","circle","square","29","6","2","0.9655172413793104","","","","","","","",""
"null","331262","SARL_v6","SARL_v6bob5m7w2","6176ad85f02bff3e92952593","freq_resp","","","img/blue_2bandit_b.png","70","img/blue_2bandit_b.png","70","test","","","","","","","","","","","2","","","","","","","","",""
"null","331441","SARL_v6","SARL_v6bob5m7w2","6176ad85f02bff3e92952593","fixation","","","img/fixation.png","null","","","test","","","","","","","","","","","","","","","","","","","",""
"412","331874","SARL_v6","SARL_v6bob5m7w2","6176ad85f02bff3e92952593","freq","","","img/blue_2bandit_b2.png","70","","70","test","1","","31","","","","circle","square","30","7","2","0.9666666666666667","","","","","","","",""
"null","332290","SARL_v6","SARL_v6bob5m7w2","6176ad85f02bff3e92952593","freq_resp","","","img/blue_2bandit_b.png","70","img/blue_2bandit_b.png","70","test","","","","","","","","","","","2","","","","","","","","",""
"null","332474","SARL_v6","SARL_v6bob5m7w2","6176ad85f02bff3e92952593","fixation","","","img/fixation.png","null","","","test","","","","","","","","","","","","","","","","","","","",""
"423.30000001192093","332915","SARL_v6","SARL_v6bob5m7w2","6176ad85f02bff3e92952593","freq","","","img/blue_2bandit_b2.png","70","","70","test","1","","32","","","","circle","square","31","8","2","0.967741935483871","","","","","","","",""
"null","333327","SARL_v6","SARL_v6bob5m7w2","6176ad85f02bff3e92952593","freq_resp","","","img/blue_2bandit_b.png","70","img/blue_2bandit_b.png","70","test","","","","","","","","","","","2","","","","","","","","",""
"null","333509","SARL_v6","SARL_v6bob5m7w2","6176ad85f02bff3e92952593","fixation","","","img/fixation.png","null","","","test","","","","","","","","","","","","","","","","","","","",""
"435.40000000596046","333957","SARL_v6","SARL_v6bob5m7w2","6176ad85f02bff3e92952593","freq","","","img/blue_2bandit_b2.png","70","","70","test","1","","33","","","","circle","square","32","9","2","0.96875","","","","","","","",""
"null","334344","SARL_v6","SARL_v6bob5m7w2","6176ad85f02bff3e92952593","freq_resp","","","img/blue_2bandit_b.png","70","img/blue_2bandit_b.png","70","test","","","","","","","","","","","2","","","","","","","","",""
"null","334529","SARL_v6","SARL_v6bob5m7w2","6176ad85f02bff3e92952593","fixation","","","img/fixation.png","null","","","test","","","","","","","","","","","","","","","","","","","",""
"425.69999998807907","334973","SARL_v6","SARL_v6bob5m7w2","6176ad85f02bff3e92952593","freq","","","img/blue_2bandit_b2.png","70","","70","test","1","","34","","","","circle","square","33","10","2","0.9696969696969697","","","","","","","",""
"null","335377","SARL_v6","SARL_v6bob5m7w2","6176ad85f02bff3e92952593","freq_resp","","","img/blue_2bandit_b.png","70","img/blue_2bandit_b.png","70","test","","","","","","","","","","","2","","","","","","","","",""
"null","335560","SARL_v6","SARL_v6bob5m7w2","6176ad85f02bff3e92952593","fixation","","","img/fixation.png","null","","","test","","","","","","","","","","","","","","","","","","","",""
"383.59999999403954","335963","SARL_v6","SARL_v6bob5m7w2","6176ad85f02bff3e92952593","freq","","","img/blue_2bandit_b2.png","70","","70","test","1","","35","","","","circle","square","34","11","2","0.9705882352941176","","","","","","","",""
"null","336409","SARL_v6","SARL_v6bob5m7w2","6176ad85f02bff3e92952593","freq_resp","","","img/blue_2bandit_b.png","70","img/blue_2bandit_b.png","70","test","","","","","","","","","","","2","","","","","","","","",""
"null","336593","SARL_v6","SARL_v6bob5m7w2","6176ad85f02bff3e92952593","fixation","","","img/fixation.png","null","","","test","","","","","","","","","","","","","","","","","","","",""
"364.60000002384186","336977","SARL_v6","SARL_v6bob5m7w2","6176ad85f02bff3e92952593","freq","","","img/blue_2bandit_b2.png","70","","70","test","1","","36","","","","circle","square","35","12","2","0.9714285714285714","","","","","","","",""
"null","337440","SARL_v6","SARL_v6bob5m7w2","6176ad85f02bff3e92952593","freq_resp","","","img/blue_2bandit_b.png","70","img/blue_2bandit_b.png","70","test","","","","","","","","","","","2","","","","","","","","",""
"null","337609","SARL_v6","SARL_v6bob5m7w2","6176ad85f02bff3e92952593","fixation","","","img/fixation.png","null","","","test","","","","","","","","","","","","","","","","","","","",""
"364.30000001192093","337994","SARL_v6","SARL_v6bob5m7w2","6176ad85f02bff3e92952593","freq","","","img/blue_2bandit_b2.png","70","","70","test","1","","37","","","","circle","square","36","13","2","0.9722222222222222","","","","","","","",""
"null","338459","SARL_v6","SARL_v6bob5m7w2","6176ad85f02bff3e92952593","freq_resp","","","img/blue_2bandit_b.png","70","img/blue_2bandit_b.png","70","test","","","","","","","","","","","2","","","","","","","","",""
"null","338628","SARL_v6","SARL_v6bob5m7w2","6176ad85f02bff3e92952593","fixation","","","img/fixation.png","null","","","test","","","","","","","","","","","","","","","","","","","",""
"362.09999999403954","339012","SARL_v6","SARL_v6bob5m7w2","6176ad85f02bff3e92952593","freq","","","img/blue_2bandit_b2.png","70","","70","test","1","","38","","","","circle","square","37","14","2","0.972972972972973","","","","","","","",""
"null","339475","SARL_v6","SARL_v6bob5m7w2","6176ad85f02bff3e92952593","freq_resp","","","img/blue_2bandit_b.png","70","img/blue_2bandit_b.png","70","test","","","","","","","","","","","2","","","","","","","","",""
"null","339649","SARL_v6","SARL_v6bob5m7w2","6176ad85f02bff3e92952593","fixation","","","img/fixation.png","null","","","test","","","","","","","","","","","","","","","","","","","",""
"299.30000001192093","339965","SARL_v6","SARL_v6bob5m7w2","6176ad85f02bff3e92952593","freq","","","img/blue_2bandit_b2.png","70","","70","test","1","","39","","","","circle","square","38","15","2","0.9736842105263158","","","","","","","",""
"null","340489","SARL_v6","SARL_v6bob5m7w2","6176ad85f02bff3e92952593","freq_resp","","","img/blue_2bandit_b.png","70","img/blue_2bandit_b.png","70","test","","","","","","","","","","","2","","","","","","","","",""
"null","340661","SARL_v6","SARL_v6bob5m7w2","6176ad85f02bff3e92952593","fixation","","","img/fixation.png","null","","","test","","","","","","","","","","","","","","","","","","","",""
"372.39999997615814","341056","SARL_v6","SARL_v6bob5m7w2","6176ad85f02bff3e92952593","freq","","","img/blue_2bandit_b2.png","70","","70","test","1","","40","","","","circle","square","39","16","2","0.9743589743589743","","","","","","","",""
"null","341502","SARL_v6","SARL_v6bob5m7w2","6176ad85f02bff3e92952593","freq_resp","","","img/blue_2bandit_b.png","70","img/blue_2bandit_b.png","70","test","","","","","","","","","","","2","","","","","","","","",""
"null","341679","SARL_v6","SARL_v6bob5m7w2","6176ad85f02bff3e92952593","fixation","","","img/fixation.png","null","","","test","","","","","","","","","","","","","","","","","","","",""
"364.90000000596046","342057","SARL_v6","SARL_v6bob5m7w2","6176ad85f02bff3e92952593","freq","","","img/blue_2bandit_b2.png","70","","70","test","1","","41","","","","circle","square","40","17","2","0.975","","","","","","","",""
"null","342502","SARL_v6","SARL_v6bob5m7w2","6176ad85f02bff3e92952593","freq_resp","","","img/blue_2bandit_b.png","70","img/blue_2bandit_b.png","70","test","","","","","","","","","","","2","","","","","","","","",""
"null","342672","SARL_v6","SARL_v6bob5m7w2","6176ad85f02bff3e92952593","fixation","","","img/fixation.png","null","","","test","","","","","","","","","","","","","","","","","","","",""
"337.59999999403954","343017","SARL_v6","SARL_v6bob5m7w2","6176ad85f02bff3e92952593","freq","","","img/blue_2bandit_b2.png","70","","70","test","1","","42","","","","circle","square","41","18","2","0.975609756097561","","","","","","","",""
"null","343499","SARL_v6","SARL_v6bob5m7w2","6176ad85f02bff3e92952593","freq_resp","","","img/blue_2bandit_b.png","70","img/blue_2bandit_b.png","70","test","","","","","","","","","","","2","","","","","","","","",""
"null","343674","SARL_v6","SARL_v6bob5m7w2","6176ad85f02bff3e92952593","fixation","","","img/fixation.png","null","","","test","","","","","","","","","","","","","","","","","","","",""
"311.69999998807907","343994","SARL_v6","SARL_v6bob5m7w2","6176ad85f02bff3e92952593","infreq","","","img/orange_2bandit_b2.png","70","","68","test","0","","43","","","","circle","square","42","19","2","0.9523809523809523","","","","","","","",""
"null","344499","SARL_v6","SARL_v6bob5m7w2","6176ad85f02bff3e92952593","infreq_resp","","","img/orange_2bandit_b.png","70","img/orange_2bandit_b.png","68","test","","","","","","","","","","","2","","","","","","","","",""
"null","344671","SARL_v6","SARL_v6bob5m7w2","6176ad85f02bff3e92952593","fixation","","","img/fixation.png","null","","","test","","","","","","","","","","","","","","","","","","","",""
"521.9000000059605","345210","SARL_v6","SARL_v6bob5m7w2","6176ad85f02bff3e92952593","freq","","","img/blue_2bandit_b2.png","70","","70","test","1","","44","","","","circle","square","43","20","2","0.9534883720930233","","","","","","","",""
"null","345521","SARL_v6","SARL_v6bob5m7w2","6176ad85f02bff3e92952593","freq_resp","","","img/blue_2bandit_b.png","70","img/blue_2bandit_b.png","70","test","","","","","","","","","","","2","","","","","","","","",""
"null","345702","SARL_v6","SARL_v6bob5m7w2","6176ad85f02bff3e92952593","fixation","","","img/fixation.png","null","","","test","","","","","","","","","","","","","","","","","","","",""
"869.7000000178814","346611","SARL_v6","SARL_v6bob5m7w2","6176ad85f02bff3e92952593","rl","","","img/black_2bandit_b2.png","75","","0","test","","","45","","","-5","circle","square","","0","2","","75","-8","-5","-8","-5","square","2","0"
"null","347393","SARL_v6","SARL_v6bob5m7w2","6176ad85f02bff3e92952593","feedback","","","<div class=""verylowPoints_sq""> -5 </div>","null","","na","test","","","NaN","","","","","","","","2","","75","","","","","","2",""
"804.8999999761581","348219","SARL_v6","SARL_v6bob5m7w2","6176ad85f02bff3e92952593","freq","","","img/blue_2bandit_b2.png","70","","70","test","1","","46","","","","circle","square","44","1","3","0.9545454545454546","","","","","","","",""
"null","348399","SARL_v6","SARL_v6bob5m7w2","6176ad85f02bff3e92952593","fixation","","","img/fixation.png","null","","","test","","","","","","","","","","","","","","","","","","","",""
"null","349222","SARL_v6","SARL_v6bob5m7w2","6176ad85f02bff3e92952593","freq","","","img/blue_2bandit_b2.png","null","","70","test","0","","47","","","","circle","square","45","2","3","0.9333333333333333","","","","","","","",""
"null","349399","SARL_v6","SARL_v6bob5m7w2","6176ad85f02bff3e92952593","fixation","","","img/fixation.png","null","","","test","","","","","","","","","","","","","","","","","","","",""
"446.89999997615814","349857","SARL_v6","SARL_v6bob5m7w2","6176ad85f02bff3e92952593","freq","","","img/blue_2bandit_b2.png","70","","70","test","1","","48","","","","circle","square","46","3","3","0.9347826086956522","","","","","","","",""
"null","350236","SARL_v6","SARL_v6bob5m7w2","6176ad85f02bff3e92952593","freq_resp","","","img/blue_2bandit_b.png","70","img/blue_2bandit_b.png","70","test","","","","","","","","","","","3","","","","","","","","",""
"null","350417","SARL_v6","SARL_v6bob5m7w2","6176ad85f02bff3e92952593","fixation","","","img/fixation.png","null","","","test","","","","","","","","","","","","","","","","","","","",""
"null","351240","SARL_v6","SARL_v6bob5m7w2","6176ad85f02bff3e92952593","infreq","","","img/orange_2bandit_b2.png","null","","68","test","0","","49","","","","circle","square","47","4","3","0.9148936170212766","","","","","","","",""
"null","351417","SARL_v6","SARL_v6bob5m7w2","6176ad85f02bff3e92952593","fixation","","","img/fixation.png","null","","","test","","","","","","","","","","","","","","","","","","","",""
"619.5","352056","SARL_v6","SARL_v6bob5m7w2","6176ad85f02bff3e92952593","freq","","","img/blue_2bandit_b2.png","70","","70","test","1","","50","","","","circle","square","48","5","3","0.9166666666666666","","","","","","","",""
"null","352265","SARL_v6","SARL_v6bob5m7w2","6176ad85f02bff3e92952593","freq_resp","","","img/blue_2bandit_b.png","70","img/blue_2bandit_b.png","70","test","","","","","","","","","","","3","","","","","","","","",""
"null","352435","SARL_v6","SARL_v6bob5m7w2","6176ad85f02bff3e92952593","fixation","","","img/fixation.png","null","","","test","","","","","","","","","","","","","","","","","","","",""
"406.7999999821186","352863","SARL_v6","SARL_v6bob5m7w2","6176ad85f02bff3e92952593","freq","","","img/blue_2bandit_b2.png","70","","70","test","1","","51","","","","circle","square","49","6","3","0.9183673469387755","","","","","","","",""
"null","353286","SARL_v6","SARL_v6bob5m7w2","6176ad85f02bff3e92952593","freq_resp","","","img/blue_2bandit_b.png","70","img/blue_2bandit_b.png","70","test","","","","","","","","","","","3","","","","","","","","",""
"null","353468","SARL_v6","SARL_v6bob5m7w2","6176ad85f02bff3e92952593","fixation","","","img/fixation.png","null","","","test","","","","","","","","","","","","","","","","","","","",""
"358.30000001192093","353848","SARL_v6","SARL_v6bob5m7w2","6176ad85f02bff3e92952593","freq","","","img/blue_2bandit_b2.png","70","","70","test","1","","52","","","","circle","square","50","7","3","0.92","","","","","","","",""
"null","354316","SARL_v6","SARL_v6bob5m7w2","6176ad85f02bff3e92952593","freq_resp","","","img/blue_2bandit_b.png","70","img/blue_2bandit_b.png","70","test","","","","","","","","","","","3","","","","","","","","",""
"null","354486","SARL_v6","SARL_v6bob5m7w2","6176ad85f02bff3e92952593","fixation","","","img/fixation.png","null","","","test","","","","","","","","","","","","","","","","","","","",""
"370.59999999403954","354875","SARL_v6","SARL_v6bob5m7w2","6176ad85f02bff3e92952593","freq","","","img/blue_2bandit_b2.png","70","","70","test","1","","53","","","","circle","square","51","8","3","0.9215686274509803","","","","","","","",""
"null","355335","SARL_v6","SARL_v6bob5m7w2","6176ad85f02bff3e92952593","freq_resp","","","img/blue_2bandit_b.png","70","img/blue_2bandit_b.png","70","test","","","","","","","","","","","3","","","","","","","","",""
"null","355517","SARL_v6","SARL_v6bob5m7w2","6176ad85f02bff3e92952593","fixation","","","img/fixation.png","null","","","test","","","","","","","","","","","","","","","","","","","",""
"392.69999998807907","355930","SARL_v6","SARL_v6bob5m7w2","6176ad85f02bff3e92952593","freq","","","img/blue_2bandit_b2.png","70","","70","test","1","","54","","","","circle","square","52","9","3","0.9230769230769231","","","","","","","",""
"null","356370","SARL_v6","SARL_v6bob5m7w2","6176ad85f02bff3e92952593","freq_resp","","","img/blue_2bandit_b.png","70","img/blue_2bandit_b.png","70","test","","","","","","","","","","","3","","","","","","","","",""
"null","356552","SARL_v6","SARL_v6bob5m7w2","6176ad85f02bff3e92952593","fixation","","","img/fixation.png","null","","","test","","","","","","","","","","","","","","","","","","","",""
"314.69999998807907","356887","SARL_v6","SARL_v6bob5m7w2","6176ad85f02bff3e92952593","freq","","","img/blue_2bandit_b2.png","70","","70","test","1","","55","","","","circle","square","53","10","3","0.9245283018867925","","","","","","","",""
"null","357398","SARL_v6","SARL_v6bob5m7w2","6176ad85f02bff3e92952593","freq_resp","","","img/blue_2bandit_b.png","70","img/blue_2bandit_b.png","70","test","","","","","","","","","","","3","","","","","","","","",""
"null","357572","SARL_v6","SARL_v6bob5m7w2","6176ad85f02bff3e92952593","fixation","","","img/fixation.png","null","","","test","","","","","","","","","","","","","","","","","","","",""
"364.30000001192093","357957","SARL_v6","SARL_v6bob5m7w2","6176ad85f02bff3e92952593","freq","","","img/blue_2bandit_b2.png","70","","70","test","1","","56","","","","circle","square","54","11","3","0.9259259259259259","","","","","","","",""
"null","358412","SARL_v6","SARL_v6bob5m7w2","6176ad85f02bff3e92952593","freq_resp","","","img/blue_2bandit_b.png","70","img/blue_2bandit_b.png","70","test","","","","","","","","","","","3","","","","","","","","",""
"null","358589","SARL_v6","SARL_v6bob5m7w2","6176ad85f02bff3e92952593","fixation","","","img/fixation.png","null","","","test","","","","","","","","","","","","","","","","","","","",""
"371.90000000596046","358983","SARL_v6","SARL_v6bob5m7w2","6176ad85f02bff3e92952593","freq","","","img/blue_2bandit_b2.png","70","","70","test","1","","57","","","","circle","square","55","12","3","0.9272727272727272","","","","","","","",""
"null","359428","SARL_v6","SARL_v6bob5m7w2","6176ad85f02bff3e92952593","freq_resp","","","img/blue_2bandit_b.png","70","img/blue_2bandit_b.png","70","test","","","","","","","","","","","3","","","","","","","","",""
"null","359597","SARL_v6","SARL_v6bob5m7w2","6176ad85f02bff3e92952593","fixation","","","img/fixation.png","null","","","test","","","","","","","","","","","","","","","","","","","",""
"487.2999999821186","360101","SARL_v6","SARL_v6bob5m7w2","6176ad85f02bff3e92952593","freq","","","img/blue_2bandit_b2.png","70","","70","test","1","","58","","","","circle","square","56","13","3","0.9285714285714286","","","","","","","",""
"null","360442","SARL_v6","SARL_v6bob5m7w2","6176ad85f02bff3e92952593","freq_resp","","","img/blue_2bandit_b.png","70","img/blue_2bandit_b.png","70","test","","","","","","","","","","","3","","","","","","","","",""
"null","360623","SARL_v6","SARL_v6bob5m7w2","6176ad85f02bff3e92952593","fixation","","","img/fixation.png","null","","","test","","","","","","","","","","","","","","","","","","","",""
"354.5","360990","SARL_v6","SARL_v6bob5m7w2","6176ad85f02bff3e92952593","freq","","","img/blue_2bandit_b2.png","70","","70","test","1","","59","","","","circle","square","57","14","3","0.9298245614035088","","","","","","","",""
"null","361468","SARL_v6","SARL_v6bob5m7w2","6176ad85f02bff3e92952593","freq_resp","","","img/blue_2bandit_b.png","70","img/blue_2bandit_b.png","70","test","","","","","","","","","","","3","","","","","","","","",""
"null","361640","SARL_v6","SARL_v6bob5m7w2","6176ad85f02bff3e92952593","fixation","","","img/fixation.png","null","","","test","","","","","","","","","","","","","","","","","","","",""
"351.09999999403954","362013","SARL_v6","SARL_v6bob5m7w2","6176ad85f02bff3e92952593","freq","","","img/blue_2bandit_b2.png","70","","70","test","1","","60","","","","circle","square","58","15","3","0.9310344827586207","","","","","","","",""
"null","362486","SARL_v6","SARL_v6bob5m7w2","6176ad85f02bff3e92952593","freq_resp","","","img/blue_2bandit_b.png","70","img/blue_2bandit_b.png","70","test","","","","","","","","","","","3","","","","","","","","",""
"null","362657","SARL_v6","SARL_v6bob5m7w2","6176ad85f02bff3e92952593","fixation","","","img/fixation.png","null","","","test","","","","","","","","","","","","","","","","","","","",""
"378.5","363056","SARL_v6","SARL_v6bob5m7w2","6176ad85f02bff3e92952593","freq","","","img/blue_2bandit_b2.png","70","","70","test","1","","61","","","","circle","square","59","16","3","0.9322033898305084","","","","","","","",""
"null","363504","SARL_v6","SARL_v6bob5m7w2","6176ad85f02bff3e92952593","freq_resp","","","img/blue_2bandit_b.png","70","img/blue_2bandit_b.png","70","test","","","","","","","","","","","3","","","","","","","","",""
"null","363675","SARL_v6","SARL_v6bob5m7w2","6176ad85f02bff3e92952593","fixation","","","img/fixation.png","null","","","test","","","","","","","","","","","","","","","","","","","",""
"349.5","364043","SARL_v6","SARL_v6bob5m7w2","6176ad85f02bff3e92952593","freq","","","img/blue_2bandit_b2.png","70","","70","test","1","","62","","","","circle","square","60","17","3","0.9333333333333333","","","","","","","",""
"null","364518","SARL_v6","SARL_v6bob5m7w2","6176ad85f02bff3e92952593","freq_resp","","","img/blue_2bandit_b.png","70","img/blue_2bandit_b.png","70","test","","","","","","","","","","","3","","","","","","","","",""
"null","364690","SARL_v6","SARL_v6bob5m7w2","6176ad85f02bff3e92952593","fixation","","","img/fixation.png","null","","","test","","","","","","","","","","","","","","","","","","","",""
"332","365041","SARL_v6","SARL_v6bob5m7w2","6176ad85f02bff3e92952593","freq","","","img/blue_2bandit_b2.png","70","","70","test","1","","63","","","","circle","square","61","18","3","0.9344262295081968","","","","","","","",""
"null","365535","SARL_v6","SARL_v6bob5m7w2","6176ad85f02bff3e92952593","freq_resp","","","img/blue_2bandit_b.png","70","img/blue_2bandit_b.png","70","test","","","","","","","","","","","3","","","","","","","","",""
"null","365709","SARL_v6","SARL_v6bob5m7w2","6176ad85f02bff3e92952593","fixation","","","img/fixation.png","null","","","test","","","","","","","","","","","","","","","","","","","",""
"353.80000001192093","366074","SARL_v6","SARL_v6bob5m7w2","6176ad85f02bff3e92952593","freq","","","img/blue_2bandit_b2.png","70","","70","test","1","","64","","","","circle","square","62","19","3","0.9354838709677419","","","","","","","",""
"null","366547","SARL_v6","SARL_v6bob5m7w2","6176ad85f02bff3e92952593","freq_resp","","","img/blue_2bandit_b.png","70","img/blue_2bandit_b.png","70","test","","","","","","","","","","","3","","","","","","","","",""
"null","366727","SARL_v6","SARL_v6bob5m7w2","6176ad85f02bff3e92952593","fixation","","","img/fixation.png","null","","","test","","","","","","","","","","","","","","","","","","","",""
"322.40000000596046","367065","SARL_v6","SARL_v6bob5m7w2","6176ad85f02bff3e92952593","freq","","","img/blue_2bandit_b2.png","70","","70","test","1","","65","","","","circle","square","63","20","3","0.9365079365079365","","","","","","","",""
"null","367568","SARL_v6","SARL_v6bob5m7w2","6176ad85f02bff3e92952593","freq_resp","","","img/blue_2bandit_b.png","70","img/blue_2bandit_b.png","70","test","","","","","","","","","","","3","","","","","","","","",""
"null","367742","SARL_v6","SARL_v6bob5m7w2","6176ad85f02bff3e92952593","fixation","","","img/fixation.png","null","","","test","","","","","","","","","","","","","","","","","","","",""
"352.09999999403954","368113","SARL_v6","SARL_v6bob5m7w2","6176ad85f02bff3e92952593","freq","","","img/blue_2bandit_b2.png","70","","70","test","1","","66","","","","circle","square","64","21","3","0.9375","","","","","","","",""
"null","368586","SARL_v6","SARL_v6bob5m7w2","6176ad85f02bff3e92952593","freq_resp","","","img/blue_2bandit_b.png","70","img/blue_2bandit_b.png","70","test","","","","","","","","","","","3","","","","","","","","",""
"null","368759","SARL_v6","SARL_v6bob5m7w2","6176ad85f02bff3e92952593","fixation","","","img/fixation.png","null","","","test","","","","","","","","","","","","","","","","","","","",""
"350.19999998807907","369129","SARL_v6","SARL_v6bob5m7w2","6176ad85f02bff3e92952593","freq","","","img/blue_2bandit_b2.png","70","","70","test","1","","67","","","","circle","square","65","22","3","0.9384615384615385","","","","","","","",""
"null","369606","SARL_v6","SARL_v6bob5m7w2","6176ad85f02bff3e92952593","freq_resp","","","img/blue_2bandit_b.png","70","img/blue_2bandit_b.png","70","test","","","","","","","","","","","3","","","","","","","","",""
"null","369776","SARL_v6","SARL_v6bob5m7w2","6176ad85f02bff3e92952593","fixation","","","img/fixation.png","null","","","test","","","","","","","","","","","","","","","","","","","",""
"355","370155","SARL_v6","SARL_v6bob5m7w2","6176ad85f02bff3e92952593","freq","","","img/blue_2bandit_b2.png","70","","70","test","1","","68","","","","circle","square","66","23","3","0.9393939393939394","","","","","","","",""
"null","370621","SARL_v6","SARL_v6bob5m7w2","6176ad85f02bff3e92952593","freq_resp","","","img/blue_2bandit_b.png","70","img/blue_2bandit_b.png","70","test","","","","","","","","","","","3","","","","","","","","",""
"null","370794","SARL_v6","SARL_v6bob5m7w2","6176ad85f02bff3e92952593","fixation","","","img/fixation.png","null","","","test","","","","","","","","","","","","","","","","","","","",""
"276.60000002384186","371090","SARL_v6","SARL_v6bob5m7w2","6176ad85f02bff3e92952593","infreq","","","img/orange_2bandit_b2.png","70","","68","test","0","","69","","","","circle","square","67","24","3","0.9253731343283582","","","","","","","",""
"null","371636","SARL_v6","SARL_v6bob5m7w2","6176ad85f02bff3e92952593","infreq_resp","","","img/orange_2bandit_b.png","70","img/orange_2bandit_b.png","68","test","","","","","","","","","","","3","","","","","","","","",""
"null","371811","SARL_v6","SARL_v6bob5m7w2","6176ad85f02bff3e92952593","fixation","","","img/fixation.png","null","","","test","","","","","","","","","","","","","","","","","","","",""
"375","372207","SARL_v6","SARL_v6bob5m7w2","6176ad85f02bff3e92952593","freq","","","img/blue_2bandit_b2.png","70","","70","test","1","","70","","","","circle","square","68","25","3","0.9264705882352942","","","","","","","",""
"null","372654","SARL_v6","SARL_v6bob5m7w2","6176ad85f02bff3e92952593","freq_resp","","","img/blue_2bandit_b.png","70","img/blue_2bandit_b.png","70","test","","","","","","","","","","","3","","","","","","","","",""
"null","372829","SARL_v6","SARL_v6bob5m7w2","6176ad85f02bff3e92952593","fixation","","","img/fixation.png","null","","","test","","","","","","","","","","","","","","","","","","","",""
"358.5","373206","SARL_v6","SARL_v6bob5m7w2","6176ad85f02bff3e92952593","freq","","","img/blue_2bandit_b2.png","70","","70","test","1","","71","","","","circle","square","69","26","3","0.927536231884058","","","","","","","",""
"null","373674","SARL_v6","SARL_v6bob5m7w2","6176ad85f02bff3e92952593","freq_resp","","","img/blue_2bandit_b.png","70","img/blue_2bandit_b.png","70","test","","","","","","","","","","","3","","","","","","","","",""
"null","373844","SARL_v6","SARL_v6bob5m7w2","6176ad85f02bff3e92952593","fixation","","","img/fixation.png","null","","","test","","","","","","","","","","","","","","","","","","","",""
"665.1000000238419","374531","SARL_v6","SARL_v6bob5m7w2","6176ad85f02bff3e92952593","rl","","","img/black_2bandit_b2.png","74","","0","test","","","72","","","-8","circle","square","","0","3","","74","-8","-4","-8","-4","circle","3","0"
"null","375306","SARL_v6","SARL_v6bob5m7w2","6176ad85f02bff3e92952593","feedback","","","<div class=""verylowPoints""> -8 </div>","null","","na","test","","","NaN","","","","","","","","3","","74","","","","","","3",""
"719.9000000059605","376048","SARL_v6","SARL_v6bob5m7w2","6176ad85f02bff3e92952593","freq","","","img/blue_2bandit_b2.png","70","","70","test","1","","73","","","","circle","square","70","1","4","0.9285714285714286","","","","","","","",""
"null","376151","SARL_v6","SARL_v6bob5m7w2","6176ad85f02bff3e92952593","freq_resp","","","img/blue_2bandit_b.png","70","img/blue_2bandit_b.png","70","test","","","","","","","","","","","4","","","","","","","","",""
"null","376328","SARL_v6","SARL_v6bob5m7w2","6176ad85f02bff3e92952593","fixation","","","img/fixation.png","null","","","test","","","","","","","","","","","","","","","","","","","",""
"527.1999999880791","376875","SARL_v6","SARL_v6bob5m7w2","6176ad85f02bff3e92952593","infreq","","","img/orange_2bandit_b2.png","70","","68","test","0","","74","","","","circle","square","71","2","4","0.9154929577464789","","","","","","","",""
"null","377170","SARL_v6","SARL_v6bob5m7w2","6176ad85f02bff3e92952593","infreq_resp","","","img/orange_2bandit_b.png","70","img/orange_2bandit_b.png","68","test","","","","","","","","","","","4","","","","","","","","",""
"null","377346","SARL_v6","SARL_v6bob5m7w2","6176ad85f02bff3e92952593","fixation","","","img/fixation.png","null","","","test","","","","","","","","","","","","","","","","","","","",""
"421.90000000596046","377787","SARL_v6","SARL_v6bob5m7w2","6176ad85f02bff3e92952593","freq","","","img/blue_2bandit_b2.png","70","","70","test","1","","75","","","","circle","square","72","3","4","0.9166666666666666","","","","","","","",""
"null","378201","SARL_v6","SARL_v6bob5m7w2","6176ad85f02bff3e92952593","freq_resp","","","img/blue_2bandit_b.png","70","img/blue_2bandit_b.png","70","test","","","","","","","","","","","4","","","","","","","","",""
"null","378380","SARL_v6","SARL_v6bob5m7w2","6176ad85f02bff3e92952593","fixation","","","img/fixation.png","null","","","test","","","","","","","","","","","","","","","","","","","",""
"401.40000000596046","378802","SARL_v6","SARL_v6bob5m7w2","6176ad85f02bff3e92952593","freq","","","img/blue_2bandit_b2.png","70","","70","test","1","","76","","","","circle","square","73","4","4","0.9178082191780822","","","","","","","",""
"null","379231","SARL_v6","SARL_v6bob5m7w2","6176ad85f02bff3e92952593","freq_resp","","","img/blue_2bandit_b.png","70","img/blue_2bandit_b.png","70","test","","","","","","","","","","","4","","","","","","","","",""
"null","379414","SARL_v6","SARL_v6bob5m7w2","6176ad85f02bff3e92952593","fixation","","","img/fixation.png","null","","","test","","","","","","","","","","","","","","","","","","","",""
"370.90000000596046","379804","SARL_v6","SARL_v6bob5m7w2","6176ad85f02bff3e92952593","freq","","","img/blue_2bandit_b2.png","70","","70","test","1","","77","","","","circle","square","74","5","4","0.918918918918919","","","","","","","",""
"null","380262","SARL_v6","SARL_v6bob5m7w2","6176ad85f02bff3e92952593","freq_resp","","","img/blue_2bandit_b.png","70","img/blue_2bandit_b.png","70","test","","","","","","","","","","","4","","","","","","","","",""
"null","380447","SARL_v6","SARL_v6bob5m7w2","6176ad85f02bff3e92952593","fixation","","","img/fixation.png","null","","","test","","","","","","","","","","","","","","","","","","","",""
"366.09999999403954","380833","SARL_v6","SARL_v6bob5m7w2","6176ad85f02bff3e92952593","freq","","","img/blue_2bandit_b2.png","70","","70","test","1","","78","","","","circle","square","75","6","4","0.92","","","","","","","",""
"null","381296","SARL_v6","SARL_v6bob5m7w2","6176ad85f02bff3e92952593","freq_resp","","","img/blue_2bandit_b.png","70","img/blue_2bandit_b.png","70","test","","","","","","","","","","","4","","","","","","","","",""
"null","381466","SARL_v6","SARL_v6bob5m7w2","6176ad85f02bff3e92952593","fixation","","","img/fixation.png","null","","","test","","","","","","","","","","","","","","","","","","","",""
"398.80000001192093","381875","SARL_v6","SARL_v6bob5m7w2","6176ad85f02bff3e92952593","freq","","","img/blue_2bandit_b2.png","70","","70","test","1","","79","","","","circle","square","76","7","4","0.9210526315789473","","","","","","","",""
"null","382300","SARL_v6","SARL_v6bob5m7w2","6176ad85f02bff3e92952593","freq_resp","","","img/blue_2bandit_b.png","70","img/blue_2bandit_b.png","70","test","","","","","","","","","","","4","","","","","","","","",""
"null","382482","SARL_v6","SARL_v6bob5m7w2","6176ad85f02bff3e92952593","fixation","","","img/fixation.png","null","","","test","","","","","","","","","","","","","","","","","","","",""
"343.09999999403954","382847","SARL_v6","SARL_v6bob5m7w2","6176ad85f02bff3e92952593","freq","","","img/blue_2bandit_b2.png","70","","70","test","1","","80","","","","circle","square","77","8","4","0.922077922077922","","","","","","","",""
"null","383334","SARL_v6","SARL_v6bob5m7w2","6176ad85f02bff3e92952593","freq_resp","","","img/blue_2bandit_b.png","70","img/blue_2bandit_b.png","70","test","","","","","","","","","","","4","","","","","","","","",""
"null","383516","SARL_v6","SARL_v6bob5m7w2","6176ad85f02bff3e92952593","fixation","","","img/fixation.png","null","","","test","","","","","","","","","","","","","","","","","","","",""
"393.90000000596046","383930","SARL_v6","SARL_v6bob5m7w2","6176ad85f02bff3e92952593","freq","","","img/blue_2bandit_b2.png","70","","70","test","1","","81","","","","circle","square","78","9","4","0.9230769230769231","","","","","","","",""
"null","384366","SARL_v6","SARL_v6bob5m7w2","6176ad85f02bff3e92952593","freq_resp","","","img/blue_2bandit_b.png","70","img/blue_2bandit_b.png","70","test","","","","","","","","","","","4","","","","","","","","",""
"null","384550","SARL_v6","SARL_v6bob5m7w2","6176ad85f02bff3e92952593","fixation","","","img/fixation.png","null","","","test","","","","","","","","","","","","","","","","","","","",""
"408.40000000596046","384979","SARL_v6","SARL_v6bob5m7w2","6176ad85f02bff3e92952593","freq","","","img/blue_2bandit_b2.png","70","","70","test","1","","82","","","","circle","square","79","10","4","0.9240506329113924","","","","","","","",""
"null","385392","SARL_v6","SARL_v6bob5m7w2","6176ad85f02bff3e92952593","freq_resp","","","img/blue_2bandit_b.png","70","img/blue_2bandit_b.png","70","test","","","","","","","","","","","4","","","","","","","","",""
"null","385568","SARL_v6","SARL_v6bob5m7w2","6176ad85f02bff3e92952593","fixation","","","img/fixation.png","null","","","test","","","","","","","","","","","","","","","","","","","",""
"390.2000000178814","385978","SARL_v6","SARL_v6bob5m7w2","6176ad85f02bff3e92952593","freq","","","img/blue_2bandit_b2.png","70","","70","test","1","","83","","","","circle","square","80","11","4","0.925","","","","","","","",""
"null","386410","SARL_v6","SARL_v6bob5m7w2","6176ad85f02bff3e92952593","freq_resp","","","img/blue_2bandit_b.png","70","img/blue_2bandit_b.png","70","test","","","","","","","","","","","4","","","","","","","","",""
"null","386583","SARL_v6","SARL_v6bob5m7w2","6176ad85f02bff3e92952593","fixation","","","img/fixation.png","null","","","test","","","","","","","","","","","","","","","","","","","",""
"330.2000000178814","386932","SARL_v6","SARL_v6bob5m7w2","6176ad85f02bff3e92952593","freq","","","img/blue_2bandit_b2.png","70","","70","test","1","","84","","","","circle","square","81","12","4","0.9259259259259259","","","","","","","",""
"null","387424","SARL_v6","SARL_v6bob5m7w2","6176ad85f02bff3e92952593","freq_resp","","","img/blue_2bandit_b.png","70","img/blue_2bandit_b.png","70","test","","","","","","","","","","","4","","","","","","","","",""
"null","387604","SARL_v6","SARL_v6bob5m7w2","6176ad85f02bff3e92952593","fixation","","","img/fixation.png","null","","","test","","","","","","","","","","","","","","","","","","","",""
"391.2999999821186","388016","SARL_v6","SARL_v6bob5m7w2","6176ad85f02bff3e92952593","freq","","","img/blue_2bandit_b2.png","70","","70","test","1","","85","","","","circle","square","82","13","4","0.926829268292683","","","","","","","",""
"null","388451","SARL_v6","SARL_v6bob5m7w2","6176ad85f02bff3e92952593","freq_resp","","","img/blue_2bandit_b.png","70","img/blue_2bandit_b.png","70","test","","","","","","","","","","","4","","","","","","","","",""
"null","388636","SARL_v6","SARL_v6bob5m7w2","6176ad85f02bff3e92952593","fixation","","","img/fixation.png","null","","","test","","","","","","","","","","","","","","","","","","","",""
"286.69999998807907","388940","SARL_v6","SARL_v6bob5m7w2","6176ad85f02bff3e92952593","infreq","","","img/orange_2bandit_b2.png","70","","68","test","0","","86","","","","circle","square","83","14","4","0.9156626506024096","","","","","","","",""
"null","389486","SARL_v6","SARL_v6bob5m7w2","6176ad85f02bff3e92952593","infreq_resp","","","img/orange_2bandit_b.png","70","img/orange_2bandit_b.png","68","test","","","","","","","","","","","4","","","","","","","","",""
"null","389663","SARL_v6","SARL_v6bob5m7w2","6176ad85f02bff3e92952593","fixation","","","img/fixation.png","null","","","test","","","","","","","","","","","","","","","","","","","",""
"412.90000000596046","390088","SARL_v6","SARL_v6bob5m7w2","6176ad85f02bff3e92952593","freq","","","img/blue_2bandit_b2.png","70","","70","test","1","","87","","","","circle","square","84","15","4","0.9166666666666666","","","","","","","",""
"null","390505","SARL_v6","SARL_v6bob5m7w2","6176ad85f02bff3e92952593","freq_resp","","","img/blue_2bandit_b.png","70","img/blue_2bandit_b.png","70","test","","","","","","","","","","","4","","","","","","","","",""
"null","390690","SARL_v6","SARL_v6bob5m7w2","6176ad85f02bff3e92952593","fixation","","","img/fixation.png","null","","","test","","","","","","","","","","","","","","","","","","","",""
"332.40000000596046","391043","SARL_v6","SARL_v6bob5m7w2","6176ad85f02bff3e92952593","freq","","","img/blue_2bandit_b2.png","70","","70","test","1","","88","","","","circle","square","85","16","4","0.9176470588235294","","","","","","","",""
"null","391544","SARL_v6","SARL_v6bob5m7w2","6176ad85f02bff3e92952593","freq_resp","","","img/blue_2bandit_b.png","70","img/blue_2bandit_b.png","70","test","","","","","","","","","","","4","","","","","","","","",""
"null","391722","SARL_v6","SARL_v6bob5m7w2","6176ad85f02bff3e92952593","fixation","","","img/fixation.png","null","","","test","","","","","","","","","","","","","","","","","","","",""
"325.59999999403954","392067","SARL_v6","SARL_v6bob5m7w2","6176ad85f02bff3e92952593","freq","","","img/blue_2bandit_b2.png","70","","70","test","1","","89","","","","circle","square","86","17","4","0.9186046511627907","","","","","","","",""
"null","392567","SARL_v6","SARL_v6bob5m7w2","6176ad85f02bff3e92952593","freq_resp","","","img/blue_2bandit_b.png","70","img/blue_2bandit_b.png","70","test","","","","","","","","","","","4","","","","","","","","",""
"null","392738","SARL_v6","SARL_v6bob5m7w2","6176ad85f02bff3e92952593","fixation","","","img/fixation.png","null","","","test","","","","","","","","","","","","","","","","","","","",""
"361.40000000596046","393120","SARL_v6","SARL_v6bob5m7w2","6176ad85f02bff3e92952593","freq","","","img/blue_2bandit_b2.png","70","","70","test","1","","90","","","","circle","square","87","18","4","0.9195402298850575","","","","","","","",""
"null","393582","SARL_v6","SARL_v6bob5m7w2","6176ad85f02bff3e92952593","freq_resp","","","img/blue_2bandit_b.png","70","img/blue_2bandit_b.png","70","test","","","","","","","","","","","4","","","","","","","","",""
"null","393753","SARL_v6","SARL_v6bob5m7w2","6176ad85f02bff3e92952593","fixation","","","img/fixation.png","null","","","test","","","","","","","","","","","","","","","","","","","",""
"342","394116","SARL_v6","SARL_v6bob5m7w2","6176ad85f02bff3e92952593","freq","","","img/blue_2bandit_b2.png","70","","70","test","1","","91","","","","circle","square","88","19","4","0.9204545454545454","","","","","","","",""
"null","394601","SARL_v6","SARL_v6bob5m7w2","6176ad85f02bff3e92952593","freq_resp","","","img/blue_2bandit_b.png","70","img/blue_2bandit_b.png","70","test","","","","","","","","","","","4","","","","","","","","",""
"null","394771","SARL_v6","SARL_v6bob5m7w2","6176ad85f02bff3e92952593","fixation","","","img/fixation.png","null","","","test","","","","","","","","","","","","","","","","","","","",""
"337.59999999403954","395126","SARL_v6","SARL_v6bob5m7w2","6176ad85f02bff3e92952593","freq","","","img/blue_2bandit_b2.png","70","","70","test","1","","92","","","","circle","square","89","20","4","0.9213483146067416","","","","","","","",""
"null","395620","SARL_v6","SARL_v6bob5m7w2","6176ad85f02bff3e92952593","freq_resp","","","img/blue_2bandit_b.png","70","img/blue_2bandit_b.png","70","test","","","","","","","","","","","4","","","","","","","","",""
"null","395806","SARL_v6","SARL_v6bob5m7w2","6176ad85f02bff3e92952593","fixation","","","img/fixation.png","null","","","test","","","","","","","","","","","","","","","","","","","",""
"569.7000000178814","396394","SARL_v6","SARL_v6bob5m7w2","6176ad85f02bff3e92952593","rl","","","img/black_2bandit_b2.png","74","","0","test","","","93","","","-12","circle","square","","0","4","","74","-12","0","-12","0","circle","4","0"
"null","397181","SARL_v6","SARL_v6bob5m7w2","6176ad85f02bff3e92952593","feedback","","","<div class=""verylowPoints""> -12 </div>","null","","na","test","","","NaN","","","","","","","","4","","74","","","","","","4",""
"665.1999999880791","397868","SARL_v6","SARL_v6bob5m7w2","6176ad85f02bff3e92952593","freq","","","img/blue_2bandit_b2.png","70","","70","test","1","","94","","","","circle","square","90","1","5","0.9222222222222223","","","","","","","",""
"null","398023","SARL_v6","SARL_v6bob5m7w2","6176ad85f02bff3e92952593","freq_resp","","","img/blue_2bandit_b.png","70","img/blue_2bandit_b.png","70","test","","","","","","","","","","","5","","","","","","","","",""
"null","398199","SARL_v6","SARL_v6bob5m7w2","6176ad85f02bff3e92952593","fixation","","","img/fixation.png","null","","","test","","","","","","","","","","","","","","","","","","","",""
"556.7999999821186","398765","SARL_v6","SARL_v6bob5m7w2","6176ad85f02bff3e92952593","freq","","","img/blue_2bandit_b2.png","70","","70","test","1","","95","","","","circle","square","91","2","5","0.9230769230769231","","","","","","","",""
"null","399025","SARL_v6","SARL_v6bob5m7w2","6176ad85f02bff3e92952593","freq_resp","","","img/blue_2bandit_b.png","70","img/blue_2bandit_b.png","70","test","","","","","","","","","","","5","","","","","","","","",""
"null","399198","SARL_v6","SARL_v6bob5m7w2","6176ad85f02bff3e92952593","fixation","","","img/fixation.png","null","","","test","","","","","","","","","","","","","","","","","","","",""
"506","399713","SARL_v6","SARL_v6bob5m7w2","6176ad85f02bff3e92952593","freq","","","img/blue_2bandit_b2.png","70","","70","test","1","","96","","","","circle","square","92","3","5","0.9239130434782609","","","","","","","",""
"null","400023","SARL_v6","SARL_v6bob5m7w2","6176ad85f02bff3e92952593","freq_resp","","","img/blue_2bandit_b.png","70","img/blue_2bandit_b.png","70","test","","","","","","","","","","","5","","","","","","","","",""
"null","400182","SARL_v6","SARL_v6bob5m7w2","6176ad85f02bff3e92952593","fixation","","","img/fixation.png","null","","","test","","","","","","","","","","","","","","","","","","","",""
"416.59999999403954","400608","SARL_v6","SARL_v6bob5m7w2","6176ad85f02bff3e92952593","freq","","","img/blue_2bandit_b2.png","70","","70","test","1","","97","","","","circle","square","93","4","5","0.9247311827956989","","","","","","","",""
"null","401006","SARL_v6","SARL_v6bob5m7w2","6176ad85f02bff3e92952593","freq_resp","","","img/blue_2bandit_b.png","70","img/blue_2bandit_b.png","70","test","","","","","","","","","","","5","","","","","","","","",""
"null","401166","SARL_v6","SARL_v6bob5m7w2","6176ad85f02bff3e92952593","fixation","","","img/fixation.png","null","","","test","","","","","","","","","","","","","","","","","","","",""
"373.09999999403954","401555","SARL_v6","SARL_v6bob5m7w2","6176ad85f02bff3e92952593","freq","","","img/blue_2bandit_b2.png","70","","70","test","1","","98","","","","circle","square","94","5","5","0.925531914893617","","","","","","","",""
"null","402018","SARL_v6","SARL_v6bob5m7w2","6176ad85f02bff3e92952593","freq_resp","","","img/blue_2bandit_b.png","70","img/blue_2bandit_b.png","70","test","","","","","","","","","","","5","","","","","","","","",""
"null","402184","SARL_v6","SARL_v6bob5m7w2","6176ad85f02bff3e92952593","fixation","","","img/fixation.png","null","","","test","","","","","","","","","","","","","","","","","","","",""
"667.5999999940395","402860","SARL_v6","SARL_v6bob5m7w2","6176ad85f02bff3e92952593","infreq","","","img/orange_2bandit_b2.png","68","","68","test","1","","99","","","","circle","square","95","6","5","0.9263157894736842","","","","","","","",""
"null","403003","SARL_v6","SARL_v6bob5m7w2","6176ad85f02bff3e92952593","infreq_resp","","","img/orange_2bandit_b.png","68","img/orange_2bandit_b.png","68","test","","","","","","","","","","","5","","","","","","","","",""
"null","403167","SARL_v6","SARL_v6bob5m7w2","6176ad85f02bff3e92952593","fixation","","","img/fixation.png","null","","","test","","","","","","","","","","","","","","","","","","","",""
"494","403670","SARL_v6","SARL_v6bob5m7w2","6176ad85f02bff3e92952593","freq","","","img/blue_2bandit_b2.png","70","","70","test","1","","100","","","","circle","square","96","7","5","0.9270833333333334","","","","","","","",""
"null","403998","SARL_v6","SARL_v6bob5m7w2","6176ad85f02bff3e92952593","freq_resp","","","img/blue_2bandit_b.png","70","img/blue_2bandit_b.png","70","test","","","","","","","","","","","5","","","","","","","","",""
"null","404168","SARL_v6","SARL_v6bob5m7w2","6176ad85f02bff3e92952593","fixation","","","img/fixation.png","null","","","test","","","","","","","","","","","","","","","","","","","",""
"477.90000000596046","404655","SARL_v6","SARL_v6bob5m7w2","6176ad85f02bff3e92952593","freq","","","img/blue_2bandit_b2.png","70","","70","test","1","","101","","","","circle","square","97","8","5","0.9278350515463918","","","","","","","",""
"null","404991","SARL_v6","SARL_v6bob5m7w2","6176ad85f02bff3e92952593","freq_resp","","","img/blue_2bandit_b.png","70","img/blue_2bandit_b.png","70","test","","","","","","","","","","","5","","","","","","","","",""
"null","405153","SARL_v6","SARL_v6bob5m7w2","6176ad85f02bff3e92952593","fixation","","","img/fixation.png","null","","","test","","","","","","","","","","","","","","","","","","","",""
"390.5","405552","SARL_v6","SARL_v6bob5m7w2","6176ad85f02bff3e92952593","freq","","","img/blue_2bandit_b2.png","70","","70","test","1","","102","","","","circle","square","98","9","5","0.9285714285714286","","","","","","","",""
"null","405984","SARL_v6","SARL_v6bob5m7w2","6176ad85f02bff3e92952593","freq_resp","","","img/blue_2bandit_b.png","70","img/blue_2bandit_b.png","70","test","","","","","","","","","","","5","","","","","","","","",""
"null","406152","SARL_v6","SARL_v6bob5m7w2","6176ad85f02bff3e92952593","fixation","","","img/fixation.png","null","","","test","","","","","","","","","","","","","","","","","","","",""
"665.1999999880791","406826","SARL_v6","SARL_v6bob5m7w2","6176ad85f02bff3e92952593","infreq","","","img/orange_2bandit_b2.png","68","","68","test","1","","103","","","","circle","square","99","10","5","0.9292929292929293","","","","","","","",""
"null","406970","SARL_v6","SARL_v6bob5m7w2","6176ad85f02bff3e92952593","infreq_resp","","","img/orange_2bandit_b.png","68","img/orange_2bandit_b.png","68","test","","","","","","","","","","","5","","","","","","","","",""
"null","407137","SARL_v6","SARL_v6bob5m7w2","6176ad85f02bff3e92952593","fixation","","","img/fixation.png","null","","","test","","","","","","","","","","","","","","","","","","","",""
"596","407741","SARL_v6","SARL_v6bob5m7w2","6176ad85f02bff3e92952593","freq","","","img/blue_2bandit_b2.png","70","","70","test","1","","104","","","","circle","square","100","11","5","0.93","","","","","","","",""
"null","407958","SARL_v6","SARL_v6bob5m7w2","6176ad85f02bff3e92952593","freq_resp","","","img/blue_2bandit_b.png","70","img/blue_2bandit_b.png","70","test","","","","","","","","","","","5","","","","","","","","",""
"null","408120","SARL_v6","SARL_v6bob5m7w2","6176ad85f02bff3e92952593","fixation","","","img/fixation.png","null","","","test","","","","","","","","","","","","","","","","","","","",""
"534.7999999821186","408663","SARL_v6","SARL_v6bob5m7w2","6176ad85f02bff3e92952593","freq","","","img/blue_2bandit_b2.png","70","","70","test","1","","105","","","","circle","square","101","12","5","0.9306930693069307","","","","","","","",""
"null","408945","SARL_v6","SARL_v6bob5m7w2","6176ad85f02bff3e92952593","freq_resp","","","img/blue_2bandit_b.png","70","img/blue_2bandit_b.png","70","test","","","","","","","","","","","5","","","","","","","","",""
"null","409104","SARL_v6","SARL_v6bob5m7w2","6176ad85f02bff3e92952593","fixation","","","img/fixation.png","null","","","test","","","","","","","","","","","","","","","","","","","",""
"404.40000000596046","409517","SARL_v6","SARL_v6bob5m7w2","6176ad85f02bff3e92952593","freq","","","img/blue_2bandit_b2.png","70","","70","test","1","","106","","","","circle","square","102","13","5","0.9313725490196079","","","","","","","",""
"null","409922","SARL_v6","SARL_v6bob5m7w2","6176ad85f02bff3e92952593","freq_resp","","","img/blue_2bandit_b.png","70","img/blue_2bandit_b.png","70","test","","","","","","","","","","","5","","","","","","","","",""
"null","410087","SARL_v6","SARL_v6bob5m7w2","6176ad85f02bff3e92952593","fixation","","","img/fixation.png","null","","","test","","","","","","","","","","","","","","","","","","","",""
"387","410483","SARL_v6","SARL_v6bob5m7w2","6176ad85f02bff3e92952593","freq","","","img/blue_2bandit_b2.png","70","","70","test","1","","107","","","","circle","square","103","14","5","0.9320388349514563","","","","","","","",""
"null","410905","SARL_v6","SARL_v6bob5m7w2","6176ad85f02bff3e92952593","freq_resp","","","img/blue_2bandit_b.png","70","img/blue_2bandit_b.png","70","test","","","","","","","","","","","5","","","","","","","","",""
"null","411072","SARL_v6","SARL_v6bob5m7w2","6176ad85f02bff3e92952593","fixation","","","img/fixation.png","null","","","test","","","","","","","","","","","","","","","","","","","",""
"380.30000001192093","411460","SARL_v6","SARL_v6bob5m7w2","6176ad85f02bff3e92952593","freq","","","img/blue_2bandit_b2.png","70","","70","test","1","","108","","","","circle","square","104","15","5","0.9326923076923077","","","","","","","",""
"null","411902","SARL_v6","SARL_v6bob5m7w2","6176ad85f02bff3e92952593","freq_resp","","","img/blue_2bandit_b.png","70","img/blue_2bandit_b.png","70","test","","","","","","","","","","","5","","","","","","","","",""
"null","412072","SARL_v6","SARL_v6bob5m7w2","6176ad85f02bff3e92952593","fixation","","","img/fixation.png","null","","","test","","","","","","","","","","","","","","","","","","","",""
"411","412492","SARL_v6","SARL_v6bob5m7w2","6176ad85f02bff3e92952593","freq","","","img/blue_2bandit_b2.png","70","","70","test","1","","109","","","","circle","square","105","16","5","0.9333333333333333","","","","","","","",""
"null","412890","SARL_v6","SARL_v6bob5m7w2","6176ad85f02bff3e92952593","freq_resp","","","img/blue_2bandit_b.png","70","img/blue_2bandit_b.png","70","test","","","","","","","","","","","5","","","","","","","","",""
"null","413055","SARL_v6","SARL_v6bob5m7w2","6176ad85f02bff3e92952593","fixation","","","img/fixation.png","null","","","test","","","","","","","","","","","","","","","","","","","",""
"381.2000000178814","413445","SARL_v6","SARL_v6bob5m7w2","6176ad85f02bff3e92952593","freq","","","img/blue_2bandit_b2.png","70","","70","test","1","","110","","","","circle","square","106","17","5","0.9339622641509434","","","","","","","",""
"null","413887","SARL_v6","SARL_v6bob5m7w2","6176ad85f02bff3e92952593","freq_resp","","","img/blue_2bandit_b.png","70","img/blue_2bandit_b.png","70","test","","","","","","","","","","","5","","","","","","","","",""
"null","414056","SARL_v6","SARL_v6bob5m7w2","6176ad85f02bff3e92952593","fixation","","","img/fixation.png","null","","","test","","","","","","","","","","","","","","","","","","","",""
"615","414680","SARL_v6","SARL_v6bob5m7w2","6176ad85f02bff3e92952593","infreq","","","img/orange_2bandit_b2.png","68","","68","test","1","","111","","","","circle","square","107","18","5","0.9345794392523364","","","","","","","",""
"null","414887","SARL_v6","SARL_v6bob5m7w2","6176ad85f02bff3e92952593","infreq_resp","","","img/orange_2bandit_b.png","68","img/orange_2bandit_b.png","68","test","","","","","","","","","","","5","","","","","","","","",""
"null","415056","SARL_v6","SARL_v6bob5m7w2","6176ad85f02bff3e92952593","fixation","","","img/fixation.png","null","","","test","","","","","","","","","","","","","","","","","","","",""
"545.4000000059605","415611","SARL_v6","SARL_v6bob5m7w2","6176ad85f02bff3e92952593","freq","","","img/blue_2bandit_b2.png","70","","70","test","1","","112","","","","circle","square","108","19","5","0.9351851851851852","","","","","","","",""
"null","415883","SARL_v6","SARL_v6bob5m7w2","6176ad85f02bff3e92952593","freq_resp","","","img/blue_2bandit_b.png","70","img/blue_2bandit_b.png","70","test","","","","","","","","","","","5","","","","","","","","",""
"null","416055","SARL_v6","SARL_v6bob5m7w2","6176ad85f02bff3e92952593","fixation","","","img/fixation.png","null","","","test","","","","","","","","","","","","","","","","","","","",""
"492.09999999403954","416556","SARL_v6","SARL_v6bob5m7w2","6176ad85f02bff3e92952593","freq","","","img/blue_2bandit_b2.png","70","","70","test","1","","113","","","","circle","square","109","20","5","0.9357798165137615","","","","","","","",""
"null","416880","SARL_v6","SARL_v6bob5m7w2","6176ad85f02bff3e92952593","freq_resp","","","img/blue_2bandit_b.png","70","img/blue_2bandit_b.png","70","test","","","","","","","","","","","5","","","","","","","","",""
"null","417041","SARL_v6","SARL_v6bob5m7w2","6176ad85f02bff3e92952593","fixation","","","img/fixation.png","null","","","test","","","","","","","","","","","","","","","","","","","",""
"376.40000000596046","417426","SARL_v6","SARL_v6bob5m7w2","6176ad85f02bff3e92952593","freq","","","img/blue_2bandit_b2.png","70","","70","test","1","","114","","","","circle","square","110","21","5","0.9363636363636364","","","","","","","",""
"null","417862","SARL_v6","SARL_v6bob5m7w2","6176ad85f02bff3e92952593","freq_resp","","","img/blue_2bandit_b.png","70","img/blue_2bandit_b.png","70","test","","","","","","","","","","","5","","","","","","","","",""
"null","418025","SARL_v6","SARL_v6bob5m7w2","6176ad85f02bff3e92952593","fixation","","","img/fixation.png","null","","","test","","","","","","","","","","","","","","","","","","","",""
"402.19999998807907","418435","SARL_v6","SARL_v6bob5m7w2","6176ad85f02bff3e92952593","freq","","","img/blue_2bandit_b2.png","70","","70","test","1","","115","","","","circle","square","111","22","5","0.9369369369369369","","","","","","","",""
"null","418855","SARL_v6","SARL_v6bob5m7w2","6176ad85f02bff3e92952593","freq_resp","","","img/blue_2bandit_b.png","70","img/blue_2bandit_b.png","70","test","","","","","","","","","","","5","","","","","","","","",""
"null","419025","SARL_v6","SARL_v6bob5m7w2","6176ad85f02bff3e92952593","fixation","","","img/fixation.png","null","","","test","","","","","","","","","","","","","","","","","","","",""
"393.80000001192093","419427","SARL_v6","SARL_v6bob5m7w2","6176ad85f02bff3e92952593","freq","","","img/blue_2bandit_b2.png","70","","70","test","1","","116","","","","circle","square","112","23","5","0.9375","","","","","","","",""
"null","419857","SARL_v6","SARL_v6bob5m7w2","6176ad85f02bff3e92952593","freq_resp","","","img/blue_2bandit_b.png","70","img/blue_2bandit_b.png","70","test","","","","","","","","","","","5","","","","","","","","",""
"null","420025","SARL_v6","SARL_v6bob5m7w2","6176ad85f02bff3e92952593","fixation","","","img/fixation.png","null","","","test","","","","","","","","","","","","","","","","","","","",""
"656.0999999940395","420691","SARL_v6","SARL_v6bob5m7w2","6176ad85f02bff3e92952593","rl","","","img/black_2bandit_b2.png","74","","0","test","","","117","","","-7","circle","square","","0","5","","74","-7","4","-7","4","circle","5","0"
"null","421453","SARL_v6","SARL_v6bob5m7w2","6176ad85f02bff3e92952593","feedback","","","<div class=""verylowPoints""> -7 </div>","null","","na","test","","","NaN","","","","","","","","5","","74","","","","","","5",""
"531.7000000178814","421994","SARL_v6","SARL_v6bob5m7w2","6176ad85f02bff3e92952593","freq","","","img/blue_2bandit_b2.png","70","","70","test","1","","118","","","","circle","square","113","1","6","0.9380530973451328","","","","","","","",""
"null","422284","SARL_v6","SARL_v6bob5m7w2","6176ad85f02bff3e92952593","freq_resp","","","img/blue_2bandit_b.png","70","img/blue_2bandit_b.png","70","test","","","","","","","","","","","6","","","","","","","","",""
"null","422459","SARL_v6","SARL_v6bob5m7w2","6176ad85f02bff3e92952593","fixation","","","img/fixation.png","null","","","test","","","","","","","","","","","","","","","","","","","",""
"406.5","422874","SARL_v6","SARL_v6bob5m7w2","6176ad85f02bff3e92952593","freq","","","img/blue_2bandit_b2.png","70","","70","test","1","","119","","","","circle","square","114","2","6","0.9385964912280702","","","","","","","",""
"null","423280","SARL_v6","SARL_v6bob5m7w2","6176ad85f02bff3e92952593","freq_resp","","","img/blue_2bandit_b.png","70","img/blue_2bandit_b.png","70","test","","","","","","","","","","","6","","","","","","","","",""
"null","423451","SARL_v6","SARL_v6bob5m7w2","6176ad85f02bff3e92952593","fixation","","","img/fixation.png","null","","","test","","","","","","","","","","","","","","","","","","","",""
"366.59999999403954","423838","SARL_v6","SARL_v6bob5m7w2","6176ad85f02bff3e92952593","freq","","","img/blue_2bandit_b2.png","70","","70","test","1","","120","","","","circle","square","115","3","6","0.9391304347826087","","","","","","","",""
"null","424300","SARL_v6","SARL_v6bob5m7w2","6176ad85f02bff3e92952593","freq_resp","","","img/blue_2bandit_b.png","70","img/blue_2bandit_b.png","70","test","","","","","","","","","","","6","","","","","","","","",""
"null","424472","SARL_v6","SARL_v6bob5m7w2","6176ad85f02bff3e92952593","fixation","","","img/fixation.png","null","","","test","","","","","","","","","","","","","","","","","","","",""
"324.2999999821186","424817","SARL_v6","SARL_v6bob5m7w2","6176ad85f02bff3e92952593","freq","","","img/blue_2bandit_b2.png","70","","70","test","1","","121","","","","circle","square","116","4","6","0.9396551724137931","","","","","","","",""
"null","425315","SARL_v6","SARL_v6bob5m7w2","6176ad85f02bff3e92952593","freq_resp","","","img/blue_2bandit_b.png","70","img/blue_2bandit_b.png","70","test","","","","","","","","","","","6","","","","","","","","",""
"null","425481","SARL_v6","SARL_v6bob5m7w2","6176ad85f02bff3e92952593","fixation","","","img/fixation.png","null","","","test","","","","","","","","","","","","","","","","","","","",""
"467.40000000596046","425966","SARL_v6","SARL_v6bob5m7w2","6176ad85f02bff3e92952593","infreq","","","img/orange_2bandit_b2.png","68","","68","test","1","","122","","","","circle","square","117","5","6","0.9401709401709402","","","","","","","",""
"null","426324","SARL_v6","SARL_v6bob5m7w2","6176ad85f02bff3e92952593","infreq_resp","","","img/orange_2bandit_b.png","68","img/orange_2bandit_b.png","68","test","","","","","","","","","","","6","","","","","","","","",""
"null","426504","SARL_v6","SARL_v6bob5m7w2","6176ad85f02bff3e92952593","fixation","","","img/fixation.png","null","","","test","","","","","","","","","","","","","","","","","","","",""
"490.69999998807907","427013","SARL_v6","SARL_v6bob5m7w2","6176ad85f02bff3e92952593","infreq","","","img/orange_2bandit_b2.png","68","","68","test","1","","123","","","","circle","square","118","6","6","0.940677966101695","","","","","","","",""
"null","427343","SARL_v6","SARL_v6bob5m7w2","6176ad85f02bff3e92952593","infreq_resp","","","img/orange_2bandit_b.png","68","img/orange_2bandit_b.png","68","test","","","","","","","","","","","6","","","","","","","","",""
"null","427521","SARL_v6","SARL_v6bob5m7w2","6176ad85f02bff3e92952593","fixation","","","img/fixation.png","null","","","test","","","","","","","","","","","","","","","","","","","",""
"449.30000001192093","427991","SARL_v6","SARL_v6bob5m7w2","6176ad85f02bff3e92952593","freq","","","img/blue_2bandit_b2.png","70","","70","test","1","","124","","","","circle","square","119","7","6","0.9411764705882353","","","","","","","",""
"null","428374","SARL_v6","SARL_v6bob5m7w2","6176ad85f02bff3e92952593","freq_resp","","","img/blue_2bandit_b.png","70","img/blue_2bandit_b.png","70","test","","","","","","","","","","","6","","","","","","","","",""
"null","428554","SARL_v6","SARL_v6bob5m7w2","6176ad85f02bff3e92952593","fixation","","","img/fixation.png","null","","","test","","","","","","","","","","","","","","","","","","","",""
"383.5","428958","SARL_v6","SARL_v6bob5m7w2","6176ad85f02bff3e92952593","freq","","","img/blue_2bandit_b2.png","70","","70","test","1","","125","","","","circle","square","120","8","6","0.9416666666666667","","","","","","","",""
"null","429394","SARL_v6","SARL_v6bob5m7w2","6176ad85f02bff3e92952593","freq_resp","","","img/blue_2bandit_b.png","70","img/blue_2bandit_b.png","70","test","","","","","","","","","","","6","","","","","","","","",""
"null","429569","SARL_v6","SARL_v6bob5m7w2","6176ad85f02bff3e92952593","fixation","","","img/fixation.png","null","","","test","","","","","","","","","","","","","","","","","","","",""
"379","429966","SARL_v6","SARL_v6bob5m7w2","6176ad85f02bff3e92952593","freq","","","img/blue_2bandit_b2.png","70","","70","test","1","","126","","","","circle","square","121","9","6","0.9421487603305785","","","","","","","",""
"null","430421","SARL_v6","SARL_v6bob5m7w2","6176ad85f02bff3e92952593","freq_resp","","","img/blue_2bandit_b.png","70","img/blue_2bandit_b.png","70","test","","","","","","","","","","","6","","","","","","","","",""
"null","430606","SARL_v6","SARL_v6bob5m7w2","6176ad85f02bff3e92952593","fixation","","","img/fixation.png","null","","","test","","","","","","","","","","","","","","","","","","","",""
"372","431008","SARL_v6","SARL_v6bob5m7w2","6176ad85f02bff3e92952593","freq","","","img/blue_2bandit_b2.png","70","","70","test","1","","127","","","","circle","square","122","10","6","0.9426229508196722","","","","","","","",""
"null","431459","SARL_v6","SARL_v6bob5m7w2","6176ad85f02bff3e92952593","freq_resp","","","img/blue_2bandit_b.png","70","img/blue_2bandit_b.png","70","test","","","","","","","","","","","6","","","","","","","","",""
"null","431639","SARL_v6","SARL_v6bob5m7w2","6176ad85f02bff3e92952593","fixation","","","img/fixation.png","null","","","test","","","","","","","","","","","","","","","","","","","",""
"319.89999997615814","431978","SARL_v6","SARL_v6bob5m7w2","6176ad85f02bff3e92952593","freq","","","img/blue_2bandit_b2.png","70","","70","test","1","","128","","","","circle","square","123","11","6","0.943089430894309","","","","","","","",""
"null","432490","SARL_v6","SARL_v6bob5m7w2","6176ad85f02bff3e92952593","freq_resp","","","img/blue_2bandit_b.png","70","img/blue_2bandit_b.png","70","test","","","","","","","","","","","6","","","","","","","","",""
"null","432670","SARL_v6","SARL_v6bob5m7w2","6176ad85f02bff3e92952593","fixation","","","img/fixation.png","null","","","test","","","","","","","","","","","","","","","","","","","",""
"378.40000000596046","433067","SARL_v6","SARL_v6bob5m7w2","6176ad85f02bff3e92952593","freq","","","img/blue_2bandit_b2.png","70","","70","test","1","","129","","","","circle","square","124","12","6","0.9435483870967742","","","","","","","",""
"null","433522","SARL_v6","SARL_v6bob5m7w2","6176ad85f02bff3e92952593","freq_resp","","","img/blue_2bandit_b.png","70","img/blue_2bandit_b.png","70","test","","","","","","","","","","","6","","","","","","","","",""
"null","433693","SARL_v6","SARL_v6bob5m7w2","6176ad85f02bff3e92952593","fixation","","","img/fixation.png","null","","","test","","","","","","","","","","","","","","","","","","","",""
"403.5","434117","SARL_v6","SARL_v6bob5m7w2","6176ad85f02bff3e92952593","freq","","","img/blue_2bandit_b2.png","70","","70","test","1","","130","","","","circle","square","125","13","6","0.944","","","","","","","",""
"null","434543","SARL_v6","SARL_v6bob5m7w2","6176ad85f02bff3e92952593","freq_resp","","","img/blue_2bandit_b.png","70","img/blue_2bandit_b.png","70","test","","","","","","","","","","","6","","","","","","","","",""
"null","434723","SARL_v6","SARL_v6bob5m7w2","6176ad85f02bff3e92952593","fixation","","","img/fixation.png","null","","","test","","","","","","","","","","","","","","","","","","","",""
"379.2000000178814","435119","SARL_v6","SARL_v6bob5m7w2","6176ad85f02bff3e92952593","freq","","","img/blue_2bandit_b2.png","70","","70","test","1","","131","","","","circle","square","126","14","6","0.9444444444444444","","","","","","","",""
"null","435571","SARL_v6","SARL_v6bob5m7w2","6176ad85f02bff3e92952593","freq_resp","","","img/blue_2bandit_b.png","70","img/blue_2bandit_b.png","70","test","","","","","","","","","","","6","","","","","","","","",""
"null","435740","SARL_v6","SARL_v6bob5m7w2","6176ad85f02bff3e92952593","fixation","","","img/fixation.png","null","","","test","","","","","","","","","","","","","","","","","","","",""
