"rt","time_elapsed","expId","subject","prolificID","trialType","rlType","attType","stimulus","key_press","stim","corrresp","phase","corr","pracCounter","trialNum","rewardOne","rewardTwo","reward","bandOne","bandTwo","attentionNum","attentionRunNum","blockNum","performance","bandChosen","circleVal","squareVal","bandOneVal","bandTwoVal","shapeChosen","rlNum","badFlag"
"26366.300000071526","26372","SARL_v6","SARL_v6xh54u9r8","63d40c35b4ca8b31994cc34c","","","","","","","","","","","","","","","","","","","","","","","","","","","",""
"","29515","SARL_v6","SARL_v6xh54u9r8","63d40c35b4ca8b31994cc34c","fullscreen","fullscreen","fullscreen","","","","","","","","","","","","","","","","","","","","","","","","",""
"78901.10000002384","108425","SARL_v6","SARL_v6xh54u9r8","63d40c35b4ca8b31994cc34c","","","","","","","","","","","","","","","","","","","","","","","","","","","",""
"668.1999999284744","109107","SARL_v6","SARL_v6xh54u9r8","63d40c35b4ca8b31994cc34c","freqPrac","","","img/orange_2bandit_b2.png","70","img/orange_2bandit_b2.png","70","prac","1","0","","","","","","","","","","","","","","","","","",""
"668.1999999284744","109260","SARL_v6","SARL_v6xh54u9r8","63d40c35b4ca8b31994cc34c","freqPrac_resp","","","img/orange_2bandit_b.png","70","img/orange_2bandit_b.png","70","prac","","","","","","","","","","","","","","","","","","","",""
"null","109424","SARL_v6","SARL_v6xh54u9r8","63d40c35b4ca8b31994cc34c","fixation","","","img/fixation.png","null","","","prac","","","","","","","","","","","","","","","","","","","",""
"463.09999990463257","109893","SARL_v6","SARL_v6xh54u9r8","63d40c35b4ca8b31994cc34c","infreqPrac","","","img/blue_2bandit_b2.png","68","img/blue_2bandit_b2.png","68","prac","1","0","","","","","","","","","","","","","","","","","",""
"463.09999990463257","110245","SARL_v6","SARL_v6xh54u9r8","63d40c35b4ca8b31994cc34c","infreqPrac_resp","","","img/blue_2bandit_b.png","68","img/blue_2bandit_b.png","68","prac","","","","","","","","","","","","","","","","","","","",""
"null","110407","SARL_v6","SARL_v6xh54u9r8","63d40c35b4ca8b31994cc34c","fixation","","","img/fixation.png","null","","","prac","","","","","","","","","","","","","","","","","","","",""
"428","110839","SARL_v6","SARL_v6xh54u9r8","63d40c35b4ca8b31994cc34c","freqPrac","","","img/orange_2bandit_b2.png","70","img/orange_2bandit_b2.png","70","prac","1","0","","","","","","","","","","","","","","","","","",""
"428","111234","SARL_v6","SARL_v6xh54u9r8","63d40c35b4ca8b31994cc34c","freqPrac_resp","","","img/orange_2bandit_b.png","70","img/orange_2bandit_b.png","70","prac","","","","","","","","","","","","","","","","","","","",""
"null","111392","SARL_v6","SARL_v6xh54u9r8","63d40c35b4ca8b31994cc34c","fixation","","","img/fixation.png","null","","","prac","","","","","","","","","","","","","","","","","","","",""
"491.89999997615814","111893","SARL_v6","SARL_v6xh54u9r8","63d40c35b4ca8b31994cc34c","infreqPrac","","","img/blue_2bandit_b2.png","68","img/blue_2bandit_b2.png","68","prac","1","0","","","","","","","","","","","","","","","","","",""
"491.89999997615814","112224","SARL_v6","SARL_v6xh54u9r8","63d40c35b4ca8b31994cc34c","infreqPrac_resp","","","img/blue_2bandit_b.png","68","img/blue_2bandit_b.png","68","prac","","","","","","","","","","","","","","","","","","","",""
"null","112393","SARL_v6","SARL_v6xh54u9r8","63d40c35b4ca8b31994cc34c","fixation","","","img/fixation.png","null","","","prac","","","","","","","","","","","","","","","","","","","",""
"473.60000002384186","112874","SARL_v6","SARL_v6xh54u9r8","63d40c35b4ca8b31994cc34c","infreqPrac","","","img/blue_2bandit_b2.png","68","img/blue_2bandit_b2.png","68","prac","1","0","","","","","","","","","","","","","","","","","",""
"473.60000002384186","113219","SARL_v6","SARL_v6xh54u9r8","63d40c35b4ca8b31994cc34c","infreqPrac_resp","","","img/blue_2bandit_b.png","68","img/blue_2bandit_b.png","68","prac","","","","","","","","","","","","","","","","","","","",""
"null","113379","SARL_v6","SARL_v6xh54u9r8","63d40c35b4ca8b31994cc34c","fixation","","","img/fixation.png","null","","","prac","","","","","","","","","","","","","","","","","","","",""
"550.3000000715256","113936","SARL_v6","SARL_v6xh54u9r8","63d40c35b4ca8b31994cc34c","infreqPrac","","","img/blue_2bandit_b2.png","68","img/blue_2bandit_b2.png","68","prac","1","0","","","","","","","","","","","","","","","","","",""
"550.3000000715256","114201","SARL_v6","SARL_v6xh54u9r8","63d40c35b4ca8b31994cc34c","infreqPrac_resp","","","img/blue_2bandit_b.png","68","img/blue_2bandit_b.png","68","prac","","","","","","","","","","","","","","","","","","","",""
"null","114357","SARL_v6","SARL_v6xh54u9r8","63d40c35b4ca8b31994cc34c","fixation","","","img/fixation.png","null","","","prac","","","","","","","","","","","","","","","","","","","",""
"425.5","114790","SARL_v6","SARL_v6xh54u9r8","63d40c35b4ca8b31994cc34c","freqPrac","","","img/orange_2bandit_b2.png","70","img/orange_2bandit_b2.png","70","prac","1","0","","","","","","","","","","","","","","","","","",""
"425.5","115171","SARL_v6","SARL_v6xh54u9r8","63d40c35b4ca8b31994cc34c","freqPrac_resp","","","img/orange_2bandit_b.png","70","img/orange_2bandit_b.png","70","prac","","","","","","","","","","","","","","","","","","","",""
"null","115327","SARL_v6","SARL_v6xh54u9r8","63d40c35b4ca8b31994cc34c","fixation","","","img/fixation.png","null","","","prac","","","","","","","","","","","","","","","","","","","",""
"456","115789","SARL_v6","SARL_v6xh54u9r8","63d40c35b4ca8b31994cc34c","infreqPrac","","","img/blue_2bandit_b2.png","68","img/blue_2bandit_b2.png","68","prac","1","0","","","","","","","","","","","","","","","","","",""
"456","116149","SARL_v6","SARL_v6xh54u9r8","63d40c35b4ca8b31994cc34c","infreqPrac_resp","","","img/blue_2bandit_b.png","68","img/blue_2bandit_b.png","68","prac","","","","","","","","","","","","","","","","","","","",""
"null","116312","SARL_v6","SARL_v6xh54u9r8","63d40c35b4ca8b31994cc34c","fixation","","","img/fixation.png","null","","","prac","","","","","","","","","","","","","","","","","","","",""
"418.6999999284744","116737","SARL_v6","SARL_v6xh54u9r8","63d40c35b4ca8b31994cc34c","freqPrac","","","img/orange_2bandit_b2.png","70","img/orange_2bandit_b2.png","70","prac","1","0","","","","","","","","","","","","","","","","","",""
"418.6999999284744","117139","SARL_v6","SARL_v6xh54u9r8","63d40c35b4ca8b31994cc34c","freqPrac_resp","","","img/orange_2bandit_b.png","70","img/orange_2bandit_b.png","70","prac","","","","","","","","","","","","","","","","","","","",""
"null","117312","SARL_v6","SARL_v6xh54u9r8","63d40c35b4ca8b31994cc34c","fixation","","","img/fixation.png","null","","","prac","","","","","","","","","","","","","","","","","","","",""
"336.3000000715256","117655","SARL_v6","SARL_v6xh54u9r8","63d40c35b4ca8b31994cc34c","freqPrac","","","img/orange_2bandit_b2.png","70","img/orange_2bandit_b2.png","70","prac","1","0","","","","","","","","","","","","","","","","","",""
"336.3000000715256","118130","SARL_v6","SARL_v6xh54u9r8","63d40c35b4ca8b31994cc34c","freqPrac_resp","","","img/orange_2bandit_b.png","70","img/orange_2bandit_b.png","70","prac","","","","","","","","","","","","","","","","","","","",""
"null","118301","SARL_v6","SARL_v6xh54u9r8","63d40c35b4ca8b31994cc34c","fixation","","","img/fixation.png","null","","","prac","","","","","","","","","","","","","","","","","","","",""
"179601.80000007153","297908","SARL_v6","SARL_v6xh54u9r8","63d40c35b4ca8b31994cc34c","","","","","","","","prac","","","","","","","","","","","","","","","","","","","",""
"636.5","298549","SARL_v6","SARL_v6xh54u9r8","63d40c35b4ca8b31994cc34c","rlPractice","","","img/black_2bandit_b2.png","74","img/black_2bandit_b2.png","","prac","","","0","","","","","","","","","","","","","","","","",""
"null","299311","SARL_v6","SARL_v6xh54u9r8","63d40c35b4ca8b31994cc34c","feedback","","","<div class=""veryhighPoints""> 10 </div>","null","","na","prac","","","1","10","-14","10","","","","","","","","","","","","","",""
"null","299478","SARL_v6","SARL_v6xh54u9r8","63d40c35b4ca8b31994cc34c","fixation","","","img/fixation.png","null","","","prac","","","","","","","","","","","","","","","","","","","",""
"617.8999999761581","300102","SARL_v6","SARL_v6xh54u9r8","63d40c35b4ca8b31994cc34c","rlPractice","","","img/black_2bandit_b2.png","74","img/black_2bandit_b2.png","","prac","","","1","","","","","","","","","","","","","","","","",""
"null","300873","SARL_v6","SARL_v6xh54u9r8","63d40c35b4ca8b31994cc34c","feedback","","","<div class=""veryhighPoints""> 5 </div>","null","","na","prac","","","2","5","-5","5","","","","","","","","","","","","","",""
"null","301035","SARL_v6","SARL_v6xh54u9r8","63d40c35b4ca8b31994cc34c","fixation","","","img/fixation.png","null","","","prac","","","","","","","","","","","","","","","","","","","",""
"532.2999999523163","301575","SARL_v6","SARL_v6xh54u9r8","63d40c35b4ca8b31994cc34c","rlPractice","","","img/black_2bandit_b2.png","74","img/black_2bandit_b2.png","","prac","","","2","","","","","","","","","","","","","","","","",""
"null","302333","SARL_v6","SARL_v6xh54u9r8","63d40c35b4ca8b31994cc34c","feedback","","","<div class=""veryhighPoints""> 30 </div>","null","","na","prac","","","3","30","2","30","","","","","","","","","","","","","",""
"null","302501","SARL_v6","SARL_v6xh54u9r8","63d40c35b4ca8b31994cc34c","fixation","","","img/fixation.png","null","","","prac","","","","","","","","","","","","","","","","","","","",""
"425.60000002384186","302929","SARL_v6","SARL_v6xh54u9r8","63d40c35b4ca8b31994cc34c","rlPractice","","","img/black_2bandit_b2.png","74","img/black_2bandit_b2.png","","prac","","","3","","","","","","","","","","","","","","","","",""
"null","303696","SARL_v6","SARL_v6xh54u9r8","63d40c35b4ca8b31994cc34c","feedback","","","<div class=""verylowPoints""> -2 </div>","null","","na","prac","","","4","-2","20","-2","","","","","","","","","","","","","",""
"null","303851","SARL_v6","SARL_v6xh54u9r8","63d40c35b4ca8b31994cc34c","fixation","","","img/fixation.png","null","","","prac","","","","","","","","","","","","","","","","","","","",""
"24469.600000023842","328328","SARL_v6","SARL_v6xh54u9r8","63d40c35b4ca8b31994cc34c","","","","","","","","prac","","","","","","","","","","","","","","","","","","","",""
"591.2000000476837","328926","SARL_v6","SARL_v6xh54u9r8","63d40c35b4ca8b31994cc34c","mixAttFreqPrac","","","img/orange_2bandit_b2.png","70","img/orange_2bandit_b2.png","70","prac","","","1","","","","","","","","","","","","","","","","",""
"591.2000000476837","329148","SARL_v6","SARL_v6xh54u9r8","63d40c35b4ca8b31994cc34c","freqPrac_resp","","","img/orange_2bandit_b.png","70","img/orange_2bandit_b.png","70","prac","","","1","","","","","","","","","","","","","","","","",""
"null","329303","SARL_v6","SARL_v6xh54u9r8","63d40c35b4ca8b31994cc34c","fixation","","","img/fixation.png","null","","","prac","","","","","","","","","","","","","","","","","","","",""
"456.39999997615814","329767","SARL_v6","SARL_v6xh54u9r8","63d40c35b4ca8b31994cc34c","mixAttInfreqPrac","","","img/blue_2bandit_b2.png","68","img/blue_2bandit_b2.png","68","prac","","","2","","","","","","","","","","","","","","","","",""
"456.39999997615814","330126","SARL_v6","SARL_v6xh54u9r8","63d40c35b4ca8b31994cc34c","infreqPrac_resp","","","img/blue_2bandit_b.png","68","img/orange_2bandit_b.png","68","prac","","","2","","","","","","","","","","","","","","","","",""
"null","330290","SARL_v6","SARL_v6xh54u9r8","63d40c35b4ca8b31994cc34c","fixation","","","img/fixation.png","null","","","prac","","","","","","","","","","","","","","","","","","","",""
"null","331100","SARL_v6","SARL_v6xh54u9r8","63d40c35b4ca8b31994cc34c","mixAttInfreqPrac","","","img/blue_2bandit_b2.png","null","img/blue_2bandit_b2.png","68","prac","","","3","","","","","","","","","","","","","","","","",""
"null","331268","SARL_v6","SARL_v6xh54u9r8","63d40c35b4ca8b31994cc34c","fixation","","","img/fixation.png","null","","","prac","","","","","","","","","","","","","","","","","","","",""
"462","331735","SARL_v6","SARL_v6xh54u9r8","63d40c35b4ca8b31994cc34c","mixAttInfreqPrac","","","img/blue_2bandit_b2.png","68","img/blue_2bandit_b2.png","68","prac","","","4","","","","","","","","","","","","","","","","",""
"462","332087","SARL_v6","SARL_v6xh54u9r8","63d40c35b4ca8b31994cc34c","infreqPrac_resp","","","img/blue_2bandit_b.png","68","img/orange_2bandit_b.png","68","prac","","","4","","","","","","","","","","","","","","","","",""
"null","332252","SARL_v6","SARL_v6xh54u9r8","63d40c35b4ca8b31994cc34c","fixation","","","img/fixation.png","null","","","prac","","","","","","","","","","","","","","","","","","","",""
"387.7000000476837","332645","SARL_v6","SARL_v6xh54u9r8","63d40c35b4ca8b31994cc34c","mixAttFreqPrac","","","img/orange_2bandit_b2.png","70","img/orange_2bandit_b2.png","70","prac","","","5","","","","","","","","","","","","","","","","",""
"387.7000000476837","333070","SARL_v6","SARL_v6xh54u9r8","63d40c35b4ca8b31994cc34c","freqPrac_resp","","","img/orange_2bandit_b.png","70","img/orange_2bandit_b.png","70","prac","","","5","","","","","","","","","","","","","","","","",""
"null","333239","SARL_v6","SARL_v6xh54u9r8","63d40c35b4ca8b31994cc34c","fixation","","","img/fixation.png","null","","","prac","","","","","","","","","","","","","","","","","","","",""
"527.8000000715256","333770","SARL_v6","SARL_v6xh54u9r8","63d40c35b4ca8b31994cc34c","mixRLPractice","","","img/black_2bandit_b2.png","74","img/black_2bandit_b2.png","","prac","","","5","","","","","","","","","","","","","","","","",""
"null","334531","SARL_v6","SARL_v6xh54u9r8","63d40c35b4ca8b31994cc34c","feedback","","","<div class=""verylowPoints""> -14 </div>","null","","na","prac","","","6","-14","10","-14","","","","","","","","","","","","","",""
"null","334691","SARL_v6","SARL_v6xh54u9r8","63d40c35b4ca8b31994cc34c","fixation","","","img/fixation.png","null","","","prac","","","","","","","","","","","","","","","","","","","",""
"664.6000000238419","335361","SARL_v6","SARL_v6xh54u9r8","63d40c35b4ca8b31994cc34c","mixAttFreqPrac","","","img/orange_2bandit_b2.png","70","img/orange_2bandit_b2.png","70","prac","","","7","","","","","","","","","","","","","","","","",""
"664.6000000238419","335513","SARL_v6","SARL_v6xh54u9r8","63d40c35b4ca8b31994cc34c","freqPrac_resp","","","img/orange_2bandit_b.png","70","img/orange_2bandit_b.png","70","prac","","","7","","","","","","","","","","","","","","","","",""
"null","335677","SARL_v6","SARL_v6xh54u9r8","63d40c35b4ca8b31994cc34c","fixation","","","img/fixation.png","null","","","prac","","","","","","","","","","","","","","","","","","","",""
"513","336196","SARL_v6","SARL_v6xh54u9r8","63d40c35b4ca8b31994cc34c","mixAttInfreqPrac","","","img/blue_2bandit_b2.png","68","img/blue_2bandit_b2.png","68","prac","","","8","","","","","","","","","","","","","","","","",""
"513","336496","SARL_v6","SARL_v6xh54u9r8","63d40c35b4ca8b31994cc34c","infreqPrac_resp","","","img/blue_2bandit_b.png","68","img/orange_2bandit_b.png","68","prac","","","8","","","","","","","","","","","","","","","","",""
"null","336661","SARL_v6","SARL_v6xh54u9r8","63d40c35b4ca8b31994cc34c","fixation","","","img/fixation.png","null","","","prac","","","","","","","","","","","","","","","","","","","",""
"485","337150","SARL_v6","SARL_v6xh54u9r8","63d40c35b4ca8b31994cc34c","mixAttFreqPrac","","","img/orange_2bandit_b2.png","70","img/orange_2bandit_b2.png","70","prac","","","9","","","","","","","","","","","","","","","","",""
"485","337471","SARL_v6","SARL_v6xh54u9r8","63d40c35b4ca8b31994cc34c","freqPrac_resp","","","img/orange_2bandit_b.png","70","img/orange_2bandit_b.png","70","prac","","","9","","","","","","","","","","","","","","","","",""
"null","337630","SARL_v6","SARL_v6xh54u9r8","63d40c35b4ca8b31994cc34c","fixation","","","img/fixation.png","null","","","prac","","","","","","","","","","","","","","","","","","","",""
"410.6999999284744","338048","SARL_v6","SARL_v6xh54u9r8","63d40c35b4ca8b31994cc34c","mixAttFreqPrac","","","img/orange_2bandit_b2.png","70","img/orange_2bandit_b2.png","70","prac","","","10","","","","","","","","","","","","","","","","",""
"410.6999999284744","338443","SARL_v6","SARL_v6xh54u9r8","63d40c35b4ca8b31994cc34c","freqPrac_resp","","","img/orange_2bandit_b.png","70","img/orange_2bandit_b.png","70","prac","","","10","","","","","","","","","","","","","","","","",""
"null","338600","SARL_v6","SARL_v6xh54u9r8","63d40c35b4ca8b31994cc34c","fixation","","","img/fixation.png","null","","","prac","","","","","","","","","","","","","","","","","","","",""
"638","339243","SARL_v6","SARL_v6xh54u9r8","63d40c35b4ca8b31994cc34c","mixAttInfreqPrac","","","img/blue_2bandit_b2.png","68","img/blue_2bandit_b2.png","68","prac","","","11","","","","","","","","","","","","","","","","",""
"638","339409","SARL_v6","SARL_v6xh54u9r8","63d40c35b4ca8b31994cc34c","infreqPrac_resp","","","img/blue_2bandit_b.png","68","img/orange_2bandit_b.png","68","prac","","","11","","","","","","","","","","","","","","","","",""
"null","339586","SARL_v6","SARL_v6xh54u9r8","63d40c35b4ca8b31994cc34c","fixation","","","img/fixation.png","null","","","prac","","","","","","","","","","","","","","","","","","","",""
"620.5","340210","SARL_v6","SARL_v6xh54u9r8","63d40c35b4ca8b31994cc34c","mixRLPractice","","","img/black_2bandit_b2.png","75","img/black_2bandit_b2.png","","prac","","","11","","","","","","","","","","","","","","","","",""
"null","340965","SARL_v6","SARL_v6xh54u9r8","63d40c35b4ca8b31994cc34c","feedback","","","<div class=""verylowPoints_sq""> -5 </div>","null","","na","prac","","","12","5","-5","5","","","","","","","","","","","","","",""
"null","341135","SARL_v6","SARL_v6xh54u9r8","63d40c35b4ca8b31994cc34c","fixation","","","img/fixation.png","null","","","prac","","","","","","","","","","","","","","","","","","","",""
"792315.1000000238","1133450","SARL_v6","SARL_v6xh54u9r8","63d40c35b4ca8b31994cc34c","","","","","","","","prac","","","","","","","","","","","","","","","","","","","",""
"596.3000000715256","1134057","SARL_v6","SARL_v6xh54u9r8","63d40c35b4ca8b31994cc34c","freq","","","img/orange_2bandit_b2.png","70","","70","test","1","","1","","","","circle","square","1","1","1","1","","","","","","","",""
"null","1134276","SARL_v6","SARL_v6xh54u9r8","63d40c35b4ca8b31994cc34c","freq_resp","","","img/orange_2bandit_b.png","70","img/orange_2bandit_b.png","70","test","","","","","","","","","","","1","","","","","","","","",""
"null","1134443","SARL_v6","SARL_v6xh54u9r8","63d40c35b4ca8b31994cc34c","fixation","","","img/fixation.png","null","","","test","","","","","","","","","","","","","","","","","","","",""
"383","1134832","SARL_v6","SARL_v6xh54u9r8","63d40c35b4ca8b31994cc34c","freq","","","img/orange_2bandit_b2.png","70","","70","test","1","","2","","","","circle","square","2","2","1","1","","","","","","","",""
"null","1135266","SARL_v6","SARL_v6xh54u9r8","63d40c35b4ca8b31994cc34c","freq_resp","","","img/orange_2bandit_b.png","70","img/orange_2bandit_b.png","70","test","","","","","","","","","","","1","","","","","","","","",""
"null","1135434","SARL_v6","SARL_v6xh54u9r8","63d40c35b4ca8b31994cc34c","fixation","","","img/fixation.png","null","","","test","","","","","","","","","","","","","","","","","","","",""
"354.5","1135797","SARL_v6","SARL_v6xh54u9r8","63d40c35b4ca8b31994cc34c","freq","","","img/orange_2bandit_b2.png","70","","70","test","1","","3","","","","circle","square","3","3","1","1","","","","","","","",""
"null","1136262","SARL_v6","SARL_v6xh54u9r8","63d40c35b4ca8b31994cc34c","freq_resp","","","img/orange_2bandit_b.png","70","img/orange_2bandit_b.png","70","test","","","","","","","","","","","1","","","","","","","","",""
"null","1136421","SARL_v6","SARL_v6xh54u9r8","63d40c35b4ca8b31994cc34c","fixation","","","img/fixation.png","null","","","test","","","","","","","","","","","","","","","","","","","",""
"362.10000002384186","1136788","SARL_v6","SARL_v6xh54u9r8","63d40c35b4ca8b31994cc34c","freq","","","img/orange_2bandit_b2.png","70","","70","test","1","","4","","","","circle","square","4","4","1","1","","","","","","","",""
"null","1137239","SARL_v6","SARL_v6xh54u9r8","63d40c35b4ca8b31994cc34c","freq_resp","","","img/orange_2bandit_b.png","70","img/orange_2bandit_b.png","70","test","","","","","","","","","","","1","","","","","","","","",""
"null","1137406","SARL_v6","SARL_v6xh54u9r8","63d40c35b4ca8b31994cc34c","fixation","","","img/fixation.png","null","","","test","","","","","","","","","","","","","","","","","","","",""
"514.3000000715256","1137927","SARL_v6","SARL_v6xh54u9r8","63d40c35b4ca8b31994cc34c","freq","","","img/orange_2bandit_b2.png","70","","70","test","1","","5","","","","circle","square","5","5","1","1","","","","","","","",""
"null","1138223","SARL_v6","SARL_v6xh54u9r8","63d40c35b4ca8b31994cc34c","freq_resp","","","img/orange_2bandit_b.png","70","img/orange_2bandit_b.png","70","test","","","","","","","","","","","1","","","","","","","","",""
"null","1138396","SARL_v6","SARL_v6xh54u9r8","63d40c35b4ca8b31994cc34c","fixation","","","img/fixation.png","null","","","test","","","","","","","","","","","","","","","","","","","",""
"443.7000000476837","1138846","SARL_v6","SARL_v6xh54u9r8","63d40c35b4ca8b31994cc34c","freq","","","img/orange_2bandit_b2.png","70","","70","test","1","","6","","","","circle","square","6","6","1","1","","","","","","","",""
"null","1139210","SARL_v6","SARL_v6xh54u9r8","63d40c35b4ca8b31994cc34c","freq_resp","","","img/orange_2bandit_b.png","70","img/orange_2bandit_b.png","70","test","","","","","","","","","","","1","","","","","","","","",""
"null","1139369","SARL_v6","SARL_v6xh54u9r8","63d40c35b4ca8b31994cc34c","fixation","","","img/fixation.png","null","","","test","","","","","","","","","","","","","","","","","","","",""
"407.40000009536743","1139788","SARL_v6","SARL_v6xh54u9r8","63d40c35b4ca8b31994cc34c","freq","","","img/orange_2bandit_b2.png","70","","70","test","1","","7","","","","circle","square","7","7","1","1","","","","","","","",""
"null","1140197","SARL_v6","SARL_v6xh54u9r8","63d40c35b4ca8b31994cc34c","freq_resp","","","img/orange_2bandit_b.png","70","img/orange_2bandit_b.png","70","test","","","","","","","","","","","1","","","","","","","","",""
"null","1140369","SARL_v6","SARL_v6xh54u9r8","63d40c35b4ca8b31994cc34c","fixation","","","img/fixation.png","null","","","test","","","","","","","","","","","","","","","","","","","",""
"503.39999997615814","1140879","SARL_v6","SARL_v6xh54u9r8","63d40c35b4ca8b31994cc34c","freq","","","img/orange_2bandit_b2.png","70","","70","test","1","","8","","","","circle","square","8","8","1","1","","","","","","","",""
"null","1141198","SARL_v6","SARL_v6xh54u9r8","63d40c35b4ca8b31994cc34c","freq_resp","","","img/orange_2bandit_b.png","70","img/orange_2bandit_b.png","70","test","","","","","","","","","","","1","","","","","","","","",""
"null","1141367","SARL_v6","SARL_v6xh54u9r8","63d40c35b4ca8b31994cc34c","fixation","","","img/fixation.png","null","","","test","","","","","","","","","","","","","","","","","","","",""
"483.60000002384186","1141857","SARL_v6","SARL_v6xh54u9r8","63d40c35b4ca8b31994cc34c","freq","","","img/orange_2bandit_b2.png","70","","70","test","1","","9","","","","circle","square","9","9","1","1","","","","","","","",""
"null","1142183","SARL_v6","SARL_v6xh54u9r8","63d40c35b4ca8b31994cc34c","freq_resp","","","img/orange_2bandit_b.png","70","img/orange_2bandit_b.png","70","test","","","","","","","","","","","1","","","","","","","","",""
"null","1142355","SARL_v6","SARL_v6xh54u9r8","63d40c35b4ca8b31994cc34c","fixation","","","img/fixation.png","null","","","test","","","","","","","","","","","","","","","","","","","",""
"444.89999997615814","1142807","SARL_v6","SARL_v6xh54u9r8","63d40c35b4ca8b31994cc34c","infreq","","","img/blue_2bandit_b2.png","68","","68","test","1","","10","","","","circle","square","10","10","1","1","","","","","","","",""
"null","1143169","SARL_v6","SARL_v6xh54u9r8","63d40c35b4ca8b31994cc34c","infreq_resp","","","img/blue_2bandit_b.png","68","img/blue_2bandit_b.png","68","test","","","","","","","","","","","1","","","","","","","","",""
"null","1143340","SARL_v6","SARL_v6xh54u9r8","63d40c35b4ca8b31994cc34c","fixation","","","img/fixation.png","null","","","test","","","","","","","","","","","","","","","","","","","",""
"379.60000002384186","1143729","SARL_v6","SARL_v6xh54u9r8","63d40c35b4ca8b31994cc34c","freq","","","img/orange_2bandit_b2.png","70","","70","test","1","","11","","","","circle","square","11","11","1","1","","","","","","","",""
"null","1144157","SARL_v6","SARL_v6xh54u9r8","63d40c35b4ca8b31994cc34c","freq_resp","","","img/orange_2bandit_b.png","70","img/orange_2bandit_b.png","70","test","","","","","","","","","","","1","","","","","","","","",""
"null","1144321","SARL_v6","SARL_v6xh54u9r8","63d40c35b4ca8b31994cc34c","fixation","","","img/fixation.png","null","","","test","","","","","","","","","","","","","","","","","","","",""
"368.60000002384186","1144698","SARL_v6","SARL_v6xh54u9r8","63d40c35b4ca8b31994cc34c","freq","","","img/orange_2bandit_b2.png","70","","70","test","1","","12","","","","circle","square","12","12","1","1","","","","","","","",""
"null","1145143","SARL_v6","SARL_v6xh54u9r8","63d40c35b4ca8b31994cc34c","freq_resp","","","img/orange_2bandit_b.png","70","img/orange_2bandit_b.png","70","test","","","","","","","","","","","1","","","","","","","","",""
"null","1145306","SARL_v6","SARL_v6xh54u9r8","63d40c35b4ca8b31994cc34c","fixation","","","img/fixation.png","null","","","test","","","","","","","","","","","","","","","","","","","",""
"441.3000000715256","1145751","SARL_v6","SARL_v6xh54u9r8","63d40c35b4ca8b31994cc34c","freq","","","img/orange_2bandit_b2.png","70","","70","test","1","","13","","","","circle","square","13","13","1","1","","","","","","","",""
"null","1146130","SARL_v6","SARL_v6xh54u9r8","63d40c35b4ca8b31994cc34c","freq_resp","","","img/orange_2bandit_b.png","70","img/orange_2bandit_b.png","70","test","","","","","","","","","","","1","","","","","","","","",""
"null","1146291","SARL_v6","SARL_v6xh54u9r8","63d40c35b4ca8b31994cc34c","fixation","","","img/fixation.png","null","","","test","","","","","","","","","","","","","","","","","","","",""
"426.2000000476837","1146727","SARL_v6","SARL_v6xh54u9r8","63d40c35b4ca8b31994cc34c","infreq","","","img/blue_2bandit_b2.png","68","","68","test","1","","14","","","","circle","square","14","14","1","1","","","","","","","",""
"null","1147110","SARL_v6","SARL_v6xh54u9r8","63d40c35b4ca8b31994cc34c","infreq_resp","","","img/blue_2bandit_b.png","68","img/blue_2bandit_b.png","68","test","","","","","","","","","","","1","","","","","","","","",""
"null","1147273","SARL_v6","SARL_v6xh54u9r8","63d40c35b4ca8b31994cc34c","fixation","","","img/fixation.png","null","","","test","","","","","","","","","","","","","","","","","","","",""
"356.7000000476837","1147638","SARL_v6","SARL_v6xh54u9r8","63d40c35b4ca8b31994cc34c","freq","","","img/orange_2bandit_b2.png","70","","70","test","1","","15","","","","circle","square","15","15","1","1","","","","","","","",""
"null","1148093","SARL_v6","SARL_v6xh54u9r8","63d40c35b4ca8b31994cc34c","freq_resp","","","img/orange_2bandit_b.png","70","img/orange_2bandit_b.png","70","test","","","","","","","","","","","1","","","","","","","","",""
"null","1148257","SARL_v6","SARL_v6xh54u9r8","63d40c35b4ca8b31994cc34c","fixation","","","img/fixation.png","null","","","test","","","","","","","","","","","","","","","","","","","",""
"342.89999997615814","1148608","SARL_v6","SARL_v6xh54u9r8","63d40c35b4ca8b31994cc34c","freq","","","img/orange_2bandit_b2.png","70","","70","test","1","","16","","","","circle","square","16","16","1","1","","","","","","","",""
"null","1149100","SARL_v6","SARL_v6xh54u9r8","63d40c35b4ca8b31994cc34c","freq_resp","","","img/orange_2bandit_b.png","70","img/orange_2bandit_b.png","70","test","","","","","","","","","","","1","","","","","","","","",""
"null","1149259","SARL_v6","SARL_v6xh54u9r8","63d40c35b4ca8b31994cc34c","fixation","","","img/fixation.png","null","","","test","","","","","","","","","","","","","","","","","","","",""
"310.7000000476837","1149577","SARL_v6","SARL_v6xh54u9r8","63d40c35b4ca8b31994cc34c","freq","","","img/orange_2bandit_b2.png","70","","70","test","1","","17","","","","circle","square","17","17","1","1","","","","","","","",""
"null","1150073","SARL_v6","SARL_v6xh54u9r8","63d40c35b4ca8b31994cc34c","freq_resp","","","img/orange_2bandit_b.png","70","img/orange_2bandit_b.png","70","test","","","","","","","","","","","1","","","","","","","","",""
"null","1150242","SARL_v6","SARL_v6xh54u9r8","63d40c35b4ca8b31994cc34c","fixation","","","img/fixation.png","null","","","test","","","","","","","","","","","","","","","","","","","",""
"337.6999999284744","1150588","SARL_v6","SARL_v6xh54u9r8","63d40c35b4ca8b31994cc34c","freq","","","img/orange_2bandit_b2.png","70","","70","test","1","","18","","","","circle","square","18","18","1","1","","","","","","","",""
"null","1151066","SARL_v6","SARL_v6xh54u9r8","63d40c35b4ca8b31994cc34c","freq_resp","","","img/orange_2bandit_b.png","70","img/orange_2bandit_b.png","70","test","","","","","","","","","","","1","","","","","","","","",""
"null","1151227","SARL_v6","SARL_v6xh54u9r8","63d40c35b4ca8b31994cc34c","fixation","","","img/fixation.png","null","","","test","","","","","","","","","","","","","","","","","","","",""
"362.7999999523163","1151598","SARL_v6","SARL_v6xh54u9r8","63d40c35b4ca8b31994cc34c","freq","","","img/orange_2bandit_b2.png","70","","70","test","1","","19","","","","circle","square","19","19","1","1","","","","","","","",""
"null","1152053","SARL_v6","SARL_v6xh54u9r8","63d40c35b4ca8b31994cc34c","freq_resp","","","img/orange_2bandit_b.png","70","img/orange_2bandit_b.png","70","test","","","","","","","","","","","1","","","","","","","","",""
"null","1152213","SARL_v6","SARL_v6xh54u9r8","63d40c35b4ca8b31994cc34c","fixation","","","img/fixation.png","null","","","test","","","","","","","","","","","","","","","","","","","",""
"319.89999997615814","1152540","SARL_v6","SARL_v6xh54u9r8","63d40c35b4ca8b31994cc34c","freq","","","img/orange_2bandit_b2.png","70","","70","test","1","","20","","","","circle","square","20","20","1","1","","","","","","","",""
"null","1153027","SARL_v6","SARL_v6xh54u9r8","63d40c35b4ca8b31994cc34c","freq_resp","","","img/orange_2bandit_b.png","70","img/orange_2bandit_b.png","70","test","","","","","","","","","","","1","","","","","","","","",""
"null","1153184","SARL_v6","SARL_v6xh54u9r8","63d40c35b4ca8b31994cc34c","fixation","","","img/fixation.png","null","","","test","","","","","","","","","","","","","","","","","","","",""
"387.10000002384186","1153578","SARL_v6","SARL_v6xh54u9r8","63d40c35b4ca8b31994cc34c","freq","","","img/orange_2bandit_b2.png","70","","70","test","1","","21","","","","circle","square","21","21","1","1","","","","","","","",""
"null","1154002","SARL_v6","SARL_v6xh54u9r8","63d40c35b4ca8b31994cc34c","freq_resp","","","img/orange_2bandit_b.png","70","img/orange_2bandit_b.png","70","test","","","","","","","","","","","1","","","","","","","","",""
"null","1154162","SARL_v6","SARL_v6xh54u9r8","63d40c35b4ca8b31994cc34c","fixation","","","img/fixation.png","null","","","test","","","","","","","","","","","","","","","","","","","",""
"318.89999997615814","1154487","SARL_v6","SARL_v6xh54u9r8","63d40c35b4ca8b31994cc34c","freq","","","img/orange_2bandit_b2.png","70","","70","test","1","","22","","","","circle","square","22","22","1","1","","","","","","","",""
"null","1154986","SARL_v6","SARL_v6xh54u9r8","63d40c35b4ca8b31994cc34c","freq_resp","","","img/orange_2bandit_b.png","70","img/orange_2bandit_b.png","70","test","","","","","","","","","","","1","","","","","","","","",""
"null","1155159","SARL_v6","SARL_v6xh54u9r8","63d40c35b4ca8b31994cc34c","fixation","","","img/fixation.png","null","","","test","","","","","","","","","","","","","","","","","","","",""
"611.2999999523163","1155778","SARL_v6","SARL_v6xh54u9r8","63d40c35b4ca8b31994cc34c","rl","","","img/black_2bandit_b2.png","75","","0","test","","","23","","","-3","circle","square","","0","1","","75","-3","-3","-3","-3","square","1","0"
"null","1156548","SARL_v6","SARL_v6xh54u9r8","63d40c35b4ca8b31994cc34c","feedback","","","<div class=""verylowPoints_sq""> -3 </div>","null","","na","test","","","NaN","","","","","","","","1","","75","","","","","","1",""
"522.1000000238419","1157079","SARL_v6","SARL_v6xh54u9r8","63d40c35b4ca8b31994cc34c","freq","","","img/orange_2bandit_b2.png","70","","70","test","1","","24","","","","circle","square","23","1","2","1","","","","","","","",""
"null","1157366","SARL_v6","SARL_v6xh54u9r8","63d40c35b4ca8b31994cc34c","freq_resp","","","img/orange_2bandit_b.png","70","img/orange_2bandit_b.png","70","test","","","","","","","","","","","2","","","","","","","","",""
"null","1157530","SARL_v6","SARL_v6xh54u9r8","63d40c35b4ca8b31994cc34c","fixation","","","img/fixation.png","null","","","test","","","","","","","","","","","","","","","","","","","",""
"null","1158352","SARL_v6","SARL_v6xh54u9r8","63d40c35b4ca8b31994cc34c","freq","","","img/orange_2bandit_b2.png","null","","70","test","0","","25","","","","circle","square","24","2","2","0.9583333333333334","","","","","","","",""
"null","1158520","SARL_v6","SARL_v6xh54u9r8","63d40c35b4ca8b31994cc34c","fixation","","","img/fixation.png","null","","","test","","","","","","","","","","","","","","","","","","","",""
"481.2000000476837","1159009","SARL_v6","SARL_v6xh54u9r8","63d40c35b4ca8b31994cc34c","infreq","","","img/blue_2bandit_b2.png","68","","68","test","1","","26","","","","circle","square","25","3","2","0.96","","","","","","","",""
"null","1159347","SARL_v6","SARL_v6xh54u9r8","63d40c35b4ca8b31994cc34c","infreq_resp","","","img/blue_2bandit_b.png","68","img/blue_2bandit_b.png","68","test","","","","","","","","","","","2","","","","","","","","",""
"null","1159515","SARL_v6","SARL_v6xh54u9r8","63d40c35b4ca8b31994cc34c","fixation","","","img/fixation.png","null","","","test","","","","","","","","","","","","","","","","","","","",""
"312.39999997615814","1159838","SARL_v6","SARL_v6xh54u9r8","63d40c35b4ca8b31994cc34c","freq","","","img/orange_2bandit_b2.png","70","","70","test","1","","27","","","","circle","square","26","4","2","0.9615384615384616","","","","","","","",""
"null","1160335","SARL_v6","SARL_v6xh54u9r8","63d40c35b4ca8b31994cc34c","freq_resp","","","img/orange_2bandit_b.png","70","img/orange_2bandit_b.png","70","test","","","","","","","","","","","2","","","","","","","","",""
"null","1160501","SARL_v6","SARL_v6xh54u9r8","63d40c35b4ca8b31994cc34c","fixation","","","img/fixation.png","null","","","test","","","","","","","","","","","","","","","","","","","",""
"339.89999997615814","1160848","SARL_v6","SARL_v6xh54u9r8","63d40c35b4ca8b31994cc34c","freq","","","img/orange_2bandit_b2.png","70","","70","test","1","","28","","","","circle","square","27","5","2","0.9629629629629629","","","","","","","",""
"null","1161330","SARL_v6","SARL_v6xh54u9r8","63d40c35b4ca8b31994cc34c","freq_resp","","","img/orange_2bandit_b.png","70","img/orange_2bandit_b.png","70","test","","","","","","","","","","","2","","","","","","","","",""
"null","1161489","SARL_v6","SARL_v6xh54u9r8","63d40c35b4ca8b31994cc34c","fixation","","","img/fixation.png","null","","","test","","","","","","","","","","","","","","","","","","","",""
"391.5","1161888","SARL_v6","SARL_v6xh54u9r8","63d40c35b4ca8b31994cc34c","freq","","","img/orange_2bandit_b2.png","70","","70","test","1","","29","","","","circle","square","28","6","2","0.9642857142857143","","","","","","","",""
"null","1162315","SARL_v6","SARL_v6xh54u9r8","63d40c35b4ca8b31994cc34c","freq_resp","","","img/orange_2bandit_b.png","70","img/orange_2bandit_b.png","70","test","","","","","","","","","","","2","","","","","","","","",""
"null","1162482","SARL_v6","SARL_v6xh54u9r8","63d40c35b4ca8b31994cc34c","fixation","","","img/fixation.png","null","","","test","","","","","","","","","","","","","","","","","","","",""
"338","1162829","SARL_v6","SARL_v6xh54u9r8","63d40c35b4ca8b31994cc34c","freq","","","img/orange_2bandit_b2.png","70","","70","test","1","","30","","","","circle","square","29","7","2","0.9655172413793104","","","","","","","",""
"null","1163300","SARL_v6","SARL_v6xh54u9r8","63d40c35b4ca8b31994cc34c","freq_resp","","","img/orange_2bandit_b.png","70","img/orange_2bandit_b.png","70","test","","","","","","","","","","","2","","","","","","","","",""
"null","1163466","SARL_v6","SARL_v6xh54u9r8","63d40c35b4ca8b31994cc34c","fixation","","","img/fixation.png","null","","","test","","","","","","","","","","","","","","","","","","","",""
"437.8000000715256","1163911","SARL_v6","SARL_v6xh54u9r8","63d40c35b4ca8b31994cc34c","infreq","","","img/blue_2bandit_b2.png","68","","68","test","1","","31","","","","circle","square","30","8","2","0.9666666666666667","","","","","","","",""
"null","1164292","SARL_v6","SARL_v6xh54u9r8","63d40c35b4ca8b31994cc34c","infreq_resp","","","img/blue_2bandit_b.png","68","img/blue_2bandit_b.png","68","test","","","","","","","","","","","2","","","","","","","","",""
"null","1164457","SARL_v6","SARL_v6xh54u9r8","63d40c35b4ca8b31994cc34c","fixation","","","img/fixation.png","null","","","test","","","","","","","","","","","","","","","","","","","",""
"365.7999999523163","1164830","SARL_v6","SARL_v6xh54u9r8","63d40c35b4ca8b31994cc34c","freq","","","img/orange_2bandit_b2.png","70","","70","test","1","","32","","","","circle","square","31","9","2","0.967741935483871","","","","","","","",""
"null","1165285","SARL_v6","SARL_v6xh54u9r8","63d40c35b4ca8b31994cc34c","freq_resp","","","img/orange_2bandit_b.png","70","img/orange_2bandit_b.png","70","test","","","","","","","","","","","2","","","","","","","","",""
"null","1165457","SARL_v6","SARL_v6xh54u9r8","63d40c35b4ca8b31994cc34c","fixation","","","img/fixation.png","null","","","test","","","","","","","","","","","","","","","","","","","",""
"334.10000002384186","1165798","SARL_v6","SARL_v6xh54u9r8","63d40c35b4ca8b31994cc34c","freq","","","img/orange_2bandit_b2.png","70","","70","test","1","","33","","","","circle","square","32","10","2","0.96875","","","","","","","",""
"null","1166285","SARL_v6","SARL_v6xh54u9r8","63d40c35b4ca8b31994cc34c","freq_resp","","","img/orange_2bandit_b.png","70","img/orange_2bandit_b.png","70","test","","","","","","","","","","","2","","","","","","","","",""
"null","1166442","SARL_v6","SARL_v6xh54u9r8","63d40c35b4ca8b31994cc34c","fixation","","","img/fixation.png","null","","","test","","","","","","","","","","","","","","","","","","","",""
"339.5","1166789","SARL_v6","SARL_v6xh54u9r8","63d40c35b4ca8b31994cc34c","freq","","","img/orange_2bandit_b2.png","70","","70","test","1","","34","","","","circle","square","33","11","2","0.9696969696969697","","","","","","","",""
"null","1167261","SARL_v6","SARL_v6xh54u9r8","63d40c35b4ca8b31994cc34c","freq_resp","","","img/orange_2bandit_b.png","70","img/orange_2bandit_b.png","70","test","","","","","","","","","","","2","","","","","","","","",""
"null","1167421","SARL_v6","SARL_v6xh54u9r8","63d40c35b4ca8b31994cc34c","fixation","","","img/fixation.png","null","","","test","","","","","","","","","","","","","","","","","","","",""
"320","1167747","SARL_v6","SARL_v6xh54u9r8","63d40c35b4ca8b31994cc34c","freq","","","img/orange_2bandit_b2.png","70","","70","test","1","","35","","","","circle","square","34","12","2","0.9705882352941176","","","","","","","",""
"null","1168247","SARL_v6","SARL_v6xh54u9r8","63d40c35b4ca8b31994cc34c","freq_resp","","","img/orange_2bandit_b.png","70","img/orange_2bandit_b.png","70","test","","","","","","","","","","","2","","","","","","","","",""
"null","1168410","SARL_v6","SARL_v6xh54u9r8","63d40c35b4ca8b31994cc34c","fixation","","","img/fixation.png","null","","","test","","","","","","","","","","","","","","","","","","","",""
"290.7000000476837","1168708","SARL_v6","SARL_v6xh54u9r8","63d40c35b4ca8b31994cc34c","freq","","","img/orange_2bandit_b2.png","70","","70","test","1","","36","","","","circle","square","35","13","2","0.9714285714285714","","","","","","","",""
"null","1169231","SARL_v6","SARL_v6xh54u9r8","63d40c35b4ca8b31994cc34c","freq_resp","","","img/orange_2bandit_b.png","70","img/orange_2bandit_b.png","70","test","","","","","","","","","","","2","","","","","","","","",""
"null","1169393","SARL_v6","SARL_v6xh54u9r8","63d40c35b4ca8b31994cc34c","fixation","","","img/fixation.png","null","","","test","","","","","","","","","","","","","","","","","","","",""
"318.5","1169720","SARL_v6","SARL_v6xh54u9r8","63d40c35b4ca8b31994cc34c","freq","","","img/orange_2bandit_b2.png","70","","70","test","1","","37","","","","circle","square","36","14","2","0.9722222222222222","","","","","","","",""
"null","1170217","SARL_v6","SARL_v6xh54u9r8","63d40c35b4ca8b31994cc34c","freq_resp","","","img/orange_2bandit_b.png","70","img/orange_2bandit_b.png","70","test","","","","","","","","","","","2","","","","","","","","",""
"null","1170388","SARL_v6","SARL_v6xh54u9r8","63d40c35b4ca8b31994cc34c","fixation","","","img/fixation.png","null","","","test","","","","","","","","","","","","","","","","","","","",""
"362.2000000476837","1170758","SARL_v6","SARL_v6xh54u9r8","63d40c35b4ca8b31994cc34c","freq","","","img/orange_2bandit_b2.png","70","","70","test","1","","38","","","","circle","square","37","15","2","0.972972972972973","","","","","","","",""
"null","1171218","SARL_v6","SARL_v6xh54u9r8","63d40c35b4ca8b31994cc34c","freq_resp","","","img/orange_2bandit_b.png","70","img/orange_2bandit_b.png","70","test","","","","","","","","","","","2","","","","","","","","",""
"null","1171387","SARL_v6","SARL_v6xh54u9r8","63d40c35b4ca8b31994cc34c","fixation","","","img/fixation.png","null","","","test","","","","","","","","","","","","","","","","","","","",""
"320.6999999284744","1171712","SARL_v6","SARL_v6xh54u9r8","63d40c35b4ca8b31994cc34c","freq","","","img/orange_2bandit_b2.png","70","","70","test","1","","39","","","","circle","square","38","16","2","0.9736842105263158","","","","","","","",""
"null","1172202","SARL_v6","SARL_v6xh54u9r8","63d40c35b4ca8b31994cc34c","freq_resp","","","img/orange_2bandit_b.png","70","img/orange_2bandit_b.png","70","test","","","","","","","","","","","2","","","","","","","","",""
"null","1172372","SARL_v6","SARL_v6xh54u9r8","63d40c35b4ca8b31994cc34c","fixation","","","img/fixation.png","null","","","test","","","","","","","","","","","","","","","","","","","",""
"187.69999992847443","1172568","SARL_v6","SARL_v6xh54u9r8","63d40c35b4ca8b31994cc34c","freq","","","img/orange_2bandit_b2.png","70","","70","test","1","","40","","","","circle","square","39","17","2","0.9743589743589743","","","","","","","",""
"null","1173191","SARL_v6","SARL_v6xh54u9r8","63d40c35b4ca8b31994cc34c","freq_resp","","","img/orange_2bandit_b.png","70","img/orange_2bandit_b.png","70","test","","","","","","","","","","","2","","","","","","","","",""
"null","1173357","SARL_v6","SARL_v6xh54u9r8","63d40c35b4ca8b31994cc34c","fixation","","","img/fixation.png","null","","","test","","","","","","","","","","","","","","","","","","","",""
"2.799999952316284","1173367","SARL_v6","SARL_v6xh54u9r8","63d40c35b4ca8b31994cc34c","freq","","","img/orange_2bandit_b2.png","70","","70","test","1","","41","","","","circle","square","40","18","2","0.975","","","","","","","",""
"null","1174177","SARL_v6","SARL_v6xh54u9r8","63d40c35b4ca8b31994cc34c","freq_resp","","","img/orange_2bandit_b.png","70","img/orange_2bandit_b.png","70","test","","","","","","","","","","","2","","","","","","","","",""
"null","1174343","SARL_v6","SARL_v6xh54u9r8","63d40c35b4ca8b31994cc34c","fixation","","","img/fixation.png","null","","","test","","","","","","","","","","","","","","","","","","","",""
"338.3000000715256","1174688","SARL_v6","SARL_v6xh54u9r8","63d40c35b4ca8b31994cc34c","freq","","","img/orange_2bandit_b2.png","70","","70","test","1","","42","","","","circle","square","41","19","2","0.975609756097561","","","","","","","",""
"null","1175162","SARL_v6","SARL_v6xh54u9r8","63d40c35b4ca8b31994cc34c","freq_resp","","","img/orange_2bandit_b.png","70","img/orange_2bandit_b.png","70","test","","","","","","","","","","","2","","","","","","","","",""
"null","1175325","SARL_v6","SARL_v6xh54u9r8","63d40c35b4ca8b31994cc34c","fixation","","","img/fixation.png","null","","","test","","","","","","","","","","","","","","","","","","","",""
"316.59999990463257","1175649","SARL_v6","SARL_v6xh54u9r8","63d40c35b4ca8b31994cc34c","freq","","","img/orange_2bandit_b2.png","70","","70","test","1","","43","","","","circle","square","42","20","2","0.9761904761904762","","","","","","","",""
"null","1176149","SARL_v6","SARL_v6xh54u9r8","63d40c35b4ca8b31994cc34c","freq_resp","","","img/orange_2bandit_b.png","70","img/orange_2bandit_b.png","70","test","","","","","","","","","","","2","","","","","","","","",""
"null","1176310","SARL_v6","SARL_v6xh54u9r8","63d40c35b4ca8b31994cc34c","fixation","","","img/fixation.png","null","","","test","","","","","","","","","","","","","","","","","","","",""
"355.5","1176672","SARL_v6","SARL_v6xh54u9r8","63d40c35b4ca8b31994cc34c","freq","","","img/orange_2bandit_b2.png","70","","70","test","1","","44","","","","circle","square","43","21","2","0.9767441860465116","","","","","","","",""
"null","1177133","SARL_v6","SARL_v6xh54u9r8","63d40c35b4ca8b31994cc34c","freq_resp","","","img/orange_2bandit_b.png","70","img/orange_2bandit_b.png","70","test","","","","","","","","","","","2","","","","","","","","",""
"null","1177293","SARL_v6","SARL_v6xh54u9r8","63d40c35b4ca8b31994cc34c","fixation","","","img/fixation.png","null","","","test","","","","","","","","","","","","","","","","","","","",""
"627.6999999284744","1177928","SARL_v6","SARL_v6xh54u9r8","63d40c35b4ca8b31994cc34c","rl","","","img/black_2bandit_b2.png","75","","0","test","","","45","","","-5","circle","square","","0","2","","75","-8","-5","-8","-5","square","2","0"
"null","1178699","SARL_v6","SARL_v6xh54u9r8","63d40c35b4ca8b31994cc34c","feedback","","","<div class=""verylowPoints_sq""> -5 </div>","null","","na","test","","","NaN","","","","","","","","2","","75","","","","","","2",""
"541.5999999046326","1179248","SARL_v6","SARL_v6xh54u9r8","63d40c35b4ca8b31994cc34c","freq","","","img/orange_2bandit_b2.png","70","","70","test","1","","46","","","","circle","square","44","1","3","0.9772727272727273","","","","","","","",""
"null","1179523","SARL_v6","SARL_v6xh54u9r8","63d40c35b4ca8b31994cc34c","freq_resp","","","img/orange_2bandit_b.png","70","img/orange_2bandit_b.png","70","test","","","","","","","","","","","3","","","","","","","","",""
"null","1179686","SARL_v6","SARL_v6xh54u9r8","63d40c35b4ca8b31994cc34c","fixation","","","img/fixation.png","null","","","test","","","","","","","","","","","","","","","","","","","",""
"654.6999999284744","1180348","SARL_v6","SARL_v6xh54u9r8","63d40c35b4ca8b31994cc34c","freq","","","img/orange_2bandit_b2.png","70","","70","test","1","","47","","","","circle","square","45","2","3","0.9777777777777777","","","","","","","",""
"null","1180509","SARL_v6","SARL_v6xh54u9r8","63d40c35b4ca8b31994cc34c","freq_resp","","","img/orange_2bandit_b.png","70","img/orange_2bandit_b.png","70","test","","","","","","","","","","","3","","","","","","","","",""
"null","1180670","SARL_v6","SARL_v6xh54u9r8","63d40c35b4ca8b31994cc34c","fixation","","","img/fixation.png","null","","","test","","","","","","","","","","","","","","","","","","","",""
"691.1000000238419","1181368","SARL_v6","SARL_v6xh54u9r8","63d40c35b4ca8b31994cc34c","freq","","","img/orange_2bandit_b2.png","70","","70","test","1","","48","","","","circle","square","46","3","3","0.9782608695652174","","","","","","","",""
"null","1181495","SARL_v6","SARL_v6xh54u9r8","63d40c35b4ca8b31994cc34c","freq_resp","","","img/orange_2bandit_b.png","70","img/orange_2bandit_b.png","70","test","","","","","","","","","","","3","","","","","","","","",""
"null","1181664","SARL_v6","SARL_v6xh54u9r8","63d40c35b4ca8b31994cc34c","fixation","","","img/fixation.png","null","","","test","","","","","","","","","","","","","","","","","","","",""
"637","1182307","SARL_v6","SARL_v6xh54u9r8","63d40c35b4ca8b31994cc34c","freq","","","img/orange_2bandit_b2.png","70","","70","test","1","","49","","","","circle","square","47","4","3","0.9787234042553191","","","","","","","",""
"null","1182480","SARL_v6","SARL_v6xh54u9r8","63d40c35b4ca8b31994cc34c","freq_resp","","","img/orange_2bandit_b.png","70","img/orange_2bandit_b.png","70","test","","","","","","","","","","","3","","","","","","","","",""
"null","1182645","SARL_v6","SARL_v6xh54u9r8","63d40c35b4ca8b31994cc34c","fixation","","","img/fixation.png","null","","","test","","","","","","","","","","","","","","","","","","","",""
"766.9000000953674","1183420","SARL_v6","SARL_v6xh54u9r8","63d40c35b4ca8b31994cc34c","freq","","","img/orange_2bandit_b2.png","70","","70","test","1","","50","","","","circle","square","48","5","3","0.9791666666666666","","","","","","","",""
"null","1183468","SARL_v6","SARL_v6xh54u9r8","63d40c35b4ca8b31994cc34c","freq_resp","","","img/orange_2bandit_b.png","70","img/orange_2bandit_b.png","70","test","","","","","","","","","","","3","","","","","","","","",""
"null","1183631","SARL_v6","SARL_v6xh54u9r8","63d40c35b4ca8b31994cc34c","fixation","","","img/fixation.png","null","","","test","","","","","","","","","","","","","","","","","","","",""
"669.3000000715256","1184308","SARL_v6","SARL_v6xh54u9r8","63d40c35b4ca8b31994cc34c","freq","","","img/orange_2bandit_b2.png","70","","70","test","1","","51","","","","circle","square","49","6","3","0.9795918367346939","","","","","","","",""
"null","1184449","SARL_v6","SARL_v6xh54u9r8","63d40c35b4ca8b31994cc34c","freq_resp","","","img/orange_2bandit_b.png","70","img/orange_2bandit_b.png","70","test","","","","","","","","","","","3","","","","","","","","",""
"null","1184616","SARL_v6","SARL_v6xh54u9r8","63d40c35b4ca8b31994cc34c","fixation","","","img/fixation.png","null","","","test","","","","","","","","","","","","","","","","","","","",""
"600","1185222","SARL_v6","SARL_v6xh54u9r8","63d40c35b4ca8b31994cc34c","freq","","","img/orange_2bandit_b2.png","70","","70","test","1","","52","","","","circle","square","50","7","3","0.98","","","","","","","",""
"null","1185449","SARL_v6","SARL_v6xh54u9r8","63d40c35b4ca8b31994cc34c","freq_resp","","","img/orange_2bandit_b.png","70","img/orange_2bandit_b.png","70","test","","","","","","","","","","","3","","","","","","","","",""
"null","1185615","SARL_v6","SARL_v6xh54u9r8","63d40c35b4ca8b31994cc34c","fixation","","","img/fixation.png","null","","","test","","","","","","","","","","","","","","","","","","","",""
"479.3000000715256","1186103","SARL_v6","SARL_v6xh54u9r8","63d40c35b4ca8b31994cc34c","freq","","","img/orange_2bandit_b2.png","70","","70","test","1","","53","","","","circle","square","51","8","3","0.9803921568627451","","","","","","","",""
"null","1186433","SARL_v6","SARL_v6xh54u9r8","63d40c35b4ca8b31994cc34c","freq_resp","","","img/orange_2bandit_b.png","70","img/orange_2bandit_b.png","70","test","","","","","","","","","","","3","","","","","","","","",""
"null","1186600","SARL_v6","SARL_v6xh54u9r8","63d40c35b4ca8b31994cc34c","fixation","","","img/fixation.png","null","","","test","","","","","","","","","","","","","","","","","","","",""
"391.60000002384186","1187001","SARL_v6","SARL_v6xh54u9r8","63d40c35b4ca8b31994cc34c","freq","","","img/orange_2bandit_b2.png","70","","70","test","1","","54","","","","circle","square","52","9","3","0.9807692307692307","","","","","","","",""
"null","1187420","SARL_v6","SARL_v6xh54u9r8","63d40c35b4ca8b31994cc34c","freq_resp","","","img/orange_2bandit_b.png","70","img/orange_2bandit_b.png","70","test","","","","","","","","","","","3","","","","","","","","",""
"null","1187583","SARL_v6","SARL_v6xh54u9r8","63d40c35b4ca8b31994cc34c","fixation","","","img/fixation.png","null","","","test","","","","","","","","","","","","","","","","","","","",""
"336.7000000476837","1187927","SARL_v6","SARL_v6xh54u9r8","63d40c35b4ca8b31994cc34c","freq","","","img/orange_2bandit_b2.png","70","","70","test","1","","55","","","","circle","square","53","10","3","0.9811320754716981","","","","","","","",""
"null","1188403","SARL_v6","SARL_v6xh54u9r8","63d40c35b4ca8b31994cc34c","freq_resp","","","img/orange_2bandit_b.png","70","img/orange_2bandit_b.png","70","test","","","","","","","","","","","3","","","","","","","","",""
"null","1188569","SARL_v6","SARL_v6xh54u9r8","63d40c35b4ca8b31994cc34c","fixation","","","img/fixation.png","null","","","test","","","","","","","","","","","","","","","","","","","",""
"346.5","1188923","SARL_v6","SARL_v6xh54u9r8","63d40c35b4ca8b31994cc34c","freq","","","img/orange_2bandit_b2.png","70","","70","test","1","","56","","","","circle","square","54","11","3","0.9814814814814815","","","","","","","",""
"null","1189390","SARL_v6","SARL_v6xh54u9r8","63d40c35b4ca8b31994cc34c","freq_resp","","","img/orange_2bandit_b.png","70","img/orange_2bandit_b.png","70","test","","","","","","","","","","","3","","","","","","","","",""
"null","1189553","SARL_v6","SARL_v6xh54u9r8","63d40c35b4ca8b31994cc34c","fixation","","","img/fixation.png","null","","","test","","","","","","","","","","","","","","","","","","","",""
"338.39999997615814","1189899","SARL_v6","SARL_v6xh54u9r8","63d40c35b4ca8b31994cc34c","freq","","","img/orange_2bandit_b2.png","70","","70","test","1","","57","","","","circle","square","55","12","3","0.9818181818181818","","","","","","","",""
"null","1190375","SARL_v6","SARL_v6xh54u9r8","63d40c35b4ca8b31994cc34c","freq_resp","","","img/orange_2bandit_b.png","70","img/orange_2bandit_b.png","70","test","","","","","","","","","","","3","","","","","","","","",""
"null","1190530","SARL_v6","SARL_v6xh54u9r8","63d40c35b4ca8b31994cc34c","fixation","","","img/fixation.png","null","","","test","","","","","","","","","","","","","","","","","","","",""
"171.39999997615814","1190708","SARL_v6","SARL_v6xh54u9r8","63d40c35b4ca8b31994cc34c","freq","","","img/orange_2bandit_b2.png","70","","70","test","1","","58","","","","circle","square","56","13","3","0.9821428571428571","","","","","","","",""
"null","1191356","SARL_v6","SARL_v6xh54u9r8","63d40c35b4ca8b31994cc34c","freq_resp","","","img/orange_2bandit_b.png","70","img/orange_2bandit_b.png","70","test","","","","","","","","","","","3","","","","","","","","",""
"null","1191521","SARL_v6","SARL_v6xh54u9r8","63d40c35b4ca8b31994cc34c","fixation","","","img/fixation.png","null","","","test","","","","","","","","","","","","","","","","","","","",""
"103.60000002384186","1191631","SARL_v6","SARL_v6xh54u9r8","63d40c35b4ca8b31994cc34c","infreq","","","img/blue_2bandit_b2.png","70","","68","test","0","","59","","","","circle","square","57","14","3","0.9649122807017544","","","","","","","",""
"null","1192349","SARL_v6","SARL_v6xh54u9r8","63d40c35b4ca8b31994cc34c","infreq_resp","","","img/blue_2bandit_b.png","70","img/blue_2bandit_b.png","68","test","","","","","","","","","","","3","","","","","","","","",""
"null","1192512","SARL_v6","SARL_v6xh54u9r8","63d40c35b4ca8b31994cc34c","fixation","","","img/fixation.png","null","","","test","","","","","","","","","","","","","","","","","","","",""
"469.2999999523163","1192988","SARL_v6","SARL_v6xh54u9r8","63d40c35b4ca8b31994cc34c","freq","","","img/orange_2bandit_b2.png","70","","70","test","1","","60","","","","circle","square","58","15","3","0.9655172413793104","","","","","","","",""
"null","1193326","SARL_v6","SARL_v6xh54u9r8","63d40c35b4ca8b31994cc34c","freq_resp","","","img/orange_2bandit_b.png","70","img/orange_2bandit_b.png","70","test","","","","","","","","","","","3","","","","","","","","",""
"null","1193488","SARL_v6","SARL_v6xh54u9r8","63d40c35b4ca8b31994cc34c","fixation","","","img/fixation.png","null","","","test","","","","","","","","","","","","","","","","","","","",""
"324.2999999523163","1193820","SARL_v6","SARL_v6xh54u9r8","63d40c35b4ca8b31994cc34c","freq","","","img/orange_2bandit_b2.png","70","","70","test","1","","61","","","","circle","square","59","16","3","0.9661016949152542","","","","","","","",""
"null","1194303","SARL_v6","SARL_v6xh54u9r8","63d40c35b4ca8b31994cc34c","freq_resp","","","img/orange_2bandit_b.png","70","img/orange_2bandit_b.png","70","test","","","","","","","","","","","3","","","","","","","","",""
"null","1194475","SARL_v6","SARL_v6xh54u9r8","63d40c35b4ca8b31994cc34c","fixation","","","img/fixation.png","null","","","test","","","","","","","","","","","","","","","","","","","",""
"332.10000002384186","1194815","SARL_v6","SARL_v6xh54u9r8","63d40c35b4ca8b31994cc34c","freq","","","img/orange_2bandit_b2.png","70","","70","test","1","","62","","","","circle","square","60","17","3","0.9666666666666667","","","","","","","",""
"null","1195293","SARL_v6","SARL_v6xh54u9r8","63d40c35b4ca8b31994cc34c","freq_resp","","","img/orange_2bandit_b.png","70","img/orange_2bandit_b.png","70","test","","","","","","","","","","","3","","","","","","","","",""
"null","1195461","SARL_v6","SARL_v6xh54u9r8","63d40c35b4ca8b31994cc34c","fixation","","","img/fixation.png","null","","","test","","","","","","","","","","","","","","","","","","","",""
"390.90000009536743","1195859","SARL_v6","SARL_v6xh54u9r8","63d40c35b4ca8b31994cc34c","freq","","","img/orange_2bandit_b2.png","70","","70","test","1","","63","","","","circle","square","61","18","3","0.9672131147540983","","","","","","","",""
"null","1196287","SARL_v6","SARL_v6xh54u9r8","63d40c35b4ca8b31994cc34c","freq_resp","","","img/orange_2bandit_b.png","70","img/orange_2bandit_b.png","70","test","","","","","","","","","","","3","","","","","","","","",""
"null","1196446","SARL_v6","SARL_v6xh54u9r8","63d40c35b4ca8b31994cc34c","fixation","","","img/fixation.png","null","","","test","","","","","","","","","","","","","","","","","","","",""
"325.40000009536743","1196779","SARL_v6","SARL_v6xh54u9r8","63d40c35b4ca8b31994cc34c","freq","","","img/orange_2bandit_b2.png","70","","70","test","1","","64","","","","circle","square","62","19","3","0.967741935483871","","","","","","","",""
"null","1197275","SARL_v6","SARL_v6xh54u9r8","63d40c35b4ca8b31994cc34c","freq_resp","","","img/orange_2bandit_b.png","70","img/orange_2bandit_b.png","70","test","","","","","","","","","","","3","","","","","","","","",""
"null","1197440","SARL_v6","SARL_v6xh54u9r8","63d40c35b4ca8b31994cc34c","fixation","","","img/fixation.png","null","","","test","","","","","","","","","","","","","","","","","","","",""
"345.10000002384186","1197793","SARL_v6","SARL_v6xh54u9r8","63d40c35b4ca8b31994cc34c","freq","","","img/orange_2bandit_b2.png","70","","70","test","1","","65","","","","circle","square","63","20","3","0.9682539682539683","","","","","","","",""
"null","1198265","SARL_v6","SARL_v6xh54u9r8","63d40c35b4ca8b31994cc34c","freq_resp","","","img/orange_2bandit_b.png","70","img/orange_2bandit_b.png","70","test","","","","","","","","","","","3","","","","","","","","",""
"null","1198427","SARL_v6","SARL_v6xh54u9r8","63d40c35b4ca8b31994cc34c","fixation","","","img/fixation.png","null","","","test","","","","","","","","","","","","","","","","","","","",""
"444.3000000715256","1198878","SARL_v6","SARL_v6xh54u9r8","63d40c35b4ca8b31994cc34c","infreq","","","img/blue_2bandit_b2.png","68","","68","test","1","","66","","","","circle","square","64","21","3","0.96875","","","","","","","",""
"null","1199251","SARL_v6","SARL_v6xh54u9r8","63d40c35b4ca8b31994cc34c","infreq_resp","","","img/blue_2bandit_b.png","68","img/blue_2bandit_b.png","68","test","","","","","","","","","","","3","","","","","","","","",""
"null","1199424","SARL_v6","SARL_v6xh54u9r8","63d40c35b4ca8b31994cc34c","fixation","","","img/fixation.png","null","","","test","","","","","","","","","","","","","","","","","","","",""
"326","1199759","SARL_v6","SARL_v6xh54u9r8","63d40c35b4ca8b31994cc34c","freq","","","img/orange_2bandit_b2.png","70","","70","test","1","","67","","","","circle","square","65","22","3","0.9692307692307692","","","","","","","",""
"null","1200253","SARL_v6","SARL_v6xh54u9r8","63d40c35b4ca8b31994cc34c","freq_resp","","","img/orange_2bandit_b.png","70","img/orange_2bandit_b.png","70","test","","","","","","","","","","","3","","","","","","","","",""
"null","1200426","SARL_v6","SARL_v6xh54u9r8","63d40c35b4ca8b31994cc34c","fixation","","","img/fixation.png","null","","","test","","","","","","","","","","","","","","","","","","","",""
"714.1999999284744","1201148","SARL_v6","SARL_v6xh54u9r8","63d40c35b4ca8b31994cc34c","rl","","","img/black_2bandit_b2.png","74","","0","test","","","68","","","-8","circle","square","","0","3","","74","-8","-4","-8","-4","circle","3","0"
"null","1201912","SARL_v6","SARL_v6xh54u9r8","63d40c35b4ca8b31994cc34c","feedback","","","<div class=""verylowPoints""> -8 </div>","null","","na","test","","","NaN","","","","","","","","3","","74","","","","","","3",""
"502","1202421","SARL_v6","SARL_v6xh54u9r8","63d40c35b4ca8b31994cc34c","freq","","","img/orange_2bandit_b2.png","70","","70","test","1","","69","","","","circle","square","66","1","4","0.9696969696969697","","","","","","","",""
"null","1202740","SARL_v6","SARL_v6xh54u9r8","63d40c35b4ca8b31994cc34c","freq_resp","","","img/orange_2bandit_b.png","70","img/orange_2bandit_b.png","70","test","","","","","","","","","","","4","","","","","","","","",""
"null","1202910","SARL_v6","SARL_v6xh54u9r8","63d40c35b4ca8b31994cc34c","fixation","","","img/fixation.png","null","","","test","","","","","","","","","","","","","","","","","","","",""
"429.2000000476837","1203348","SARL_v6","SARL_v6xh54u9r8","63d40c35b4ca8b31994cc34c","freq","","","img/orange_2bandit_b2.png","70","","70","test","1","","70","","","","circle","square","67","2","4","0.9701492537313433","","","","","","","",""
"null","1203729","SARL_v6","SARL_v6xh54u9r8","63d40c35b4ca8b31994cc34c","freq_resp","","","img/orange_2bandit_b.png","70","img/orange_2bandit_b.png","70","test","","","","","","","","","","","4","","","","","","","","",""
"null","1203896","SARL_v6","SARL_v6xh54u9r8","63d40c35b4ca8b31994cc34c","fixation","","","img/fixation.png","null","","","test","","","","","","","","","","","","","","","","","","","",""
"386.89999997615814","1204293","SARL_v6","SARL_v6xh54u9r8","63d40c35b4ca8b31994cc34c","freq","","","img/orange_2bandit_b2.png","70","","70","test","1","","71","","","","circle","square","68","3","4","0.9705882352941176","","","","","","","",""
"null","1204728","SARL_v6","SARL_v6xh54u9r8","63d40c35b4ca8b31994cc34c","freq_resp","","","img/orange_2bandit_b.png","70","img/orange_2bandit_b.png","70","test","","","","","","","","","","","4","","","","","","","","",""
"null","1204902","SARL_v6","SARL_v6xh54u9r8","63d40c35b4ca8b31994cc34c","fixation","","","img/fixation.png","null","","","test","","","","","","","","","","","","","","","","","","","",""
"388.2999999523163","1205298","SARL_v6","SARL_v6xh54u9r8","63d40c35b4ca8b31994cc34c","freq","","","img/orange_2bandit_b2.png","70","","70","test","1","","72","","","","circle","square","69","4","4","0.9710144927536232","","","","","","","",""
"null","1205729","SARL_v6","SARL_v6xh54u9r8","63d40c35b4ca8b31994cc34c","freq_resp","","","img/orange_2bandit_b.png","70","img/orange_2bandit_b.png","70","test","","","","","","","","","","","4","","","","","","","","",""
"null","1205896","SARL_v6","SARL_v6xh54u9r8","63d40c35b4ca8b31994cc34c","fixation","","","img/fixation.png","null","","","test","","","","","","","","","","","","","","","","","","","",""
"351.7999999523163","1206253","SARL_v6","SARL_v6xh54u9r8","63d40c35b4ca8b31994cc34c","freq","","","img/orange_2bandit_b2.png","70","","70","test","1","","73","","","","circle","square","70","5","4","0.9714285714285714","","","","","","","",""
"null","1206719","SARL_v6","SARL_v6xh54u9r8","63d40c35b4ca8b31994cc34c","freq_resp","","","img/orange_2bandit_b.png","70","img/orange_2bandit_b.png","70","test","","","","","","","","","","","4","","","","","","","","",""
"null","1206883","SARL_v6","SARL_v6xh54u9r8","63d40c35b4ca8b31994cc34c","fixation","","","img/fixation.png","null","","","test","","","","","","","","","","","","","","","","","","","",""
"329.6999999284744","1207220","SARL_v6","SARL_v6xh54u9r8","63d40c35b4ca8b31994cc34c","freq","","","img/orange_2bandit_b2.png","70","","70","test","1","","74","","","","circle","square","71","6","4","0.971830985915493","","","","","","","",""
"null","1207703","SARL_v6","SARL_v6xh54u9r8","63d40c35b4ca8b31994cc34c","freq_resp","","","img/orange_2bandit_b.png","70","img/orange_2bandit_b.png","70","test","","","","","","","","","","","4","","","","","","","","",""
"null","1207874","SARL_v6","SARL_v6xh54u9r8","63d40c35b4ca8b31994cc34c","fixation","","","img/fixation.png","null","","","test","","","","","","","","","","","","","","","","","","","",""
"326.6999999284744","1208209","SARL_v6","SARL_v6xh54u9r8","63d40c35b4ca8b31994cc34c","freq","","","img/orange_2bandit_b2.png","70","","70","test","1","","75","","","","circle","square","72","7","4","0.9722222222222222","","","","","","","",""
"null","1208703","SARL_v6","SARL_v6xh54u9r8","63d40c35b4ca8b31994cc34c","freq_resp","","","img/orange_2bandit_b.png","70","img/orange_2bandit_b.png","70","test","","","","","","","","","","","4","","","","","","","","",""
"null","1208862","SARL_v6","SARL_v6xh54u9r8","63d40c35b4ca8b31994cc34c","fixation","","","img/fixation.png","null","","","test","","","","","","","","","","","","","","","","","","","",""
"348.8000000715256","1209218","SARL_v6","SARL_v6xh54u9r8","63d40c35b4ca8b31994cc34c","freq","","","img/orange_2bandit_b2.png","70","","70","test","1","","76","","","","circle","square","73","8","4","0.9726027397260274","","","","","","","",""
"null","1209676","SARL_v6","SARL_v6xh54u9r8","63d40c35b4ca8b31994cc34c","freq_resp","","","img/orange_2bandit_b.png","70","img/orange_2bandit_b.png","70","test","","","","","","","","","","","4","","","","","","","","",""
"null","1209848","SARL_v6","SARL_v6xh54u9r8","63d40c35b4ca8b31994cc34c","fixation","","","img/fixation.png","null","","","test","","","","","","","","","","","","","","","","","","","",""
"322.2000000476837","1210177","SARL_v6","SARL_v6xh54u9r8","63d40c35b4ca8b31994cc34c","freq","","","img/orange_2bandit_b2.png","70","","70","test","1","","77","","","","circle","square","74","9","4","0.972972972972973","","","","","","","",""
"null","1210666","SARL_v6","SARL_v6xh54u9r8","63d40c35b4ca8b31994cc34c","freq_resp","","","img/orange_2bandit_b.png","70","img/orange_2bandit_b.png","70","test","","","","","","","","","","","4","","","","","","","","",""
"null","1210832","SARL_v6","SARL_v6xh54u9r8","63d40c35b4ca8b31994cc34c","fixation","","","img/fixation.png","null","","","test","","","","","","","","","","","","","","","","","","","",""
"309.1999999284744","1211148","SARL_v6","SARL_v6xh54u9r8","63d40c35b4ca8b31994cc34c","freq","","","img/orange_2bandit_b2.png","70","","70","test","1","","78","","","","circle","square","75","10","4","0.9733333333333334","","","","","","","",""
"null","1211646","SARL_v6","SARL_v6xh54u9r8","63d40c35b4ca8b31994cc34c","freq_resp","","","img/orange_2bandit_b.png","70","img/orange_2bandit_b.png","70","test","","","","","","","","","","","4","","","","","","","","",""
"null","1211819","SARL_v6","SARL_v6xh54u9r8","63d40c35b4ca8b31994cc34c","fixation","","","img/fixation.png","null","","","test","","","","","","","","","","","","","","","","","","","",""
"337.1999999284744","1212163","SARL_v6","SARL_v6xh54u9r8","63d40c35b4ca8b31994cc34c","freq","","","img/orange_2bandit_b2.png","70","","70","test","1","","79","","","","circle","square","76","11","4","0.9736842105263158","","","","","","","",""
"null","1212633","SARL_v6","SARL_v6xh54u9r8","63d40c35b4ca8b31994cc34c","freq_resp","","","img/orange_2bandit_b.png","70","img/orange_2bandit_b.png","70","test","","","","","","","","","","","4","","","","","","","","",""
"null","1212804","SARL_v6","SARL_v6xh54u9r8","63d40c35b4ca8b31994cc34c","fixation","","","img/fixation.png","null","","","test","","","","","","","","","","","","","","","","","","","",""
"327.2999999523163","1213139","SARL_v6","SARL_v6xh54u9r8","63d40c35b4ca8b31994cc34c","freq","","","img/orange_2bandit_b2.png","70","","70","test","1","","80","","","","circle","square","77","12","4","0.974025974025974","","","","","","","",""
"null","1213631","SARL_v6","SARL_v6xh54u9r8","63d40c35b4ca8b31994cc34c","freq_resp","","","img/orange_2bandit_b.png","70","img/orange_2bandit_b.png","70","test","","","","","","","","","","","4","","","","","","","","",""
"null","1213790","SARL_v6","SARL_v6xh54u9r8","63d40c35b4ca8b31994cc34c","fixation","","","img/fixation.png","null","","","test","","","","","","","","","","","","","","","","","","","",""
"311.2000000476837","1214108","SARL_v6","SARL_v6xh54u9r8","63d40c35b4ca8b31994cc34c","freq","","","img/orange_2bandit_b2.png","70","","70","test","1","","81","","","","circle","square","78","13","4","0.9743589743589743","","","","","","","",""
"null","1214607","SARL_v6","SARL_v6xh54u9r8","63d40c35b4ca8b31994cc34c","freq_resp","","","img/orange_2bandit_b.png","70","img/orange_2bandit_b.png","70","test","","","","","","","","","","","4","","","","","","","","",""
"null","1214768","SARL_v6","SARL_v6xh54u9r8","63d40c35b4ca8b31994cc34c","fixation","","","img/fixation.png","null","","","test","","","","","","","","","","","","","","","","","","","",""
"343.2000000476837","1215119","SARL_v6","SARL_v6xh54u9r8","63d40c35b4ca8b31994cc34c","freq","","","img/orange_2bandit_b2.png","70","","70","test","1","","82","","","","circle","square","79","14","4","0.9746835443037974","","","","","","","",""
"null","1215599","SARL_v6","SARL_v6xh54u9r8","63d40c35b4ca8b31994cc34c","freq_resp","","","img/orange_2bandit_b.png","70","img/orange_2bandit_b.png","70","test","","","","","","","","","","","4","","","","","","","","",""
"null","1215769","SARL_v6","SARL_v6xh54u9r8","63d40c35b4ca8b31994cc34c","fixation","","","img/fixation.png","null","","","test","","","","","","","","","","","","","","","","","","","",""
"304.39999997615814","1216081","SARL_v6","SARL_v6xh54u9r8","63d40c35b4ca8b31994cc34c","freq","","","img/orange_2bandit_b2.png","70","","70","test","1","","83","","","","circle","square","80","15","4","0.975","","","","","","","",""
"null","1216594","SARL_v6","SARL_v6xh54u9r8","63d40c35b4ca8b31994cc34c","freq_resp","","","img/orange_2bandit_b.png","70","img/orange_2bandit_b.png","70","test","","","","","","","","","","","4","","","","","","","","",""
"null","1216754","SARL_v6","SARL_v6xh54u9r8","63d40c35b4ca8b31994cc34c","fixation","","","img/fixation.png","null","","","test","","","","","","","","","","","","","","","","","","","",""
"326.7000000476837","1217091","SARL_v6","SARL_v6xh54u9r8","63d40c35b4ca8b31994cc34c","freq","","","img/orange_2bandit_b2.png","70","","70","test","1","","84","","","","circle","square","81","16","4","0.9753086419753086","","","","","","","",""
"null","1217581","SARL_v6","SARL_v6xh54u9r8","63d40c35b4ca8b31994cc34c","freq_resp","","","img/orange_2bandit_b.png","70","img/orange_2bandit_b.png","70","test","","","","","","","","","","","4","","","","","","","","",""
"null","1217741","SARL_v6","SARL_v6xh54u9r8","63d40c35b4ca8b31994cc34c","fixation","","","img/fixation.png","null","","","test","","","","","","","","","","","","","","","","","","","",""
"312.2000000476837","1218063","SARL_v6","SARL_v6xh54u9r8","63d40c35b4ca8b31994cc34c","freq","","","img/orange_2bandit_b2.png","70","","70","test","1","","85","","","","circle","square","82","17","4","0.975609756097561","","","","","","","",""
"null","1218572","SARL_v6","SARL_v6xh54u9r8","63d40c35b4ca8b31994cc34c","freq_resp","","","img/orange_2bandit_b.png","70","img/orange_2bandit_b.png","70","test","","","","","","","","","","","4","","","","","","","","",""
"null","1218737","SARL_v6","SARL_v6xh54u9r8","63d40c35b4ca8b31994cc34c","fixation","","","img/fixation.png","null","","","test","","","","","","","","","","","","","","","","","","","",""
"311.2000000476837","1219053","SARL_v6","SARL_v6xh54u9r8","63d40c35b4ca8b31994cc34c","freq","","","img/orange_2bandit_b2.png","70","","70","test","1","","86","","","","circle","square","83","18","4","0.9759036144578314","","","","","","","",""
"null","1219552","SARL_v6","SARL_v6xh54u9r8","63d40c35b4ca8b31994cc34c","freq_resp","","","img/orange_2bandit_b.png","70","img/orange_2bandit_b.png","70","test","","","","","","","","","","","4","","","","","","","","",""
"null","1219721","SARL_v6","SARL_v6xh54u9r8","63d40c35b4ca8b31994cc34c","fixation","","","img/fixation.png","null","","","test","","","","","","","","","","","","","","","","","","","",""
"320","1220049","SARL_v6","SARL_v6xh54u9r8","63d40c35b4ca8b31994cc34c","freq","","","img/orange_2bandit_b2.png","70","","70","test","1","","87","","","","circle","square","84","19","4","0.9761904761904762","","","","","","","",""
"null","1220537","SARL_v6","SARL_v6xh54u9r8","63d40c35b4ca8b31994cc34c","freq_resp","","","img/orange_2bandit_b.png","70","img/orange_2bandit_b.png","70","test","","","","","","","","","","","4","","","","","","","","",""
"null","1220704","SARL_v6","SARL_v6xh54u9r8","63d40c35b4ca8b31994cc34c","fixation","","","img/fixation.png","null","","","test","","","","","","","","","","","","","","","","","","","",""
"305.5","1221019","SARL_v6","SARL_v6xh54u9r8","63d40c35b4ca8b31994cc34c","freq","","","img/orange_2bandit_b2.png","70","","70","test","1","","88","","","","circle","square","85","20","4","0.9764705882352941","","","","","","","",""
"null","1221535","SARL_v6","SARL_v6xh54u9r8","63d40c35b4ca8b31994cc34c","freq_resp","","","img/orange_2bandit_b.png","70","img/orange_2bandit_b.png","70","test","","","","","","","","","","","4","","","","","","","","",""
"null","1221707","SARL_v6","SARL_v6xh54u9r8","63d40c35b4ca8b31994cc34c","fixation","","","img/fixation.png","null","","","test","","","","","","","","","","","","","","","","","","","",""
"490.5","1222205","SARL_v6","SARL_v6xh54u9r8","63d40c35b4ca8b31994cc34c","infreq","","","img/blue_2bandit_b2.png","68","","68","test","1","","89","","","","circle","square","86","21","4","0.9767441860465116","","","","","","","",""
"null","1222526","SARL_v6","SARL_v6xh54u9r8","63d40c35b4ca8b31994cc34c","infreq_resp","","","img/blue_2bandit_b.png","68","img/blue_2bandit_b.png","68","test","","","","","","","","","","","4","","","","","","","","",""
"null","1222691","SARL_v6","SARL_v6xh54u9r8","63d40c35b4ca8b31994cc34c","fixation","","","img/fixation.png","null","","","test","","","","","","","","","","","","","","","","","","","",""
"319.8000000715256","1223019","SARL_v6","SARL_v6xh54u9r8","63d40c35b4ca8b31994cc34c","freq","","","img/orange_2bandit_b2.png","70","","70","test","1","","90","","","","circle","square","87","22","4","0.9770114942528736","","","","","","","",""
"null","1223506","SARL_v6","SARL_v6xh54u9r8","63d40c35b4ca8b31994cc34c","freq_resp","","","img/orange_2bandit_b.png","70","img/orange_2bandit_b.png","70","test","","","","","","","","","","","4","","","","","","","","",""
"null","1223672","SARL_v6","SARL_v6xh54u9r8","63d40c35b4ca8b31994cc34c","fixation","","","img/fixation.png","null","","","test","","","","","","","","","","","","","","","","","","","",""
"492.89999997615814","1224174","SARL_v6","SARL_v6xh54u9r8","63d40c35b4ca8b31994cc34c","infreq","","","img/blue_2bandit_b2.png","68","","68","test","1","","91","","","","circle","square","88","23","4","0.9772727272727273","","","","","","","",""
"null","1224497","SARL_v6","SARL_v6xh54u9r8","63d40c35b4ca8b31994cc34c","infreq_resp","","","img/blue_2bandit_b.png","68","img/blue_2bandit_b.png","68","test","","","","","","","","","","","4","","","","","","","","",""
"null","1224666","SARL_v6","SARL_v6xh54u9r8","63d40c35b4ca8b31994cc34c","fixation","","","img/fixation.png","null","","","test","","","","","","","","","","","","","","","","","","","",""
"387","1225060","SARL_v6","SARL_v6xh54u9r8","63d40c35b4ca8b31994cc34c","freq","","","img/orange_2bandit_b2.png","70","","70","test","1","","92","","","","circle","square","89","24","4","0.9775280898876404","","","","","","","",""
"null","1225481","SARL_v6","SARL_v6xh54u9r8","63d40c35b4ca8b31994cc34c","freq_resp","","","img/orange_2bandit_b.png","70","img/orange_2bandit_b.png","70","test","","","","","","","","","","","4","","","","","","","","",""
"null","1225644","SARL_v6","SARL_v6xh54u9r8","63d40c35b4ca8b31994cc34c","fixation","","","img/fixation.png","null","","","test","","","","","","","","","","","","","","","","","","","",""
"307.10000002384186","1225959","SARL_v6","SARL_v6xh54u9r8","63d40c35b4ca8b31994cc34c","freq","","","img/orange_2bandit_b2.png","70","","70","test","1","","93","","","","circle","square","90","25","4","0.9777777777777777","","","","","","","",""
"null","1226464","SARL_v6","SARL_v6xh54u9r8","63d40c35b4ca8b31994cc34c","freq_resp","","","img/orange_2bandit_b.png","70","img/orange_2bandit_b.png","70","test","","","","","","","","","","","4","","","","","","","","",""
"null","1226628","SARL_v6","SARL_v6xh54u9r8","63d40c35b4ca8b31994cc34c","fixation","","","img/fixation.png","null","","","test","","","","","","","","","","","","","","","","","","","",""
"788.3999999761581","1227424","SARL_v6","SARL_v6xh54u9r8","63d40c35b4ca8b31994cc34c","rl","","","img/black_2bandit_b2.png","75","","0","test","","","94","","","0","circle","square","","0","4","","75","-12","0","-12","0","square","4","0"
"null","1228186","SARL_v6","SARL_v6xh54u9r8","63d40c35b4ca8b31994cc34c","feedback","","","<div class=""verylowPoints_sq""> 0 </div>","null","","na","test","","","NaN","","","","","","","","4","","75","","","","","","4",""
"466.10000002384186","1228661","SARL_v6","SARL_v6xh54u9r8","63d40c35b4ca8b31994cc34c","freq","","","img/orange_2bandit_b2.png","70","","70","test","1","","95","","","","circle","square","91","1","5","0.978021978021978","","","","","","","",""
"null","1229003","SARL_v6","SARL_v6xh54u9r8","63d40c35b4ca8b31994cc34c","freq_resp","","","img/orange_2bandit_b.png","70","img/orange_2bandit_b.png","70","test","","","","","","","","","","","5","","","","","","","","",""
"null","1229163","SARL_v6","SARL_v6xh54u9r8","63d40c35b4ca8b31994cc34c","fixation","","","img/fixation.png","null","","","test","","","","","","","","","","","","","","","","","","","",""
"339.39999997615814","1229510","SARL_v6","SARL_v6xh54u9r8","63d40c35b4ca8b31994cc34c","freq","","","img/orange_2bandit_b2.png","70","","70","test","1","","96","","","","circle","square","92","2","5","0.9782608695652174","","","","","","","",""
"null","1229980","SARL_v6","SARL_v6xh54u9r8","63d40c35b4ca8b31994cc34c","freq_resp","","","img/orange_2bandit_b.png","70","img/orange_2bandit_b.png","70","test","","","","","","","","","","","5","","","","","","","","",""
"null","1230149","SARL_v6","SARL_v6xh54u9r8","63d40c35b4ca8b31994cc34c","fixation","","","img/fixation.png","null","","","test","","","","","","","","","","","","","","","","","","","",""
"352.7999999523163","1230512","SARL_v6","SARL_v6xh54u9r8","63d40c35b4ca8b31994cc34c","freq","","","img/orange_2bandit_b2.png","70","","70","test","1","","97","","","","circle","square","93","3","5","0.978494623655914","","","","","","","",""
"null","1230980","SARL_v6","SARL_v6xh54u9r8","63d40c35b4ca8b31994cc34c","freq_resp","","","img/orange_2bandit_b.png","70","img/orange_2bandit_b.png","70","test","","","","","","","","","","","5","","","","","","","","",""
"null","1231151","SARL_v6","SARL_v6xh54u9r8","63d40c35b4ca8b31994cc34c","fixation","","","img/fixation.png","null","","","test","","","","","","","","","","","","","","","","","","","",""
"318.39999997615814","1231473","SARL_v6","SARL_v6xh54u9r8","63d40c35b4ca8b31994cc34c","freq","","","img/orange_2bandit_b2.png","70","","70","test","1","","98","","","","circle","square","94","4","5","0.9787234042553191","","","","","","","",""
"null","1231966","SARL_v6","SARL_v6xh54u9r8","63d40c35b4ca8b31994cc34c","freq_resp","","","img/orange_2bandit_b.png","70","img/orange_2bandit_b.png","70","test","","","","","","","","","","","5","","","","","","","","",""
"null","1232136","SARL_v6","SARL_v6xh54u9r8","63d40c35b4ca8b31994cc34c","fixation","","","img/fixation.png","null","","","test","","","","","","","","","","","","","","","","","","","",""
"305","1232449","SARL_v6","SARL_v6xh54u9r8","63d40c35b4ca8b31994cc34c","freq","","","img/orange_2bandit_b2.png","70","","70","test","1","","99","","","","circle","square","95","5","5","0.9789473684210527","","","","","","","",""
"null","1232954","SARL_v6","SARL_v6xh54u9r8","63d40c35b4ca8b31994cc34c","freq_resp","","","img/orange_2bandit_b.png","70","img/orange_2bandit_b.png","70","test","","","","","","","","","","","5","","","","","","","","",""
"null","1233122","SARL_v6","SARL_v6xh54u9r8","63d40c35b4ca8b31994cc34c","fixation","","","img/fixation.png","null","","","test","","","","","","","","","","","","","","","","","","","",""
"376.6999999284744","1233503","SARL_v6","SARL_v6xh54u9r8","63d40c35b4ca8b31994cc34c","freq","","","img/orange_2bandit_b2.png","70","","70","test","1","","100","","","","circle","square","96","6","5","0.9791666666666666","","","","","","","",""
"null","1233939","SARL_v6","SARL_v6xh54u9r8","63d40c35b4ca8b31994cc34c","freq_resp","","","img/orange_2bandit_b.png","70","img/orange_2bandit_b.png","70","test","","","","","","","","","","","5","","","","","","","","",""
"null","1234098","SARL_v6","SARL_v6xh54u9r8","63d40c35b4ca8b31994cc34c","fixation","","","img/fixation.png","null","","","test","","","","","","","","","","","","","","","","","","","",""
"506.90000009536743","1234618","SARL_v6","SARL_v6xh54u9r8","63d40c35b4ca8b31994cc34c","freq","","","img/orange_2bandit_b2.png","70","","70","test","1","","101","","","","circle","square","97","7","5","0.979381443298969","","","","","","","",""
"null","1234921","SARL_v6","SARL_v6xh54u9r8","63d40c35b4ca8b31994cc34c","freq_resp","","","img/orange_2bandit_b.png","70","img/orange_2bandit_b.png","70","test","","","","","","","","","","","5","","","","","","","","",""
"null","1235082","SARL_v6","SARL_v6xh54u9r8","63d40c35b4ca8b31994cc34c","fixation","","","img/fixation.png","null","","","test","","","","","","","","","","","","","","","","","","","",""
"359.89999997615814","1235451","SARL_v6","SARL_v6xh54u9r8","63d40c35b4ca8b31994cc34c","freq","","","img/orange_2bandit_b2.png","70","","70","test","1","","102","","","","circle","square","98","8","5","0.9795918367346939","","","","","","","",""
"null","1235910","SARL_v6","SARL_v6xh54u9r8","63d40c35b4ca8b31994cc34c","freq_resp","","","img/orange_2bandit_b.png","70","img/orange_2bandit_b.png","70","test","","","","","","","","","","","5","","","","","","","","",""
"null","1236083","SARL_v6","SARL_v6xh54u9r8","63d40c35b4ca8b31994cc34c","fixation","","","img/fixation.png","null","","","test","","","","","","","","","","","","","","","","","","","",""
"358.5","1236451","SARL_v6","SARL_v6xh54u9r8","63d40c35b4ca8b31994cc34c","freq","","","img/orange_2bandit_b2.png","70","","70","test","1","","103","","","","circle","square","99","9","5","0.9797979797979798","","","","","","","",""
"null","1236910","SARL_v6","SARL_v6xh54u9r8","63d40c35b4ca8b31994cc34c","freq_resp","","","img/orange_2bandit_b.png","70","img/orange_2bandit_b.png","70","test","","","","","","","","","","","5","","","","","","","","",""
"null","1237086","SARL_v6","SARL_v6xh54u9r8","63d40c35b4ca8b31994cc34c","fixation","","","img/fixation.png","null","","","test","","","","","","","","","","","","","","","","","","","",""
"336.2000000476837","1237430","SARL_v6","SARL_v6xh54u9r8","63d40c35b4ca8b31994cc34c","freq","","","img/orange_2bandit_b2.png","70","","70","test","1","","104","","","","circle","square","100","10","5","0.98","","","","","","","",""
"null","1237914","SARL_v6","SARL_v6xh54u9r8","63d40c35b4ca8b31994cc34c","freq_resp","","","img/orange_2bandit_b.png","70","img/orange_2bandit_b.png","70","test","","","","","","","","","","","5","","","","","","","","",""
"null","1238084","SARL_v6","SARL_v6xh54u9r8","63d40c35b4ca8b31994cc34c","fixation","","","img/fixation.png","null","","","test","","","","","","","","","","","","","","","","","","","",""
"297.89999997615814","1238389","SARL_v6","SARL_v6xh54u9r8","63d40c35b4ca8b31994cc34c","freq","","","img/orange_2bandit_b2.png","70","","70","test","1","","105","","","","circle","square","101","11","5","0.9801980198019802","","","","","","","",""
"null","1238899","SARL_v6","SARL_v6xh54u9r8","63d40c35b4ca8b31994cc34c","freq_resp","","","img/orange_2bandit_b.png","70","img/orange_2bandit_b.png","70","test","","","","","","","","","","","5","","","","","","","","",""
"null","1239068","SARL_v6","SARL_v6xh54u9r8","63d40c35b4ca8b31994cc34c","fixation","","","img/fixation.png","null","","","test","","","","","","","","","","","","","","","","","","","",""
"328.10000002384186","1239405","SARL_v6","SARL_v6xh54u9r8","63d40c35b4ca8b31994cc34c","freq","","","img/orange_2bandit_b2.png","70","","70","test","1","","106","","","","circle","square","102","12","5","0.9803921568627451","","","","","","","",""
"null","1239893","SARL_v6","SARL_v6xh54u9r8","63d40c35b4ca8b31994cc34c","freq_resp","","","img/orange_2bandit_b.png","70","img/orange_2bandit_b.png","70","test","","","","","","","","","","","5","","","","","","","","",""
"null","1240054","SARL_v6","SARL_v6xh54u9r8","63d40c35b4ca8b31994cc34c","fixation","","","img/fixation.png","null","","","test","","","","","","","","","","","","","","","","","","","",""
"308.2000000476837","1240369","SARL_v6","SARL_v6xh54u9r8","63d40c35b4ca8b31994cc34c","freq","","","img/orange_2bandit_b2.png","70","","70","test","1","","107","","","","circle","square","103","13","5","0.9805825242718447","","","","","","","",""
"null","1240866","SARL_v6","SARL_v6xh54u9r8","63d40c35b4ca8b31994cc34c","freq_resp","","","img/orange_2bandit_b.png","70","img/orange_2bandit_b.png","70","test","","","","","","","","","","","5","","","","","","","","",""
"null","1241027","SARL_v6","SARL_v6xh54u9r8","63d40c35b4ca8b31994cc34c","fixation","","","img/fixation.png","null","","","test","","","","","","","","","","","","","","","","","","","",""
"325.10000002384186","1241359","SARL_v6","SARL_v6xh54u9r8","63d40c35b4ca8b31994cc34c","freq","","","img/orange_2bandit_b2.png","70","","70","test","1","","108","","","","circle","square","104","14","5","0.9807692307692307","","","","","","","",""
"null","1241841","SARL_v6","SARL_v6xh54u9r8","63d40c35b4ca8b31994cc34c","freq_resp","","","img/orange_2bandit_b.png","70","img/orange_2bandit_b.png","70","test","","","","","","","","","","","5","","","","","","","","",""
"null","1242006","SARL_v6","SARL_v6xh54u9r8","63d40c35b4ca8b31994cc34c","fixation","","","img/fixation.png","null","","","test","","","","","","","","","","","","","","","","","","","",""
"320","1242335","SARL_v6","SARL_v6xh54u9r8","63d40c35b4ca8b31994cc34c","freq","","","img/orange_2bandit_b2.png","70","","70","test","1","","109","","","","circle","square","105","15","5","0.9809523809523809","","","","","","","",""
"null","1242828","SARL_v6","SARL_v6xh54u9r8","63d40c35b4ca8b31994cc34c","freq_resp","","","img/orange_2bandit_b.png","70","img/orange_2bandit_b.png","70","test","","","","","","","","","","","5","","","","","","","","",""
"null","1242990","SARL_v6","SARL_v6xh54u9r8","63d40c35b4ca8b31994cc34c","fixation","","","img/fixation.png","null","","","test","","","","","","","","","","","","","","","","","","","",""
"303.2000000476837","1243300","SARL_v6","SARL_v6xh54u9r8","63d40c35b4ca8b31994cc34c","freq","","","img/orange_2bandit_b2.png","70","","70","test","1","","110","","","","circle","square","106","16","5","0.9811320754716981","","","","","","","",""
"null","1243808","SARL_v6","SARL_v6xh54u9r8","63d40c35b4ca8b31994cc34c","freq_resp","","","img/orange_2bandit_b.png","70","img/orange_2bandit_b.png","70","test","","","","","","","","","","","5","","","","","","","","",""
"null","1243972","SARL_v6","SARL_v6xh54u9r8","63d40c35b4ca8b31994cc34c","fixation","","","img/fixation.png","null","","","test","","","","","","","","","","","","","","","","","","","",""
"309.39999997615814","1244289","SARL_v6","SARL_v6xh54u9r8","63d40c35b4ca8b31994cc34c","freq","","","img/orange_2bandit_b2.png","70","","70","test","1","","111","","","","circle","square","107","17","5","0.9813084112149533","","","","","","","",""
"null","1244789","SARL_v6","SARL_v6xh54u9r8","63d40c35b4ca8b31994cc34c","freq_resp","","","img/orange_2bandit_b.png","70","img/orange_2bandit_b.png","70","test","","","","","","","","","","","5","","","","","","","","",""
"null","1244958","SARL_v6","SARL_v6xh54u9r8","63d40c35b4ca8b31994cc34c","fixation","","","img/fixation.png","null","","","test","","","","","","","","","","","","","","","","","","","",""
"323.5","1245291","SARL_v6","SARL_v6xh54u9r8","63d40c35b4ca8b31994cc34c","freq","","","img/orange_2bandit_b2.png","70","","70","test","1","","112","","","","circle","square","108","18","5","0.9814814814814815","","","","","","","",""
"null","1245787","SARL_v6","SARL_v6xh54u9r8","63d40c35b4ca8b31994cc34c","freq_resp","","","img/orange_2bandit_b.png","70","img/orange_2bandit_b.png","70","test","","","","","","","","","","","5","","","","","","","","",""
"null","1245960","SARL_v6","SARL_v6xh54u9r8","63d40c35b4ca8b31994cc34c","fixation","","","img/fixation.png","null","","","test","","","","","","","","","","","","","","","","","","","",""
"291.90000009536743","1246260","SARL_v6","SARL_v6xh54u9r8","63d40c35b4ca8b31994cc34c","freq","","","img/orange_2bandit_b2.png","70","","70","test","1","","113","","","","circle","square","109","19","5","0.981651376146789","","","","","","","",""
"null","1246779","SARL_v6","SARL_v6xh54u9r8","63d40c35b4ca8b31994cc34c","freq_resp","","","img/orange_2bandit_b.png","70","img/orange_2bandit_b.png","70","test","","","","","","","","","","","5","","","","","","","","",""
"null","1246943","SARL_v6","SARL_v6xh54u9r8","63d40c35b4ca8b31994cc34c","fixation","","","img/fixation.png","null","","","test","","","","","","","","","","","","","","","","","","","",""
"309.2000000476837","1247263","SARL_v6","SARL_v6xh54u9r8","63d40c35b4ca8b31994cc34c","freq","","","img/orange_2bandit_b2.png","70","","70","test","1","","114","","","","circle","square","110","20","5","0.9818181818181818","","","","","","","",""
"null","1247777","SARL_v6","SARL_v6xh54u9r8","63d40c35b4ca8b31994cc34c","freq_resp","","","img/orange_2bandit_b.png","70","img/orange_2bandit_b.png","70","test","","","","","","","","","","","5","","","","","","","","",""
"null","1247942","SARL_v6","SARL_v6xh54u9r8","63d40c35b4ca8b31994cc34c","fixation","","","img/fixation.png","null","","","test","","","","","","","","","","","","","","","","","","","",""
"404.09999990463257","1248354","SARL_v6","SARL_v6xh54u9r8","63d40c35b4ca8b31994cc34c","infreq","","","img/blue_2bandit_b2.png","68","","68","test","1","","115","","","","circle","square","111","21","5","0.9819819819819819","","","","","","","",""
"null","1248765","SARL_v6","SARL_v6xh54u9r8","63d40c35b4ca8b31994cc34c","infreq_resp","","","img/blue_2bandit_b.png","68","img/blue_2bandit_b.png","68","test","","","","","","","","","","","5","","","","","","","","",""
"null","1248929","SARL_v6","SARL_v6xh54u9r8","63d40c35b4ca8b31994cc34c","fixation","","","img/fixation.png","null","","","test","","","","","","","","","","","","","","","","","","","",""
"523.8999999761581","1249462","SARL_v6","SARL_v6xh54u9r8","63d40c35b4ca8b31994cc34c","infreq","","","img/blue_2bandit_b2.png","68","","68","test","1","","116","","","","circle","square","112","22","5","0.9821428571428571","","","","","","","",""
"null","1249751","SARL_v6","SARL_v6xh54u9r8","63d40c35b4ca8b31994cc34c","infreq_resp","","","img/blue_2bandit_b.png","68","img/blue_2bandit_b.png","68","test","","","","","","","","","","","5","","","","","","","","",""
"null","1249917","SARL_v6","SARL_v6xh54u9r8","63d40c35b4ca8b31994cc34c","fixation","","","img/fixation.png","null","","","test","","","","","","","","","","","","","","","","","","","",""
"434.5","1250359","SARL_v6","SARL_v6xh54u9r8","63d40c35b4ca8b31994cc34c","freq","","","img/orange_2bandit_b2.png","70","","70","test","1","","117","","","","circle","square","113","23","5","0.9823008849557522","","","","","","","",""
"null","1250733","SARL_v6","SARL_v6xh54u9r8","63d40c35b4ca8b31994cc34c","freq_resp","","","img/orange_2bandit_b.png","70","img/orange_2bandit_b.png","70","test","","","","","","","","","","","5","","","","","","","","",""
"null","1250892","SARL_v6","SARL_v6xh54u9r8","63d40c35b4ca8b31994cc34c","fixation","","","img/fixation.png","null","","","test","","","","","","","","","","","","","","","","","","","",""
"344.90000009536743","1251243","SARL_v6","SARL_v6xh54u9r8","63d40c35b4ca8b31994cc34c","freq","","","img/orange_2bandit_b2.png","70","","70","test","1","","118","","","","circle","square","114","24","5","0.9824561403508771","","","","","","","",""
"null","1251717","SARL_v6","SARL_v6xh54u9r8","63d40c35b4ca8b31994cc34c","freq_resp","","","img/orange_2bandit_b.png","70","img/orange_2bandit_b.png","70","test","","","","","","","","","","","5","","","","","","","","",""
"null","1251881","SARL_v6","SARL_v6xh54u9r8","63d40c35b4ca8b31994cc34c","fixation","","","img/fixation.png","null","","","test","","","","","","","","","","","","","","","","","","","",""
"590.8999999761581","1252480","SARL_v6","SARL_v6xh54u9r8","63d40c35b4ca8b31994cc34c","rl","","","img/black_2bandit_b2.png","75","","0","test","","","119","","","4","circle","square","","0","5","","75","-7","4","-7","4","square","5","0"
"null","1253255","SARL_v6","SARL_v6xh54u9r8","63d40c35b4ca8b31994cc34c","feedback","","","<div class=""veryhighPoints_sq""> 4 </div>","null","","na","test","","","NaN","","","","","","","","5","","75","","","","","","5",""
"536.0999999046326","1253799","SARL_v6","SARL_v6xh54u9r8","63d40c35b4ca8b31994cc34c","freq","","","img/orange_2bandit_b2.png","70","","70","test","1","","120","","","","circle","square","115","1","6","0.9826086956521739","","","","","","","",""
"null","1254076","SARL_v6","SARL_v6xh54u9r8","63d40c35b4ca8b31994cc34c","freq_resp","","","img/orange_2bandit_b.png","70","img/orange_2bandit_b.png","70","test","","","","","","","","","","","6","","","","","","","","",""
"null","1254248","SARL_v6","SARL_v6xh54u9r8","63d40c35b4ca8b31994cc34c","fixation","","","img/fixation.png","null","","","test","","","","","","","","","","","","","","","","","","","",""
"566.3000000715256","1254822","SARL_v6","SARL_v6xh54u9r8","63d40c35b4ca8b31994cc34c","freq","","","img/orange_2bandit_b2.png","70","","70","test","1","","121","","","","circle","square","116","2","6","0.9827586206896551","","","","","","","",""
"null","1255066","SARL_v6","SARL_v6xh54u9r8","63d40c35b4ca8b31994cc34c","freq_resp","","","img/orange_2bandit_b.png","70","img/orange_2bandit_b.png","70","test","","","","","","","","","","","6","","","","","","","","",""
"null","1255230","SARL_v6","SARL_v6xh54u9r8","63d40c35b4ca8b31994cc34c","fixation","","","img/fixation.png","null","","","test","","","","","","","","","","","","","","","","","","","",""
"661","1255899","SARL_v6","SARL_v6xh54u9r8","63d40c35b4ca8b31994cc34c","freq","","","img/orange_2bandit_b2.png","70","","70","test","1","","122","","","","circle","square","117","3","6","0.9829059829059829","","","","","","","",""
"null","1256059","SARL_v6","SARL_v6xh54u9r8","63d40c35b4ca8b31994cc34c","freq_resp","","","img/orange_2bandit_b.png","70","img/orange_2bandit_b.png","70","test","","","","","","","","","","","6","","","","","","","","",""
"null","1256217","SARL_v6","SARL_v6xh54u9r8","63d40c35b4ca8b31994cc34c","fixation","","","img/fixation.png","null","","","test","","","","","","","","","","","","","","","","","","","",""
"505.7000000476837","1256731","SARL_v6","SARL_v6xh54u9r8","63d40c35b4ca8b31994cc34c","infreq","","","img/blue_2bandit_b2.png","68","","68","test","1","","123","","","","circle","square","118","4","6","0.9830508474576272","","","","","","","",""
"null","1257035","SARL_v6","SARL_v6xh54u9r8","63d40c35b4ca8b31994cc34c","infreq_resp","","","img/blue_2bandit_b.png","68","img/blue_2bandit_b.png","68","test","","","","","","","","","","","6","","","","","","","","",""
"null","1257202","SARL_v6","SARL_v6xh54u9r8","63d40c35b4ca8b31994cc34c","fixation","","","img/fixation.png","null","","","test","","","","","","","","","","","","","","","","","","","",""
"480.2000000476837","1257689","SARL_v6","SARL_v6xh54u9r8","63d40c35b4ca8b31994cc34c","freq","","","img/orange_2bandit_b2.png","70","","70","test","1","","124","","","","circle","square","119","5","6","0.9831932773109243","","","","","","","",""
"null","1258027","SARL_v6","SARL_v6xh54u9r8","63d40c35b4ca8b31994cc34c","freq_resp","","","img/orange_2bandit_b.png","70","img/orange_2bandit_b.png","70","test","","","","","","","","","","","6","","","","","","","","",""
"null","1258184","SARL_v6","SARL_v6xh54u9r8","63d40c35b4ca8b31994cc34c","fixation","","","img/fixation.png","null","","","test","","","","","","","","","","","","","","","","","","","",""
"338.59999990463257","1258528","SARL_v6","SARL_v6xh54u9r8","63d40c35b4ca8b31994cc34c","freq","","","img/orange_2bandit_b2.png","70","","70","test","1","","125","","","","circle","square","120","6","6","0.9833333333333333","","","","","","","",""
"null","1258999","SARL_v6","SARL_v6xh54u9r8","63d40c35b4ca8b31994cc34c","freq_resp","","","img/orange_2bandit_b.png","70","img/orange_2bandit_b.png","70","test","","","","","","","","","","","6","","","","","","","","",""
"null","1259168","SARL_v6","SARL_v6xh54u9r8","63d40c35b4ca8b31994cc34c","fixation","","","img/fixation.png","null","","","test","","","","","","","","","","","","","","","","","","","",""
"337.59999990463257","1259513","SARL_v6","SARL_v6xh54u9r8","63d40c35b4ca8b31994cc34c","freq","","","img/orange_2bandit_b2.png","70","","70","test","1","","126","","","","circle","square","121","7","6","0.9834710743801653","","","","","","","",""
"null","1259983","SARL_v6","SARL_v6xh54u9r8","63d40c35b4ca8b31994cc34c","freq_resp","","","img/orange_2bandit_b.png","70","img/orange_2bandit_b.png","70","test","","","","","","","","","","","6","","","","","","","","",""
"null","1260154","SARL_v6","SARL_v6xh54u9r8","63d40c35b4ca8b31994cc34c","fixation","","","img/fixation.png","null","","","test","","","","","","","","","","","","","","","","","","","",""
"327.89999997615814","1260489","SARL_v6","SARL_v6xh54u9r8","63d40c35b4ca8b31994cc34c","freq","","","img/orange_2bandit_b2.png","70","","70","test","1","","127","","","","circle","square","122","8","6","0.9836065573770492","","","","","","","",""
"null","1260972","SARL_v6","SARL_v6xh54u9r8","63d40c35b4ca8b31994cc34c","freq_resp","","","img/orange_2bandit_b.png","70","img/orange_2bandit_b.png","70","test","","","","","","","","","","","6","","","","","","","","",""
"null","1261129","SARL_v6","SARL_v6xh54u9r8","63d40c35b4ca8b31994cc34c","fixation","","","img/fixation.png","null","","","test","","","","","","","","","","","","","","","","","","","",""
"453.3000000715256","1261590","SARL_v6","SARL_v6xh54u9r8","63d40c35b4ca8b31994cc34c","infreq","","","img/blue_2bandit_b2.png","68","","68","test","1","","128","","","","circle","square","123","9","6","0.983739837398374","","","","","","","",""
"null","1261956","SARL_v6","SARL_v6xh54u9r8","63d40c35b4ca8b31994cc34c","infreq_resp","","","img/blue_2bandit_b.png","68","img/blue_2bandit_b.png","68","test","","","","","","","","","","","6","","","","","","","","",""
"null","1262119","SARL_v6","SARL_v6xh54u9r8","63d40c35b4ca8b31994cc34c","fixation","","","img/fixation.png","null","","","test","","","","","","","","","","","","","","","","","","","",""
"492.3000000715256","1262620","SARL_v6","SARL_v6xh54u9r8","63d40c35b4ca8b31994cc34c","freq","","","img/orange_2bandit_b2.png","70","","70","test","1","","129","","","","circle","square","124","10","6","0.9838709677419355","","","","","","","",""
