"rt","time_elapsed","expId","subject","prolificID","trialType","rlType","attType","stimulus","key_press","stim","corrresp","phase","corr","pracCounter","trialNum","rewardOne","rewardTwo","reward","bandOne","bandTwo","attentionNum","attentionRunNum","blockNum","performance","bandChosen","circleVal","squareVal","bandOneVal","bandTwoVal","shapeChosen","rlNum","badFlag"
"2549.2000000476837","2553","SARL_v6","SARL_v6dp3xmlzy","63da9196c3e5201cbbf64c88","","","","","","","","","","","","","","","","","","","","","","","","","","","",""
"","4697","SARL_v6","SARL_v6dp3xmlzy","63da9196c3e5201cbbf64c88","fullscreen","fullscreen","fullscreen","","","","","","","","","","","","","","","","","","","","","","","","",""
"7719.900000095367","12420","SARL_v6","SARL_v6dp3xmlzy","63da9196c3e5201cbbf64c88","","","","","","","","","","","","","","","","","","","","","","","","","","","",""
"739.6999998092651","13164","SARL_v6","SARL_v6dp3xmlzy","63da9196c3e5201cbbf64c88","freqPrac","","","img/blue_2bandit_b2.png","70","img/blue_2bandit_b2.png","70","prac","1","0","","","","","","","","","","","","","","","","","",""
"739.6999998092651","13233","SARL_v6","SARL_v6dp3xmlzy","63da9196c3e5201cbbf64c88","freqPrac_resp","","","img/blue_2bandit_b.png","70","img/blue_2bandit_b.png","70","prac","","","","","","","","","","","","","","","","","","","",""
"null","13395","SARL_v6","SARL_v6dp3xmlzy","63da9196c3e5201cbbf64c88","fixation","","","img/fixation.png","null","","","prac","","","","","","","","","","","","","","","","","","","",""
"541.4000000953674","13939","SARL_v6","SARL_v6dp3xmlzy","63da9196c3e5201cbbf64c88","infreqPrac","","","img/orange_2bandit_b2.png","68","img/orange_2bandit_b2.png","68","prac","1","0","","","","","","","","","","","","","","","","","",""
"541.4000000953674","14201","SARL_v6","SARL_v6dp3xmlzy","63da9196c3e5201cbbf64c88","infreqPrac_resp","","","img/orange_2bandit_b.png","68","img/orange_2bandit_b.png","68","prac","","","","","","","","","","","","","","","","","","","",""
"null","14354","SARL_v6","SARL_v6dp3xmlzy","63da9196c3e5201cbbf64c88","fixation","","","img/fixation.png","null","","","prac","","","","","","","","","","","","","","","","","","","",""
"373.2999999523163","14730","SARL_v6","SARL_v6dp3xmlzy","63da9196c3e5201cbbf64c88","freqPrac","","","img/blue_2bandit_b2.png","70","img/blue_2bandit_b2.png","70","prac","1","0","","","","","","","","","","","","","","","","","",""
"373.2999999523163","15171","SARL_v6","SARL_v6dp3xmlzy","63da9196c3e5201cbbf64c88","freqPrac_resp","","","img/blue_2bandit_b.png","70","img/blue_2bandit_b.png","70","prac","","","","","","","","","","","","","","","","","","","",""
"null","15325","SARL_v6","SARL_v6dp3xmlzy","63da9196c3e5201cbbf64c88","fixation","","","img/fixation.png","null","","","prac","","","","","","","","","","","","","","","","","","","",""
"389.19999980926514","15717","SARL_v6","SARL_v6dp3xmlzy","63da9196c3e5201cbbf64c88","infreqPrac","","","img/orange_2bandit_b2.png","68","img/orange_2bandit_b2.png","68","prac","1","0","","","","","","","","","","","","","","","","","",""
"389.19999980926514","16132","SARL_v6","SARL_v6dp3xmlzy","63da9196c3e5201cbbf64c88","infreqPrac_resp","","","img/orange_2bandit_b.png","68","img/orange_2bandit_b.png","68","prac","","","","","","","","","","","","","","","","","","","",""
"null","16298","SARL_v6","SARL_v6dp3xmlzy","63da9196c3e5201cbbf64c88","fixation","","","img/fixation.png","null","","","prac","","","","","","","","","","","","","","","","","","","",""
"383","16683","SARL_v6","SARL_v6dp3xmlzy","63da9196c3e5201cbbf64c88","infreqPrac","","","img/orange_2bandit_b2.png","68","img/orange_2bandit_b2.png","68","prac","1","0","","","","","","","","","","","","","","","","","",""
"383","17119","SARL_v6","SARL_v6dp3xmlzy","63da9196c3e5201cbbf64c88","infreqPrac_resp","","","img/orange_2bandit_b.png","68","img/orange_2bandit_b.png","68","prac","","","","","","","","","","","","","","","","","","","",""
"null","17281","SARL_v6","SARL_v6dp3xmlzy","63da9196c3e5201cbbf64c88","fixation","","","img/fixation.png","null","","","prac","","","","","","","","","","","","","","","","","","","",""
"335.7000000476837","17619","SARL_v6","SARL_v6dp3xmlzy","63da9196c3e5201cbbf64c88","infreqPrac","","","img/orange_2bandit_b2.png","68","img/orange_2bandit_b2.png","68","prac","1","0","","","","","","","","","","","","","","","","","",""
"335.7000000476837","18089","SARL_v6","SARL_v6dp3xmlzy","63da9196c3e5201cbbf64c88","infreqPrac_resp","","","img/orange_2bandit_b.png","68","img/orange_2bandit_b.png","68","prac","","","","","","","","","","","","","","","","","","","",""
"null","18248","SARL_v6","SARL_v6dp3xmlzy","63da9196c3e5201cbbf64c88","fixation","","","img/fixation.png","null","","","prac","","","","","","","","","","","","","","","","","","","",""
"388.7000000476837","18639","SARL_v6","SARL_v6dp3xmlzy","63da9196c3e5201cbbf64c88","freqPrac","","","img/blue_2bandit_b2.png","68","img/blue_2bandit_b2.png","70","prac","0","1","","","","","","","","","","","","","","","","","",""
"388.7000000476837","19068","SARL_v6","SARL_v6dp3xmlzy","63da9196c3e5201cbbf64c88","freqPrac_resp","","","img/blue_2bandit_b.png","68","img/blue_2bandit_b.png","70","prac","","","","","","","","","","","","","","","","","","","",""
"null","20077","SARL_v6","SARL_v6dp3xmlzy","63da9196c3e5201cbbf64c88","feedback","","","img/wrongKey.png","null","","na","prac","","","","","","","","","","","","","","","","","","","",""
"null","20232","SARL_v6","SARL_v6dp3xmlzy","63da9196c3e5201cbbf64c88","fixation","","","img/fixation.png","null","","","prac","","","","","","","","","","","","","","","","","","","",""
"454.5","20689","SARL_v6","SARL_v6dp3xmlzy","63da9196c3e5201cbbf64c88","infreqPrac","","","img/orange_2bandit_b2.png","68","img/orange_2bandit_b2.png","68","prac","1","1","","","","","","","","","","","","","","","","","",""
"454.5","21045","SARL_v6","SARL_v6dp3xmlzy","63da9196c3e5201cbbf64c88","infreqPrac_resp","","","img/orange_2bandit_b.png","68","img/orange_2bandit_b.png","68","prac","","","","","","","","","","","","","","","","","","","",""
"null","21202","SARL_v6","SARL_v6dp3xmlzy","63da9196c3e5201cbbf64c88","fixation","","","img/fixation.png","null","","","prac","","","","","","","","","","","","","","","","","","","",""
"404.5","21609","SARL_v6","SARL_v6dp3xmlzy","63da9196c3e5201cbbf64c88","freqPrac","","","img/blue_2bandit_b2.png","70","img/blue_2bandit_b2.png","70","prac","1","1","","","","","","","","","","","","","","","","","",""
"404.5","22013","SARL_v6","SARL_v6dp3xmlzy","63da9196c3e5201cbbf64c88","freqPrac_resp","","","img/blue_2bandit_b.png","70","img/blue_2bandit_b.png","70","prac","","","","","","","","","","","","","","","","","","","",""
"null","22172","SARL_v6","SARL_v6dp3xmlzy","63da9196c3e5201cbbf64c88","fixation","","","img/fixation.png","null","","","prac","","","","","","","","","","","","","","","","","","","",""
"270.5","22445","SARL_v6","SARL_v6dp3xmlzy","63da9196c3e5201cbbf64c88","freqPrac","","","img/blue_2bandit_b2.png","70","img/blue_2bandit_b2.png","70","prac","1","1","","","","","","","","","","","","","","","","","",""
"270.5","22991","SARL_v6","SARL_v6dp3xmlzy","63da9196c3e5201cbbf64c88","freqPrac_resp","","","img/blue_2bandit_b.png","70","img/blue_2bandit_b.png","70","prac","","","","","","","","","","","","","","","","","","","",""
"null","23156","SARL_v6","SARL_v6dp3xmlzy","63da9196c3e5201cbbf64c88","fixation","","","img/fixation.png","null","","","prac","","","","","","","","","","","","","","","","","","","",""
"3519.4000000953674","26677","SARL_v6","SARL_v6dp3xmlzy","63da9196c3e5201cbbf64c88","","","","","","","","prac","","","","","","","","","","","","","","","","","","","",""
"754.1999998092651","27434","SARL_v6","SARL_v6dp3xmlzy","63da9196c3e5201cbbf64c88","rlPractice","","","img/black_2bandit_b2.png","74","img/black_2bandit_b2.png","","prac","","","0","","","","","","","","","","","","","","","","",""
"null","28203","SARL_v6","SARL_v6dp3xmlzy","63da9196c3e5201cbbf64c88","feedback","","","<div class=""veryhighPoints""> 10 </div>","null","","na","prac","","","1","10","-14","10","","","","","","","","","","","","","",""
"null","28363","SARL_v6","SARL_v6dp3xmlzy","63da9196c3e5201cbbf64c88","fixation","","","img/fixation.png","null","","","prac","","","","","","","","","","","","","","","","","","","",""
"864.8999998569489","29230","SARL_v6","SARL_v6dp3xmlzy","63da9196c3e5201cbbf64c88","rlPractice","","","img/black_2bandit_b2.png","74","img/black_2bandit_b2.png","","prac","","","1","","","","","","","","","","","","","","","","",""
"null","29990","SARL_v6","SARL_v6dp3xmlzy","63da9196c3e5201cbbf64c88","feedback","","","<div class=""veryhighPoints""> 5 </div>","null","","na","prac","","","2","5","-5","5","","","","","","","","","","","","","",""
"null","30147","SARL_v6","SARL_v6dp3xmlzy","63da9196c3e5201cbbf64c88","fixation","","","img/fixation.png","null","","","prac","","","","","","","","","","","","","","","","","","","",""
"233.90000009536743","30383","SARL_v6","SARL_v6dp3xmlzy","63da9196c3e5201cbbf64c88","rlPractice","","","img/black_2bandit_b2.png","74","img/black_2bandit_b2.png","","prac","","","2","","","","","","","","","","","","","","","","",""
"null","31141","SARL_v6","SARL_v6dp3xmlzy","63da9196c3e5201cbbf64c88","feedback","","","<div class=""veryhighPoints""> 30 </div>","null","","na","prac","","","3","30","2","30","","","","","","","","","","","","","",""
"null","31305","SARL_v6","SARL_v6dp3xmlzy","63da9196c3e5201cbbf64c88","fixation","","","img/fixation.png","null","","","prac","","","","","","","","","","","","","","","","","","","",""
"111.5","31419","SARL_v6","SARL_v6dp3xmlzy","63da9196c3e5201cbbf64c88","rlPractice","","","img/black_2bandit_b2.png","75","img/black_2bandit_b2.png","","prac","","","3","","","","","","","","","","","","","","","","",""
"null","32175","SARL_v6","SARL_v6dp3xmlzy","63da9196c3e5201cbbf64c88","feedback","","","<div class=""veryhighPoints_sq""> 20 </div>","null","","na","prac","","","4","-2","20","-2","","","","","","","","","","","","","",""
"null","32344","SARL_v6","SARL_v6dp3xmlzy","63da9196c3e5201cbbf64c88","fixation","","","img/fixation.png","null","","","prac","","","","","","","","","","","","","","","","","","","",""
"2147.399999856949","34494","SARL_v6","SARL_v6dp3xmlzy","63da9196c3e5201cbbf64c88","","","","","","","","prac","","","","","","","","","","","","","","","","","","","",""
"null","35302","SARL_v6","SARL_v6dp3xmlzy","63da9196c3e5201cbbf64c88","mixAttFreqPrac","","","img/blue_2bandit_b2.png","null","img/blue_2bandit_b2.png","70","prac","","","1","","","","","","","","","","","","","","","","",""
"11.799999952316284","35459","SARL_v6","SARL_v6dp3xmlzy","63da9196c3e5201cbbf64c88","fixation","","","img/fixation.png","70","","","prac","","","","","","","","","","","","","","","","","","","",""
"508","35969","SARL_v6","SARL_v6dp3xmlzy","63da9196c3e5201cbbf64c88","mixAttInfreqPrac","","","img/orange_2bandit_b2.png","68","img/orange_2bandit_b2.png","68","prac","","","2","","","","","","","","","","","","","","","","",""
"508","36271","SARL_v6","SARL_v6dp3xmlzy","63da9196c3e5201cbbf64c88","infreqPrac_resp","","","img/orange_2bandit_b.png","68","img/blue_2bandit_b.png","68","prac","","","2","","","","","","","","","","","","","","","","",""
"null","36425","SARL_v6","SARL_v6dp3xmlzy","63da9196c3e5201cbbf64c88","fixation","","","img/fixation.png","null","","","prac","","","","","","","","","","","","","","","","","","","",""
"444.2000000476837","36872","SARL_v6","SARL_v6dp3xmlzy","63da9196c3e5201cbbf64c88","mixAttInfreqPrac","","","img/orange_2bandit_b2.png","68","img/orange_2bandit_b2.png","68","prac","","","3","","","","","","","","","","","","","","","","",""
"444.2000000476837","37239","SARL_v6","SARL_v6dp3xmlzy","63da9196c3e5201cbbf64c88","infreqPrac_resp","","","img/orange_2bandit_b.png","68","img/blue_2bandit_b.png","68","prac","","","3","","","","","","","","","","","","","","","","",""
"null","37400","SARL_v6","SARL_v6dp3xmlzy","63da9196c3e5201cbbf64c88","fixation","","","img/fixation.png","null","","","prac","","","","","","","","","","","","","","","","","","","",""
"395.5","37798","SARL_v6","SARL_v6dp3xmlzy","63da9196c3e5201cbbf64c88","mixAttInfreqPrac","","","img/orange_2bandit_b2.png","68","img/orange_2bandit_b2.png","68","prac","","","4","","","","","","","","","","","","","","","","",""
"395.5","38208","SARL_v6","SARL_v6dp3xmlzy","63da9196c3e5201cbbf64c88","infreqPrac_resp","","","img/orange_2bandit_b.png","68","img/blue_2bandit_b.png","68","prac","","","4","","","","","","","","","","","","","","","","",""
"null","38374","SARL_v6","SARL_v6dp3xmlzy","63da9196c3e5201cbbf64c88","fixation","","","img/fixation.png","null","","","prac","","","","","","","","","","","","","","","","","","","",""
"441.10000014305115","38817","SARL_v6","SARL_v6dp3xmlzy","63da9196c3e5201cbbf64c88","mixAttFreqPrac","","","img/blue_2bandit_b2.png","70","img/blue_2bandit_b2.png","70","prac","","","5","","","","","","","","","","","","","","","","",""
"441.10000014305115","39194","SARL_v6","SARL_v6dp3xmlzy","63da9196c3e5201cbbf64c88","freqPrac_resp","","","img/blue_2bandit_b.png","70","img/blue_2bandit_b.png","70","prac","","","5","","","","","","","","","","","","","","","","",""
"null","39363","SARL_v6","SARL_v6dp3xmlzy","63da9196c3e5201cbbf64c88","fixation","","","img/fixation.png","null","","","prac","","","","","","","","","","","","","","","","","","","",""
"620.7999999523163","39986","SARL_v6","SARL_v6dp3xmlzy","63da9196c3e5201cbbf64c88","mixRLPractice","","","img/black_2bandit_b2.png","74","img/black_2bandit_b2.png","","prac","","","5","","","","","","","","","","","","","","","","",""
"null","40751","SARL_v6","SARL_v6dp3xmlzy","63da9196c3e5201cbbf64c88","feedback","","","<div class=""verylowPoints""> -14 </div>","null","","na","prac","","","6","-14","10","-14","","","","","","","","","","","","","",""
"null","40913","SARL_v6","SARL_v6dp3xmlzy","63da9196c3e5201cbbf64c88","fixation","","","img/fixation.png","null","","","prac","","","","","","","","","","","","","","","","","","","",""
"737","41652","SARL_v6","SARL_v6dp3xmlzy","63da9196c3e5201cbbf64c88","mixAttFreqPrac","","","img/blue_2bandit_b2.png","70","img/blue_2bandit_b2.png","70","prac","","","7","","","","","","","","","","","","","","","","",""
"737","41725","SARL_v6","SARL_v6dp3xmlzy","63da9196c3e5201cbbf64c88","freqPrac_resp","","","img/blue_2bandit_b.png","70","img/blue_2bandit_b.png","70","prac","","","7","","","","","","","","","","","","","","","","",""
"null","41880","SARL_v6","SARL_v6dp3xmlzy","63da9196c3e5201cbbf64c88","fixation","","","img/fixation.png","null","","","prac","","","","","","","","","","","","","","","","","","","",""
"456.89999985694885","42339","SARL_v6","SARL_v6dp3xmlzy","63da9196c3e5201cbbf64c88","mixAttInfreqPrac","","","img/orange_2bandit_b2.png","68","img/orange_2bandit_b2.png","68","prac","","","8","","","","","","","","","","","","","","","","",""
"456.89999985694885","42688","SARL_v6","SARL_v6dp3xmlzy","63da9196c3e5201cbbf64c88","infreqPrac_resp","","","img/orange_2bandit_b.png","68","img/blue_2bandit_b.png","68","prac","","","8","","","","","","","","","","","","","","","","",""
"null","42847","SARL_v6","SARL_v6dp3xmlzy","63da9196c3e5201cbbf64c88","fixation","","","img/fixation.png","null","","","prac","","","","","","","","","","","","","","","","","","","",""
"696.4000000953674","43546","SARL_v6","SARL_v6dp3xmlzy","63da9196c3e5201cbbf64c88","mixAttFreqPrac","","","img/blue_2bandit_b2.png","70","img/blue_2bandit_b2.png","70","prac","","","9","","","","","","","","","","","","","","","","",""
"696.4000000953674","43665","SARL_v6","SARL_v6dp3xmlzy","63da9196c3e5201cbbf64c88","freqPrac_resp","","","img/blue_2bandit_b.png","70","img/blue_2bandit_b.png","70","prac","","","9","","","","","","","","","","","","","","","","",""
"null","43829","SARL_v6","SARL_v6dp3xmlzy","63da9196c3e5201cbbf64c88","fixation","","","img/fixation.png","null","","","prac","","","","","","","","","","","","","","","","","","","",""
"333","44164","SARL_v6","SARL_v6dp3xmlzy","63da9196c3e5201cbbf64c88","mixAttFreqPrac","","","img/blue_2bandit_b2.png","70","img/blue_2bandit_b2.png","70","prac","","","10","","","","","","","","","","","","","","","","",""
"333","44639","SARL_v6","SARL_v6dp3xmlzy","63da9196c3e5201cbbf64c88","freqPrac_resp","","","img/blue_2bandit_b.png","70","img/blue_2bandit_b.png","70","prac","","","10","","","","","","","","","","","","","","","","",""
"null","44802","SARL_v6","SARL_v6dp3xmlzy","63da9196c3e5201cbbf64c88","fixation","","","img/fixation.png","null","","","prac","","","","","","","","","","","","","","","","","","","",""
"375.2000000476837","45180","SARL_v6","SARL_v6dp3xmlzy","63da9196c3e5201cbbf64c88","mixAttInfreqPrac","","","img/orange_2bandit_b2.png","68","img/orange_2bandit_b2.png","68","prac","","","11","","","","","","","","","","","","","","","","",""
"375.2000000476837","45612","SARL_v6","SARL_v6dp3xmlzy","63da9196c3e5201cbbf64c88","infreqPrac_resp","","","img/orange_2bandit_b.png","68","img/blue_2bandit_b.png","68","prac","","","11","","","","","","","","","","","","","","","","",""
"null","45781","SARL_v6","SARL_v6dp3xmlzy","63da9196c3e5201cbbf64c88","fixation","","","img/fixation.png","null","","","prac","","","","","","","","","","","","","","","","","","","",""
"564.1000001430511","46347","SARL_v6","SARL_v6dp3xmlzy","63da9196c3e5201cbbf64c88","mixRLPractice","","","img/black_2bandit_b2.png","75","img/black_2bandit_b2.png","","prac","","","11","","","","","","","","","","","","","","","","",""
"null","47105","SARL_v6","SARL_v6dp3xmlzy","63da9196c3e5201cbbf64c88","feedback","","","<div class=""verylowPoints_sq""> -5 </div>","null","","na","prac","","","12","5","-5","5","","","","","","","","","","","","","",""
"null","47264","SARL_v6","SARL_v6dp3xmlzy","63da9196c3e5201cbbf64c88","fixation","","","img/fixation.png","null","","","prac","","","","","","","","","","","","","","","","","","","",""
"9490.599999904633","56757","SARL_v6","SARL_v6dp3xmlzy","63da9196c3e5201cbbf64c88","","","","","","","","prac","","","","","","","","","","","","","","","","","","","",""
"null","57561","SARL_v6","SARL_v6dp3xmlzy","63da9196c3e5201cbbf64c88","freq","","","img/blue_2bandit_b2.png","null","","70","test","0","","1","","","","circle","square","1","1","1","0","","","","","","","",""
"null","57727","SARL_v6","SARL_v6dp3xmlzy","63da9196c3e5201cbbf64c88","fixation","","","img/fixation.png","null","","","test","","","","","","","","","","","","","","","","","","","",""
"2.1000001430511475","57731","SARL_v6","SARL_v6dp3xmlzy","63da9196c3e5201cbbf64c88","freq","","","img/blue_2bandit_b2.png","70","","70","test","1","","2","","","","circle","square","2","2","1","0.5","","","","","","","",""
"null","58547","SARL_v6","SARL_v6dp3xmlzy","63da9196c3e5201cbbf64c88","freq_resp","","","img/blue_2bandit_b.png","70","img/blue_2bandit_b.png","70","test","","","","","","","","","","","1","","","","","","","","",""
"null","58711","SARL_v6","SARL_v6dp3xmlzy","63da9196c3e5201cbbf64c88","fixation","","","img/fixation.png","null","","","test","","","","","","","","","","","","","","","","","","","",""
"296.89999985694885","59010","SARL_v6","SARL_v6dp3xmlzy","63da9196c3e5201cbbf64c88","freq","","","img/blue_2bandit_b2.png","70","","70","test","1","","3","","","","circle","square","3","3","1","0.6666666666666666","","","","","","","",""
"null","59531","SARL_v6","SARL_v6dp3xmlzy","63da9196c3e5201cbbf64c88","freq_resp","","","img/blue_2bandit_b.png","70","img/blue_2bandit_b.png","70","test","","","","","","","","","","","1","","","","","","","","",""
"null","59695","SARL_v6","SARL_v6dp3xmlzy","63da9196c3e5201cbbf64c88","fixation","","","img/fixation.png","null","","","test","","","","","","","","","","","","","","","","","","","",""
"261.10000014305115","59958","SARL_v6","SARL_v6dp3xmlzy","63da9196c3e5201cbbf64c88","freq","","","img/blue_2bandit_b2.png","70","","70","test","1","","4","","","","circle","square","4","4","1","0.75","","","","","","","",""
"null","60502","SARL_v6","SARL_v6dp3xmlzy","63da9196c3e5201cbbf64c88","freq_resp","","","img/blue_2bandit_b.png","70","img/blue_2bandit_b.png","70","test","","","","","","","","","","","1","","","","","","","","",""
"null","60669","SARL_v6","SARL_v6dp3xmlzy","63da9196c3e5201cbbf64c88","fixation","","","img/fixation.png","null","","","test","","","","","","","","","","","","","","","","","","","",""
"299.7999999523163","60971","SARL_v6","SARL_v6dp3xmlzy","63da9196c3e5201cbbf64c88","freq","","","img/blue_2bandit_b2.png","70","","70","test","1","","5","","","","circle","square","5","5","1","0.8","","","","","","","",""
"null","61476","SARL_v6","SARL_v6dp3xmlzy","63da9196c3e5201cbbf64c88","freq_resp","","","img/blue_2bandit_b.png","70","img/blue_2bandit_b.png","70","test","","","","","","","","","","","1","","","","","","","","",""
"null","61641","SARL_v6","SARL_v6dp3xmlzy","63da9196c3e5201cbbf64c88","fixation","","","img/fixation.png","null","","","test","","","","","","","","","","","","","","","","","","","",""
"319.89999985694885","61963","SARL_v6","SARL_v6dp3xmlzy","63da9196c3e5201cbbf64c88","freq","","","img/blue_2bandit_b2.png","70","","70","test","1","","6","","","","circle","square","6","6","1","0.8333333333333334","","","","","","","",""
"null","62459","SARL_v6","SARL_v6dp3xmlzy","63da9196c3e5201cbbf64c88","freq_resp","","","img/blue_2bandit_b.png","70","img/blue_2bandit_b.png","70","test","","","","","","","","","","","1","","","","","","","","",""
"null","62613","SARL_v6","SARL_v6dp3xmlzy","63da9196c3e5201cbbf64c88","fixation","","","img/fixation.png","null","","","test","","","","","","","","","","","","","","","","","","","",""
"284.2999999523163","62900","SARL_v6","SARL_v6dp3xmlzy","63da9196c3e5201cbbf64c88","freq","","","img/blue_2bandit_b2.png","70","","70","test","1","","7","","","","circle","square","7","7","1","0.8571428571428571","","","","","","","",""
"null","63431","SARL_v6","SARL_v6dp3xmlzy","63da9196c3e5201cbbf64c88","freq_resp","","","img/blue_2bandit_b.png","70","img/blue_2bandit_b.png","70","test","","","","","","","","","","","1","","","","","","","","",""
"null","63587","SARL_v6","SARL_v6dp3xmlzy","63da9196c3e5201cbbf64c88","fixation","","","img/fixation.png","null","","","test","","","","","","","","","","","","","","","","","","","",""
"313","63902","SARL_v6","SARL_v6dp3xmlzy","63da9196c3e5201cbbf64c88","freq","","","img/blue_2bandit_b2.png","70","","70","test","1","","8","","","","circle","square","8","8","1","0.875","","","","","","","",""
"null","64394","SARL_v6","SARL_v6dp3xmlzy","63da9196c3e5201cbbf64c88","freq_resp","","","img/blue_2bandit_b.png","70","img/blue_2bandit_b.png","70","test","","","","","","","","","","","1","","","","","","","","",""
"null","64562","SARL_v6","SARL_v6dp3xmlzy","63da9196c3e5201cbbf64c88","fixation","","","img/fixation.png","null","","","test","","","","","","","","","","","","","","","","","","","",""
"330.60000014305115","64895","SARL_v6","SARL_v6dp3xmlzy","63da9196c3e5201cbbf64c88","freq","","","img/blue_2bandit_b2.png","70","","70","test","1","","9","","","","circle","square","9","9","1","0.8888888888888888","","","","","","","",""
"null","65370","SARL_v6","SARL_v6dp3xmlzy","63da9196c3e5201cbbf64c88","freq_resp","","","img/blue_2bandit_b.png","70","img/blue_2bandit_b.png","70","test","","","","","","","","","","","1","","","","","","","","",""
"null","65531","SARL_v6","SARL_v6dp3xmlzy","63da9196c3e5201cbbf64c88","fixation","","","img/fixation.png","null","","","test","","","","","","","","","","","","","","","","","","","",""
"271.10000014305115","65805","SARL_v6","SARL_v6dp3xmlzy","63da9196c3e5201cbbf64c88","freq","","","img/blue_2bandit_b2.png","70","","70","test","1","","10","","","","circle","square","10","10","1","0.9","","","","","","","",""
"null","66337","SARL_v6","SARL_v6dp3xmlzy","63da9196c3e5201cbbf64c88","freq_resp","","","img/blue_2bandit_b.png","70","img/blue_2bandit_b.png","70","test","","","","","","","","","","","1","","","","","","","","",""
"null","66497","SARL_v6","SARL_v6dp3xmlzy","63da9196c3e5201cbbf64c88","fixation","","","img/fixation.png","null","","","test","","","","","","","","","","","","","","","","","","","",""
"220.70000004768372","66721","SARL_v6","SARL_v6dp3xmlzy","63da9196c3e5201cbbf64c88","freq","","","img/blue_2bandit_b2.png","70","","70","test","1","","11","","","","circle","square","11","11","1","0.9090909090909091","","","","","","","",""
"null","67315","SARL_v6","SARL_v6dp3xmlzy","63da9196c3e5201cbbf64c88","freq_resp","","","img/blue_2bandit_b.png","70","img/blue_2bandit_b.png","70","test","","","","","","","","","","","1","","","","","","","","",""
"null","67468","SARL_v6","SARL_v6dp3xmlzy","63da9196c3e5201cbbf64c88","fixation","","","img/fixation.png","null","","","test","","","","","","","","","","","","","","","","","","","",""
"365.09999990463257","67836","SARL_v6","SARL_v6dp3xmlzy","63da9196c3e5201cbbf64c88","infreq","","","img/orange_2bandit_b2.png","68","","68","test","1","","12","","","","circle","square","12","12","1","0.9166666666666666","","","","","","","",""
"null","68274","SARL_v6","SARL_v6dp3xmlzy","63da9196c3e5201cbbf64c88","infreq_resp","","","img/orange_2bandit_b.png","68","img/orange_2bandit_b.png","68","test","","","","","","","","","","","1","","","","","","","","",""
"null","68440","SARL_v6","SARL_v6dp3xmlzy","63da9196c3e5201cbbf64c88","fixation","","","img/fixation.png","null","","","test","","","","","","","","","","","","","","","","","","","",""
"308.09999990463257","68751","SARL_v6","SARL_v6dp3xmlzy","63da9196c3e5201cbbf64c88","freq","","","img/blue_2bandit_b2.png","70","","70","test","1","","13","","","","circle","square","13","13","1","0.9230769230769231","","","","","","","",""
"null","69255","SARL_v6","SARL_v6dp3xmlzy","63da9196c3e5201cbbf64c88","freq_resp","","","img/blue_2bandit_b.png","70","img/blue_2bandit_b.png","70","test","","","","","","","","","","","1","","","","","","","","",""
"null","69411","SARL_v6","SARL_v6dp3xmlzy","63da9196c3e5201cbbf64c88","fixation","","","img/fixation.png","null","","","test","","","","","","","","","","","","","","","","","","","",""
"292.2999999523163","69706","SARL_v6","SARL_v6dp3xmlzy","63da9196c3e5201cbbf64c88","freq","","","img/blue_2bandit_b2.png","70","","70","test","1","","14","","","","circle","square","14","14","1","0.9285714285714286","","","","","","","",""
"null","70223","SARL_v6","SARL_v6dp3xmlzy","63da9196c3e5201cbbf64c88","freq_resp","","","img/blue_2bandit_b.png","70","img/blue_2bandit_b.png","70","test","","","","","","","","","","","1","","","","","","","","",""
"null","70377","SARL_v6","SARL_v6dp3xmlzy","63da9196c3e5201cbbf64c88","fixation","","","img/fixation.png","null","","","test","","","","","","","","","","","","","","","","","","","",""
"267.59999990463257","70648","SARL_v6","SARL_v6dp3xmlzy","63da9196c3e5201cbbf64c88","freq","","","img/blue_2bandit_b2.png","70","","70","test","1","","15","","","","circle","square","15","15","1","0.9333333333333333","","","","","","","",""
"null","71186","SARL_v6","SARL_v6dp3xmlzy","63da9196c3e5201cbbf64c88","freq_resp","","","img/blue_2bandit_b.png","70","img/blue_2bandit_b.png","70","test","","","","","","","","","","","1","","","","","","","","",""
"null","71344","SARL_v6","SARL_v6dp3xmlzy","63da9196c3e5201cbbf64c88","fixation","","","img/fixation.png","null","","","test","","","","","","","","","","","","","","","","","","","",""
"258.5","71605","SARL_v6","SARL_v6dp3xmlzy","63da9196c3e5201cbbf64c88","freq","","","img/blue_2bandit_b2.png","70","","70","test","1","","16","","","","circle","square","16","16","1","0.9375","","","","","","","",""
"null","72153","SARL_v6","SARL_v6dp3xmlzy","63da9196c3e5201cbbf64c88","freq_resp","","","img/blue_2bandit_b.png","70","img/blue_2bandit_b.png","70","test","","","","","","","","","","","1","","","","","","","","",""
"null","72312","SARL_v6","SARL_v6dp3xmlzy","63da9196c3e5201cbbf64c88","fixation","","","img/fixation.png","null","","","test","","","","","","","","","","","","","","","","","","","",""
"277.5","72592","SARL_v6","SARL_v6dp3xmlzy","63da9196c3e5201cbbf64c88","freq","","","img/blue_2bandit_b2.png","70","","70","test","1","","17","","","","circle","square","17","17","1","0.9411764705882353","","","","","","","",""
"null","73128","SARL_v6","SARL_v6dp3xmlzy","63da9196c3e5201cbbf64c88","freq_resp","","","img/blue_2bandit_b.png","70","img/blue_2bandit_b.png","70","test","","","","","","","","","","","1","","","","","","","","",""
"null","73286","SARL_v6","SARL_v6dp3xmlzy","63da9196c3e5201cbbf64c88","fixation","","","img/fixation.png","null","","","test","","","","","","","","","","","","","","","","","","","",""
"287.09999990463257","73576","SARL_v6","SARL_v6dp3xmlzy","63da9196c3e5201cbbf64c88","freq","","","img/blue_2bandit_b2.png","70","","70","test","1","","18","","","","circle","square","18","18","1","0.9444444444444444","","","","","","","",""
"null","74096","SARL_v6","SARL_v6dp3xmlzy","63da9196c3e5201cbbf64c88","freq_resp","","","img/blue_2bandit_b.png","70","img/blue_2bandit_b.png","70","test","","","","","","","","","","","1","","","","","","","","",""
"null","74259","SARL_v6","SARL_v6dp3xmlzy","63da9196c3e5201cbbf64c88","fixation","","","img/fixation.png","null","","","test","","","","","","","","","","","","","","","","","","","",""
"233.19999980926514","74495","SARL_v6","SARL_v6dp3xmlzy","63da9196c3e5201cbbf64c88","freq","","","img/blue_2bandit_b2.png","70","","70","test","1","","19","","","","circle","square","19","19","1","0.9473684210526315","","","","","","","",""
"null","75066","SARL_v6","SARL_v6dp3xmlzy","63da9196c3e5201cbbf64c88","freq_resp","","","img/blue_2bandit_b.png","70","img/blue_2bandit_b.png","70","test","","","","","","","","","","","1","","","","","","","","",""
"null","75220","SARL_v6","SARL_v6dp3xmlzy","63da9196c3e5201cbbf64c88","fixation","","","img/fixation.png","null","","","test","","","","","","","","","","","","","","","","","","","",""
"244.60000014305115","75467","SARL_v6","SARL_v6dp3xmlzy","63da9196c3e5201cbbf64c88","freq","","","img/blue_2bandit_b2.png","70","","70","test","1","","20","","","","circle","square","20","20","1","0.95","","","","","","","",""
"null","76026","SARL_v6","SARL_v6dp3xmlzy","63da9196c3e5201cbbf64c88","freq_resp","","","img/blue_2bandit_b.png","70","img/blue_2bandit_b.png","70","test","","","","","","","","","","","1","","","","","","","","",""
"null","76185","SARL_v6","SARL_v6dp3xmlzy","63da9196c3e5201cbbf64c88","fixation","","","img/fixation.png","null","","","test","","","","","","","","","","","","","","","","","","","",""
"248.79999995231628","76437","SARL_v6","SARL_v6dp3xmlzy","63da9196c3e5201cbbf64c88","freq","","","img/blue_2bandit_b2.png","70","","70","test","1","","21","","","","circle","square","21","21","1","0.9523809523809523","","","","","","","",""
"null","76993","SARL_v6","SARL_v6dp3xmlzy","63da9196c3e5201cbbf64c88","freq_resp","","","img/blue_2bandit_b.png","70","img/blue_2bandit_b.png","70","test","","","","","","","","","","","1","","","","","","","","",""
"null","77159","SARL_v6","SARL_v6dp3xmlzy","63da9196c3e5201cbbf64c88","fixation","","","img/fixation.png","null","","","test","","","","","","","","","","","","","","","","","","","",""
"384.2999999523163","77546","SARL_v6","SARL_v6dp3xmlzy","63da9196c3e5201cbbf64c88","infreq","","","img/orange_2bandit_b2.png","68","","68","test","1","","22","","","","circle","square","22","22","1","0.9545454545454546","","","","","","","",""
"null","77977","SARL_v6","SARL_v6dp3xmlzy","63da9196c3e5201cbbf64c88","infreq_resp","","","img/orange_2bandit_b.png","68","img/orange_2bandit_b.png","68","test","","","","","","","","","","","1","","","","","","","","",""
"null","78134","SARL_v6","SARL_v6dp3xmlzy","63da9196c3e5201cbbf64c88","fixation","","","img/fixation.png","null","","","test","","","","","","","","","","","","","","","","","","","",""
"499.39999985694885","78636","SARL_v6","SARL_v6dp3xmlzy","63da9196c3e5201cbbf64c88","freq","","","img/blue_2bandit_b2.png","70","","70","test","1","","23","","","","circle","square","23","23","1","0.9565217391304348","","","","","","","",""
"null","78943","SARL_v6","SARL_v6dp3xmlzy","63da9196c3e5201cbbf64c88","freq_resp","","","img/blue_2bandit_b.png","70","img/blue_2bandit_b.png","70","test","","","","","","","","","","","1","","","","","","","","",""
"null","79108","SARL_v6","SARL_v6dp3xmlzy","63da9196c3e5201cbbf64c88","fixation","","","img/fixation.png","null","","","test","","","","","","","","","","","","","","","","","","","",""
"344.7999999523163","79456","SARL_v6","SARL_v6dp3xmlzy","63da9196c3e5201cbbf64c88","freq","","","img/blue_2bandit_b2.png","70","","70","test","1","","24","","","","circle","square","24","24","1","0.9583333333333334","","","","","","","",""
"null","79918","SARL_v6","SARL_v6dp3xmlzy","63da9196c3e5201cbbf64c88","freq_resp","","","img/blue_2bandit_b.png","70","img/blue_2bandit_b.png","70","test","","","","","","","","","","","1","","","","","","","","",""
"null","80083","SARL_v6","SARL_v6dp3xmlzy","63da9196c3e5201cbbf64c88","fixation","","","img/fixation.png","null","","","test","","","","","","","","","","","","","","","","","","","",""
"270.19999980926514","80356","SARL_v6","SARL_v6dp3xmlzy","63da9196c3e5201cbbf64c88","freq","","","img/blue_2bandit_b2.png","70","","70","test","1","","25","","","","circle","square","25","25","1","0.96","","","","","","","",""
"null","80897","SARL_v6","SARL_v6dp3xmlzy","63da9196c3e5201cbbf64c88","freq_resp","","","img/blue_2bandit_b.png","70","img/blue_2bandit_b.png","70","test","","","","","","","","","","","1","","","","","","","","",""
"null","81058","SARL_v6","SARL_v6dp3xmlzy","63da9196c3e5201cbbf64c88","fixation","","","img/fixation.png","null","","","test","","","","","","","","","","","","","","","","","","","",""
"284","81345","SARL_v6","SARL_v6dp3xmlzy","63da9196c3e5201cbbf64c88","freq","","","img/blue_2bandit_b2.png","70","","70","test","1","","26","","","","circle","square","26","26","1","0.9615384615384616","","","","","","","",""
"null","81867","SARL_v6","SARL_v6dp3xmlzy","63da9196c3e5201cbbf64c88","freq_resp","","","img/blue_2bandit_b.png","70","img/blue_2bandit_b.png","70","test","","","","","","","","","","","1","","","","","","","","",""
"null","82026","SARL_v6","SARL_v6dp3xmlzy","63da9196c3e5201cbbf64c88","fixation","","","img/fixation.png","null","","","test","","","","","","","","","","","","","","","","","","","",""
"877.2000000476837","82906","SARL_v6","SARL_v6dp3xmlzy","63da9196c3e5201cbbf64c88","rl","","","img/black_2bandit_b2.png","74","","0","test","","","27","","","-3","circle","square","","0","1","","74","-3","-3","-3","-3","circle","1","0"
"null","83669","SARL_v6","SARL_v6dp3xmlzy","63da9196c3e5201cbbf64c88","feedback","","","<div class=""verylowPoints""> -3 </div>","null","","na","test","","","NaN","","","","","","","","1","","74","","","","","","1",""
"546.8999998569489","84219","SARL_v6","SARL_v6dp3xmlzy","63da9196c3e5201cbbf64c88","freq","","","img/blue_2bandit_b2.png","70","","70","test","1","","28","","","","circle","square","27","1","2","0.9629629629629629","","","","","","","",""
"null","84479","SARL_v6","SARL_v6dp3xmlzy","63da9196c3e5201cbbf64c88","freq_resp","","","img/blue_2bandit_b.png","70","img/blue_2bandit_b.png","70","test","","","","","","","","","","","2","","","","","","","","",""
"null","84642","SARL_v6","SARL_v6dp3xmlzy","63da9196c3e5201cbbf64c88","fixation","","","img/fixation.png","null","","","test","","","","","","","","","","","","","","","","","","","",""
"485.39999985694885","85130","SARL_v6","SARL_v6dp3xmlzy","63da9196c3e5201cbbf64c88","freq","","","img/blue_2bandit_b2.png","70","","70","test","1","","29","","","","circle","square","28","2","2","0.9642857142857143","","","","","","","",""
"null","85452","SARL_v6","SARL_v6dp3xmlzy","63da9196c3e5201cbbf64c88","freq_resp","","","img/blue_2bandit_b.png","70","img/blue_2bandit_b.png","70","test","","","","","","","","","","","2","","","","","","","","",""
"null","85615","SARL_v6","SARL_v6dp3xmlzy","63da9196c3e5201cbbf64c88","fixation","","","img/fixation.png","null","","","test","","","","","","","","","","","","","","","","","","","",""
"480.89999985694885","86099","SARL_v6","SARL_v6dp3xmlzy","63da9196c3e5201cbbf64c88","freq","","","img/blue_2bandit_b2.png","70","","70","test","1","","30","","","","circle","square","29","3","2","0.9655172413793104","","","","","","","",""
"null","86432","SARL_v6","SARL_v6dp3xmlzy","63da9196c3e5201cbbf64c88","freq_resp","","","img/blue_2bandit_b.png","70","img/blue_2bandit_b.png","70","test","","","","","","","","","","","2","","","","","","","","",""
"null","86596","SARL_v6","SARL_v6dp3xmlzy","63da9196c3e5201cbbf64c88","fixation","","","img/fixation.png","null","","","test","","","","","","","","","","","","","","","","","","","",""
"404.5","87003","SARL_v6","SARL_v6dp3xmlzy","63da9196c3e5201cbbf64c88","freq","","","img/blue_2bandit_b2.png","70","","70","test","1","","31","","","","circle","square","30","4","2","0.9666666666666667","","","","","","","",""
"null","87414","SARL_v6","SARL_v6dp3xmlzy","63da9196c3e5201cbbf64c88","freq_resp","","","img/blue_2bandit_b.png","70","img/blue_2bandit_b.png","70","test","","","","","","","","","","","2","","","","","","","","",""
"null","87568","SARL_v6","SARL_v6dp3xmlzy","63da9196c3e5201cbbf64c88","fixation","","","img/fixation.png","null","","","test","","","","","","","","","","","","","","","","","","","",""
"289","87860","SARL_v6","SARL_v6dp3xmlzy","63da9196c3e5201cbbf64c88","freq","","","img/blue_2bandit_b2.png","70","","70","test","1","","32","","","","circle","square","31","5","2","0.967741935483871","","","","","","","",""
"null","88388","SARL_v6","SARL_v6dp3xmlzy","63da9196c3e5201cbbf64c88","freq_resp","","","img/blue_2bandit_b.png","70","img/blue_2bandit_b.png","70","test","","","","","","","","","","","2","","","","","","","","",""
"null","88542","SARL_v6","SARL_v6dp3xmlzy","63da9196c3e5201cbbf64c88","fixation","","","img/fixation.png","null","","","test","","","","","","","","","","","","","","","","","","","",""
"314.5","88859","SARL_v6","SARL_v6dp3xmlzy","63da9196c3e5201cbbf64c88","freq","","","img/blue_2bandit_b2.png","70","","70","test","1","","33","","","","circle","square","32","6","2","0.96875","","","","","","","",""
"null","89360","SARL_v6","SARL_v6dp3xmlzy","63da9196c3e5201cbbf64c88","freq_resp","","","img/blue_2bandit_b.png","70","img/blue_2bandit_b.png","70","test","","","","","","","","","","","2","","","","","","","","",""
"null","89527","SARL_v6","SARL_v6dp3xmlzy","63da9196c3e5201cbbf64c88","fixation","","","img/fixation.png","null","","","test","","","","","","","","","","","","","","","","","","","",""
"226.19999980926514","89756","SARL_v6","SARL_v6dp3xmlzy","63da9196c3e5201cbbf64c88","freq","","","img/blue_2bandit_b2.png","70","","70","test","1","","34","","","","circle","square","33","7","2","0.9696969696969697","","","","","","","",""
"null","90332","SARL_v6","SARL_v6dp3xmlzy","63da9196c3e5201cbbf64c88","freq_resp","","","img/blue_2bandit_b.png","70","img/blue_2bandit_b.png","70","test","","","","","","","","","","","2","","","","","","","","",""
"null","90491","SARL_v6","SARL_v6dp3xmlzy","63da9196c3e5201cbbf64c88","fixation","","","img/fixation.png","null","","","test","","","","","","","","","","","","","","","","","","","",""
"120.69999980926514","90615","SARL_v6","SARL_v6dp3xmlzy","63da9196c3e5201cbbf64c88","infreq","","","img/orange_2bandit_b2.png","70","","68","test","0","","35","","","","circle","square","34","8","2","0.9411764705882353","","","","","","","",""
"null","91298","SARL_v6","SARL_v6dp3xmlzy","63da9196c3e5201cbbf64c88","infreq_resp","","","img/orange_2bandit_b.png","70","img/orange_2bandit_b.png","68","test","","","","","","","","","","","2","","","","","","","","",""
"null","91461","SARL_v6","SARL_v6dp3xmlzy","63da9196c3e5201cbbf64c88","fixation","","","img/fixation.png","null","","","test","","","","","","","","","","","","","","","","","","","",""
"524.6000001430511","91988","SARL_v6","SARL_v6dp3xmlzy","63da9196c3e5201cbbf64c88","freq","","","img/blue_2bandit_b2.png","70","","70","test","1","","36","","","","circle","square","35","9","2","0.9428571428571428","","","","","","","",""
"null","92275","SARL_v6","SARL_v6dp3xmlzy","63da9196c3e5201cbbf64c88","freq_resp","","","img/blue_2bandit_b.png","70","img/blue_2bandit_b.png","70","test","","","","","","","","","","","2","","","","","","","","",""
"null","92442","SARL_v6","SARL_v6dp3xmlzy","63da9196c3e5201cbbf64c88","fixation","","","img/fixation.png","null","","","test","","","","","","","","","","","","","","","","","","","",""
"659.3999998569489","93104","SARL_v6","SARL_v6dp3xmlzy","63da9196c3e5201cbbf64c88","freq","","","img/blue_2bandit_b2.png","70","","70","test","1","","37","","","","circle","square","36","10","2","0.9444444444444444","","","","","","","",""
"null","93259","SARL_v6","SARL_v6dp3xmlzy","63da9196c3e5201cbbf64c88","freq_resp","","","img/blue_2bandit_b.png","70","img/blue_2bandit_b.png","70","test","","","","","","","","","","","2","","","","","","","","",""
"null","93419","SARL_v6","SARL_v6dp3xmlzy","63da9196c3e5201cbbf64c88","fixation","","","img/fixation.png","null","","","test","","","","","","","","","","","","","","","","","","","",""
"749.9000000953674","94172","SARL_v6","SARL_v6dp3xmlzy","63da9196c3e5201cbbf64c88","freq","","","img/blue_2bandit_b2.png","70","","70","test","1","","38","","","","circle","square","37","11","2","0.9459459459459459","","","","","","","",""
"null","94231","SARL_v6","SARL_v6dp3xmlzy","63da9196c3e5201cbbf64c88","freq_resp","","","img/blue_2bandit_b.png","70","img/blue_2bandit_b.png","70","test","","","","","","","","","","","2","","","","","","","","",""
"null","94391","SARL_v6","SARL_v6dp3xmlzy","63da9196c3e5201cbbf64c88","fixation","","","img/fixation.png","null","","","test","","","","","","","","","","","","","","","","","","","",""
"737.7999999523163","95132","SARL_v6","SARL_v6dp3xmlzy","63da9196c3e5201cbbf64c88","freq","","","img/blue_2bandit_b2.png","70","","70","test","1","","39","","","","circle","square","38","12","2","0.9473684210526315","","","","","","","",""
"null","95212","SARL_v6","SARL_v6dp3xmlzy","63da9196c3e5201cbbf64c88","freq_resp","","","img/blue_2bandit_b.png","70","img/blue_2bandit_b.png","70","test","","","","","","","","","","","2","","","","","","","","",""
"null","95374","SARL_v6","SARL_v6dp3xmlzy","63da9196c3e5201cbbf64c88","fixation","","","img/fixation.png","null","","","test","","","","","","","","","","","","","","","","","","","",""
"638.1000001430511","96015","SARL_v6","SARL_v6dp3xmlzy","63da9196c3e5201cbbf64c88","freq","","","img/blue_2bandit_b2.png","70","","70","test","1","","40","","","","circle","square","39","13","2","0.9487179487179487","","","","","","","",""
"null","96188","SARL_v6","SARL_v6dp3xmlzy","63da9196c3e5201cbbf64c88","freq_resp","","","img/blue_2bandit_b.png","70","img/blue_2bandit_b.png","70","test","","","","","","","","","","","2","","","","","","","","",""
"null","96342","SARL_v6","SARL_v6dp3xmlzy","63da9196c3e5201cbbf64c88","fixation","","","img/fixation.png","null","","","test","","","","","","","","","","","","","","","","","","","",""
"288","96633","SARL_v6","SARL_v6dp3xmlzy","63da9196c3e5201cbbf64c88","freq","","","img/blue_2bandit_b2.png","70","","70","test","1","","41","","","","circle","square","40","14","2","0.95","","","","","","","",""
"null","97155","SARL_v6","SARL_v6dp3xmlzy","63da9196c3e5201cbbf64c88","freq_resp","","","img/blue_2bandit_b.png","70","img/blue_2bandit_b.png","70","test","","","","","","","","","","","2","","","","","","","","",""
"null","97315","SARL_v6","SARL_v6dp3xmlzy","63da9196c3e5201cbbf64c88","fixation","","","img/fixation.png","null","","","test","","","","","","","","","","","","","","","","","","","",""
"390.90000009536743","97709","SARL_v6","SARL_v6dp3xmlzy","63da9196c3e5201cbbf64c88","infreq","","","img/orange_2bandit_b2.png","68","","68","test","1","","42","","","","circle","square","41","15","2","0.9512195121951219","","","","","","","",""
"null","98136","SARL_v6","SARL_v6dp3xmlzy","63da9196c3e5201cbbf64c88","infreq_resp","","","img/orange_2bandit_b.png","68","img/orange_2bandit_b.png","68","test","","","","","","","","","","","2","","","","","","","","",""
"null","98300","SARL_v6","SARL_v6dp3xmlzy","63da9196c3e5201cbbf64c88","fixation","","","img/fixation.png","null","","","test","","","","","","","","","","","","","","","","","","","",""
"438.10000014305115","98741","SARL_v6","SARL_v6dp3xmlzy","63da9196c3e5201cbbf64c88","freq","","","img/blue_2bandit_b2.png","70","","70","test","1","","43","","","","circle","square","42","16","2","0.9523809523809523","","","","","","","",""
"null","99120","SARL_v6","SARL_v6dp3xmlzy","63da9196c3e5201cbbf64c88","freq_resp","","","img/blue_2bandit_b.png","70","img/blue_2bandit_b.png","70","test","","","","","","","","","","","2","","","","","","","","",""
"null","99274","SARL_v6","SARL_v6dp3xmlzy","63da9196c3e5201cbbf64c88","fixation","","","img/fixation.png","null","","","test","","","","","","","","","","","","","","","","","","","",""
"298","99575","SARL_v6","SARL_v6dp3xmlzy","63da9196c3e5201cbbf64c88","freq","","","img/blue_2bandit_b2.png","70","","70","test","1","","44","","","","circle","square","43","17","2","0.9534883720930233","","","","","","","",""
"null","100091","SARL_v6","SARL_v6dp3xmlzy","63da9196c3e5201cbbf64c88","freq_resp","","","img/blue_2bandit_b.png","70","img/blue_2bandit_b.png","70","test","","","","","","","","","","","2","","","","","","","","",""
"null","100256","SARL_v6","SARL_v6dp3xmlzy","63da9196c3e5201cbbf64c88","fixation","","","img/fixation.png","null","","","test","","","","","","","","","","","","","","","","","","","",""
"296","100555","SARL_v6","SARL_v6dp3xmlzy","63da9196c3e5201cbbf64c88","freq","","","img/blue_2bandit_b2.png","70","","70","test","1","","45","","","","circle","square","44","18","2","0.9545454545454546","","","","","","","",""
"null","101077","SARL_v6","SARL_v6dp3xmlzy","63da9196c3e5201cbbf64c88","freq_resp","","","img/blue_2bandit_b.png","70","img/blue_2bandit_b.png","70","test","","","","","","","","","","","2","","","","","","","","",""
"null","101241","SARL_v6","SARL_v6dp3xmlzy","63da9196c3e5201cbbf64c88","fixation","","","img/fixation.png","null","","","test","","","","","","","","","","","","","","","","","","","",""
"324.5","101568","SARL_v6","SARL_v6dp3xmlzy","63da9196c3e5201cbbf64c88","freq","","","img/blue_2bandit_b2.png","70","","70","test","1","","46","","","","circle","square","45","19","2","0.9555555555555556","","","","","","","",""
"null","102057","SARL_v6","SARL_v6dp3xmlzy","63da9196c3e5201cbbf64c88","freq_resp","","","img/blue_2bandit_b.png","70","img/blue_2bandit_b.png","70","test","","","","","","","","","","","2","","","","","","","","",""
"null","102225","SARL_v6","SARL_v6dp3xmlzy","63da9196c3e5201cbbf64c88","fixation","","","img/fixation.png","null","","","test","","","","","","","","","","","","","","","","","","","",""
"295.59999990463257","102523","SARL_v6","SARL_v6dp3xmlzy","63da9196c3e5201cbbf64c88","freq","","","img/blue_2bandit_b2.png","70","","70","test","1","","47","","","","circle","square","46","20","2","0.9565217391304348","","","","","","","",""
"null","103040","SARL_v6","SARL_v6dp3xmlzy","63da9196c3e5201cbbf64c88","freq_resp","","","img/blue_2bandit_b.png","70","img/blue_2bandit_b.png","70","test","","","","","","","","","","","2","","","","","","","","",""
"null","103199","SARL_v6","SARL_v6dp3xmlzy","63da9196c3e5201cbbf64c88","fixation","","","img/fixation.png","null","","","test","","","","","","","","","","","","","","","","","","","",""
"324.89999985694885","103527","SARL_v6","SARL_v6dp3xmlzy","63da9196c3e5201cbbf64c88","freq","","","img/blue_2bandit_b2.png","70","","70","test","1","","48","","","","circle","square","47","21","2","0.9574468085106383","","","","","","","",""
"null","104008","SARL_v6","SARL_v6dp3xmlzy","63da9196c3e5201cbbf64c88","freq_resp","","","img/blue_2bandit_b.png","70","img/blue_2bandit_b.png","70","test","","","","","","","","","","","2","","","","","","","","",""
"null","104161","SARL_v6","SARL_v6dp3xmlzy","63da9196c3e5201cbbf64c88","fixation","","","img/fixation.png","null","","","test","","","","","","","","","","","","","","","","","","","",""
"349.89999985694885","104514","SARL_v6","SARL_v6dp3xmlzy","63da9196c3e5201cbbf64c88","freq","","","img/blue_2bandit_b2.png","70","","70","test","1","","49","","","","circle","square","48","22","2","0.9583333333333334","","","","","","","",""
"null","104977","SARL_v6","SARL_v6dp3xmlzy","63da9196c3e5201cbbf64c88","freq_resp","","","img/blue_2bandit_b.png","70","img/blue_2bandit_b.png","70","test","","","","","","","","","","","2","","","","","","","","",""
"null","105146","SARL_v6","SARL_v6dp3xmlzy","63da9196c3e5201cbbf64c88","fixation","","","img/fixation.png","null","","","test","","","","","","","","","","","","","","","","","","","",""
"771.6999998092651","105921","SARL_v6","SARL_v6dp3xmlzy","63da9196c3e5201cbbf64c88","freq","","","img/blue_2bandit_b2.png","70","","70","test","1","","50","","","","circle","square","49","23","2","0.9591836734693877","","","","","","","",""
"null","105952","SARL_v6","SARL_v6dp3xmlzy","63da9196c3e5201cbbf64c88","freq_resp","","","img/blue_2bandit_b.png","70","img/blue_2bandit_b.png","70","test","","","","","","","","","","","2","","","","","","","","",""
"null","106118","SARL_v6","SARL_v6dp3xmlzy","63da9196c3e5201cbbf64c88","fixation","","","img/fixation.png","null","","","test","","","","","","","","","","","","","","","","","","","",""
"389.2999999523163","106510","SARL_v6","SARL_v6dp3xmlzy","63da9196c3e5201cbbf64c88","freq","","","img/blue_2bandit_b2.png","70","","70","test","1","","51","","","","circle","square","50","24","2","0.96","","","","","","","",""
"null","106932","SARL_v6","SARL_v6dp3xmlzy","63da9196c3e5201cbbf64c88","freq_resp","","","img/blue_2bandit_b.png","70","img/blue_2bandit_b.png","70","test","","","","","","","","","","","2","","","","","","","","",""
"null","107091","SARL_v6","SARL_v6dp3xmlzy","63da9196c3e5201cbbf64c88","fixation","","","img/fixation.png","null","","","test","","","","","","","","","","","","","","","","","","","",""
"597.7999999523163","107692","SARL_v6","SARL_v6dp3xmlzy","63da9196c3e5201cbbf64c88","rl","","","img/black_2bandit_b2.png","75","","0","test","","","52","","","-8","circle","square","","0","2","","75","-5","-8","-5","-8","square","2","0"
"null","108448","SARL_v6","SARL_v6dp3xmlzy","63da9196c3e5201cbbf64c88","feedback","","","<div class=""verylowPoints_sq""> -8 </div>","null","","na","test","","","NaN","","","","","","","","2","","75","","","","","","2",""
"513.7999999523163","108965","SARL_v6","SARL_v6dp3xmlzy","63da9196c3e5201cbbf64c88","freq","","","img/blue_2bandit_b2.png","70","","70","test","1","","53","","","","circle","square","51","1","3","0.9607843137254902","","","","","","","",""
"null","109268","SARL_v6","SARL_v6dp3xmlzy","63da9196c3e5201cbbf64c88","freq_resp","","","img/blue_2bandit_b.png","70","img/blue_2bandit_b.png","70","test","","","","","","","","","","","3","","","","","","","","",""
"null","109424","SARL_v6","SARL_v6dp3xmlzy","63da9196c3e5201cbbf64c88","fixation","","","img/fixation.png","null","","","test","","","","","","","","","","","","","","","","","","","",""
"348.5","109776","SARL_v6","SARL_v6dp3xmlzy","63da9196c3e5201cbbf64c88","freq","","","img/blue_2bandit_b2.png","70","","70","test","1","","54","","","","circle","square","52","2","3","0.9615384615384616","","","","","","","",""
"null","110236","SARL_v6","SARL_v6dp3xmlzy","63da9196c3e5201cbbf64c88","freq_resp","","","img/blue_2bandit_b.png","70","img/blue_2bandit_b.png","70","test","","","","","","","","","","","3","","","","","","","","",""
"null","110389","SARL_v6","SARL_v6dp3xmlzy","63da9196c3e5201cbbf64c88","fixation","","","img/fixation.png","null","","","test","","","","","","","","","","","","","","","","","","","",""
"334.89999985694885","110727","SARL_v6","SARL_v6dp3xmlzy","63da9196c3e5201cbbf64c88","freq","","","img/blue_2bandit_b2.png","70","","70","test","1","","55","","","","circle","square","53","3","3","0.9622641509433962","","","","","","","",""
"null","111199","SARL_v6","SARL_v6dp3xmlzy","63da9196c3e5201cbbf64c88","freq_resp","","","img/blue_2bandit_b.png","70","img/blue_2bandit_b.png","70","test","","","","","","","","","","","3","","","","","","","","",""
"null","111360","SARL_v6","SARL_v6dp3xmlzy","63da9196c3e5201cbbf64c88","fixation","","","img/fixation.png","null","","","test","","","","","","","","","","","","","","","","","","","",""
"293.5","111656","SARL_v6","SARL_v6dp3xmlzy","63da9196c3e5201cbbf64c88","freq","","","img/blue_2bandit_b2.png","70","","70","test","1","","56","","","","circle","square","54","4","3","0.9629629629629629","","","","","","","",""
"null","112172","SARL_v6","SARL_v6dp3xmlzy","63da9196c3e5201cbbf64c88","freq_resp","","","img/blue_2bandit_b.png","70","img/blue_2bandit_b.png","70","test","","","","","","","","","","","3","","","","","","","","",""
"null","112336","SARL_v6","SARL_v6dp3xmlzy","63da9196c3e5201cbbf64c88","fixation","","","img/fixation.png","null","","","test","","","","","","","","","","","","","","","","","","","",""
"269.7000000476837","112609","SARL_v6","SARL_v6dp3xmlzy","63da9196c3e5201cbbf64c88","freq","","","img/blue_2bandit_b2.png","70","","70","test","1","","57","","","","circle","square","55","5","3","0.9636363636363636","","","","","","","",""
"null","113155","SARL_v6","SARL_v6dp3xmlzy","63da9196c3e5201cbbf64c88","freq_resp","","","img/blue_2bandit_b.png","70","img/blue_2bandit_b.png","70","test","","","","","","","","","","","3","","","","","","","","",""
"null","113317","SARL_v6","SARL_v6dp3xmlzy","63da9196c3e5201cbbf64c88","fixation","","","img/fixation.png","null","","","test","","","","","","","","","","","","","","","","","","","",""
"330","113650","SARL_v6","SARL_v6dp3xmlzy","63da9196c3e5201cbbf64c88","freq","","","img/blue_2bandit_b2.png","70","","70","test","1","","58","","","","circle","square","56","6","3","0.9642857142857143","","","","","","","",""
"null","114137","SARL_v6","SARL_v6dp3xmlzy","63da9196c3e5201cbbf64c88","freq_resp","","","img/blue_2bandit_b.png","70","img/blue_2bandit_b.png","70","test","","","","","","","","","","","3","","","","","","","","",""
"null","114302","SARL_v6","SARL_v6dp3xmlzy","63da9196c3e5201cbbf64c88","fixation","","","img/fixation.png","null","","","test","","","","","","","","","","","","","","","","","","","",""
"284.7999999523163","114590","SARL_v6","SARL_v6dp3xmlzy","63da9196c3e5201cbbf64c88","freq","","","img/blue_2bandit_b2.png","70","","70","test","1","","59","","","","circle","square","57","7","3","0.9649122807017544","","","","","","","",""
"null","115118","SARL_v6","SARL_v6dp3xmlzy","63da9196c3e5201cbbf64c88","freq_resp","","","img/blue_2bandit_b.png","70","img/blue_2bandit_b.png","70","test","","","","","","","","","","","3","","","","","","","","",""
"null","115278","SARL_v6","SARL_v6dp3xmlzy","63da9196c3e5201cbbf64c88","fixation","","","img/fixation.png","null","","","test","","","","","","","","","","","","","","","","","","","",""
"365.59999990463257","115646","SARL_v6","SARL_v6dp3xmlzy","63da9196c3e5201cbbf64c88","infreq","","","img/orange_2bandit_b2.png","68","","68","test","1","","60","","","","circle","square","58","8","3","0.9655172413793104","","","","","","","",""
"null","116091","SARL_v6","SARL_v6dp3xmlzy","63da9196c3e5201cbbf64c88","infreq_resp","","","img/orange_2bandit_b.png","68","img/orange_2bandit_b.png","68","test","","","","","","","","","","","3","","","","","","","","",""
"null","116252","SARL_v6","SARL_v6dp3xmlzy","63da9196c3e5201cbbf64c88","fixation","","","img/fixation.png","null","","","test","","","","","","","","","","","","","","","","","","","",""
"351.5","116607","SARL_v6","SARL_v6dp3xmlzy","63da9196c3e5201cbbf64c88","infreq","","","img/orange_2bandit_b2.png","68","","68","test","1","","61","","","","circle","square","59","9","3","0.9661016949152542","","","","","","","",""
"null","117073","SARL_v6","SARL_v6dp3xmlzy","63da9196c3e5201cbbf64c88","infreq_resp","","","img/orange_2bandit_b.png","68","img/orange_2bandit_b.png","68","test","","","","","","","","","","","3","","","","","","","","",""
"null","117241","SARL_v6","SARL_v6dp3xmlzy","63da9196c3e5201cbbf64c88","fixation","","","img/fixation.png","null","","","test","","","","","","","","","","","","","","","","","","","",""
"430.2999999523163","117674","SARL_v6","SARL_v6dp3xmlzy","63da9196c3e5201cbbf64c88","freq","","","img/blue_2bandit_b2.png","70","","70","test","1","","62","","","","circle","square","60","10","3","0.9666666666666667","","","","","","","",""
"null","118056","SARL_v6","SARL_v6dp3xmlzy","63da9196c3e5201cbbf64c88","freq_resp","","","img/blue_2bandit_b.png","70","img/blue_2bandit_b.png","70","test","","","","","","","","","","","3","","","","","","","","",""
"null","118215","SARL_v6","SARL_v6dp3xmlzy","63da9196c3e5201cbbf64c88","fixation","","","img/fixation.png","null","","","test","","","","","","","","","","","","","","","","","","","",""
"535.7999999523163","118754","SARL_v6","SARL_v6dp3xmlzy","63da9196c3e5201cbbf64c88","freq","","","img/blue_2bandit_b2.png","70","","70","test","1","","63","","","","circle","square","61","11","3","0.9672131147540983","","","","","","","",""
"null","119025","SARL_v6","SARL_v6dp3xmlzy","63da9196c3e5201cbbf64c88","freq_resp","","","img/blue_2bandit_b.png","70","img/blue_2bandit_b.png","70","test","","","","","","","","","","","3","","","","","","","","",""
"null","119189","SARL_v6","SARL_v6dp3xmlzy","63da9196c3e5201cbbf64c88","fixation","","","img/fixation.png","null","","","test","","","","","","","","","","","","","","","","","","","",""
"621.7000000476837","119813","SARL_v6","SARL_v6dp3xmlzy","63da9196c3e5201cbbf64c88","freq","","","img/blue_2bandit_b2.png","70","","70","test","1","","64","","","","circle","square","62","12","3","0.967741935483871","","","","","","","",""
"null","119998","SARL_v6","SARL_v6dp3xmlzy","63da9196c3e5201cbbf64c88","freq_resp","","","img/blue_2bandit_b.png","70","img/blue_2bandit_b.png","70","test","","","","","","","","","","","3","","","","","","","","",""
"null","120164","SARL_v6","SARL_v6dp3xmlzy","63da9196c3e5201cbbf64c88","fixation","","","img/fixation.png","null","","","test","","","","","","","","","","","","","","","","","","","",""
"405.2000000476837","120572","SARL_v6","SARL_v6dp3xmlzy","63da9196c3e5201cbbf64c88","freq","","","img/blue_2bandit_b2.png","70","","70","test","1","","65","","","","circle","square","63","13","3","0.9682539682539683","","","","","","","",""
"null","120977","SARL_v6","SARL_v6dp3xmlzy","63da9196c3e5201cbbf64c88","freq_resp","","","img/blue_2bandit_b.png","70","img/blue_2bandit_b.png","70","test","","","","","","","","","","","3","","","","","","","","",""
"null","121138","SARL_v6","SARL_v6dp3xmlzy","63da9196c3e5201cbbf64c88","fixation","","","img/fixation.png","null","","","test","","","","","","","","","","","","","","","","","","","",""
"360.90000009536743","121502","SARL_v6","SARL_v6dp3xmlzy","63da9196c3e5201cbbf64c88","freq","","","img/blue_2bandit_b2.png","70","","70","test","1","","66","","","","circle","square","64","14","3","0.96875","","","","","","","",""
"null","121948","SARL_v6","SARL_v6dp3xmlzy","63da9196c3e5201cbbf64c88","freq_resp","","","img/blue_2bandit_b.png","70","img/blue_2bandit_b.png","70","test","","","","","","","","","","","3","","","","","","","","",""
"null","122109","SARL_v6","SARL_v6dp3xmlzy","63da9196c3e5201cbbf64c88","fixation","","","img/fixation.png","null","","","test","","","","","","","","","","","","","","","","","","","",""
"247.5","122359","SARL_v6","SARL_v6dp3xmlzy","63da9196c3e5201cbbf64c88","freq","","","img/blue_2bandit_b2.png","70","","70","test","1","","67","","","","circle","square","65","15","3","0.9692307692307692","","","","","","","",""
"null","122922","SARL_v6","SARL_v6dp3xmlzy","63da9196c3e5201cbbf64c88","freq_resp","","","img/blue_2bandit_b.png","70","img/blue_2bandit_b.png","70","test","","","","","","","","","","","3","","","","","","","","",""
"null","123082","SARL_v6","SARL_v6dp3xmlzy","63da9196c3e5201cbbf64c88","fixation","","","img/fixation.png","null","","","test","","","","","","","","","","","","","","","","","","","",""
"264.69999980926514","123349","SARL_v6","SARL_v6dp3xmlzy","63da9196c3e5201cbbf64c88","freq","","","img/blue_2bandit_b2.png","70","","70","test","1","","68","","","","circle","square","66","16","3","0.9696969696969697","","","","","","","",""
"null","123889","SARL_v6","SARL_v6dp3xmlzy","63da9196c3e5201cbbf64c88","freq_resp","","","img/blue_2bandit_b.png","70","img/blue_2bandit_b.png","70","test","","","","","","","","","","","3","","","","","","","","",""
"null","124053","SARL_v6","SARL_v6dp3xmlzy","63da9196c3e5201cbbf64c88","fixation","","","img/fixation.png","null","","","test","","","","","","","","","","","","","","","","","","","",""
"306.59999990463257","124362","SARL_v6","SARL_v6dp3xmlzy","63da9196c3e5201cbbf64c88","freq","","","img/blue_2bandit_b2.png","70","","70","test","1","","69","","","","circle","square","67","17","3","0.9701492537313433","","","","","","","",""
"null","124866","SARL_v6","SARL_v6dp3xmlzy","63da9196c3e5201cbbf64c88","freq_resp","","","img/blue_2bandit_b.png","70","img/blue_2bandit_b.png","70","test","","","","","","","","","","","3","","","","","","","","",""
"null","125025","SARL_v6","SARL_v6dp3xmlzy","63da9196c3e5201cbbf64c88","fixation","","","img/fixation.png","null","","","test","","","","","","","","","","","","","","","","","","","",""
"261.7000000476837","125290","SARL_v6","SARL_v6dp3xmlzy","63da9196c3e5201cbbf64c88","freq","","","img/blue_2bandit_b2.png","70","","70","test","1","","70","","","","circle","square","68","18","3","0.9705882352941176","","","","","","","",""
"null","125840","SARL_v6","SARL_v6dp3xmlzy","63da9196c3e5201cbbf64c88","freq_resp","","","img/blue_2bandit_b.png","70","img/blue_2bandit_b.png","70","test","","","","","","","","","","","3","","","","","","","","",""
"null","125993","SARL_v6","SARL_v6dp3xmlzy","63da9196c3e5201cbbf64c88","fixation","","","img/fixation.png","null","","","test","","","","","","","","","","","","","","","","","","","",""
"425.7000000476837","126422","SARL_v6","SARL_v6dp3xmlzy","63da9196c3e5201cbbf64c88","freq","","","img/blue_2bandit_b2.png","70","","70","test","1","","71","","","","circle","square","69","19","3","0.9710144927536232","","","","","","","",""
"null","126801","SARL_v6","SARL_v6dp3xmlzy","63da9196c3e5201cbbf64c88","freq_resp","","","img/blue_2bandit_b.png","70","img/blue_2bandit_b.png","70","test","","","","","","","","","","","3","","","","","","","","",""
"null","126965","SARL_v6","SARL_v6dp3xmlzy","63da9196c3e5201cbbf64c88","fixation","","","img/fixation.png","null","","","test","","","","","","","","","","","","","","","","","","","",""
"308.59999990463257","127276","SARL_v6","SARL_v6dp3xmlzy","63da9196c3e5201cbbf64c88","freq","","","img/blue_2bandit_b2.png","70","","70","test","1","","72","","","","circle","square","70","20","3","0.9714285714285714","","","","","","","",""
"null","127779","SARL_v6","SARL_v6dp3xmlzy","63da9196c3e5201cbbf64c88","freq_resp","","","img/blue_2bandit_b.png","70","img/blue_2bandit_b.png","70","test","","","","","","","","","","","3","","","","","","","","",""
"null","127942","SARL_v6","SARL_v6dp3xmlzy","63da9196c3e5201cbbf64c88","fixation","","","img/fixation.png","null","","","test","","","","","","","","","","","","","","","","","","","",""
"261","128206","SARL_v6","SARL_v6dp3xmlzy","63da9196c3e5201cbbf64c88","freq","","","img/blue_2bandit_b2.png","70","","70","test","1","","73","","","","circle","square","71","21","3","0.971830985915493","","","","","","","",""
"null","128758","SARL_v6","SARL_v6dp3xmlzy","63da9196c3e5201cbbf64c88","freq_resp","","","img/blue_2bandit_b.png","70","img/blue_2bandit_b.png","70","test","","","","","","","","","","","3","","","","","","","","",""
"null","128924","SARL_v6","SARL_v6dp3xmlzy","63da9196c3e5201cbbf64c88","fixation","","","img/fixation.png","null","","","test","","","","","","","","","","","","","","","","","","","",""
"250.40000009536743","129177","SARL_v6","SARL_v6dp3xmlzy","63da9196c3e5201cbbf64c88","freq","","","img/blue_2bandit_b2.png","70","","70","test","1","","74","","","","circle","square","72","22","3","0.9722222222222222","","","","","","","",""
"null","129738","SARL_v6","SARL_v6dp3xmlzy","63da9196c3e5201cbbf64c88","freq_resp","","","img/blue_2bandit_b.png","70","img/blue_2bandit_b.png","70","test","","","","","","","","","","","3","","","","","","","","",""
"null","129900","SARL_v6","SARL_v6dp3xmlzy","63da9196c3e5201cbbf64c88","fixation","","","img/fixation.png","null","","","test","","","","","","","","","","","","","","","","","","","",""
"369.80000019073486","130273","SARL_v6","SARL_v6dp3xmlzy","63da9196c3e5201cbbf64c88","rl","","","img/black_2bandit_b2.png","75","","0","test","","","75","","","-8","circle","square","","0","3","","75","-4","-8","-4","-8","square","3","0"
"null","131032","SARL_v6","SARL_v6dp3xmlzy","63da9196c3e5201cbbf64c88","feedback","","","<div class=""verylowPoints_sq""> -8 </div>","null","","na","test","","","NaN","","","","","","","","3","","75","","","","","","3",""
"773.2999999523163","131808","SARL_v6","SARL_v6dp3xmlzy","63da9196c3e5201cbbf64c88","freq","","","img/blue_2bandit_b2.png","70","","70","test","1","","76","","","","circle","square","73","1","4","0.9726027397260274","","","","","","","",""
"null","131837","SARL_v6","SARL_v6dp3xmlzy","63da9196c3e5201cbbf64c88","freq_resp","","","img/blue_2bandit_b.png","70","img/blue_2bandit_b.png","70","test","","","","","","","","","","","4","","","","","","","","",""
"null","131990","SARL_v6","SARL_v6dp3xmlzy","63da9196c3e5201cbbf64c88","fixation","","","img/fixation.png","null","","","test","","","","","","","","","","","","","","","","","","","",""
"372.7000000476837","132366","SARL_v6","SARL_v6dp3xmlzy","63da9196c3e5201cbbf64c88","freq","","","img/blue_2bandit_b2.png","70","","70","test","1","","77","","","","circle","square","74","2","4","0.972972972972973","","","","","","","",""
"null","132796","SARL_v6","SARL_v6dp3xmlzy","63da9196c3e5201cbbf64c88","freq_resp","","","img/blue_2bandit_b.png","70","img/blue_2bandit_b.png","70","test","","","","","","","","","","","4","","","","","","","","",""
"null","132963","SARL_v6","SARL_v6dp3xmlzy","63da9196c3e5201cbbf64c88","fixation","","","img/fixation.png","null","","","test","","","","","","","","","","","","","","","","","","","",""
"292.09999990463257","133258","SARL_v6","SARL_v6dp3xmlzy","63da9196c3e5201cbbf64c88","freq","","","img/blue_2bandit_b2.png","70","","70","test","1","","78","","","","circle","square","75","3","4","0.9733333333333334","","","","","","","",""
"null","133777","SARL_v6","SARL_v6dp3xmlzy","63da9196c3e5201cbbf64c88","freq_resp","","","img/blue_2bandit_b.png","70","img/blue_2bandit_b.png","70","test","","","","","","","","","","","4","","","","","","","","",""
"null","133939","SARL_v6","SARL_v6dp3xmlzy","63da9196c3e5201cbbf64c88","fixation","","","img/fixation.png","null","","","test","","","","","","","","","","","","","","","","","","","",""
"274.2999999523163","134216","SARL_v6","SARL_v6dp3xmlzy","63da9196c3e5201cbbf64c88","freq","","","img/blue_2bandit_b2.png","70","","70","test","1","","79","","","","circle","square","76","4","4","0.9736842105263158","","","","","","","",""
"null","134749","SARL_v6","SARL_v6dp3xmlzy","63da9196c3e5201cbbf64c88","freq_resp","","","img/blue_2bandit_b.png","70","img/blue_2bandit_b.png","70","test","","","","","","","","","","","4","","","","","","","","",""
"null","134914","SARL_v6","SARL_v6dp3xmlzy","63da9196c3e5201cbbf64c88","fixation","","","img/fixation.png","null","","","test","","","","","","","","","","","","","","","","","","","",""
"281.09999990463257","135198","SARL_v6","SARL_v6dp3xmlzy","63da9196c3e5201cbbf64c88","freq","","","img/blue_2bandit_b2.png","70","","70","test","1","","80","","","","circle","square","77","5","4","0.974025974025974","","","","","","","",""
"null","135728","SARL_v6","SARL_v6dp3xmlzy","63da9196c3e5201cbbf64c88","freq_resp","","","img/blue_2bandit_b.png","70","img/blue_2bandit_b.png","70","test","","","","","","","","","","","4","","","","","","","","",""
"null","135896","SARL_v6","SARL_v6dp3xmlzy","63da9196c3e5201cbbf64c88","fixation","","","img/fixation.png","null","","","test","","","","","","","","","","","","","","","","","","","",""
"408.09999990463257","136307","SARL_v6","SARL_v6dp3xmlzy","63da9196c3e5201cbbf64c88","infreq","","","img/orange_2bandit_b2.png","68","","68","test","1","","81","","","","circle","square","78","6","4","0.9743589743589743","","","","","","","",""
"null","136705","SARL_v6","SARL_v6dp3xmlzy","63da9196c3e5201cbbf64c88","infreq_resp","","","img/orange_2bandit_b.png","68","img/orange_2bandit_b.png","68","test","","","","","","","","","","","4","","","","","","","","",""
"null","136864","SARL_v6","SARL_v6dp3xmlzy","63da9196c3e5201cbbf64c88","fixation","","","img/fixation.png","null","","","test","","","","","","","","","","","","","","","","","","","",""
"529.9000000953674","137397","SARL_v6","SARL_v6dp3xmlzy","63da9196c3e5201cbbf64c88","freq","","","img/blue_2bandit_b2.png","70","","70","test","1","","82","","","","circle","square","79","7","4","0.9746835443037974","","","","","","","",""
"null","137684","SARL_v6","SARL_v6dp3xmlzy","63da9196c3e5201cbbf64c88","freq_resp","","","img/blue_2bandit_b.png","70","img/blue_2bandit_b.png","70","test","","","","","","","","","","","4","","","","","","","","",""
"null","137847","SARL_v6","SARL_v6dp3xmlzy","63da9196c3e5201cbbf64c88","fixation","","","img/fixation.png","null","","","test","","","","","","","","","","","","","","","","","","","",""
"325.59999990463257","138175","SARL_v6","SARL_v6dp3xmlzy","63da9196c3e5201cbbf64c88","freq","","","img/blue_2bandit_b2.png","70","","70","test","1","","83","","","","circle","square","80","8","4","0.975","","","","","","","",""
"null","138653","SARL_v6","SARL_v6dp3xmlzy","63da9196c3e5201cbbf64c88","freq_resp","","","img/blue_2bandit_b.png","70","img/blue_2bandit_b.png","70","test","","","","","","","","","","","4","","","","","","","","",""
"null","138816","SARL_v6","SARL_v6dp3xmlzy","63da9196c3e5201cbbf64c88","fixation","","","img/fixation.png","null","","","test","","","","","","","","","","","","","","","","","","","",""
"261.69999980926514","139081","SARL_v6","SARL_v6dp3xmlzy","63da9196c3e5201cbbf64c88","freq","","","img/blue_2bandit_b2.png","70","","70","test","1","","84","","","","circle","square","81","9","4","0.9753086419753086","","","","","","","",""
"null","139632","SARL_v6","SARL_v6dp3xmlzy","63da9196c3e5201cbbf64c88","freq_resp","","","img/blue_2bandit_b.png","70","img/blue_2bandit_b.png","70","test","","","","","","","","","","","4","","","","","","","","",""
"null","139800","SARL_v6","SARL_v6dp3xmlzy","63da9196c3e5201cbbf64c88","fixation","","","img/fixation.png","null","","","test","","","","","","","","","","","","","","","","","","","",""
"309.59999990463257","140113","SARL_v6","SARL_v6dp3xmlzy","63da9196c3e5201cbbf64c88","freq","","","img/blue_2bandit_b2.png","70","","70","test","1","","85","","","","circle","square","82","10","4","0.975609756097561","","","","","","","",""
"null","140619","SARL_v6","SARL_v6dp3xmlzy","63da9196c3e5201cbbf64c88","freq_resp","","","img/blue_2bandit_b.png","70","img/blue_2bandit_b.png","70","test","","","","","","","","","","","4","","","","","","","","",""
"null","140782","SARL_v6","SARL_v6dp3xmlzy","63da9196c3e5201cbbf64c88","fixation","","","img/fixation.png","null","","","test","","","","","","","","","","","","","","","","","","","",""
"290.2999999523163","141075","SARL_v6","SARL_v6dp3xmlzy","63da9196c3e5201cbbf64c88","freq","","","img/blue_2bandit_b2.png","70","","70","test","1","","86","","","","circle","square","83","11","4","0.9759036144578314","","","","","","","",""
"null","141601","SARL_v6","SARL_v6dp3xmlzy","63da9196c3e5201cbbf64c88","freq_resp","","","img/blue_2bandit_b.png","70","img/blue_2bandit_b.png","70","test","","","","","","","","","","","4","","","","","","","","",""
"null","141767","SARL_v6","SARL_v6dp3xmlzy","63da9196c3e5201cbbf64c88","fixation","","","img/fixation.png","null","","","test","","","","","","","","","","","","","","","","","","","",""
"366.09999990463257","142136","SARL_v6","SARL_v6dp3xmlzy","63da9196c3e5201cbbf64c88","freq","","","img/blue_2bandit_b2.png","70","","70","test","1","","87","","","","circle","square","84","12","4","0.9761904761904762","","","","","","","",""
"null","142573","SARL_v6","SARL_v6dp3xmlzy","63da9196c3e5201cbbf64c88","freq_resp","","","img/blue_2bandit_b.png","70","img/blue_2bandit_b.png","70","test","","","","","","","","","","","4","","","","","","","","",""
"null","142733","SARL_v6","SARL_v6dp3xmlzy","63da9196c3e5201cbbf64c88","fixation","","","img/fixation.png","null","","","test","","","","","","","","","","","","","","","","","","","",""
"596.7000000476837","143333","SARL_v6","SARL_v6dp3xmlzy","63da9196c3e5201cbbf64c88","infreq","","","img/orange_2bandit_b2.png","68","","68","test","1","","88","","","","circle","square","85","13","4","0.9764705882352941","","","","","","","",""
"null","143551","SARL_v6","SARL_v6dp3xmlzy","63da9196c3e5201cbbf64c88","infreq_resp","","","img/orange_2bandit_b.png","68","img/orange_2bandit_b.png","68","test","","","","","","","","","","","4","","","","","","","","",""
"null","143714","SARL_v6","SARL_v6dp3xmlzy","63da9196c3e5201cbbf64c88","fixation","","","img/fixation.png","null","","","test","","","","","","","","","","","","","","","","","","","",""
"546.2999999523163","144263","SARL_v6","SARL_v6dp3xmlzy","63da9196c3e5201cbbf64c88","freq","","","img/blue_2bandit_b2.png","70","","70","test","1","","89","","","","circle","square","86","14","4","0.9767441860465116","","","","","","","",""
"null","144524","SARL_v6","SARL_v6dp3xmlzy","63da9196c3e5201cbbf64c88","freq_resp","","","img/blue_2bandit_b.png","70","img/blue_2bandit_b.png","70","test","","","","","","","","","","","4","","","","","","","","",""
"null","144683","SARL_v6","SARL_v6dp3xmlzy","63da9196c3e5201cbbf64c88","fixation","","","img/fixation.png","null","","","test","","","","","","","","","","","","","","","","","","","",""
"350.40000009536743","145036","SARL_v6","SARL_v6dp3xmlzy","63da9196c3e5201cbbf64c88","freq","","","img/blue_2bandit_b2.png","70","","70","test","1","","90","","","","circle","square","87","15","4","0.9770114942528736","","","","","","","",""
"null","145496","SARL_v6","SARL_v6dp3xmlzy","63da9196c3e5201cbbf64c88","freq_resp","","","img/blue_2bandit_b.png","70","img/blue_2bandit_b.png","70","test","","","","","","","","","","","4","","","","","","","","",""
"null","145659","SARL_v6","SARL_v6dp3xmlzy","63da9196c3e5201cbbf64c88","fixation","","","img/fixation.png","null","","","test","","","","","","","","","","","","","","","","","","","",""
"284.89999985694885","145947","SARL_v6","SARL_v6dp3xmlzy","63da9196c3e5201cbbf64c88","freq","","","img/blue_2bandit_b2.png","70","","70","test","1","","91","","","","circle","square","88","16","4","0.9772727272727273","","","","","","","",""
"null","146480","SARL_v6","SARL_v6dp3xmlzy","63da9196c3e5201cbbf64c88","freq_resp","","","img/blue_2bandit_b.png","70","img/blue_2bandit_b.png","70","test","","","","","","","","","","","4","","","","","","","","",""
"null","146638","SARL_v6","SARL_v6dp3xmlzy","63da9196c3e5201cbbf64c88","fixation","","","img/fixation.png","null","","","test","","","","","","","","","","","","","","","","","","","",""
"279.10000014305115","146920","SARL_v6","SARL_v6dp3xmlzy","63da9196c3e5201cbbf64c88","freq","","","img/blue_2bandit_b2.png","70","","70","test","1","","92","","","","circle","square","89","17","4","0.9775280898876404","","","","","","","",""
"null","147452","SARL_v6","SARL_v6dp3xmlzy","63da9196c3e5201cbbf64c88","freq_resp","","","img/blue_2bandit_b.png","70","img/blue_2bandit_b.png","70","test","","","","","","","","","","","4","","","","","","","","",""
"null","147620","SARL_v6","SARL_v6dp3xmlzy","63da9196c3e5201cbbf64c88","fixation","","","img/fixation.png","null","","","test","","","","","","","","","","","","","","","","","","","",""
"239.39999985694885","147862","SARL_v6","SARL_v6dp3xmlzy","63da9196c3e5201cbbf64c88","freq","","","img/blue_2bandit_b2.png","70","","70","test","1","","93","","","","circle","square","90","18","4","0.9777777777777777","","","","","","","",""
"null","148427","SARL_v6","SARL_v6dp3xmlzy","63da9196c3e5201cbbf64c88","freq_resp","","","img/blue_2bandit_b.png","70","img/blue_2bandit_b.png","70","test","","","","","","","","","","","4","","","","","","","","",""
"null","148589","SARL_v6","SARL_v6dp3xmlzy","63da9196c3e5201cbbf64c88","fixation","","","img/fixation.png","null","","","test","","","","","","","","","","","","","","","","","","","",""
"301.09999990463257","148893","SARL_v6","SARL_v6dp3xmlzy","63da9196c3e5201cbbf64c88","freq","","","img/blue_2bandit_b2.png","70","","70","test","1","","94","","","","circle","square","91","19","4","0.978021978021978","","","","","","","",""
"null","149396","SARL_v6","SARL_v6dp3xmlzy","63da9196c3e5201cbbf64c88","freq_resp","","","img/blue_2bandit_b.png","70","img/blue_2bandit_b.png","70","test","","","","","","","","","","","4","","","","","","","","",""
"null","149562","SARL_v6","SARL_v6dp3xmlzy","63da9196c3e5201cbbf64c88","fixation","","","img/fixation.png","null","","","test","","","","","","","","","","","","","","","","","","","",""
"969.0999999046326","150534","SARL_v6","SARL_v6dp3xmlzy","63da9196c3e5201cbbf64c88","rl","","","img/black_2bandit_b2.png","74","","0","test","","","95","","","0","circle","square","","0","4","","74","0","-12","0","-12","circle","4","0"
"null","151291","SARL_v6","SARL_v6dp3xmlzy","63da9196c3e5201cbbf64c88","feedback","","","<div class=""verylowPoints""> 0 </div>","null","","na","test","","","NaN","","","","","","","","4","","74","","","","","","4",""
"613.1999998092651","151907","SARL_v6","SARL_v6dp3xmlzy","63da9196c3e5201cbbf64c88","freq","","","img/blue_2bandit_b2.png","70","","70","test","1","","96","","","","circle","square","92","1","5","0.9782608695652174","","","","","","","",""
"null","152097","SARL_v6","SARL_v6dp3xmlzy","63da9196c3e5201cbbf64c88","freq_resp","","","img/blue_2bandit_b.png","70","img/blue_2bandit_b.png","70","test","","","","","","","","","","","5","","","","","","","","",""
"null","152257","SARL_v6","SARL_v6dp3xmlzy","63da9196c3e5201cbbf64c88","fixation","","","img/fixation.png","null","","","test","","","","","","","","","","","","","","","","","","","",""
"375","152635","SARL_v6","SARL_v6dp3xmlzy","63da9196c3e5201cbbf64c88","freq","","","img/blue_2bandit_b2.png","70","","70","test","1","","97","","","","circle","square","93","2","5","0.978494623655914","","","","","","","",""
"null","153070","SARL_v6","SARL_v6dp3xmlzy","63da9196c3e5201cbbf64c88","freq_resp","","","img/blue_2bandit_b.png","70","img/blue_2bandit_b.png","70","test","","","","","","","","","","","5","","","","","","","","",""
"null","153234","SARL_v6","SARL_v6dp3xmlzy","63da9196c3e5201cbbf64c88","fixation","","","img/fixation.png","null","","","test","","","","","","","","","","","","","","","","","","","",""
"438.59999990463257","153675","SARL_v6","SARL_v6dp3xmlzy","63da9196c3e5201cbbf64c88","freq","","","img/blue_2bandit_b2.png","70","","70","test","1","","98","","","","circle","square","94","3","5","0.9787234042553191","","","","","","","",""
"null","154051","SARL_v6","SARL_v6dp3xmlzy","63da9196c3e5201cbbf64c88","freq_resp","","","img/blue_2bandit_b.png","70","img/blue_2bandit_b.png","70","test","","","","","","","","","","","5","","","","","","","","",""
"null","154216","SARL_v6","SARL_v6dp3xmlzy","63da9196c3e5201cbbf64c88","fixation","","","img/fixation.png","null","","","test","","","","","","","","","","","","","","","","","","","",""
"325.5","154544","SARL_v6","SARL_v6dp3xmlzy","63da9196c3e5201cbbf64c88","freq","","","img/blue_2bandit_b2.png","70","","70","test","1","","99","","","","circle","square","95","4","5","0.9789473684210527","","","","","","","",""
"null","155033","SARL_v6","SARL_v6dp3xmlzy","63da9196c3e5201cbbf64c88","freq_resp","","","img/blue_2bandit_b.png","70","img/blue_2bandit_b.png","70","test","","","","","","","","","","","5","","","","","","","","",""
"null","155195","SARL_v6","SARL_v6dp3xmlzy","63da9196c3e5201cbbf64c88","fixation","","","img/fixation.png","null","","","test","","","","","","","","","","","","","","","","","","","",""
"438.60000014305115","155637","SARL_v6","SARL_v6dp3xmlzy","63da9196c3e5201cbbf64c88","freq","","","img/blue_2bandit_b2.png","70","","70","test","1","","100","","","","circle","square","96","5","5","0.9791666666666666","","","","","","","",""
"null","156016","SARL_v6","SARL_v6dp3xmlzy","63da9196c3e5201cbbf64c88","freq_resp","","","img/blue_2bandit_b.png","70","img/blue_2bandit_b.png","70","test","","","","","","","","","","","5","","","","","","","","",""
"null","156170","SARL_v6","SARL_v6dp3xmlzy","63da9196c3e5201cbbf64c88","fixation","","","img/fixation.png","null","","","test","","","","","","","","","","","","","","","","","","","",""
"310","156483","SARL_v6","SARL_v6dp3xmlzy","63da9196c3e5201cbbf64c88","freq","","","img/blue_2bandit_b2.png","70","","70","test","1","","101","","","","circle","square","97","6","5","0.979381443298969","","","","","","","",""
"null","156985","SARL_v6","SARL_v6dp3xmlzy","63da9196c3e5201cbbf64c88","freq_resp","","","img/blue_2bandit_b.png","70","img/blue_2bandit_b.png","70","test","","","","","","","","","","","5","","","","","","","","",""
"null","157147","SARL_v6","SARL_v6dp3xmlzy","63da9196c3e5201cbbf64c88","fixation","","","img/fixation.png","null","","","test","","","","","","","","","","","","","","","","","","","",""
"259.59999990463257","157409","SARL_v6","SARL_v6dp3xmlzy","63da9196c3e5201cbbf64c88","freq","","","img/blue_2bandit_b2.png","70","","70","test","1","","102","","","","circle","square","98","7","5","0.9795918367346939","","","","","","","",""
"null","157966","SARL_v6","SARL_v6dp3xmlzy","63da9196c3e5201cbbf64c88","freq_resp","","","img/blue_2bandit_b.png","70","img/blue_2bandit_b.png","70","test","","","","","","","","","","","5","","","","","","","","",""
"null","158130","SARL_v6","SARL_v6dp3xmlzy","63da9196c3e5201cbbf64c88","fixation","","","img/fixation.png","null","","","test","","","","","","","","","","","","","","","","","","","",""
"388.59999990463257","158522","SARL_v6","SARL_v6dp3xmlzy","63da9196c3e5201cbbf64c88","freq","","","img/blue_2bandit_b2.png","70","","70","test","1","","103","","","","circle","square","99","8","5","0.9797979797979798","","","","","","","",""
"null","158938","SARL_v6","SARL_v6dp3xmlzy","63da9196c3e5201cbbf64c88","freq_resp","","","img/blue_2bandit_b.png","70","img/blue_2bandit_b.png","70","test","","","","","","","","","","","5","","","","","","","","",""
"null","159094","SARL_v6","SARL_v6dp3xmlzy","63da9196c3e5201cbbf64c88","fixation","","","img/fixation.png","null","","","test","","","","","","","","","","","","","","","","","","","",""
"302.2000000476837","159398","SARL_v6","SARL_v6dp3xmlzy","63da9196c3e5201cbbf64c88","freq","","","img/blue_2bandit_b2.png","70","","70","test","1","","104","","","","circle","square","100","9","5","0.98","","","","","","","",""
"null","159906","SARL_v6","SARL_v6dp3xmlzy","63da9196c3e5201cbbf64c88","freq_resp","","","img/blue_2bandit_b.png","70","img/blue_2bandit_b.png","70","test","","","","","","","","","","","5","","","","","","","","",""
"null","160070","SARL_v6","SARL_v6dp3xmlzy","63da9196c3e5201cbbf64c88","fixation","","","img/fixation.png","null","","","test","","","","","","","","","","","","","","","","","","","",""
"291.10000014305115","160364","SARL_v6","SARL_v6dp3xmlzy","63da9196c3e5201cbbf64c88","freq","","","img/blue_2bandit_b2.png","70","","70","test","1","","105","","","","circle","square","101","10","5","0.9801980198019802","","","","","","","",""
"null","160876","SARL_v6","SARL_v6dp3xmlzy","63da9196c3e5201cbbf64c88","freq_resp","","","img/blue_2bandit_b.png","70","img/blue_2bandit_b.png","70","test","","","","","","","","","","","5","","","","","","","","",""
"null","161029","SARL_v6","SARL_v6dp3xmlzy","63da9196c3e5201cbbf64c88","fixation","","","img/fixation.png","null","","","test","","","","","","","","","","","","","","","","","","","",""
"420.7000000476837","161453","SARL_v6","SARL_v6dp3xmlzy","63da9196c3e5201cbbf64c88","infreq","","","img/orange_2bandit_b2.png","68","","68","test","1","","106","","","","circle","square","102","11","5","0.9803921568627451","","","","","","","",""
"null","161845","SARL_v6","SARL_v6dp3xmlzy","63da9196c3e5201cbbf64c88","infreq_resp","","","img/orange_2bandit_b.png","68","img/orange_2bandit_b.png","68","test","","","","","","","","","","","5","","","","","","","","",""
"null","162002","SARL_v6","SARL_v6dp3xmlzy","63da9196c3e5201cbbf64c88","fixation","","","img/fixation.png","null","","","test","","","","","","","","","","","","","","","","","","","",""
"339.2000000476837","162344","SARL_v6","SARL_v6dp3xmlzy","63da9196c3e5201cbbf64c88","freq","","","img/blue_2bandit_b2.png","70","","70","test","1","","107","","","","circle","square","103","12","5","0.9805825242718447","","","","","","","",""
"null","162820","SARL_v6","SARL_v6dp3xmlzy","63da9196c3e5201cbbf64c88","freq_resp","","","img/blue_2bandit_b.png","70","img/blue_2bandit_b.png","70","test","","","","","","","","","","","5","","","","","","","","",""
"null","162988","SARL_v6","SARL_v6dp3xmlzy","63da9196c3e5201cbbf64c88","fixation","","","img/fixation.png","null","","","test","","","","","","","","","","","","","","","","","","","",""
"415.7000000476837","163406","SARL_v6","SARL_v6dp3xmlzy","63da9196c3e5201cbbf64c88","freq","","","img/blue_2bandit_b2.png","70","","70","test","1","","108","","","","circle","square","104","13","5","0.9807692307692307","","","","","","","",""
"null","163805","SARL_v6","SARL_v6dp3xmlzy","63da9196c3e5201cbbf64c88","freq_resp","","","img/blue_2bandit_b.png","70","img/blue_2bandit_b.png","70","test","","","","","","","","","","","5","","","","","","","","",""
"null","163975","SARL_v6","SARL_v6dp3xmlzy","63da9196c3e5201cbbf64c88","fixation","","","img/fixation.png","null","","","test","","","","","","","","","","","","","","","","","","","",""
"306.30000019073486","164284","SARL_v6","SARL_v6dp3xmlzy","63da9196c3e5201cbbf64c88","freq","","","img/blue_2bandit_b2.png","70","","70","test","1","","109","","","","circle","square","105","14","5","0.9809523809523809","","","","","","","",""
"null","164786","SARL_v6","SARL_v6dp3xmlzy","63da9196c3e5201cbbf64c88","freq_resp","","","img/blue_2bandit_b.png","70","img/blue_2bandit_b.png","70","test","","","","","","","","","","","5","","","","","","","","",""
"null","164954","SARL_v6","SARL_v6dp3xmlzy","63da9196c3e5201cbbf64c88","fixation","","","img/fixation.png","null","","","test","","","","","","","","","","","","","","","","","","","",""
"260","165217","SARL_v6","SARL_v6dp3xmlzy","63da9196c3e5201cbbf64c88","freq","","","img/blue_2bandit_b2.png","70","","70","test","1","","110","","","","circle","square","106","15","5","0.9811320754716981","","","","","","","",""
"null","165767","SARL_v6","SARL_v6dp3xmlzy","63da9196c3e5201cbbf64c88","freq_resp","","","img/blue_2bandit_b.png","70","img/blue_2bandit_b.png","70","test","","","","","","","","","","","5","","","","","","","","",""
"null","165936","SARL_v6","SARL_v6dp3xmlzy","63da9196c3e5201cbbf64c88","fixation","","","img/fixation.png","null","","","test","","","","","","","","","","","","","","","","","","","",""
"438.10000014305115","166377","SARL_v6","SARL_v6dp3xmlzy","63da9196c3e5201cbbf64c88","infreq","","","img/orange_2bandit_b2.png","68","","68","test","1","","111","","","","circle","square","107","16","5","0.9813084112149533","","","","","","","",""
"null","166745","SARL_v6","SARL_v6dp3xmlzy","63da9196c3e5201cbbf64c88","infreq_resp","","","img/orange_2bandit_b.png","68","img/orange_2bandit_b.png","68","test","","","","","","","","","","","5","","","","","","","","",""
"null","166905","SARL_v6","SARL_v6dp3xmlzy","63da9196c3e5201cbbf64c88","fixation","","","img/fixation.png","null","","","test","","","","","","","","","","","","","","","","","","","",""
"457.59999990463257","167365","SARL_v6","SARL_v6dp3xmlzy","63da9196c3e5201cbbf64c88","freq","","","img/blue_2bandit_b2.png","70","","70","test","1","","112","","","","circle","square","108","17","5","0.9814814814814815","","","","","","","",""
"null","167711","SARL_v6","SARL_v6dp3xmlzy","63da9196c3e5201cbbf64c88","freq_resp","","","img/blue_2bandit_b.png","70","img/blue_2bandit_b.png","70","test","","","","","","","","","","","5","","","","","","","","",""
"null","167874","SARL_v6","SARL_v6dp3xmlzy","63da9196c3e5201cbbf64c88","fixation","","","img/fixation.png","null","","","test","","","","","","","","","","","","","","","","","","","",""
"355.10000014305115","168232","SARL_v6","SARL_v6dp3xmlzy","63da9196c3e5201cbbf64c88","freq","","","img/blue_2bandit_b2.png","70","","70","test","1","","113","","","","circle","square","109","18","5","0.981651376146789","","","","","","","",""
"null","168695","SARL_v6","SARL_v6dp3xmlzy","63da9196c3e5201cbbf64c88","freq_resp","","","img/blue_2bandit_b.png","70","img/blue_2bandit_b.png","70","test","","","","","","","","","","","5","","","","","","","","",""
"null","168860","SARL_v6","SARL_v6dp3xmlzy","63da9196c3e5201cbbf64c88","fixation","","","img/fixation.png","null","","","test","","","","","","","","","","","","","","","","","","","",""
"320.09999990463257","169183","SARL_v6","SARL_v6dp3xmlzy","63da9196c3e5201cbbf64c88","freq","","","img/blue_2bandit_b2.png","70","","70","test","1","","114","","","","circle","square","110","19","5","0.9818181818181818","","","","","","","",""
"null","169671","SARL_v6","SARL_v6dp3xmlzy","63da9196c3e5201cbbf64c88","freq_resp","","","img/blue_2bandit_b.png","70","img/blue_2bandit_b.png","70","test","","","","","","","","","","","5","","","","","","","","",""
"null","169837","SARL_v6","SARL_v6dp3xmlzy","63da9196c3e5201cbbf64c88","fixation","","","img/fixation.png","null","","","test","","","","","","","","","","","","","","","","","","","",""
"308.5","170148","SARL_v6","SARL_v6dp3xmlzy","63da9196c3e5201cbbf64c88","freq","","","img/blue_2bandit_b2.png","70","","70","test","1","","115","","","","circle","square","111","20","5","0.9819819819819819","","","","","","","",""
"null","170650","SARL_v6","SARL_v6dp3xmlzy","63da9196c3e5201cbbf64c88","freq_resp","","","img/blue_2bandit_b.png","70","img/blue_2bandit_b.png","70","test","","","","","","","","","","","5","","","","","","","","",""
"null","170816","SARL_v6","SARL_v6dp3xmlzy","63da9196c3e5201cbbf64c88","fixation","","","img/fixation.png","null","","","test","","","","","","","","","","","","","","","","","","","",""
"276.40000009536743","171095","SARL_v6","SARL_v6dp3xmlzy","63da9196c3e5201cbbf64c88","freq","","","img/blue_2bandit_b2.png","70","","70","test","1","","116","","","","circle","square","112","21","5","0.9821428571428571","","","","","","","",""
"null","171627","SARL_v6","SARL_v6dp3xmlzy","63da9196c3e5201cbbf64c88","freq_resp","","","img/blue_2bandit_b.png","70","img/blue_2bandit_b.png","70","test","","","","","","","","","","","5","","","","","","","","",""
"null","171780","SARL_v6","SARL_v6dp3xmlzy","63da9196c3e5201cbbf64c88","fixation","","","img/fixation.png","null","","","test","","","","","","","","","","","","","","","","","","","",""
"298.5","172081","SARL_v6","SARL_v6dp3xmlzy","63da9196c3e5201cbbf64c88","freq","","","img/blue_2bandit_b2.png","70","","70","test","1","","117","","","","circle","square","113","22","5","0.9823008849557522","","","","","","","",""
"null","172595","SARL_v6","SARL_v6dp3xmlzy","63da9196c3e5201cbbf64c88","freq_resp","","","img/blue_2bandit_b.png","70","img/blue_2bandit_b.png","70","test","","","","","","","","","","","5","","","","","","","","",""
"null","172753","SARL_v6","SARL_v6dp3xmlzy","63da9196c3e5201cbbf64c88","fixation","","","img/fixation.png","null","","","test","","","","","","","","","","","","","","","","","","","",""
"272.40000009536743","173029","SARL_v6","SARL_v6dp3xmlzy","63da9196c3e5201cbbf64c88","freq","","","img/blue_2bandit_b2.png","70","","70","test","1","","118","","","","circle","square","114","23","5","0.9824561403508771","","","","","","","",""
"null","173575","SARL_v6","SARL_v6dp3xmlzy","63da9196c3e5201cbbf64c88","freq_resp","","","img/blue_2bandit_b.png","70","img/blue_2bandit_b.png","70","test","","","","","","","","","","","5","","","","","","","","",""
"null","173731","SARL_v6","SARL_v6dp3xmlzy","63da9196c3e5201cbbf64c88","fixation","","","img/fixation.png","null","","","test","","","","","","","","","","","","","","","","","","","",""
"687.4000000953674","174421","SARL_v6","SARL_v6dp3xmlzy","63da9196c3e5201cbbf64c88","rl","","","img/black_2bandit_b2.png","74","","0","test","","","119","","","4","circle","square","","0","5","","74","4","-7","4","-7","circle","5","0"
"null","175177","SARL_v6","SARL_v6dp3xmlzy","63da9196c3e5201cbbf64c88","feedback","","","<div class=""veryhighPoints""> 4 </div>","null","","na","test","","","NaN","","","","","","","","5","","74","","","","","","5",""
"441.7999999523163","175622","SARL_v6","SARL_v6dp3xmlzy","63da9196c3e5201cbbf64c88","freq","","","img/blue_2bandit_b2.png","70","","70","test","1","","120","","","","circle","square","115","1","6","0.9826086956521739","","","","","","","",""
"null","175983","SARL_v6","SARL_v6dp3xmlzy","63da9196c3e5201cbbf64c88","freq_resp","","","img/blue_2bandit_b.png","70","img/blue_2bandit_b.png","70","test","","","","","","","","","","","6","","","","","","","","",""
"null","176151","SARL_v6","SARL_v6dp3xmlzy","63da9196c3e5201cbbf64c88","fixation","","","img/fixation.png","null","","","test","","","","","","","","","","","","","","","","","","","",""
"329.90000009536743","176484","SARL_v6","SARL_v6dp3xmlzy","63da9196c3e5201cbbf64c88","freq","","","img/blue_2bandit_b2.png","70","","70","test","1","","121","","","","circle","square","116","2","6","0.9827586206896551","","","","","","","",""
"null","176973","SARL_v6","SARL_v6dp3xmlzy","63da9196c3e5201cbbf64c88","freq_resp","","","img/blue_2bandit_b.png","70","img/blue_2bandit_b.png","70","test","","","","","","","","","","","6","","","","","","","","",""
"null","177127","SARL_v6","SARL_v6dp3xmlzy","63da9196c3e5201cbbf64c88","fixation","","","img/fixation.png","null","","","test","","","","","","","","","","","","","","","","","","","",""
"263.2999999523163","177393","SARL_v6","SARL_v6dp3xmlzy","63da9196c3e5201cbbf64c88","freq","","","img/blue_2bandit_b2.png","70","","70","test","1","","122","","","","circle","square","117","3","6","0.9829059829059829","","","","","","","",""
"null","177946","SARL_v6","SARL_v6dp3xmlzy","63da9196c3e5201cbbf64c88","freq_resp","","","img/blue_2bandit_b.png","70","img/blue_2bandit_b.png","70","test","","","","","","","","","","","6","","","","","","","","",""
"null","178109","SARL_v6","SARL_v6dp3xmlzy","63da9196c3e5201cbbf64c88","fixation","","","img/fixation.png","null","","","test","","","","","","","","","","","","","","","","","","","",""
"230.19999980926514","178341","SARL_v6","SARL_v6dp3xmlzy","63da9196c3e5201cbbf64c88","freq","","","img/blue_2bandit_b2.png","70","","70","test","1","","123","","","","circle","square","118","4","6","0.9830508474576272","","","","","","","",""
"null","178914","SARL_v6","SARL_v6dp3xmlzy","63da9196c3e5201cbbf64c88","freq_resp","","","img/blue_2bandit_b.png","70","img/blue_2bandit_b.png","70","test","","","","","","","","","","","6","","","","","","","","",""
"null","179081","SARL_v6","SARL_v6dp3xmlzy","63da9196c3e5201cbbf64c88","fixation","","","img/fixation.png","null","","","test","","","","","","","","","","","","","","","","","","","",""
"277.40000009536743","179361","SARL_v6","SARL_v6dp3xmlzy","63da9196c3e5201cbbf64c88","freq","","","img/blue_2bandit_b2.png","70","","70","test","1","","124","","","","circle","square","119","5","6","0.9831932773109243","","","","","","","",""
"null","179896","SARL_v6","SARL_v6dp3xmlzy","63da9196c3e5201cbbf64c88","freq_resp","","","img/blue_2bandit_b.png","70","img/blue_2bandit_b.png","70","test","","","","","","","","","","","6","","","","","","","","",""
"null","180057","SARL_v6","SARL_v6dp3xmlzy","63da9196c3e5201cbbf64c88","fixation","","","img/fixation.png","null","","","test","","","","","","","","","","","","","","","","","","","",""
"224","180284","SARL_v6","SARL_v6dp3xmlzy","63da9196c3e5201cbbf64c88","freq","","","img/blue_2bandit_b2.png","70","","70","test","1","","125","","","","circle","square","120","6","6","0.9833333333333333","","","","","","","",""
"null","180877","SARL_v6","SARL_v6dp3xmlzy","63da9196c3e5201cbbf64c88","freq_resp","","","img/blue_2bandit_b.png","70","img/blue_2bandit_b.png","70","test","","","","","","","","","","","6","","","","","","","","",""
"null","181043","SARL_v6","SARL_v6dp3xmlzy","63da9196c3e5201cbbf64c88","fixation","","","img/fixation.png","null","","","test","","","","","","","","","","","","","","","","","","","",""
"291.89999985694885","181338","SARL_v6","SARL_v6dp3xmlzy","63da9196c3e5201cbbf64c88","freq","","","img/blue_2bandit_b2.png","70","","70","test","1","","126","","","","circle","square","121","7","6","0.9834710743801653","","","","","","","",""
"null","181861","SARL_v6","SARL_v6dp3xmlzy","63da9196c3e5201cbbf64c88","freq_resp","","","img/blue_2bandit_b.png","70","img/blue_2bandit_b.png","70","test","","","","","","","","","","","6","","","","","","","","",""
"null","182025","SARL_v6","SARL_v6dp3xmlzy","63da9196c3e5201cbbf64c88","fixation","","","img/fixation.png","null","","","test","","","","","","","","","","","","","","","","","","","",""
"321.5","182349","SARL_v6","SARL_v6dp3xmlzy","63da9196c3e5201cbbf64c88","freq","","","img/blue_2bandit_b2.png","70","","70","test","1","","127","","","","circle","square","122","8","6","0.9836065573770492","","","","","","","",""
"null","182835","SARL_v6","SARL_v6dp3xmlzy","63da9196c3e5201cbbf64c88","freq_resp","","","img/blue_2bandit_b.png","70","img/blue_2bandit_b.png","70","test","","","","","","","","","","","6","","","","","","","","",""
"null","183001","SARL_v6","SARL_v6dp3xmlzy","63da9196c3e5201cbbf64c88","fixation","","","img/fixation.png","null","","","test","","","","","","","","","","","","","","","","","","","",""
"256.5","183261","SARL_v6","SARL_v6dp3xmlzy","63da9196c3e5201cbbf64c88","freq","","","img/blue_2bandit_b2.png","70","","70","test","1","","128","","","","circle","square","123","9","6","0.983739837398374","","","","","","","",""
"null","183820","SARL_v6","SARL_v6dp3xmlzy","63da9196c3e5201cbbf64c88","freq_resp","","","img/blue_2bandit_b.png","70","img/blue_2bandit_b.png","70","test","","","","","","","","","","","6","","","","","","","","",""
"null","183978","SARL_v6","SARL_v6dp3xmlzy","63da9196c3e5201cbbf64c88","fixation","","","img/fixation.png","null","","","test","","","","","","","","","","","","","","","","","","","",""
"466.7000000476837","184448","SARL_v6","SARL_v6dp3xmlzy","63da9196c3e5201cbbf64c88","infreq","","","img/orange_2bandit_b2.png","70","","68","test","0","","129","","","","circle","square","124","10","6","0.9758064516129032","","","","","","","",""
"null","184785","SARL_v6","SARL_v6dp3xmlzy","63da9196c3e5201cbbf64c88","infreq_resp","","","img/orange_2bandit_b.png","70","img/orange_2bandit_b.png","68","test","","","","","","","","","","","6","","","","","","","","",""
"null","184951","SARL_v6","SARL_v6dp3xmlzy","63da9196c3e5201cbbf64c88","fixation","","","img/fixation.png","null","","","test","","","","","","","","","","","","","","","","","","","",""
"340.40000009536743","185295","SARL_v6","SARL_v6dp3xmlzy","63da9196c3e5201cbbf64c88","freq","","","img/blue_2bandit_b2.png","70","","70","test","1","","130","","","","circle","square","125","11","6","0.976","","","","","","","",""
