"rt","time_elapsed","expId","subject","prolificID","trialType","rlType","attType","stimulus","key_press","stim","corrresp","phase","corr","pracCounter","trialNum","rewardOne","rewardTwo","reward","bandOne","bandTwo","attentionNum","attentionRunNum","blockNum","performance","bandChosen","circleVal","squareVal","bandOneVal","bandTwoVal","shapeChosen","rlNum","badFlag"
"51235.5","51241","SARL_v6","SARL_v6to0zbajs","5fdfb7d6e1442280fc095a66","","","","","","","","","","","","","","","","","","","","","","","","","","","",""
"","172174","SARL_v6","SARL_v6to0zbajs","5fdfb7d6e1442280fc095a66","fullscreen","fullscreen","fullscreen","","","","","","","","","","","","","","","","","","","","","","","","",""
"503443.5999999996","675619","SARL_v6","SARL_v6to0zbajs","5fdfb7d6e1442280fc095a66","","","","","","","","","","","","","","","","","","","","","","","","","","","",""
"null","676438","SARL_v6","SARL_v6to0zbajs","5fdfb7d6e1442280fc095a66","freqPrac","","","img/orange_2bandit_b2.png","null","img/orange_2bandit_b2.png","70","prac","0","1","","","","","","","","","","","","","","","","","",""
"null","677443","SARL_v6","SARL_v6to0zbajs","5fdfb7d6e1442280fc095a66","feedback","","","img/tooSlow.png","null","","na","prac","","","","","","","","","","","","","","","","","","","",""
"null","677596","SARL_v6","SARL_v6to0zbajs","5fdfb7d6e1442280fc095a66","fixation","","","img/fixation.png","null","","","prac","","","","","","","","","","","","","","","","","","","",""
"402.70000000018626","678004","SARL_v6","SARL_v6to0zbajs","5fdfb7d6e1442280fc095a66","infreqPrac","","","img/blue_2bandit_b2.png","68","img/blue_2bandit_b2.png","68","prac","1","1","","","","","","","","","","","","","","","","","",""
"402.70000000018626","678412","SARL_v6","SARL_v6to0zbajs","5fdfb7d6e1442280fc095a66","infreqPrac_resp","","","img/blue_2bandit_b.png","68","img/blue_2bandit_b.png","68","prac","","","","","","","","","","","","","","","","","","","",""
"null","678568","SARL_v6","SARL_v6to0zbajs","5fdfb7d6e1442280fc095a66","fixation","","","img/fixation.png","null","","","prac","","","","","","","","","","","","","","","","","","","",""
"381","678955","SARL_v6","SARL_v6to0zbajs","5fdfb7d6e1442280fc095a66","freqPrac","","","img/orange_2bandit_b2.png","70","img/orange_2bandit_b2.png","70","prac","1","1","","","","","","","","","","","","","","","","","",""
"381","679378","SARL_v6","SARL_v6to0zbajs","5fdfb7d6e1442280fc095a66","freqPrac_resp","","","img/orange_2bandit_b.png","70","img/orange_2bandit_b.png","70","prac","","","","","","","","","","","","","","","","","","","",""
"null","679534","SARL_v6","SARL_v6to0zbajs","5fdfb7d6e1442280fc095a66","fixation","","","img/fixation.png","null","","","prac","","","","","","","","","","","","","","","","","","","",""
"312.1000000005588","679849","SARL_v6","SARL_v6to0zbajs","5fdfb7d6e1442280fc095a66","infreqPrac","","","img/blue_2bandit_b2.png","68","img/blue_2bandit_b2.png","68","prac","1","1","","","","","","","","","","","","","","","","","",""
"312.1000000005588","680349","SARL_v6","SARL_v6to0zbajs","5fdfb7d6e1442280fc095a66","infreqPrac_resp","","","img/blue_2bandit_b.png","68","img/blue_2bandit_b.png","68","prac","","","","","","","","","","","","","","","","","","","",""
"null","680520","SARL_v6","SARL_v6to0zbajs","5fdfb7d6e1442280fc095a66","fixation","","","img/fixation.png","null","","","prac","","","","","","","","","","","","","","","","","","","",""
"266.59999999962747","680790","SARL_v6","SARL_v6to0zbajs","5fdfb7d6e1442280fc095a66","infreqPrac","","","img/blue_2bandit_b2.png","68","img/blue_2bandit_b2.png","68","prac","1","1","","","","","","","","","","","","","","","","","",""
"266.59999999962747","681338","SARL_v6","SARL_v6to0zbajs","5fdfb7d6e1442280fc095a66","infreqPrac_resp","","","img/blue_2bandit_b.png","68","img/blue_2bandit_b.png","68","prac","","","","","","","","","","","","","","","","","","","",""
"null","681491","SARL_v6","SARL_v6to0zbajs","5fdfb7d6e1442280fc095a66","fixation","","","img/fixation.png","null","","","prac","","","","","","","","","","","","","","","","","","","",""
"263.79999999981374","681757","SARL_v6","SARL_v6to0zbajs","5fdfb7d6e1442280fc095a66","infreqPrac","","","img/blue_2bandit_b2.png","68","img/blue_2bandit_b2.png","68","prac","1","1","","","","","","","","","","","","","","","","","",""
"263.79999999981374","682298","SARL_v6","SARL_v6to0zbajs","5fdfb7d6e1442280fc095a66","infreqPrac_resp","","","img/blue_2bandit_b.png","68","img/blue_2bandit_b.png","68","prac","","","","","","","","","","","","","","","","","","","",""
"null","682454","SARL_v6","SARL_v6to0zbajs","5fdfb7d6e1442280fc095a66","fixation","","","img/fixation.png","null","","","prac","","","","","","","","","","","","","","","","","","","",""
"341","682800","SARL_v6","SARL_v6to0zbajs","5fdfb7d6e1442280fc095a66","freqPrac","","","img/orange_2bandit_b2.png","70","img/orange_2bandit_b2.png","70","prac","1","1","","","","","","","","","","","","","","","","","",""
"341","683264","SARL_v6","SARL_v6to0zbajs","5fdfb7d6e1442280fc095a66","freqPrac_resp","","","img/orange_2bandit_b.png","70","img/orange_2bandit_b.png","70","prac","","","","","","","","","","","","","","","","","","","",""
"null","683421","SARL_v6","SARL_v6to0zbajs","5fdfb7d6e1442280fc095a66","fixation","","","img/fixation.png","null","","","prac","","","","","","","","","","","","","","","","","","","",""
"320.90000000037253","683744","SARL_v6","SARL_v6to0zbajs","5fdfb7d6e1442280fc095a66","infreqPrac","","","img/blue_2bandit_b2.png","68","img/blue_2bandit_b2.png","68","prac","1","1","","","","","","","","","","","","","","","","","",""
"320.90000000037253","684231","SARL_v6","SARL_v6to0zbajs","5fdfb7d6e1442280fc095a66","infreqPrac_resp","","","img/blue_2bandit_b.png","68","img/blue_2bandit_b.png","68","prac","","","","","","","","","","","","","","","","","","","",""
"null","684386","SARL_v6","SARL_v6to0zbajs","5fdfb7d6e1442280fc095a66","fixation","","","img/fixation.png","null","","","prac","","","","","","","","","","","","","","","","","","","",""
"338.30000000074506","684728","SARL_v6","SARL_v6to0zbajs","5fdfb7d6e1442280fc095a66","freqPrac","","","img/orange_2bandit_b2.png","68","img/orange_2bandit_b2.png","70","prac","0","2","","","","","","","","","","","","","","","","","",""
"338.30000000074506","685194","SARL_v6","SARL_v6to0zbajs","5fdfb7d6e1442280fc095a66","freqPrac_resp","","","img/orange_2bandit_b.png","68","img/orange_2bandit_b.png","70","prac","","","","","","","","","","","","","","","","","","","",""
"null","686208","SARL_v6","SARL_v6to0zbajs","5fdfb7d6e1442280fc095a66","feedback","","","img/wrongKey.png","null","","na","prac","","","","","","","","","","","","","","","","","","","",""
"null","686362","SARL_v6","SARL_v6to0zbajs","5fdfb7d6e1442280fc095a66","fixation","","","img/fixation.png","null","","","prac","","","","","","","","","","","","","","","","","","","",""
"410.79999999981374","686776","SARL_v6","SARL_v6to0zbajs","5fdfb7d6e1442280fc095a66","freqPrac","","","img/orange_2bandit_b2.png","68","img/orange_2bandit_b2.png","70","prac","0","3","","","","","","","","","","","","","","","","","",""
"410.79999999981374","687174","SARL_v6","SARL_v6to0zbajs","5fdfb7d6e1442280fc095a66","freqPrac_resp","","","img/orange_2bandit_b.png","68","img/orange_2bandit_b.png","70","prac","","","","","","","","","","","","","","","","","","","",""
"null","688178","SARL_v6","SARL_v6to0zbajs","5fdfb7d6e1442280fc095a66","feedback","","","img/wrongKey.png","null","","na","prac","","","","","","","","","","","","","","","","","","","",""
"null","688332","SARL_v6","SARL_v6to0zbajs","5fdfb7d6e1442280fc095a66","fixation","","","img/fixation.png","null","","","prac","","","","","","","","","","","","","","","","","","","",""
"35970.200000000186","724305","SARL_v6","SARL_v6to0zbajs","5fdfb7d6e1442280fc095a66","","","","","","","","prac","","","","","","","","","","","","","","","","","","","",""
"920.2000000001863","725229","SARL_v6","SARL_v6to0zbajs","5fdfb7d6e1442280fc095a66","rlPractice","","","img/black_2bandit_b2.png","75","img/black_2bandit_b2.png","","prac","","","0","","","","","","","","","","","","","","","","",""
"null","725989","SARL_v6","SARL_v6to0zbajs","5fdfb7d6e1442280fc095a66","feedback","","","<div class=""verylowPoints_sq""> -14 </div>","null","","na","prac","","","1","10","-14","10","","","","","","","","","","","","","",""
"null","726146","SARL_v6","SARL_v6to0zbajs","5fdfb7d6e1442280fc095a66","fixation","","","img/fixation.png","null","","","prac","","","","","","","","","","","","","","","","","","","",""
"499.59999999962747","726648","SARL_v6","SARL_v6to0zbajs","5fdfb7d6e1442280fc095a66","rlPractice","","","img/black_2bandit_b2.png","74","img/black_2bandit_b2.png","","prac","","","1","","","","","","","","","","","","","","","","",""
"null","727410","SARL_v6","SARL_v6to0zbajs","5fdfb7d6e1442280fc095a66","feedback","","","<div class=""veryhighPoints""> 5 </div>","null","","na","prac","","","2","5","-5","5","","","","","","","","","","","","","",""
"null","727581","SARL_v6","SARL_v6to0zbajs","5fdfb7d6e1442280fc095a66","fixation","","","img/fixation.png","null","","","prac","","","","","","","","","","","","","","","","","","","",""
"423.8999999994412","728008","SARL_v6","SARL_v6to0zbajs","5fdfb7d6e1442280fc095a66","rlPractice","","","img/black_2bandit_b2.png","74","img/black_2bandit_b2.png","","prac","","","2","","","","","","","","","","","","","","","","",""
"null","728775","SARL_v6","SARL_v6to0zbajs","5fdfb7d6e1442280fc095a66","feedback","","","<div class=""veryhighPoints""> 30 </div>","null","","na","prac","","","3","30","2","30","","","","","","","","","","","","","",""
"null","728929","SARL_v6","SARL_v6to0zbajs","5fdfb7d6e1442280fc095a66","fixation","","","img/fixation.png","null","","","prac","","","","","","","","","","","","","","","","","","","",""
"325.90000000037253","729260","SARL_v6","SARL_v6to0zbajs","5fdfb7d6e1442280fc095a66","rlPractice","","","img/black_2bandit_b2.png","74","img/black_2bandit_b2.png","","prac","","","3","","","","","","","","","","","","","","","","",""
"null","730022","SARL_v6","SARL_v6to0zbajs","5fdfb7d6e1442280fc095a66","feedback","","","<div class=""verylowPoints""> -2 </div>","null","","na","prac","","","4","-2","20","-2","","","","","","","","","","","","","",""
"null","730175","SARL_v6","SARL_v6to0zbajs","5fdfb7d6e1442280fc095a66","fixation","","","img/fixation.png","null","","","prac","","","","","","","","","","","","","","","","","","","",""
"46664","776841","SARL_v6","SARL_v6to0zbajs","5fdfb7d6e1442280fc095a66","","","","","","","","prac","","","","","","","","","","","","","","","","","","","",""
"null","777658","SARL_v6","SARL_v6to0zbajs","5fdfb7d6e1442280fc095a66","mixAttFreqPrac","","","img/orange_2bandit_b2.png","null","img/orange_2bandit_b2.png","70","prac","","","1","","","","","","","","","","","","","","","","",""
"8.099999999627471","777814","SARL_v6","SARL_v6to0zbajs","5fdfb7d6e1442280fc095a66","fixation","","","img/fixation.png","70","","","prac","","","","","","","","","","","","","","","","","","","",""
"608","778425","SARL_v6","SARL_v6to0zbajs","5fdfb7d6e1442280fc095a66","mixAttInfreqPrac","","","img/blue_2bandit_b2.png","68","img/blue_2bandit_b2.png","68","prac","","","2","","","","","","","","","","","","","","","","",""
"608","778626","SARL_v6","SARL_v6to0zbajs","5fdfb7d6e1442280fc095a66","infreqPrac_resp","","","img/blue_2bandit_b.png","68","img/orange_2bandit_b.png","68","prac","","","2","","","","","","","","","","","","","","","","",""
"null","778794","SARL_v6","SARL_v6to0zbajs","5fdfb7d6e1442280fc095a66","fixation","","","img/fixation.png","null","","","prac","","","","","","","","","","","","","","","","","","","",""
"423.59999999962747","779222","SARL_v6","SARL_v6to0zbajs","5fdfb7d6e1442280fc095a66","mixAttInfreqPrac","","","img/blue_2bandit_b2.png","68","img/blue_2bandit_b2.png","68","prac","","","3","","","","","","","","","","","","","","","","",""
"423.59999999962747","779602","SARL_v6","SARL_v6to0zbajs","5fdfb7d6e1442280fc095a66","infreqPrac_resp","","","img/blue_2bandit_b.png","68","img/orange_2bandit_b.png","68","prac","","","3","","","","","","","","","","","","","","","","",""
"null","779759","SARL_v6","SARL_v6to0zbajs","5fdfb7d6e1442280fc095a66","fixation","","","img/fixation.png","null","","","prac","","","","","","","","","","","","","","","","","","","",""
"326.09999999962747","780090","SARL_v6","SARL_v6to0zbajs","5fdfb7d6e1442280fc095a66","mixAttInfreqPrac","","","img/blue_2bandit_b2.png","68","img/blue_2bandit_b2.png","68","prac","","","4","","","","","","","","","","","","","","","","",""
"326.09999999962747","780568","SARL_v6","SARL_v6to0zbajs","5fdfb7d6e1442280fc095a66","infreqPrac_resp","","","img/blue_2bandit_b.png","68","img/orange_2bandit_b.png","68","prac","","","4","","","","","","","","","","","","","","","","",""
"null","780723","SARL_v6","SARL_v6to0zbajs","5fdfb7d6e1442280fc095a66","fixation","","","img/fixation.png","null","","","prac","","","","","","","","","","","","","","","","","","","",""
"377.59999999962747","781102","SARL_v6","SARL_v6to0zbajs","5fdfb7d6e1442280fc095a66","mixAttFreqPrac","","","img/orange_2bandit_b2.png","70","img/orange_2bandit_b2.png","70","prac","","","5","","","","","","","","","","","","","","","","",""
"377.59999999962747","781550","SARL_v6","SARL_v6to0zbajs","5fdfb7d6e1442280fc095a66","freqPrac_resp","","","img/orange_2bandit_b.png","70","img/orange_2bandit_b.png","70","prac","","","5","","","","","","","","","","","","","","","","",""
"null","781708","SARL_v6","SARL_v6to0zbajs","5fdfb7d6e1442280fc095a66","fixation","","","img/fixation.png","null","","","prac","","","","","","","","","","","","","","","","","","","",""
"907.7999999998137","782618","SARL_v6","SARL_v6to0zbajs","5fdfb7d6e1442280fc095a66","mixRLPractice","","","img/black_2bandit_b2.png","74","img/black_2bandit_b2.png","","prac","","","5","","","","","","","","","","","","","","","","",""
"null","783374","SARL_v6","SARL_v6to0zbajs","5fdfb7d6e1442280fc095a66","feedback","","","<div class=""verylowPoints""> -14 </div>","null","","na","prac","","","6","-14","10","-14","","","","","","","","","","","","","",""
"null","783532","SARL_v6","SARL_v6to0zbajs","5fdfb7d6e1442280fc095a66","fixation","","","img/fixation.png","null","","","prac","","","","","","","","","","","","","","","","","","","",""
"700.7999999998137","784237","SARL_v6","SARL_v6to0zbajs","5fdfb7d6e1442280fc095a66","mixAttFreqPrac","","","img/orange_2bandit_b2.png","70","img/orange_2bandit_b2.png","70","prac","","","7","","","","","","","","","","","","","","","","",""
"700.7999999998137","784348","SARL_v6","SARL_v6to0zbajs","5fdfb7d6e1442280fc095a66","freqPrac_resp","","","img/orange_2bandit_b.png","70","img/orange_2bandit_b.png","70","prac","","","7","","","","","","","","","","","","","","","","",""
"null","784502","SARL_v6","SARL_v6to0zbajs","5fdfb7d6e1442280fc095a66","fixation","","","img/fixation.png","null","","","prac","","","","","","","","","","","","","","","","","","","",""
"471.5","784976","SARL_v6","SARL_v6to0zbajs","5fdfb7d6e1442280fc095a66","mixAttInfreqPrac","","","img/blue_2bandit_b2.png","68","img/blue_2bandit_b2.png","68","prac","","","8","","","","","","","","","","","","","","","","",""
"471.5","785316","SARL_v6","SARL_v6to0zbajs","5fdfb7d6e1442280fc095a66","infreqPrac_resp","","","img/blue_2bandit_b.png","68","img/orange_2bandit_b.png","68","prac","","","8","","","","","","","","","","","","","","","","",""
"null","785484","SARL_v6","SARL_v6to0zbajs","5fdfb7d6e1442280fc095a66","fixation","","","img/fixation.png","null","","","prac","","","","","","","","","","","","","","","","","","","",""
"426.30000000074506","785914","SARL_v6","SARL_v6to0zbajs","5fdfb7d6e1442280fc095a66","mixAttFreqPrac","","","img/orange_2bandit_b2.png","70","img/orange_2bandit_b2.png","70","prac","","","9","","","","","","","","","","","","","","","","",""
"426.30000000074506","786296","SARL_v6","SARL_v6to0zbajs","5fdfb7d6e1442280fc095a66","freqPrac_resp","","","img/orange_2bandit_b.png","70","img/orange_2bandit_b.png","70","prac","","","9","","","","","","","","","","","","","","","","",""
"null","786451","SARL_v6","SARL_v6to0zbajs","5fdfb7d6e1442280fc095a66","fixation","","","img/fixation.png","null","","","prac","","","","","","","","","","","","","","","","","","","",""
"329.09999999962747","786782","SARL_v6","SARL_v6to0zbajs","5fdfb7d6e1442280fc095a66","mixAttFreqPrac","","","img/orange_2bandit_b2.png","70","img/orange_2bandit_b2.png","70","prac","","","10","","","","","","","","","","","","","","","","",""
"329.09999999962747","787263","SARL_v6","SARL_v6to0zbajs","5fdfb7d6e1442280fc095a66","freqPrac_resp","","","img/orange_2bandit_b.png","70","img/orange_2bandit_b.png","70","prac","","","10","","","","","","","","","","","","","","","","",""
"null","787417","SARL_v6","SARL_v6to0zbajs","5fdfb7d6e1442280fc095a66","fixation","","","img/fixation.png","null","","","prac","","","","","","","","","","","","","","","","","","","",""
"354.6000000005588","787774","SARL_v6","SARL_v6to0zbajs","5fdfb7d6e1442280fc095a66","mixAttInfreqPrac","","","img/blue_2bandit_b2.png","68","img/blue_2bandit_b2.png","68","prac","","","11","","","","","","","","","","","","","","","","",""
"354.6000000005588","788225","SARL_v6","SARL_v6to0zbajs","5fdfb7d6e1442280fc095a66","infreqPrac_resp","","","img/blue_2bandit_b.png","68","img/orange_2bandit_b.png","68","prac","","","11","","","","","","","","","","","","","","","","",""
"null","788382","SARL_v6","SARL_v6to0zbajs","5fdfb7d6e1442280fc095a66","fixation","","","img/fixation.png","null","","","prac","","","","","","","","","","","","","","","","","","","",""
"479","788867","SARL_v6","SARL_v6to0zbajs","5fdfb7d6e1442280fc095a66","mixRLPractice","","","img/black_2bandit_b2.png","75","img/black_2bandit_b2.png","","prac","","","11","","","","","","","","","","","","","","","","",""
"null","789636","SARL_v6","SARL_v6to0zbajs","5fdfb7d6e1442280fc095a66","feedback","","","<div class=""verylowPoints_sq""> -5 </div>","null","","na","prac","","","12","5","-5","5","","","","","","","","","","","","","",""
"null","789795","SARL_v6","SARL_v6to0zbajs","5fdfb7d6e1442280fc095a66","fixation","","","img/fixation.png","null","","","prac","","","","","","","","","","","","","","","","","","","",""
"19047.299999999814","808847","SARL_v6","SARL_v6to0zbajs","5fdfb7d6e1442280fc095a66","","","","","","","","prac","","","","","","","","","","","","","","","","","","","",""
"537.5999999996275","809389","SARL_v6","SARL_v6to0zbajs","5fdfb7d6e1442280fc095a66","freq","","","img/orange_2bandit_b2.png","70","","70","test","1","","1","","","","circle","square","1","1","1","1","","","","","","","",""
"null","809669","SARL_v6","SARL_v6to0zbajs","5fdfb7d6e1442280fc095a66","freq_resp","","","img/orange_2bandit_b.png","70","img/orange_2bandit_b.png","70","test","","","","","","","","","","","1","","","","","","","","",""
"null","809828","SARL_v6","SARL_v6to0zbajs","5fdfb7d6e1442280fc095a66","fixation","","","img/fixation.png","null","","","test","","","","","","","","","","","","","","","","","","","",""
"304.5","810139","SARL_v6","SARL_v6to0zbajs","5fdfb7d6e1442280fc095a66","freq","","","img/orange_2bandit_b2.png","70","","70","test","1","","2","","","","circle","square","2","2","1","1","","","","","","","",""
"null","810648","SARL_v6","SARL_v6to0zbajs","5fdfb7d6e1442280fc095a66","freq_resp","","","img/orange_2bandit_b.png","70","img/orange_2bandit_b.png","70","test","","","","","","","","","","","1","","","","","","","","",""
"null","810804","SARL_v6","SARL_v6to0zbajs","5fdfb7d6e1442280fc095a66","fixation","","","img/fixation.png","null","","","test","","","","","","","","","","","","","","","","","","","",""
"292.40000000037253","811099","SARL_v6","SARL_v6to0zbajs","5fdfb7d6e1442280fc095a66","freq","","","img/orange_2bandit_b2.png","70","","70","test","1","","3","","","","circle","square","3","3","1","1","","","","","","","",""
"null","811620","SARL_v6","SARL_v6to0zbajs","5fdfb7d6e1442280fc095a66","freq_resp","","","img/orange_2bandit_b.png","70","img/orange_2bandit_b.png","70","test","","","","","","","","","","","1","","","","","","","","",""
"null","811776","SARL_v6","SARL_v6to0zbajs","5fdfb7d6e1442280fc095a66","fixation","","","img/fixation.png","null","","","test","","","","","","","","","","","","","","","","","","","",""
"283.30000000074506","812062","SARL_v6","SARL_v6to0zbajs","5fdfb7d6e1442280fc095a66","freq","","","img/orange_2bandit_b2.png","70","","70","test","1","","4","","","","circle","square","4","4","1","1","","","","","","","",""
"null","812584","SARL_v6","SARL_v6to0zbajs","5fdfb7d6e1442280fc095a66","freq_resp","","","img/orange_2bandit_b.png","70","img/orange_2bandit_b.png","70","test","","","","","","","","","","","1","","","","","","","","",""
"null","812741","SARL_v6","SARL_v6to0zbajs","5fdfb7d6e1442280fc095a66","fixation","","","img/fixation.png","null","","","test","","","","","","","","","","","","","","","","","","","",""
"316.1000000005588","813061","SARL_v6","SARL_v6to0zbajs","5fdfb7d6e1442280fc095a66","freq","","","img/orange_2bandit_b2.png","70","","70","test","1","","5","","","","circle","square","5","5","1","1","","","","","","","",""
"null","813547","SARL_v6","SARL_v6to0zbajs","5fdfb7d6e1442280fc095a66","freq_resp","","","img/orange_2bandit_b.png","70","img/orange_2bandit_b.png","70","test","","","","","","","","","","","1","","","","","","","","",""
"null","813706","SARL_v6","SARL_v6to0zbajs","5fdfb7d6e1442280fc095a66","fixation","","","img/fixation.png","null","","","test","","","","","","","","","","","","","","","","","","","",""
"293.29999999981374","814003","SARL_v6","SARL_v6to0zbajs","5fdfb7d6e1442280fc095a66","freq","","","img/orange_2bandit_b2.png","70","","70","test","1","","6","","","","circle","square","6","6","1","1","","","","","","","",""
"null","814515","SARL_v6","SARL_v6to0zbajs","5fdfb7d6e1442280fc095a66","freq_resp","","","img/orange_2bandit_b.png","70","img/orange_2bandit_b.png","70","test","","","","","","","","","","","1","","","","","","","","",""
"null","814681","SARL_v6","SARL_v6to0zbajs","5fdfb7d6e1442280fc095a66","fixation","","","img/fixation.png","null","","","test","","","","","","","","","","","","","","","","","","","",""
"306.20000000018626","814990","SARL_v6","SARL_v6to0zbajs","5fdfb7d6e1442280fc095a66","freq","","","img/orange_2bandit_b2.png","70","","70","test","1","","7","","","","circle","square","7","7","1","1","","","","","","","",""
"null","815494","SARL_v6","SARL_v6to0zbajs","5fdfb7d6e1442280fc095a66","freq_resp","","","img/orange_2bandit_b.png","70","img/orange_2bandit_b.png","70","test","","","","","","","","","","","1","","","","","","","","",""
"null","815666","SARL_v6","SARL_v6to0zbajs","5fdfb7d6e1442280fc095a66","fixation","","","img/fixation.png","null","","","test","","","","","","","","","","","","","","","","","","","",""
"259.30000000074506","815931","SARL_v6","SARL_v6to0zbajs","5fdfb7d6e1442280fc095a66","freq","","","img/orange_2bandit_b2.png","70","","70","test","1","","8","","","","circle","square","8","8","1","1","","","","","","","",""
"null","816489","SARL_v6","SARL_v6to0zbajs","5fdfb7d6e1442280fc095a66","freq_resp","","","img/orange_2bandit_b.png","70","img/orange_2bandit_b.png","70","test","","","","","","","","","","","1","","","","","","","","",""
"null","816655","SARL_v6","SARL_v6to0zbajs","5fdfb7d6e1442280fc095a66","fixation","","","img/fixation.png","null","","","test","","","","","","","","","","","","","","","","","","","",""
"302.5","816960","SARL_v6","SARL_v6to0zbajs","5fdfb7d6e1442280fc095a66","freq","","","img/orange_2bandit_b2.png","70","","70","test","1","","9","","","","circle","square","9","9","1","1","","","","","","","",""
"null","817468","SARL_v6","SARL_v6to0zbajs","5fdfb7d6e1442280fc095a66","freq_resp","","","img/orange_2bandit_b.png","70","img/orange_2bandit_b.png","70","test","","","","","","","","","","","1","","","","","","","","",""
"null","817626","SARL_v6","SARL_v6to0zbajs","5fdfb7d6e1442280fc095a66","fixation","","","img/fixation.png","null","","","test","","","","","","","","","","","","","","","","","","","",""
"283.09999999962747","817912","SARL_v6","SARL_v6to0zbajs","5fdfb7d6e1442280fc095a66","freq","","","img/orange_2bandit_b2.png","70","","70","test","1","","10","","","","circle","square","10","10","1","1","","","","","","","",""
"null","818437","SARL_v6","SARL_v6to0zbajs","5fdfb7d6e1442280fc095a66","freq_resp","","","img/orange_2bandit_b.png","70","img/orange_2bandit_b.png","70","test","","","","","","","","","","","1","","","","","","","","",""
"null","818606","SARL_v6","SARL_v6to0zbajs","5fdfb7d6e1442280fc095a66","fixation","","","img/fixation.png","null","","","test","","","","","","","","","","","","","","","","","","","",""
"262.69999999925494","818873","SARL_v6","SARL_v6to0zbajs","5fdfb7d6e1442280fc095a66","freq","","","img/orange_2bandit_b2.png","70","","70","test","1","","11","","","","circle","square","11","11","1","1","","","","","","","",""
"null","819417","SARL_v6","SARL_v6to0zbajs","5fdfb7d6e1442280fc095a66","freq_resp","","","img/orange_2bandit_b.png","70","img/orange_2bandit_b.png","70","test","","","","","","","","","","","1","","","","","","","","",""
"null","819574","SARL_v6","SARL_v6to0zbajs","5fdfb7d6e1442280fc095a66","fixation","","","img/fixation.png","null","","","test","","","","","","","","","","","","","","","","","","","",""
"494.70000000018626","820074","SARL_v6","SARL_v6to0zbajs","5fdfb7d6e1442280fc095a66","infreq","","","img/blue_2bandit_b2.png","68","","68","test","1","","12","","","","circle","square","12","12","1","1","","","","","","","",""
"null","820399","SARL_v6","SARL_v6to0zbajs","5fdfb7d6e1442280fc095a66","infreq_resp","","","img/blue_2bandit_b.png","68","img/blue_2bandit_b.png","68","test","","","","","","","","","","","1","","","","","","","","",""
"null","820568","SARL_v6","SARL_v6to0zbajs","5fdfb7d6e1442280fc095a66","fixation","","","img/fixation.png","null","","","test","","","","","","","","","","","","","","","","","","","",""
"362.1000000005588","820935","SARL_v6","SARL_v6to0zbajs","5fdfb7d6e1442280fc095a66","freq","","","img/orange_2bandit_b2.png","70","","70","test","1","","13","","","","circle","square","13","13","1","1","","","","","","","",""
"null","821376","SARL_v6","SARL_v6to0zbajs","5fdfb7d6e1442280fc095a66","freq_resp","","","img/orange_2bandit_b.png","70","img/orange_2bandit_b.png","70","test","","","","","","","","","","","1","","","","","","","","",""
"null","821534","SARL_v6","SARL_v6to0zbajs","5fdfb7d6e1442280fc095a66","fixation","","","img/fixation.png","null","","","test","","","","","","","","","","","","","","","","","","","",""
"257.09999999962747","821798","SARL_v6","SARL_v6to0zbajs","5fdfb7d6e1442280fc095a66","freq","","","img/orange_2bandit_b2.png","70","","70","test","1","","14","","","","circle","square","14","14","1","1","","","","","","","",""
"null","822358","SARL_v6","SARL_v6to0zbajs","5fdfb7d6e1442280fc095a66","freq_resp","","","img/orange_2bandit_b.png","70","img/orange_2bandit_b.png","70","test","","","","","","","","","","","1","","","","","","","","",""
"null","822528","SARL_v6","SARL_v6to0zbajs","5fdfb7d6e1442280fc095a66","fixation","","","img/fixation.png","null","","","test","","","","","","","","","","","","","","","","","","","",""
"261.79999999981374","822793","SARL_v6","SARL_v6to0zbajs","5fdfb7d6e1442280fc095a66","freq","","","img/orange_2bandit_b2.png","70","","70","test","1","","15","","","","circle","square","15","15","1","1","","","","","","","",""
"null","823341","SARL_v6","SARL_v6to0zbajs","5fdfb7d6e1442280fc095a66","freq_resp","","","img/orange_2bandit_b.png","70","img/orange_2bandit_b.png","70","test","","","","","","","","","","","1","","","","","","","","",""
"null","823499","SARL_v6","SARL_v6to0zbajs","5fdfb7d6e1442280fc095a66","fixation","","","img/fixation.png","null","","","test","","","","","","","","","","","","","","","","","","","",""
"311.90000000037253","823814","SARL_v6","SARL_v6to0zbajs","5fdfb7d6e1442280fc095a66","freq","","","img/orange_2bandit_b2.png","70","","70","test","1","","16","","","","circle","square","16","16","1","1","","","","","","","",""
"null","824308","SARL_v6","SARL_v6to0zbajs","5fdfb7d6e1442280fc095a66","freq_resp","","","img/orange_2bandit_b.png","70","img/orange_2bandit_b.png","70","test","","","","","","","","","","","1","","","","","","","","",""
"null","824476","SARL_v6","SARL_v6to0zbajs","5fdfb7d6e1442280fc095a66","fixation","","","img/fixation.png","null","","","test","","","","","","","","","","","","","","","","","","","",""
"585.1999999992549","825064","SARL_v6","SARL_v6to0zbajs","5fdfb7d6e1442280fc095a66","freq","","","img/orange_2bandit_b2.png","70","","70","test","1","","17","","","","circle","square","17","17","1","1","","","","","","","",""
"null","825286","SARL_v6","SARL_v6to0zbajs","5fdfb7d6e1442280fc095a66","freq_resp","","","img/orange_2bandit_b.png","70","img/orange_2bandit_b.png","70","test","","","","","","","","","","","1","","","","","","","","",""
"null","825442","SARL_v6","SARL_v6to0zbajs","5fdfb7d6e1442280fc095a66","fixation","","","img/fixation.png","null","","","test","","","","","","","","","","","","","","","","","","","",""
"377.29999999981374","825822","SARL_v6","SARL_v6to0zbajs","5fdfb7d6e1442280fc095a66","freq","","","img/orange_2bandit_b2.png","70","","70","test","1","","18","","","","circle","square","18","18","1","1","","","","","","","",""
"null","826250","SARL_v6","SARL_v6to0zbajs","5fdfb7d6e1442280fc095a66","freq_resp","","","img/orange_2bandit_b.png","70","img/orange_2bandit_b.png","70","test","","","","","","","","","","","1","","","","","","","","",""
"null","826407","SARL_v6","SARL_v6to0zbajs","5fdfb7d6e1442280fc095a66","fixation","","","img/fixation.png","null","","","test","","","","","","","","","","","","","","","","","","","",""
"243.5","826657","SARL_v6","SARL_v6to0zbajs","5fdfb7d6e1442280fc095a66","freq","","","img/orange_2bandit_b2.png","70","","70","test","1","","19","","","","circle","square","19","19","1","1","","","","","","","",""
"null","827218","SARL_v6","SARL_v6to0zbajs","5fdfb7d6e1442280fc095a66","freq_resp","","","img/orange_2bandit_b.png","70","img/orange_2bandit_b.png","70","test","","","","","","","","","","","1","","","","","","","","",""
"null","827387","SARL_v6","SARL_v6to0zbajs","5fdfb7d6e1442280fc095a66","fixation","","","img/fixation.png","null","","","test","","","","","","","","","","","","","","","","","","","",""
"256.20000000018626","827646","SARL_v6","SARL_v6to0zbajs","5fdfb7d6e1442280fc095a66","freq","","","img/orange_2bandit_b2.png","70","","70","test","1","","20","","","","circle","square","20","20","1","1","","","","","","","",""
"null","828195","SARL_v6","SARL_v6to0zbajs","5fdfb7d6e1442280fc095a66","freq_resp","","","img/orange_2bandit_b.png","70","img/orange_2bandit_b.png","70","test","","","","","","","","","","","1","","","","","","","","",""
"null","828349","SARL_v6","SARL_v6to0zbajs","5fdfb7d6e1442280fc095a66","fixation","","","img/fixation.png","null","","","test","","","","","","","","","","","","","","","","","","","",""
"248.29999999981374","828603","SARL_v6","SARL_v6to0zbajs","5fdfb7d6e1442280fc095a66","freq","","","img/orange_2bandit_b2.png","70","","70","test","1","","21","","","","circle","square","21","21","1","1","","","","","","","",""
"null","829163","SARL_v6","SARL_v6to0zbajs","5fdfb7d6e1442280fc095a66","freq_resp","","","img/orange_2bandit_b.png","70","img/orange_2bandit_b.png","70","test","","","","","","","","","","","1","","","","","","","","",""
"null","829323","SARL_v6","SARL_v6to0zbajs","5fdfb7d6e1442280fc095a66","fixation","","","img/fixation.png","null","","","test","","","","","","","","","","","","","","","","","","","",""
"331.30000000074506","829661","SARL_v6","SARL_v6to0zbajs","5fdfb7d6e1442280fc095a66","infreq","","","img/blue_2bandit_b2.png","68","","68","test","1","","22","","","","circle","square","22","22","1","1","","","","","","","",""
"null","830135","SARL_v6","SARL_v6to0zbajs","5fdfb7d6e1442280fc095a66","infreq_resp","","","img/blue_2bandit_b.png","68","img/blue_2bandit_b.png","68","test","","","","","","","","","","","1","","","","","","","","",""
"null","830293","SARL_v6","SARL_v6to0zbajs","5fdfb7d6e1442280fc095a66","fixation","","","img/fixation.png","null","","","test","","","","","","","","","","","","","","","","","","","",""
"313.30000000074506","830609","SARL_v6","SARL_v6to0zbajs","5fdfb7d6e1442280fc095a66","freq","","","img/orange_2bandit_b2.png","70","","70","test","1","","23","","","","circle","square","23","23","1","1","","","","","","","",""
"null","831109","SARL_v6","SARL_v6to0zbajs","5fdfb7d6e1442280fc095a66","freq_resp","","","img/orange_2bandit_b.png","70","img/orange_2bandit_b.png","70","test","","","","","","","","","","","1","","","","","","","","",""
"null","831262","SARL_v6","SARL_v6to0zbajs","5fdfb7d6e1442280fc095a66","fixation","","","img/fixation.png","null","","","test","","","","","","","","","","","","","","","","","","","",""
"223.40000000037253","831488","SARL_v6","SARL_v6to0zbajs","5fdfb7d6e1442280fc095a66","freq","","","img/orange_2bandit_b2.png","70","","70","test","1","","24","","","","circle","square","24","24","1","1","","","","","","","",""
"null","832072","SARL_v6","SARL_v6to0zbajs","5fdfb7d6e1442280fc095a66","freq_resp","","","img/orange_2bandit_b.png","70","img/orange_2bandit_b.png","70","test","","","","","","","","","","","1","","","","","","","","",""
"null","832228","SARL_v6","SARL_v6to0zbajs","5fdfb7d6e1442280fc095a66","fixation","","","img/fixation.png","null","","","test","","","","","","","","","","","","","","","","","","","",""
"137","832369","SARL_v6","SARL_v6to0zbajs","5fdfb7d6e1442280fc095a66","freq","","","img/orange_2bandit_b2.png","70","","70","test","1","","25","","","","circle","square","25","25","1","1","","","","","","","",""
"null","833037","SARL_v6","SARL_v6to0zbajs","5fdfb7d6e1442280fc095a66","freq_resp","","","img/orange_2bandit_b.png","70","img/orange_2bandit_b.png","70","test","","","","","","","","","","","1","","","","","","","","",""
"null","833193","SARL_v6","SARL_v6to0zbajs","5fdfb7d6e1442280fc095a66","fixation","","","img/fixation.png","null","","","test","","","","","","","","","","","","","","","","","","","",""
"234.29999999981374","833430","SARL_v6","SARL_v6to0zbajs","5fdfb7d6e1442280fc095a66","freq","","","img/orange_2bandit_b2.png","70","","70","test","1","","26","","","","circle","square","26","26","1","1","","","","","","","",""
"null","834001","SARL_v6","SARL_v6to0zbajs","5fdfb7d6e1442280fc095a66","freq_resp","","","img/orange_2bandit_b.png","70","img/orange_2bandit_b.png","70","test","","","","","","","","","","","1","","","","","","","","",""
"null","834156","SARL_v6","SARL_v6to0zbajs","5fdfb7d6e1442280fc095a66","fixation","","","img/fixation.png","null","","","test","","","","","","","","","","","","","","","","","","","",""
"1176.199999999255","835335","SARL_v6","SARL_v6to0zbajs","5fdfb7d6e1442280fc095a66","rl","","","img/black_2bandit_b2.png","75","","0","test","","","27","","","-3","circle","square","","0","1","","75","-3","-3","-3","-3","square","1","0"
"null","836107","SARL_v6","SARL_v6to0zbajs","5fdfb7d6e1442280fc095a66","feedback","","","<div class=""verylowPoints_sq""> -3 </div>","null","","na","test","","","NaN","","","","","","","","1","","75","","","","","","1",""
"566.5","836680","SARL_v6","SARL_v6to0zbajs","5fdfb7d6e1442280fc095a66","freq","","","img/orange_2bandit_b2.png","70","","70","test","1","","28","","","","circle","square","27","1","2","1","","","","","","","",""
"null","836930","SARL_v6","SARL_v6to0zbajs","5fdfb7d6e1442280fc095a66","freq_resp","","","img/orange_2bandit_b.png","70","img/orange_2bandit_b.png","70","test","","","","","","","","","","","2","","","","","","","","",""
"null","837085","SARL_v6","SARL_v6to0zbajs","5fdfb7d6e1442280fc095a66","fixation","","","img/fixation.png","null","","","test","","","","","","","","","","","","","","","","","","","",""
"350","837437","SARL_v6","SARL_v6to0zbajs","5fdfb7d6e1442280fc095a66","freq","","","img/orange_2bandit_b2.png","70","","70","test","1","","29","","","","circle","square","28","2","2","1","","","","","","","",""
"null","837901","SARL_v6","SARL_v6to0zbajs","5fdfb7d6e1442280fc095a66","freq_resp","","","img/orange_2bandit_b.png","70","img/orange_2bandit_b.png","70","test","","","","","","","","","","","2","","","","","","","","",""
"null","838069","SARL_v6","SARL_v6to0zbajs","5fdfb7d6e1442280fc095a66","fixation","","","img/fixation.png","null","","","test","","","","","","","","","","","","","","","","","","","",""
"305.20000000018626","838380","SARL_v6","SARL_v6to0zbajs","5fdfb7d6e1442280fc095a66","freq","","","img/orange_2bandit_b2.png","70","","70","test","1","","30","","","","circle","square","29","3","2","1","","","","","","","",""
"null","838882","SARL_v6","SARL_v6to0zbajs","5fdfb7d6e1442280fc095a66","freq_resp","","","img/orange_2bandit_b.png","70","img/orange_2bandit_b.png","70","test","","","","","","","","","","","2","","","","","","","","",""
"null","839046","SARL_v6","SARL_v6to0zbajs","5fdfb7d6e1442280fc095a66","fixation","","","img/fixation.png","null","","","test","","","","","","","","","","","","","","","","","","","",""
"273.6000000005588","839327","SARL_v6","SARL_v6to0zbajs","5fdfb7d6e1442280fc095a66","freq","","","img/orange_2bandit_b2.png","70","","70","test","1","","31","","","","circle","square","30","4","2","1","","","","","","","",""
"null","839864","SARL_v6","SARL_v6to0zbajs","5fdfb7d6e1442280fc095a66","freq_resp","","","img/orange_2bandit_b.png","70","img/orange_2bandit_b.png","70","test","","","","","","","","","","","2","","","","","","","","",""
"null","840020","SARL_v6","SARL_v6to0zbajs","5fdfb7d6e1442280fc095a66","fixation","","","img/fixation.png","null","","","test","","","","","","","","","","","","","","","","","","","",""
"296.5","840319","SARL_v6","SARL_v6to0zbajs","5fdfb7d6e1442280fc095a66","freq","","","img/orange_2bandit_b2.png","70","","70","test","1","","32","","","","circle","square","31","5","2","1","","","","","","","",""
"null","840841","SARL_v6","SARL_v6to0zbajs","5fdfb7d6e1442280fc095a66","freq_resp","","","img/orange_2bandit_b.png","70","img/orange_2bandit_b.png","70","test","","","","","","","","","","","2","","","","","","","","",""
"null","841009","SARL_v6","SARL_v6to0zbajs","5fdfb7d6e1442280fc095a66","fixation","","","img/fixation.png","null","","","test","","","","","","","","","","","","","","","","","","","",""
"318.79999999981374","841334","SARL_v6","SARL_v6to0zbajs","5fdfb7d6e1442280fc095a66","freq","","","img/orange_2bandit_b2.png","70","","70","test","1","","33","","","","circle","square","32","6","2","1","","","","","","","",""
"null","841827","SARL_v6","SARL_v6to0zbajs","5fdfb7d6e1442280fc095a66","freq_resp","","","img/orange_2bandit_b.png","70","img/orange_2bandit_b.png","70","test","","","","","","","","","","","2","","","","","","","","",""
"null","841983","SARL_v6","SARL_v6to0zbajs","5fdfb7d6e1442280fc095a66","fixation","","","img/fixation.png","null","","","test","","","","","","","","","","","","","","","","","","","",""
"301.70000000018626","842287","SARL_v6","SARL_v6to0zbajs","5fdfb7d6e1442280fc095a66","freq","","","img/orange_2bandit_b2.png","70","","70","test","1","","34","","","","circle","square","33","7","2","1","","","","","","","",""
"null","842789","SARL_v6","SARL_v6to0zbajs","5fdfb7d6e1442280fc095a66","freq_resp","","","img/orange_2bandit_b.png","70","img/orange_2bandit_b.png","70","test","","","","","","","","","","","2","","","","","","","","",""
"null","842946","SARL_v6","SARL_v6to0zbajs","5fdfb7d6e1442280fc095a66","fixation","","","img/fixation.png","null","","","test","","","","","","","","","","","","","","","","","","","",""
"433.8999999994412","843385","SARL_v6","SARL_v6to0zbajs","5fdfb7d6e1442280fc095a66","infreq","","","img/blue_2bandit_b2.png","68","","68","test","1","","35","","","","circle","square","34","8","2","1","","","","","","","",""
"null","843757","SARL_v6","SARL_v6to0zbajs","5fdfb7d6e1442280fc095a66","infreq_resp","","","img/blue_2bandit_b.png","68","img/blue_2bandit_b.png","68","test","","","","","","","","","","","2","","","","","","","","",""
"null","843914","SARL_v6","SARL_v6to0zbajs","5fdfb7d6e1442280fc095a66","fixation","","","img/fixation.png","null","","","test","","","","","","","","","","","","","","","","","","","",""
"325.3999999994412","844242","SARL_v6","SARL_v6to0zbajs","5fdfb7d6e1442280fc095a66","freq","","","img/orange_2bandit_b2.png","70","","70","test","1","","36","","","","circle","square","35","9","2","1","","","","","","","",""
"null","844727","SARL_v6","SARL_v6to0zbajs","5fdfb7d6e1442280fc095a66","freq_resp","","","img/orange_2bandit_b.png","70","img/orange_2bandit_b.png","70","test","","","","","","","","","","","2","","","","","","","","",""
"null","844882","SARL_v6","SARL_v6to0zbajs","5fdfb7d6e1442280fc095a66","fixation","","","img/fixation.png","null","","","test","","","","","","","","","","","","","","","","","","","",""
"290.59999999962747","845176","SARL_v6","SARL_v6to0zbajs","5fdfb7d6e1442280fc095a66","freq","","","img/orange_2bandit_b2.png","70","","70","test","1","","37","","","","circle","square","36","10","2","1","","","","","","","",""
"null","845693","SARL_v6","SARL_v6to0zbajs","5fdfb7d6e1442280fc095a66","freq_resp","","","img/orange_2bandit_b.png","70","img/orange_2bandit_b.png","70","test","","","","","","","","","","","2","","","","","","","","",""
"null","845851","SARL_v6","SARL_v6to0zbajs","5fdfb7d6e1442280fc095a66","fixation","","","img/fixation.png","null","","","test","","","","","","","","","","","","","","","","","","","",""
"322.5","846177","SARL_v6","SARL_v6to0zbajs","5fdfb7d6e1442280fc095a66","freq","","","img/orange_2bandit_b2.png","70","","70","test","1","","38","","","","circle","square","37","11","2","1","","","","","","","",""
"null","846664","SARL_v6","SARL_v6to0zbajs","5fdfb7d6e1442280fc095a66","freq_resp","","","img/orange_2bandit_b.png","70","img/orange_2bandit_b.png","70","test","","","","","","","","","","","2","","","","","","","","",""
"null","846833","SARL_v6","SARL_v6to0zbajs","5fdfb7d6e1442280fc095a66","fixation","","","img/fixation.png","null","","","test","","","","","","","","","","","","","","","","","","","",""
"287.90000000037253","847124","SARL_v6","SARL_v6to0zbajs","5fdfb7d6e1442280fc095a66","freq","","","img/orange_2bandit_b2.png","70","","70","test","1","","39","","","","circle","square","38","12","2","1","","","","","","","",""
"null","847651","SARL_v6","SARL_v6to0zbajs","5fdfb7d6e1442280fc095a66","freq_resp","","","img/orange_2bandit_b.png","70","img/orange_2bandit_b.png","70","test","","","","","","","","","","","2","","","","","","","","",""
"null","847806","SARL_v6","SARL_v6to0zbajs","5fdfb7d6e1442280fc095a66","fixation","","","img/fixation.png","null","","","test","","","","","","","","","","","","","","","","","","","",""
"259.5","848069","SARL_v6","SARL_v6to0zbajs","5fdfb7d6e1442280fc095a66","freq","","","img/orange_2bandit_b2.png","70","","70","test","1","","40","","","","circle","square","39","13","2","1","","","","","","","",""
"null","848617","SARL_v6","SARL_v6to0zbajs","5fdfb7d6e1442280fc095a66","freq_resp","","","img/orange_2bandit_b.png","70","img/orange_2bandit_b.png","70","test","","","","","","","","","","","2","","","","","","","","",""
"null","848772","SARL_v6","SARL_v6to0zbajs","5fdfb7d6e1442280fc095a66","fixation","","","img/fixation.png","null","","","test","","","","","","","","","","","","","","","","","","","",""
"255.09999999962747","849032","SARL_v6","SARL_v6to0zbajs","5fdfb7d6e1442280fc095a66","freq","","","img/orange_2bandit_b2.png","70","","70","test","1","","41","","","","circle","square","40","14","2","1","","","","","","","",""
"null","849586","SARL_v6","SARL_v6to0zbajs","5fdfb7d6e1442280fc095a66","freq_resp","","","img/orange_2bandit_b.png","70","img/orange_2bandit_b.png","70","test","","","","","","","","","","","2","","","","","","","","",""
"null","849746","SARL_v6","SARL_v6to0zbajs","5fdfb7d6e1442280fc095a66","fixation","","","img/fixation.png","null","","","test","","","","","","","","","","","","","","","","","","","",""
"521.2000000001863","850271","SARL_v6","SARL_v6to0zbajs","5fdfb7d6e1442280fc095a66","infreq","","","img/blue_2bandit_b2.png","68","","68","test","1","","42","","","","circle","square","41","15","2","1","","","","","","","",""
"null","850561","SARL_v6","SARL_v6to0zbajs","5fdfb7d6e1442280fc095a66","infreq_resp","","","img/blue_2bandit_b.png","68","img/blue_2bandit_b.png","68","test","","","","","","","","","","","2","","","","","","","","",""
"null","850716","SARL_v6","SARL_v6to0zbajs","5fdfb7d6e1442280fc095a66","fixation","","","img/fixation.png","null","","","test","","","","","","","","","","","","","","","","","","","",""
"276.20000000018626","850995","SARL_v6","SARL_v6to0zbajs","5fdfb7d6e1442280fc095a66","freq","","","img/orange_2bandit_b2.png","70","","70","test","1","","43","","","","circle","square","42","16","2","1","","","","","","","",""
"null","851523","SARL_v6","SARL_v6to0zbajs","5fdfb7d6e1442280fc095a66","freq_resp","","","img/orange_2bandit_b.png","70","img/orange_2bandit_b.png","70","test","","","","","","","","","","","2","","","","","","","","",""
"null","851681","SARL_v6","SARL_v6to0zbajs","5fdfb7d6e1442280fc095a66","fixation","","","img/fixation.png","null","","","test","","","","","","","","","","","","","","","","","","","",""
"265.79999999981374","851950","SARL_v6","SARL_v6to0zbajs","5fdfb7d6e1442280fc095a66","freq","","","img/orange_2bandit_b2.png","70","","70","test","1","","44","","","","circle","square","43","17","2","1","","","","","","","",""
"null","852504","SARL_v6","SARL_v6to0zbajs","5fdfb7d6e1442280fc095a66","freq_resp","","","img/orange_2bandit_b.png","70","img/orange_2bandit_b.png","70","test","","","","","","","","","","","2","","","","","","","","",""
"null","852664","SARL_v6","SARL_v6to0zbajs","5fdfb7d6e1442280fc095a66","fixation","","","img/fixation.png","null","","","test","","","","","","","","","","","","","","","","","","","",""
"256.29999999981374","852925","SARL_v6","SARL_v6to0zbajs","5fdfb7d6e1442280fc095a66","freq","","","img/orange_2bandit_b2.png","70","","70","test","1","","45","","","","circle","square","44","18","2","1","","","","","","","",""
"null","853487","SARL_v6","SARL_v6to0zbajs","5fdfb7d6e1442280fc095a66","freq_resp","","","img/orange_2bandit_b.png","70","img/orange_2bandit_b.png","70","test","","","","","","","","","","","2","","","","","","","","",""
"null","853659","SARL_v6","SARL_v6to0zbajs","5fdfb7d6e1442280fc095a66","fixation","","","img/fixation.png","null","","","test","","","","","","","","","","","","","","","","","","","",""
"234.5","853896","SARL_v6","SARL_v6to0zbajs","5fdfb7d6e1442280fc095a66","freq","","","img/orange_2bandit_b2.png","70","","70","test","1","","46","","","","circle","square","45","19","2","1","","","","","","","",""
"null","854466","SARL_v6","SARL_v6to0zbajs","5fdfb7d6e1442280fc095a66","freq_resp","","","img/orange_2bandit_b.png","70","img/orange_2bandit_b.png","70","test","","","","","","","","","","","2","","","","","","","","",""
"null","854624","SARL_v6","SARL_v6to0zbajs","5fdfb7d6e1442280fc095a66","fixation","","","img/fixation.png","null","","","test","","","","","","","","","","","","","","","","","","","",""
"281","854909","SARL_v6","SARL_v6to0zbajs","5fdfb7d6e1442280fc095a66","freq","","","img/orange_2bandit_b2.png","70","","70","test","1","","47","","","","circle","square","46","20","2","1","","","","","","","",""
"null","855435","SARL_v6","SARL_v6to0zbajs","5fdfb7d6e1442280fc095a66","freq_resp","","","img/orange_2bandit_b.png","70","img/orange_2bandit_b.png","70","test","","","","","","","","","","","2","","","","","","","","",""
"null","855602","SARL_v6","SARL_v6to0zbajs","5fdfb7d6e1442280fc095a66","fixation","","","img/fixation.png","null","","","test","","","","","","","","","","","","","","","","","","","",""
"286.3999999994412","855891","SARL_v6","SARL_v6to0zbajs","5fdfb7d6e1442280fc095a66","freq","","","img/orange_2bandit_b2.png","70","","70","test","1","","48","","","","circle","square","47","21","2","1","","","","","","","",""
"null","856422","SARL_v6","SARL_v6to0zbajs","5fdfb7d6e1442280fc095a66","freq_resp","","","img/orange_2bandit_b.png","70","img/orange_2bandit_b.png","70","test","","","","","","","","","","","2","","","","","","","","",""
"null","856579","SARL_v6","SARL_v6to0zbajs","5fdfb7d6e1442280fc095a66","fixation","","","img/fixation.png","null","","","test","","","","","","","","","","","","","","","","","","","",""
"278.5","856861","SARL_v6","SARL_v6to0zbajs","5fdfb7d6e1442280fc095a66","freq","","","img/orange_2bandit_b2.png","70","","70","test","1","","49","","","","circle","square","48","22","2","1","","","","","","","",""
"null","857390","SARL_v6","SARL_v6to0zbajs","5fdfb7d6e1442280fc095a66","freq_resp","","","img/orange_2bandit_b.png","70","img/orange_2bandit_b.png","70","test","","","","","","","","","","","2","","","","","","","","",""
"null","857545","SARL_v6","SARL_v6to0zbajs","5fdfb7d6e1442280fc095a66","fixation","","","img/fixation.png","null","","","test","","","","","","","","","","","","","","","","","","","",""
"315.29999999981374","857862","SARL_v6","SARL_v6to0zbajs","5fdfb7d6e1442280fc095a66","freq","","","img/orange_2bandit_b2.png","70","","70","test","1","","50","","","","circle","square","49","23","2","1","","","","","","","",""
"null","858358","SARL_v6","SARL_v6to0zbajs","5fdfb7d6e1442280fc095a66","freq_resp","","","img/orange_2bandit_b.png","70","img/orange_2bandit_b.png","70","test","","","","","","","","","","","2","","","","","","","","",""
"null","858513","SARL_v6","SARL_v6to0zbajs","5fdfb7d6e1442280fc095a66","fixation","","","img/fixation.png","null","","","test","","","","","","","","","","","","","","","","","","","",""
"293.90000000037253","858810","SARL_v6","SARL_v6to0zbajs","5fdfb7d6e1442280fc095a66","freq","","","img/orange_2bandit_b2.png","70","","70","test","1","","51","","","","circle","square","50","24","2","1","","","","","","","",""
"null","859321","SARL_v6","SARL_v6to0zbajs","5fdfb7d6e1442280fc095a66","freq_resp","","","img/orange_2bandit_b.png","70","img/orange_2bandit_b.png","70","test","","","","","","","","","","","2","","","","","","","","",""
"null","859480","SARL_v6","SARL_v6to0zbajs","5fdfb7d6e1442280fc095a66","fixation","","","img/fixation.png","null","","","test","","","","","","","","","","","","","","","","","","","",""
"590.9000000003725","860077","SARL_v6","SARL_v6to0zbajs","5fdfb7d6e1442280fc095a66","rl","","","img/black_2bandit_b2.png","75","","0","test","","","52","","","-8","circle","square","","0","2","","75","-5","-8","-5","-8","square","2","0"
"null","860846","SARL_v6","SARL_v6to0zbajs","5fdfb7d6e1442280fc095a66","feedback","","","<div class=""verylowPoints_sq""> -8 </div>","null","","na","test","","","NaN","","","","","","","","2","","75","","","","","","2",""
"526.6000000005588","861375","SARL_v6","SARL_v6to0zbajs","5fdfb7d6e1442280fc095a66","freq","","","img/orange_2bandit_b2.png","70","","70","test","1","","53","","","","circle","square","51","1","3","1","","","","","","","",""
"null","861662","SARL_v6","SARL_v6to0zbajs","5fdfb7d6e1442280fc095a66","freq_resp","","","img/orange_2bandit_b.png","70","img/orange_2bandit_b.png","70","test","","","","","","","","","","","3","","","","","","","","",""
"null","861819","SARL_v6","SARL_v6to0zbajs","5fdfb7d6e1442280fc095a66","fixation","","","img/fixation.png","null","","","test","","","","","","","","","","","","","","","","","","","",""
"282.70000000018626","862104","SARL_v6","SARL_v6to0zbajs","5fdfb7d6e1442280fc095a66","freq","","","img/orange_2bandit_b2.png","70","","70","test","1","","54","","","","circle","square","52","2","3","1","","","","","","","",""
"null","862628","SARL_v6","SARL_v6to0zbajs","5fdfb7d6e1442280fc095a66","freq_resp","","","img/orange_2bandit_b.png","70","img/orange_2bandit_b.png","70","test","","","","","","","","","","","3","","","","","","","","",""
"null","862787","SARL_v6","SARL_v6to0zbajs","5fdfb7d6e1442280fc095a66","fixation","","","img/fixation.png","null","","","test","","","","","","","","","","","","","","","","","","","",""
"258.70000000018626","863051","SARL_v6","SARL_v6to0zbajs","5fdfb7d6e1442280fc095a66","freq","","","img/orange_2bandit_b2.png","70","","70","test","1","","55","","","","circle","square","53","3","3","1","","","","","","","",""
"null","863611","SARL_v6","SARL_v6to0zbajs","5fdfb7d6e1442280fc095a66","freq_resp","","","img/orange_2bandit_b.png","70","img/orange_2bandit_b.png","70","test","","","","","","","","","","","3","","","","","","","","",""
"null","863768","SARL_v6","SARL_v6to0zbajs","5fdfb7d6e1442280fc095a66","fixation","","","img/fixation.png","null","","","test","","","","","","","","","","","","","","","","","","","",""
"190.90000000037253","863963","SARL_v6","SARL_v6to0zbajs","5fdfb7d6e1442280fc095a66","freq","","","img/orange_2bandit_b2.png","70","","70","test","1","","56","","","","circle","square","54","4","3","1","","","","","","","",""
"null","864592","SARL_v6","SARL_v6to0zbajs","5fdfb7d6e1442280fc095a66","freq_resp","","","img/orange_2bandit_b.png","70","img/orange_2bandit_b.png","70","test","","","","","","","","","","","3","","","","","","","","",""
"null","864748","SARL_v6","SARL_v6to0zbajs","5fdfb7d6e1442280fc095a66","fixation","","","img/fixation.png","null","","","test","","","","","","","","","","","","","","","","","","","",""
"241.79999999981374","864994","SARL_v6","SARL_v6to0zbajs","5fdfb7d6e1442280fc095a66","freq","","","img/orange_2bandit_b2.png","70","","70","test","1","","57","","","","circle","square","55","5","3","1","","","","","","","",""
"null","865558","SARL_v6","SARL_v6to0zbajs","5fdfb7d6e1442280fc095a66","freq_resp","","","img/orange_2bandit_b.png","70","img/orange_2bandit_b.png","70","test","","","","","","","","","","","3","","","","","","","","",""
"null","865712","SARL_v6","SARL_v6to0zbajs","5fdfb7d6e1442280fc095a66","fixation","","","img/fixation.png","null","","","test","","","","","","","","","","","","","","","","","","","",""
"634.2000000001863","866349","SARL_v6","SARL_v6to0zbajs","5fdfb7d6e1442280fc095a66","freq","","","img/orange_2bandit_b2.png","70","","70","test","1","","58","","","","circle","square","56","6","3","1","","","","","","","",""
"null","866527","SARL_v6","SARL_v6to0zbajs","5fdfb7d6e1442280fc095a66","freq_resp","","","img/orange_2bandit_b.png","70","img/orange_2bandit_b.png","70","test","","","","","","","","","","","3","","","","","","","","",""
"null","866695","SARL_v6","SARL_v6to0zbajs","5fdfb7d6e1442280fc095a66","fixation","","","img/fixation.png","null","","","test","","","","","","","","","","","","","","","","","","","",""
"337.09999999962747","867036","SARL_v6","SARL_v6to0zbajs","5fdfb7d6e1442280fc095a66","freq","","","img/orange_2bandit_b2.png","70","","70","test","1","","59","","","","circle","square","57","7","3","1","","","","","","","",""
"null","867508","SARL_v6","SARL_v6to0zbajs","5fdfb7d6e1442280fc095a66","freq_resp","","","img/orange_2bandit_b.png","70","img/orange_2bandit_b.png","70","test","","","","","","","","","","","3","","","","","","","","",""
"null","867662","SARL_v6","SARL_v6to0zbajs","5fdfb7d6e1442280fc095a66","fixation","","","img/fixation.png","null","","","test","","","","","","","","","","","","","","","","","","","",""
"449.8999999994412","868117","SARL_v6","SARL_v6to0zbajs","5fdfb7d6e1442280fc095a66","infreq","","","img/blue_2bandit_b2.png","68","","68","test","1","","60","","","","circle","square","58","8","3","1","","","","","","","",""
"null","868486","SARL_v6","SARL_v6to0zbajs","5fdfb7d6e1442280fc095a66","infreq_resp","","","img/blue_2bandit_b.png","68","img/blue_2bandit_b.png","68","test","","","","","","","","","","","3","","","","","","","","",""
"null","868645","SARL_v6","SARL_v6to0zbajs","5fdfb7d6e1442280fc095a66","fixation","","","img/fixation.png","null","","","test","","","","","","","","","","","","","","","","","","","",""
"497.20000000018626","869148","SARL_v6","SARL_v6to0zbajs","5fdfb7d6e1442280fc095a66","infreq","","","img/blue_2bandit_b2.png","68","","68","test","1","","61","","","","circle","square","59","9","3","1","","","","","","","",""
"null","869455","SARL_v6","SARL_v6to0zbajs","5fdfb7d6e1442280fc095a66","infreq_resp","","","img/blue_2bandit_b.png","68","img/blue_2bandit_b.png","68","test","","","","","","","","","","","3","","","","","","","","",""
"null","869612","SARL_v6","SARL_v6to0zbajs","5fdfb7d6e1442280fc095a66","fixation","","","img/fixation.png","null","","","test","","","","","","","","","","","","","","","","","","","",""
"421.40000000037253","870036","SARL_v6","SARL_v6to0zbajs","5fdfb7d6e1442280fc095a66","freq","","","img/orange_2bandit_b2.png","70","","70","test","1","","62","","","","circle","square","60","10","3","1","","","","","","","",""
"null","870429","SARL_v6","SARL_v6to0zbajs","5fdfb7d6e1442280fc095a66","freq_resp","","","img/orange_2bandit_b.png","70","img/orange_2bandit_b.png","70","test","","","","","","","","","","","3","","","","","","","","",""
"null","870585","SARL_v6","SARL_v6to0zbajs","5fdfb7d6e1442280fc095a66","fixation","","","img/fixation.png","null","","","test","","","","","","","","","","","","","","","","","","","",""
"323","870911","SARL_v6","SARL_v6to0zbajs","5fdfb7d6e1442280fc095a66","freq","","","img/orange_2bandit_b2.png","70","","70","test","1","","63","","","","circle","square","61","11","3","1","","","","","","","",""
"null","871395","SARL_v6","SARL_v6to0zbajs","5fdfb7d6e1442280fc095a66","freq_resp","","","img/orange_2bandit_b.png","70","img/orange_2bandit_b.png","70","test","","","","","","","","","","","3","","","","","","","","",""
"null","871549","SARL_v6","SARL_v6to0zbajs","5fdfb7d6e1442280fc095a66","fixation","","","img/fixation.png","null","","","test","","","","","","","","","","","","","","","","","","","",""
"305.79999999981374","871859","SARL_v6","SARL_v6to0zbajs","5fdfb7d6e1442280fc095a66","freq","","","img/orange_2bandit_b2.png","70","","70","test","1","","64","","","","circle","square","62","12","3","1","","","","","","","",""
"null","872360","SARL_v6","SARL_v6to0zbajs","5fdfb7d6e1442280fc095a66","freq_resp","","","img/orange_2bandit_b.png","70","img/orange_2bandit_b.png","70","test","","","","","","","","","","","3","","","","","","","","",""
"null","872515","SARL_v6","SARL_v6to0zbajs","5fdfb7d6e1442280fc095a66","fixation","","","img/fixation.png","null","","","test","","","","","","","","","","","","","","","","","","","",""
"254.09999999962747","872772","SARL_v6","SARL_v6to0zbajs","5fdfb7d6e1442280fc095a66","freq","","","img/orange_2bandit_b2.png","70","","70","test","1","","65","","","","circle","square","63","13","3","1","","","","","","","",""
"null","873328","SARL_v6","SARL_v6to0zbajs","5fdfb7d6e1442280fc095a66","freq_resp","","","img/orange_2bandit_b.png","70","img/orange_2bandit_b.png","70","test","","","","","","","","","","","3","","","","","","","","",""
"null","873498","SARL_v6","SARL_v6to0zbajs","5fdfb7d6e1442280fc095a66","fixation","","","img/fixation.png","null","","","test","","","","","","","","","","","","","","","","","","","",""
"332.40000000037253","873835","SARL_v6","SARL_v6to0zbajs","5fdfb7d6e1442280fc095a66","freq","","","img/orange_2bandit_b2.png","70","","70","test","1","","66","","","","circle","square","64","14","3","1","","","","","","","",""
"null","874310","SARL_v6","SARL_v6to0zbajs","5fdfb7d6e1442280fc095a66","freq_resp","","","img/orange_2bandit_b.png","70","img/orange_2bandit_b.png","70","test","","","","","","","","","","","3","","","","","","","","",""
"null","874482","SARL_v6","SARL_v6to0zbajs","5fdfb7d6e1442280fc095a66","fixation","","","img/fixation.png","null","","","test","","","","","","","","","","","","","","","","","","","",""
"261.69999999925494","874751","SARL_v6","SARL_v6to0zbajs","5fdfb7d6e1442280fc095a66","freq","","","img/orange_2bandit_b2.png","70","","70","test","1","","67","","","","circle","square","65","15","3","1","","","","","","","",""
"null","875302","SARL_v6","SARL_v6to0zbajs","5fdfb7d6e1442280fc095a66","freq_resp","","","img/orange_2bandit_b.png","70","img/orange_2bandit_b.png","70","test","","","","","","","","","","","3","","","","","","","","",""
"null","875461","SARL_v6","SARL_v6to0zbajs","5fdfb7d6e1442280fc095a66","fixation","","","img/fixation.png","null","","","test","","","","","","","","","","","","","","","","","","","",""
"276.90000000037253","875741","SARL_v6","SARL_v6to0zbajs","5fdfb7d6e1442280fc095a66","freq","","","img/orange_2bandit_b2.png","70","","70","test","1","","68","","","","circle","square","66","16","3","1","","","","","","","",""
"null","876280","SARL_v6","SARL_v6to0zbajs","5fdfb7d6e1442280fc095a66","freq_resp","","","img/orange_2bandit_b.png","70","img/orange_2bandit_b.png","70","test","","","","","","","","","","","3","","","","","","","","",""
"null","876433","SARL_v6","SARL_v6to0zbajs","5fdfb7d6e1442280fc095a66","fixation","","","img/fixation.png","null","","","test","","","","","","","","","","","","","","","","","","","",""
"252.5","876691","SARL_v6","SARL_v6to0zbajs","5fdfb7d6e1442280fc095a66","freq","","","img/orange_2bandit_b2.png","70","","70","test","1","","69","","","","circle","square","67","17","3","1","","","","","","","",""
"null","877243","SARL_v6","SARL_v6to0zbajs","5fdfb7d6e1442280fc095a66","freq_resp","","","img/orange_2bandit_b.png","70","img/orange_2bandit_b.png","70","test","","","","","","","","","","","3","","","","","","","","",""
"null","877399","SARL_v6","SARL_v6to0zbajs","5fdfb7d6e1442280fc095a66","fixation","","","img/fixation.png","null","","","test","","","","","","","","","","","","","","","","","","","",""
"242.29999999981374","877646","SARL_v6","SARL_v6to0zbajs","5fdfb7d6e1442280fc095a66","freq","","","img/orange_2bandit_b2.png","70","","70","test","1","","70","","","","circle","square","68","18","3","1","","","","","","","",""
"null","878214","SARL_v6","SARL_v6to0zbajs","5fdfb7d6e1442280fc095a66","freq_resp","","","img/orange_2bandit_b.png","70","img/orange_2bandit_b.png","70","test","","","","","","","","","","","3","","","","","","","","",""
"null","878369","SARL_v6","SARL_v6to0zbajs","5fdfb7d6e1442280fc095a66","fixation","","","img/fixation.png","null","","","test","","","","","","","","","","","","","","","","","","","",""
"259.6000000005588","878634","SARL_v6","SARL_v6to0zbajs","5fdfb7d6e1442280fc095a66","freq","","","img/orange_2bandit_b2.png","70","","70","test","1","","71","","","","circle","square","69","19","3","1","","","","","","","",""
"null","879190","SARL_v6","SARL_v6to0zbajs","5fdfb7d6e1442280fc095a66","freq_resp","","","img/orange_2bandit_b.png","70","img/orange_2bandit_b.png","70","test","","","","","","","","","","","3","","","","","","","","",""
"null","879348","SARL_v6","SARL_v6to0zbajs","5fdfb7d6e1442280fc095a66","fixation","","","img/fixation.png","null","","","test","","","","","","","","","","","","","","","","","","","",""
"281.80000000074506","879633","SARL_v6","SARL_v6to0zbajs","5fdfb7d6e1442280fc095a66","freq","","","img/orange_2bandit_b2.png","70","","70","test","1","","72","","","","circle","square","70","20","3","1","","","","","","","",""
"null","880168","SARL_v6","SARL_v6to0zbajs","5fdfb7d6e1442280fc095a66","freq_resp","","","img/orange_2bandit_b.png","70","img/orange_2bandit_b.png","70","test","","","","","","","","","","","3","","","","","","","","",""
"null","880321","SARL_v6","SARL_v6to0zbajs","5fdfb7d6e1442280fc095a66","fixation","","","img/fixation.png","null","","","test","","","","","","","","","","","","","","","","","","","",""
"265.5","880590","SARL_v6","SARL_v6to0zbajs","5fdfb7d6e1442280fc095a66","freq","","","img/orange_2bandit_b2.png","70","","70","test","1","","73","","","","circle","square","71","21","3","1","","","","","","","",""
"null","881131","SARL_v6","SARL_v6to0zbajs","5fdfb7d6e1442280fc095a66","freq_resp","","","img/orange_2bandit_b.png","70","img/orange_2bandit_b.png","70","test","","","","","","","","","","","3","","","","","","","","",""
"null","881285","SARL_v6","SARL_v6to0zbajs","5fdfb7d6e1442280fc095a66","fixation","","","img/fixation.png","null","","","test","","","","","","","","","","","","","","","","","","","",""
"265.20000000018626","881553","SARL_v6","SARL_v6to0zbajs","5fdfb7d6e1442280fc095a66","freq","","","img/orange_2bandit_b2.png","70","","70","test","1","","74","","","","circle","square","72","22","3","1","","","","","","","",""
"null","882098","SARL_v6","SARL_v6to0zbajs","5fdfb7d6e1442280fc095a66","freq_resp","","","img/orange_2bandit_b.png","70","img/orange_2bandit_b.png","70","test","","","","","","","","","","","3","","","","","","","","",""
"null","882255","SARL_v6","SARL_v6to0zbajs","5fdfb7d6e1442280fc095a66","fixation","","","img/fixation.png","null","","","test","","","","","","","","","","","","","","","","","","","",""
"327.59999999962747","882587","SARL_v6","SARL_v6to0zbajs","5fdfb7d6e1442280fc095a66","rl","","","img/black_2bandit_b2.png","74","","0","test","","","75","","","-4","circle","square","","0","3","","74","-4","-8","-4","-8","circle","3","0"
"null","883346","SARL_v6","SARL_v6to0zbajs","5fdfb7d6e1442280fc095a66","feedback","","","<div class=""verylowPoints""> -4 </div>","null","","na","test","","","NaN","","","","","","","","3","","74","","","","","","3",""
"420.70000000018626","883769","SARL_v6","SARL_v6to0zbajs","5fdfb7d6e1442280fc095a66","freq","","","img/orange_2bandit_b2.png","70","","70","test","1","","76","","","","circle","square","73","1","4","1","","","","","","","",""
"null","884155","SARL_v6","SARL_v6to0zbajs","5fdfb7d6e1442280fc095a66","freq_resp","","","img/orange_2bandit_b.png","70","img/orange_2bandit_b.png","70","test","","","","","","","","","","","4","","","","","","","","",""
"null","884310","SARL_v6","SARL_v6to0zbajs","5fdfb7d6e1442280fc095a66","fixation","","","img/fixation.png","null","","","test","","","","","","","","","","","","","","","","","","","",""
"202.5","884516","SARL_v6","SARL_v6to0zbajs","5fdfb7d6e1442280fc095a66","freq","","","img/orange_2bandit_b2.png","70","","70","test","1","","77","","","","circle","square","74","2","4","1","","","","","","","",""
"null","885121","SARL_v6","SARL_v6to0zbajs","5fdfb7d6e1442280fc095a66","freq_resp","","","img/orange_2bandit_b.png","70","img/orange_2bandit_b.png","70","test","","","","","","","","","","","4","","","","","","","","",""
"null","885278","SARL_v6","SARL_v6to0zbajs","5fdfb7d6e1442280fc095a66","fixation","","","img/fixation.png","null","","","test","","","","","","","","","","","","","","","","","","","",""
"377.29999999981374","885659","SARL_v6","SARL_v6to0zbajs","5fdfb7d6e1442280fc095a66","freq","","","img/orange_2bandit_b2.png","70","","70","test","1","","78","","","","circle","square","75","3","4","1","","","","","","","",""
"null","886087","SARL_v6","SARL_v6to0zbajs","5fdfb7d6e1442280fc095a66","freq_resp","","","img/orange_2bandit_b.png","70","img/orange_2bandit_b.png","70","test","","","","","","","","","","","4","","","","","","","","",""
"null","886256","SARL_v6","SARL_v6to0zbajs","5fdfb7d6e1442280fc095a66","fixation","","","img/fixation.png","null","","","test","","","","","","","","","","","","","","","","","","","",""
"191.29999999981374","886452","SARL_v6","SARL_v6to0zbajs","5fdfb7d6e1442280fc095a66","freq","","","img/orange_2bandit_b2.png","70","","70","test","1","","79","","","","circle","square","76","4","4","1","","","","","","","",""
"null","887067","SARL_v6","SARL_v6to0zbajs","5fdfb7d6e1442280fc095a66","freq_resp","","","img/orange_2bandit_b.png","70","img/orange_2bandit_b.png","70","test","","","","","","","","","","","4","","","","","","","","",""
"null","887220","SARL_v6","SARL_v6to0zbajs","5fdfb7d6e1442280fc095a66","fixation","","","img/fixation.png","null","","","test","","","","","","","","","","","","","","","","","","","",""
"103.69999999925494","887327","SARL_v6","SARL_v6to0zbajs","5fdfb7d6e1442280fc095a66","freq","","","img/orange_2bandit_b2.png","70","","70","test","1","","80","","","","circle","square","77","5","4","1","","","","","","","",""
"null","888034","SARL_v6","SARL_v6to0zbajs","5fdfb7d6e1442280fc095a66","freq_resp","","","img/orange_2bandit_b.png","70","img/orange_2bandit_b.png","70","test","","","","","","","","","","","4","","","","","","","","",""
"null","888189","SARL_v6","SARL_v6to0zbajs","5fdfb7d6e1442280fc095a66","fixation","","","img/fixation.png","null","","","test","","","","","","","","","","","","","","","","","","","",""
"229.8999999994412","888425","SARL_v6","SARL_v6to0zbajs","5fdfb7d6e1442280fc095a66","infreq","","","img/blue_2bandit_b2.png","70","","68","test","0","","81","","","","circle","square","78","6","4","0.9871794871794872","","","","","","","",""
"null","888999","SARL_v6","SARL_v6to0zbajs","5fdfb7d6e1442280fc095a66","infreq_resp","","","img/blue_2bandit_b.png","70","img/blue_2bandit_b.png","68","test","","","","","","","","","","","4","","","","","","","","",""
"null","889156","SARL_v6","SARL_v6to0zbajs","5fdfb7d6e1442280fc095a66","fixation","","","img/fixation.png","null","","","test","","","","","","","","","","","","","","","","","","","",""
"341","889502","SARL_v6","SARL_v6to0zbajs","5fdfb7d6e1442280fc095a66","freq","","","img/orange_2bandit_b2.png","70","","70","test","1","","82","","","","circle","square","79","7","4","0.9873417721518988","","","","","","","",""
"null","889970","SARL_v6","SARL_v6to0zbajs","5fdfb7d6e1442280fc095a66","freq_resp","","","img/orange_2bandit_b.png","70","img/orange_2bandit_b.png","70","test","","","","","","","","","","","4","","","","","","","","",""
"null","890128","SARL_v6","SARL_v6to0zbajs","5fdfb7d6e1442280fc095a66","fixation","","","img/fixation.png","null","","","test","","","","","","","","","","","","","","","","","","","",""
"227","890360","SARL_v6","SARL_v6to0zbajs","5fdfb7d6e1442280fc095a66","freq","","","img/orange_2bandit_b2.png","70","","70","test","1","","83","","","","circle","square","80","8","4","0.9875","","","","","","","",""
"null","890949","SARL_v6","SARL_v6to0zbajs","5fdfb7d6e1442280fc095a66","freq_resp","","","img/orange_2bandit_b.png","70","img/orange_2bandit_b.png","70","test","","","","","","","","","","","4","","","","","","","","",""
"null","891106","SARL_v6","SARL_v6to0zbajs","5fdfb7d6e1442280fc095a66","fixation","","","img/fixation.png","null","","","test","","","","","","","","","","","","","","","","","","","",""
"198.3999999994412","891308","SARL_v6","SARL_v6to0zbajs","5fdfb7d6e1442280fc095a66","freq","","","img/orange_2bandit_b2.png","70","","70","test","1","","84","","","","circle","square","81","9","4","0.9876543209876543","","","","","","","",""
"null","891913","SARL_v6","SARL_v6to0zbajs","5fdfb7d6e1442280fc095a66","freq_resp","","","img/orange_2bandit_b.png","70","img/orange_2bandit_b.png","70","test","","","","","","","","","","","4","","","","","","","","",""
"null","892081","SARL_v6","SARL_v6to0zbajs","5fdfb7d6e1442280fc095a66","fixation","","","img/fixation.png","null","","","test","","","","","","","","","","","","","","","","","","","",""
"197.40000000037253","892282","SARL_v6","SARL_v6to0zbajs","5fdfb7d6e1442280fc095a66","freq","","","img/orange_2bandit_b2.png","70","","70","test","1","","85","","","","circle","square","82","10","4","0.9878048780487805","","","","","","","",""
"null","892902","SARL_v6","SARL_v6to0zbajs","5fdfb7d6e1442280fc095a66","freq_resp","","","img/orange_2bandit_b.png","70","img/orange_2bandit_b.png","70","test","","","","","","","","","","","4","","","","","","","","",""
"null","893057","SARL_v6","SARL_v6to0zbajs","5fdfb7d6e1442280fc095a66","fixation","","","img/fixation.png","null","","","test","","","","","","","","","","","","","","","","","","","",""
"291.40000000037253","893351","SARL_v6","SARL_v6to0zbajs","5fdfb7d6e1442280fc095a66","freq","","","img/orange_2bandit_b2.png","70","","70","test","1","","86","","","","circle","square","83","11","4","0.9879518072289156","","","","","","","",""
"null","893866","SARL_v6","SARL_v6to0zbajs","5fdfb7d6e1442280fc095a66","freq_resp","","","img/orange_2bandit_b.png","70","img/orange_2bandit_b.png","70","test","","","","","","","","","","","4","","","","","","","","",""
"null","894033","SARL_v6","SARL_v6to0zbajs","5fdfb7d6e1442280fc095a66","fixation","","","img/fixation.png","null","","","test","","","","","","","","","","","","","","","","","","","",""
"277.40000000037253","894314","SARL_v6","SARL_v6to0zbajs","5fdfb7d6e1442280fc095a66","freq","","","img/orange_2bandit_b2.png","70","","70","test","1","","87","","","","circle","square","84","12","4","0.9880952380952381","","","","","","","",""
"null","894848","SARL_v6","SARL_v6to0zbajs","5fdfb7d6e1442280fc095a66","freq_resp","","","img/orange_2bandit_b.png","70","img/orange_2bandit_b.png","70","test","","","","","","","","","","","4","","","","","","","","",""
"null","895004","SARL_v6","SARL_v6to0zbajs","5fdfb7d6e1442280fc095a66","fixation","","","img/fixation.png","null","","","test","","","","","","","","","","","","","","","","","","","",""
"417","895424","SARL_v6","SARL_v6to0zbajs","5fdfb7d6e1442280fc095a66","infreq","","","img/blue_2bandit_b2.png","68","","68","test","1","","88","","","","circle","square","85","13","4","0.9882352941176471","","","","","","","",""
"null","895818","SARL_v6","SARL_v6to0zbajs","5fdfb7d6e1442280fc095a66","infreq_resp","","","img/blue_2bandit_b.png","68","img/blue_2bandit_b.png","68","test","","","","","","","","","","","4","","","","","","","","",""
"null","895975","SARL_v6","SARL_v6to0zbajs","5fdfb7d6e1442280fc095a66","fixation","","","img/fixation.png","null","","","test","","","","","","","","","","","","","","","","","","","",""
"476.90000000037253","896455","SARL_v6","SARL_v6to0zbajs","5fdfb7d6e1442280fc095a66","freq","","","img/orange_2bandit_b2.png","70","","70","test","1","","89","","","","circle","square","86","14","4","0.9883720930232558","","","","","","","",""
"null","896785","SARL_v6","SARL_v6to0zbajs","5fdfb7d6e1442280fc095a66","freq_resp","","","img/orange_2bandit_b.png","70","img/orange_2bandit_b.png","70","test","","","","","","","","","","","4","","","","","","","","",""
"null","896942","SARL_v6","SARL_v6to0zbajs","5fdfb7d6e1442280fc095a66","fixation","","","img/fixation.png","null","","","test","","","","","","","","","","","","","","","","","","","",""
"269.5","897216","SARL_v6","SARL_v6to0zbajs","5fdfb7d6e1442280fc095a66","freq","","","img/orange_2bandit_b2.png","70","","70","test","1","","90","","","","circle","square","87","15","4","0.9885057471264368","","","","","","","",""
"null","897752","SARL_v6","SARL_v6to0zbajs","5fdfb7d6e1442280fc095a66","freq_resp","","","img/orange_2bandit_b.png","70","img/orange_2bandit_b.png","70","test","","","","","","","","","","","4","","","","","","","","",""
"null","897906","SARL_v6","SARL_v6to0zbajs","5fdfb7d6e1442280fc095a66","fixation","","","img/fixation.png","null","","","test","","","","","","","","","","","","","","","","","","","",""
"416.5","898325","SARL_v6","SARL_v6to0zbajs","5fdfb7d6e1442280fc095a66","freq","","","img/orange_2bandit_b2.png","70","","70","test","1","","91","","","","circle","square","88","16","4","0.9886363636363636","","","","","","","",""
"null","898715","SARL_v6","SARL_v6to0zbajs","5fdfb7d6e1442280fc095a66","freq_resp","","","img/orange_2bandit_b.png","70","img/orange_2bandit_b.png","70","test","","","","","","","","","","","4","","","","","","","","",""
"null","898885","SARL_v6","SARL_v6to0zbajs","5fdfb7d6e1442280fc095a66","fixation","","","img/fixation.png","null","","","test","","","","","","","","","","","","","","","","","","","",""
"112.29999999981374","899001","SARL_v6","SARL_v6to0zbajs","5fdfb7d6e1442280fc095a66","freq","","","img/orange_2bandit_b2.png","70","","70","test","1","","92","","","","circle","square","89","17","4","0.9887640449438202","","","","","","","",""
"null","899699","SARL_v6","SARL_v6to0zbajs","5fdfb7d6e1442280fc095a66","freq_resp","","","img/orange_2bandit_b.png","70","img/orange_2bandit_b.png","70","test","","","","","","","","","","","4","","","","","","","","",""
"null","899867","SARL_v6","SARL_v6to0zbajs","5fdfb7d6e1442280fc095a66","fixation","","","img/fixation.png","null","","","test","","","","","","","","","","","","","","","","","","","",""
"271.29999999981374","900144","SARL_v6","SARL_v6to0zbajs","5fdfb7d6e1442280fc095a66","freq","","","img/orange_2bandit_b2.png","70","","70","test","1","","93","","","","circle","square","90","18","4","0.9888888888888889","","","","","","","",""
"null","900690","SARL_v6","SARL_v6to0zbajs","5fdfb7d6e1442280fc095a66","freq_resp","","","img/orange_2bandit_b.png","70","img/orange_2bandit_b.png","70","test","","","","","","","","","","","4","","","","","","","","",""
"null","900846","SARL_v6","SARL_v6to0zbajs","5fdfb7d6e1442280fc095a66","fixation","","","img/fixation.png","null","","","test","","","","","","","","","","","","","","","","","","","",""
"272.79999999981374","901121","SARL_v6","SARL_v6to0zbajs","5fdfb7d6e1442280fc095a66","freq","","","img/orange_2bandit_b2.png","70","","70","test","1","","94","","","","circle","square","91","19","4","0.989010989010989","","","","","","","",""
"null","901656","SARL_v6","SARL_v6to0zbajs","5fdfb7d6e1442280fc095a66","freq_resp","","","img/orange_2bandit_b.png","70","img/orange_2bandit_b.png","70","test","","","","","","","","","","","4","","","","","","","","",""
"null","901810","SARL_v6","SARL_v6to0zbajs","5fdfb7d6e1442280fc095a66","fixation","","","img/fixation.png","null","","","test","","","","","","","","","","","","","","","","","","","",""
"560.3000000007451","902375","SARL_v6","SARL_v6to0zbajs","5fdfb7d6e1442280fc095a66","rl","","","img/black_2bandit_b2.png","74","","0","test","","","95","","","0","circle","square","","0","4","","74","0","-12","0","-12","circle","4","0"
"null","903135","SARL_v6","SARL_v6to0zbajs","5fdfb7d6e1442280fc095a66","feedback","","","<div class=""verylowPoints""> 0 </div>","null","","na","test","","","NaN","","","","","","","","4","","74","","","","","","4",""
"339.79999999981374","903481","SARL_v6","SARL_v6to0zbajs","5fdfb7d6e1442280fc095a66","freq","","","img/orange_2bandit_b2.png","70","","70","test","1","","96","","","","circle","square","92","1","5","0.9891304347826086","","","","","","","",""
"null","903945","SARL_v6","SARL_v6to0zbajs","5fdfb7d6e1442280fc095a66","freq_resp","","","img/orange_2bandit_b.png","70","img/orange_2bandit_b.png","70","test","","","","","","","","","","","5","","","","","","","","",""
"null","904100","SARL_v6","SARL_v6to0zbajs","5fdfb7d6e1442280fc095a66","fixation","","","img/fixation.png","null","","","test","","","","","","","","","","","","","","","","","","","",""
"122.20000000018626","904225","SARL_v6","SARL_v6to0zbajs","5fdfb7d6e1442280fc095a66","freq","","","img/orange_2bandit_b2.png","70","","70","test","1","","97","","","","circle","square","93","2","5","0.989247311827957","","","","","","","",""
"null","904918","SARL_v6","SARL_v6to0zbajs","5fdfb7d6e1442280fc095a66","freq_resp","","","img/orange_2bandit_b.png","70","img/orange_2bandit_b.png","70","test","","","","","","","","","","","5","","","","","","","","",""
"null","905073","SARL_v6","SARL_v6to0zbajs","5fdfb7d6e1442280fc095a66","fixation","","","img/fixation.png","null","","","test","","","","","","","","","","","","","","","","","","","",""
"179.20000000018626","905257","SARL_v6","SARL_v6to0zbajs","5fdfb7d6e1442280fc095a66","freq","","","img/orange_2bandit_b2.png","70","","70","test","1","","98","","","","circle","square","94","3","5","0.9893617021276596","","","","","","","",""
"null","905883","SARL_v6","SARL_v6to0zbajs","5fdfb7d6e1442280fc095a66","freq_resp","","","img/orange_2bandit_b.png","70","img/orange_2bandit_b.png","70","test","","","","","","","","","","","5","","","","","","","","",""
"null","906040","SARL_v6","SARL_v6to0zbajs","5fdfb7d6e1442280fc095a66","fixation","","","img/fixation.png","null","","","test","","","","","","","","","","","","","","","","","","","",""
"243.5","906288","SARL_v6","SARL_v6to0zbajs","5fdfb7d6e1442280fc095a66","freq","","","img/orange_2bandit_b2.png","70","","70","test","1","","99","","","","circle","square","95","4","5","0.9894736842105263","","","","","","","",""
"null","906862","SARL_v6","SARL_v6to0zbajs","5fdfb7d6e1442280fc095a66","freq_resp","","","img/orange_2bandit_b.png","70","img/orange_2bandit_b.png","70","test","","","","","","","","","","","5","","","","","","","","",""
"null","907017","SARL_v6","SARL_v6to0zbajs","5fdfb7d6e1442280fc095a66","fixation","","","img/fixation.png","null","","","test","","","","","","","","","","","","","","","","","","","",""
"234.79999999981374","907257","SARL_v6","SARL_v6to0zbajs","5fdfb7d6e1442280fc095a66","freq","","","img/orange_2bandit_b2.png","70","","70","test","1","","100","","","","circle","square","96","5","5","0.9895833333333334","","","","","","","",""
"null","907829","SARL_v6","SARL_v6to0zbajs","5fdfb7d6e1442280fc095a66","freq_resp","","","img/orange_2bandit_b.png","70","img/orange_2bandit_b.png","70","test","","","","","","","","","","","5","","","","","","","","",""
"null","907999","SARL_v6","SARL_v6to0zbajs","5fdfb7d6e1442280fc095a66","fixation","","","img/fixation.png","null","","","test","","","","","","","","","","","","","","","","","","","",""
"158.30000000074506","908160","SARL_v6","SARL_v6to0zbajs","5fdfb7d6e1442280fc095a66","freq","","","img/orange_2bandit_b2.png","70","","70","test","1","","101","","","","circle","square","97","6","5","0.9896907216494846","","","","","","","",""
"null","908805","SARL_v6","SARL_v6to0zbajs","5fdfb7d6e1442280fc095a66","freq_resp","","","img/orange_2bandit_b.png","70","img/orange_2bandit_b.png","70","test","","","","","","","","","","","5","","","","","","","","",""
"null","908962","SARL_v6","SARL_v6to0zbajs","5fdfb7d6e1442280fc095a66","fixation","","","img/fixation.png","null","","","test","","","","","","","","","","","","","","","","","","","",""
"188.6000000005588","909155","SARL_v6","SARL_v6to0zbajs","5fdfb7d6e1442280fc095a66","freq","","","img/orange_2bandit_b2.png","70","","70","test","1","","102","","","","circle","square","98","7","5","0.9897959183673469","","","","","","","",""
"null","909771","SARL_v6","SARL_v6to0zbajs","5fdfb7d6e1442280fc095a66","freq_resp","","","img/orange_2bandit_b.png","70","img/orange_2bandit_b.png","70","test","","","","","","","","","","","5","","","","","","","","",""
"null","909925","SARL_v6","SARL_v6to0zbajs","5fdfb7d6e1442280fc095a66","fixation","","","img/fixation.png","null","","","test","","","","","","","","","","","","","","","","","","","",""
"274","910203","SARL_v6","SARL_v6to0zbajs","5fdfb7d6e1442280fc095a66","freq","","","img/orange_2bandit_b2.png","70","","70","test","1","","103","","","","circle","square","99","8","5","0.98989898989899","","","","","","","",""
"null","910744","SARL_v6","SARL_v6to0zbajs","5fdfb7d6e1442280fc095a66","freq_resp","","","img/orange_2bandit_b.png","70","img/orange_2bandit_b.png","70","test","","","","","","","","","","","5","","","","","","","","",""
"null","910901","SARL_v6","SARL_v6to0zbajs","5fdfb7d6e1442280fc095a66","fixation","","","img/fixation.png","null","","","test","","","","","","","","","","","","","","","","","","","",""
"278.3999999994412","911183","SARL_v6","SARL_v6to0zbajs","5fdfb7d6e1442280fc095a66","freq","","","img/orange_2bandit_b2.png","70","","70","test","1","","104","","","","circle","square","100","9","5","0.99","","","","","","","",""
"null","911710","SARL_v6","SARL_v6to0zbajs","5fdfb7d6e1442280fc095a66","freq_resp","","","img/orange_2bandit_b.png","70","img/orange_2bandit_b.png","70","test","","","","","","","","","","","5","","","","","","","","",""
"null","911865","SARL_v6","SARL_v6to0zbajs","5fdfb7d6e1442280fc095a66","fixation","","","img/fixation.png","null","","","test","","","","","","","","","","","","","","","","","","","",""
"275.19999999925494","912145","SARL_v6","SARL_v6to0zbajs","5fdfb7d6e1442280fc095a66","freq","","","img/orange_2bandit_b2.png","70","","70","test","1","","105","","","","circle","square","101","10","5","0.9900990099009901","","","","","","","",""
"null","912674","SARL_v6","SARL_v6to0zbajs","5fdfb7d6e1442280fc095a66","freq_resp","","","img/orange_2bandit_b.png","70","img/orange_2bandit_b.png","70","test","","","","","","","","","","","5","","","","","","","","",""
"null","912829","SARL_v6","SARL_v6to0zbajs","5fdfb7d6e1442280fc095a66","fixation","","","img/fixation.png","null","","","test","","","","","","","","","","","","","","","","","","","",""
"284.70000000018626","913120","SARL_v6","SARL_v6to0zbajs","5fdfb7d6e1442280fc095a66","infreq","","","img/blue_2bandit_b2.png","68","","68","test","1","","106","","","","circle","square","102","11","5","0.9901960784313726","","","","","","","",""
"null","913642","SARL_v6","SARL_v6to0zbajs","5fdfb7d6e1442280fc095a66","infreq_resp","","","img/blue_2bandit_b.png","68","img/blue_2bandit_b.png","68","test","","","","","","","","","","","5","","","","","","","","",""
"null","913809","SARL_v6","SARL_v6to0zbajs","5fdfb7d6e1442280fc095a66","fixation","","","img/fixation.png","null","","","test","","","","","","","","","","","","","","","","","","","",""
"234.40000000037253","914047","SARL_v6","SARL_v6to0zbajs","5fdfb7d6e1442280fc095a66","freq","","","img/orange_2bandit_b2.png","70","","70","test","1","","107","","","","circle","square","103","12","5","0.9902912621359223","","","","","","","",""
"null","914622","SARL_v6","SARL_v6to0zbajs","5fdfb7d6e1442280fc095a66","freq_resp","","","img/orange_2bandit_b.png","70","img/orange_2bandit_b.png","70","test","","","","","","","","","","","5","","","","","","","","",""
"null","914777","SARL_v6","SARL_v6to0zbajs","5fdfb7d6e1442280fc095a66","fixation","","","img/fixation.png","null","","","test","","","","","","","","","","","","","","","","","","","",""
"233.70000000018626","915016","SARL_v6","SARL_v6to0zbajs","5fdfb7d6e1442280fc095a66","freq","","","img/orange_2bandit_b2.png","70","","70","test","1","","108","","","","circle","square","104","13","5","0.9903846153846154","","","","","","","",""
"null","915602","SARL_v6","SARL_v6to0zbajs","5fdfb7d6e1442280fc095a66","freq_resp","","","img/orange_2bandit_b.png","70","img/orange_2bandit_b.png","70","test","","","","","","","","","","","5","","","","","","","","",""
"null","915757","SARL_v6","SARL_v6to0zbajs","5fdfb7d6e1442280fc095a66","fixation","","","img/fixation.png","null","","","test","","","","","","","","","","","","","","","","","","","",""
"180.30000000074506","915940","SARL_v6","SARL_v6to0zbajs","5fdfb7d6e1442280fc095a66","freq","","","img/orange_2bandit_b2.png","70","","70","test","1","","109","","","","circle","square","105","14","5","0.9904761904761905","","","","","","","",""
"null","916565","SARL_v6","SARL_v6to0zbajs","5fdfb7d6e1442280fc095a66","freq_resp","","","img/orange_2bandit_b.png","70","img/orange_2bandit_b.png","70","test","","","","","","","","","","","5","","","","","","","","",""
"null","916724","SARL_v6","SARL_v6to0zbajs","5fdfb7d6e1442280fc095a66","fixation","","","img/fixation.png","null","","","test","","","","","","","","","","","","","","","","","","","",""
"189.70000000018626","916917","SARL_v6","SARL_v6to0zbajs","5fdfb7d6e1442280fc095a66","freq","","","img/orange_2bandit_b2.png","70","","70","test","1","","110","","","","circle","square","106","15","5","0.9905660377358491","","","","","","","",""
"null","917546","SARL_v6","SARL_v6to0zbajs","5fdfb7d6e1442280fc095a66","freq_resp","","","img/orange_2bandit_b.png","70","img/orange_2bandit_b.png","70","test","","","","","","","","","","","5","","","","","","","","",""
"null","917701","SARL_v6","SARL_v6to0zbajs","5fdfb7d6e1442280fc095a66","fixation","","","img/fixation.png","null","","","test","","","","","","","","","","","","","","","","","","","",""
"122","917830","SARL_v6","SARL_v6to0zbajs","5fdfb7d6e1442280fc095a66","infreq","","","img/blue_2bandit_b2.png","70","","68","test","0","","111","","","","circle","square","107","16","5","0.9813084112149533","","","","","","","",""
"null","918515","SARL_v6","SARL_v6to0zbajs","5fdfb7d6e1442280fc095a66","infreq_resp","","","img/blue_2bandit_b.png","70","img/blue_2bandit_b.png","68","test","","","","","","","","","","","5","","","","","","","","",""
"null","918674","SARL_v6","SARL_v6to0zbajs","5fdfb7d6e1442280fc095a66","fixation","","","img/fixation.png","null","","","test","","","","","","","","","","","","","","","","","","","",""
"238.59999999962747","918915","SARL_v6","SARL_v6to0zbajs","5fdfb7d6e1442280fc095a66","freq","","","img/orange_2bandit_b2.png","70","","70","test","1","","112","","","","circle","square","108","17","5","0.9814814814814815","","","","","","","",""
"null","919480","SARL_v6","SARL_v6to0zbajs","5fdfb7d6e1442280fc095a66","freq_resp","","","img/orange_2bandit_b.png","70","img/orange_2bandit_b.png","70","test","","","","","","","","","","","5","","","","","","","","",""
"null","919638","SARL_v6","SARL_v6to0zbajs","5fdfb7d6e1442280fc095a66","fixation","","","img/fixation.png","null","","","test","","","","","","","","","","","","","","","","","","","",""
"83.09999999962747","919724","SARL_v6","SARL_v6to0zbajs","5fdfb7d6e1442280fc095a66","freq","","","img/orange_2bandit_b2.png","70","","70","test","1","","113","","","","circle","square","109","18","5","0.981651376146789","","","","","","","",""
"null","920446","SARL_v6","SARL_v6to0zbajs","5fdfb7d6e1442280fc095a66","freq_resp","","","img/orange_2bandit_b.png","70","img/orange_2bandit_b.png","70","test","","","","","","","","","","","5","","","","","","","","",""
"null","920601","SARL_v6","SARL_v6to0zbajs","5fdfb7d6e1442280fc095a66","fixation","","","img/fixation.png","null","","","test","","","","","","","","","","","","","","","","","","","",""
"107","920712","SARL_v6","SARL_v6to0zbajs","5fdfb7d6e1442280fc095a66","freq","","","img/orange_2bandit_b2.png","70","","70","test","1","","114","","","","circle","square","110","19","5","0.9818181818181818","","","","","","","",""
"null","921422","SARL_v6","SARL_v6to0zbajs","5fdfb7d6e1442280fc095a66","freq_resp","","","img/orange_2bandit_b.png","70","img/orange_2bandit_b.png","70","test","","","","","","","","","","","5","","","","","","","","",""
"null","921578","SARL_v6","SARL_v6to0zbajs","5fdfb7d6e1442280fc095a66","fixation","","","img/fixation.png","null","","","test","","","","","","","","","","","","","","","","","","","",""
"239.20000000018626","921823","SARL_v6","SARL_v6to0zbajs","5fdfb7d6e1442280fc095a66","freq","","","img/orange_2bandit_b2.png","70","","70","test","1","","115","","","","circle","square","111","20","5","0.9819819819819819","","","","","","","",""
"null","922403","SARL_v6","SARL_v6to0zbajs","5fdfb7d6e1442280fc095a66","freq_resp","","","img/orange_2bandit_b.png","70","img/orange_2bandit_b.png","70","test","","","","","","","","","","","5","","","","","","","","",""
"null","922573","SARL_v6","SARL_v6to0zbajs","5fdfb7d6e1442280fc095a66","fixation","","","img/fixation.png","null","","","test","","","","","","","","","","","","","","","","","","","",""
"239.20000000018626","922816","SARL_v6","SARL_v6to0zbajs","5fdfb7d6e1442280fc095a66","freq","","","img/orange_2bandit_b2.png","70","","70","test","1","","116","","","","circle","square","112","21","5","0.9821428571428571","","","","","","","",""
"null","923387","SARL_v6","SARL_v6to0zbajs","5fdfb7d6e1442280fc095a66","freq_resp","","","img/orange_2bandit_b.png","70","img/orange_2bandit_b.png","70","test","","","","","","","","","","","5","","","","","","","","",""
"null","923541","SARL_v6","SARL_v6to0zbajs","5fdfb7d6e1442280fc095a66","fixation","","","img/fixation.png","null","","","test","","","","","","","","","","","","","","","","","","","",""
"319.79999999981374","923866","SARL_v6","SARL_v6to0zbajs","5fdfb7d6e1442280fc095a66","freq","","","img/orange_2bandit_b2.png","70","","70","test","1","","117","","","","circle","square","113","22","5","0.9823008849557522","","","","","","","",""
"null","924365","SARL_v6","SARL_v6to0zbajs","5fdfb7d6e1442280fc095a66","freq_resp","","","img/orange_2bandit_b.png","70","img/orange_2bandit_b.png","70","test","","","","","","","","","","","5","","","","","","","","",""
"null","924520","SARL_v6","SARL_v6to0zbajs","5fdfb7d6e1442280fc095a66","fixation","","","img/fixation.png","null","","","test","","","","","","","","","","","","","","","","","","","",""
"277","924800","SARL_v6","SARL_v6to0zbajs","5fdfb7d6e1442280fc095a66","freq","","","img/orange_2bandit_b2.png","70","","70","test","1","","118","","","","circle","square","114","23","5","0.9824561403508771","","","","","","","",""
"null","925330","SARL_v6","SARL_v6to0zbajs","5fdfb7d6e1442280fc095a66","freq_resp","","","img/orange_2bandit_b.png","70","img/orange_2bandit_b.png","70","test","","","","","","","","","","","5","","","","","","","","",""
"null","925487","SARL_v6","SARL_v6to0zbajs","5fdfb7d6e1442280fc095a66","fixation","","","img/fixation.png","null","","","test","","","","","","","","","","","","","","","","","","","",""
"619.5999999996275","926109","SARL_v6","SARL_v6to0zbajs","5fdfb7d6e1442280fc095a66","rl","","","img/black_2bandit_b2.png","75","","0","test","","","119","","","-7","circle","square","","0","5","","75","4","-7","4","-7","square","5","0"
"null","926871","SARL_v6","SARL_v6to0zbajs","5fdfb7d6e1442280fc095a66","feedback","","","<div class=""verylowPoints_sq""> -7 </div>","null","","na","test","","","NaN","","","","","","","","5","","75","","","","","","5",""
"555.2999999998137","927429","SARL_v6","SARL_v6to0zbajs","5fdfb7d6e1442280fc095a66","freq","","","img/orange_2bandit_b2.png","70","","70","test","1","","120","","","","circle","square","115","1","6","0.9826086956521739","","","","","","","",""
"null","927700","SARL_v6","SARL_v6to0zbajs","5fdfb7d6e1442280fc095a66","freq_resp","","","img/orange_2bandit_b.png","70","img/orange_2bandit_b.png","70","test","","","","","","","","","","","6","","","","","","","","",""
"null","927885","SARL_v6","SARL_v6to0zbajs","5fdfb7d6e1442280fc095a66","fixation","","","img/fixation.png","null","","","test","","","","","","","","","","","","","","","","","","","",""
"198.70000000018626","928092","SARL_v6","SARL_v6to0zbajs","5fdfb7d6e1442280fc095a66","freq","","","img/orange_2bandit_b2.png","70","","70","test","1","","121","","","","circle","square","116","2","6","0.9827586206896551","","","","","","","",""
"null","928702","SARL_v6","SARL_v6to0zbajs","5fdfb7d6e1442280fc095a66","freq_resp","","","img/orange_2bandit_b.png","70","img/orange_2bandit_b.png","70","test","","","","","","","","","","","6","","","","","","","","",""
"null","928859","SARL_v6","SARL_v6to0zbajs","5fdfb7d6e1442280fc095a66","fixation","","","img/fixation.png","null","","","test","","","","","","","","","","","","","","","","","","","",""
"167.69999999925494","929029","SARL_v6","SARL_v6to0zbajs","5fdfb7d6e1442280fc095a66","freq","","","img/orange_2bandit_b2.png","70","","70","test","1","","122","","","","circle","square","117","3","6","0.9829059829059829","","","","","","","",""
"null","929674","SARL_v6","SARL_v6to0zbajs","5fdfb7d6e1442280fc095a66","freq_resp","","","img/orange_2bandit_b.png","70","img/orange_2bandit_b.png","70","test","","","","","","","","","","","6","","","","","","","","",""
"null","929831","SARL_v6","SARL_v6to0zbajs","5fdfb7d6e1442280fc095a66","fixation","","","img/fixation.png","null","","","test","","","","","","","","","","","","","","","","","","","",""
"89.70000000018626","929923","SARL_v6","SARL_v6to0zbajs","5fdfb7d6e1442280fc095a66","freq","","","img/orange_2bandit_b2.png","70","","70","test","1","","123","","","","circle","square","118","4","6","0.9830508474576272","","","","","","","",""
"null","930646","SARL_v6","SARL_v6to0zbajs","5fdfb7d6e1442280fc095a66","freq_resp","","","img/orange_2bandit_b.png","70","img/orange_2bandit_b.png","70","test","","","","","","","","","","","6","","","","","","","","",""
"null","930813","SARL_v6","SARL_v6to0zbajs","5fdfb7d6e1442280fc095a66","fixation","","","img/fixation.png","null","","","test","","","","","","","","","","","","","","","","","","","",""
"89.59999999962747","930906","SARL_v6","SARL_v6to0zbajs","5fdfb7d6e1442280fc095a66","freq","","","img/orange_2bandit_b2.png","70","","70","test","1","","124","","","","circle","square","119","5","6","0.9831932773109243","","","","","","","",""
"null","931619","SARL_v6","SARL_v6to0zbajs","5fdfb7d6e1442280fc095a66","freq_resp","","","img/orange_2bandit_b.png","70","img/orange_2bandit_b.png","70","test","","","","","","","","","","","6","","","","","","","","",""
"null","931778","SARL_v6","SARL_v6to0zbajs","5fdfb7d6e1442280fc095a66","fixation","","","img/fixation.png","null","","","test","","","","","","","","","","","","","","","","","","","",""
"79.80000000074506","931861","SARL_v6","SARL_v6to0zbajs","5fdfb7d6e1442280fc095a66","freq","","","img/orange_2bandit_b2.png","70","","70","test","1","","125","","","","circle","square","120","6","6","0.9833333333333333","","","","","","","",""
"null","932594","SARL_v6","SARL_v6to0zbajs","5fdfb7d6e1442280fc095a66","freq_resp","","","img/orange_2bandit_b.png","70","img/orange_2bandit_b.png","70","test","","","","","","","","","","","6","","","","","","","","",""
"null","932747","SARL_v6","SARL_v6to0zbajs","5fdfb7d6e1442280fc095a66","fixation","","","img/fixation.png","null","","","test","","","","","","","","","","","","","","","","","","","",""
"121.3999999994412","932871","SARL_v6","SARL_v6to0zbajs","5fdfb7d6e1442280fc095a66","freq","","","img/orange_2bandit_b2.png","70","","70","test","1","","126","","","","circle","square","121","7","6","0.9834710743801653","","","","","","","",""
"null","933559","SARL_v6","SARL_v6to0zbajs","5fdfb7d6e1442280fc095a66","freq_resp","","","img/orange_2bandit_b.png","70","img/orange_2bandit_b.png","70","test","","","","","","","","","","","6","","","","","","","","",""
"null","933715","SARL_v6","SARL_v6to0zbajs","5fdfb7d6e1442280fc095a66","fixation","","","img/fixation.png","null","","","test","","","","","","","","","","","","","","","","","","","",""
"238.30000000074506","933956","SARL_v6","SARL_v6to0zbajs","5fdfb7d6e1442280fc095a66","freq","","","img/orange_2bandit_b2.png","70","","70","test","1","","127","","","","circle","square","122","8","6","0.9836065573770492","","","","","","","",""
"null","934522","SARL_v6","SARL_v6to0zbajs","5fdfb7d6e1442280fc095a66","freq_resp","","","img/orange_2bandit_b.png","70","img/orange_2bandit_b.png","70","test","","","","","","","","","","","6","","","","","","","","",""
"null","934678","SARL_v6","SARL_v6to0zbajs","5fdfb7d6e1442280fc095a66","fixation","","","img/fixation.png","null","","","test","","","","","","","","","","","","","","","","","","","",""
"278.90000000037253","934960","SARL_v6","SARL_v6to0zbajs","5fdfb7d6e1442280fc095a66","freq","","","img/orange_2bandit_b2.png","70","","70","test","1","","128","","","","circle","square","123","9","6","0.983739837398374","","","","","","","",""
"null","935486","SARL_v6","SARL_v6to0zbajs","5fdfb7d6e1442280fc095a66","freq_resp","","","img/orange_2bandit_b.png","70","img/orange_2bandit_b.png","70","test","","","","","","","","","","","6","","","","","","","","",""
"null","935643","SARL_v6","SARL_v6to0zbajs","5fdfb7d6e1442280fc095a66","fixation","","","img/fixation.png","null","","","test","","","","","","","","","","","","","","","","","","","",""
"289.20000000018626","935935","SARL_v6","SARL_v6to0zbajs","5fdfb7d6e1442280fc095a66","infreq","","","img/blue_2bandit_b2.png","68","","68","test","1","","129","","","","circle","square","124","10","6","0.9838709677419355","","","","","","","",""
"null","936447","SARL_v6","SARL_v6to0zbajs","5fdfb7d6e1442280fc095a66","infreq_resp","","","img/blue_2bandit_b.png","68","img/blue_2bandit_b.png","68","test","","","","","","","","","","","6","","","","","","","","",""
"null","936607","SARL_v6","SARL_v6to0zbajs","5fdfb7d6e1442280fc095a66","fixation","","","img/fixation.png","null","","","test","","","","","","","","","","","","","","","","","","","",""
