"rt","time_elapsed","expId","subject","prolificID","trialType","rlType","attType","stimulus","key_press","stim","corrresp","phase","corr","pracCounter","trialNum","rewardOne","rewardTwo","reward","bandOne","bandTwo","attentionNum","attentionRunNum","blockNum","performance","bandChosen","circleVal","squareVal","bandOneVal","bandTwoVal","shapeChosen","rlNum","badFlag"
"10571.600000000093","10589","SARL_v6","SARL_v66gcwousw","63615bb6922c170dc50b434a","","","","","","","","","","","","","","","","","","","","","","","","","","","",""
"","14374","SARL_v6","SARL_v66gcwousw","63615bb6922c170dc50b434a","fullscreen","fullscreen","fullscreen","","","","","","","","","","","","","","","","","","","","","","","","",""
"159990","174378","SARL_v6","SARL_v66gcwousw","63615bb6922c170dc50b434a","","","","","","","","","","","","","","","","","","","","","","","","","","","",""
"null","175199","SARL_v6","SARL_v66gcwousw","63615bb6922c170dc50b434a","freqPrac","","","img/blue_2bandit_b2.png","null","img/blue_2bandit_b2.png","70","prac","0","1","","","","","","","","","","","","","","","","","",""
"null","176224","SARL_v6","SARL_v66gcwousw","63615bb6922c170dc50b434a","feedback","","","img/tooSlow.png","null","","na","prac","","","","","","","","","","","","","","","","","","","",""
"null","176387","SARL_v6","SARL_v66gcwousw","63615bb6922c170dc50b434a","fixation","","","img/fixation.png","null","","","prac","","","","","","","","","","","","","","","","","","","",""
"null","177203","SARL_v6","SARL_v66gcwousw","63615bb6922c170dc50b434a","infreqPrac","","","img/orange_2bandit_b2.png","null","img/orange_2bandit_b2.png","68","prac","0","2","","","","","","","","","","","","","","","","","",""
"null","178219","SARL_v6","SARL_v66gcwousw","63615bb6922c170dc50b434a","feedback","","","img/tooSlow.png","null","","na","prac","","","","","","","","","","","","","","","","","","","",""
"null","178387","SARL_v6","SARL_v66gcwousw","63615bb6922c170dc50b434a","fixation","","","img/fixation.png","null","","","prac","","","","","","","","","","","","","","","","","","","",""
"464.79999999981374","178866","SARL_v6","SARL_v66gcwousw","63615bb6922c170dc50b434a","freqPrac","","","img/blue_2bandit_b2.png","70","img/blue_2bandit_b2.png","70","prac","1","2","","","","","","","","","","","","","","","","","",""
"464.79999999981374","179219","SARL_v6","SARL_v66gcwousw","63615bb6922c170dc50b434a","freqPrac_resp","","","img/blue_2bandit_b.png","70","img/blue_2bandit_b.png","70","prac","","","","","","","","","","","","","","","","","","","",""
"null","179387","SARL_v6","SARL_v66gcwousw","63615bb6922c170dc50b434a","fixation","","","img/fixation.png","null","","","prac","","","","","","","","","","","","","","","","","","","",""
"385.3000000002794","179784","SARL_v6","SARL_v66gcwousw","63615bb6922c170dc50b434a","infreqPrac","","","img/orange_2bandit_b2.png","68","img/orange_2bandit_b2.png","68","prac","1","2","","","","","","","","","","","","","","","","","",""
"385.3000000002794","180211","SARL_v6","SARL_v66gcwousw","63615bb6922c170dc50b434a","infreqPrac_resp","","","img/orange_2bandit_b.png","68","img/orange_2bandit_b.png","68","prac","","","","","","","","","","","","","","","","","","","",""
"null","180380","SARL_v6","SARL_v66gcwousw","63615bb6922c170dc50b434a","fixation","","","img/fixation.png","null","","","prac","","","","","","","","","","","","","","","","","","","",""
"452.8000000002794","180844","SARL_v6","SARL_v66gcwousw","63615bb6922c170dc50b434a","infreqPrac","","","img/orange_2bandit_b2.png","68","img/orange_2bandit_b2.png","68","prac","1","2","","","","","","","","","","","","","","","","","",""
"452.8000000002794","181203","SARL_v6","SARL_v66gcwousw","63615bb6922c170dc50b434a","infreqPrac_resp","","","img/orange_2bandit_b.png","68","img/orange_2bandit_b.png","68","prac","","","","","","","","","","","","","","","","","","","",""
"null","181371","SARL_v6","SARL_v66gcwousw","63615bb6922c170dc50b434a","fixation","","","img/fixation.png","null","","","prac","","","","","","","","","","","","","","","","","","","",""
"418.60000000009313","181802","SARL_v6","SARL_v66gcwousw","63615bb6922c170dc50b434a","infreqPrac","","","img/orange_2bandit_b2.png","68","img/orange_2bandit_b2.png","68","prac","1","2","","","","","","","","","","","","","","","","","",""
"418.60000000009313","182194","SARL_v6","SARL_v66gcwousw","63615bb6922c170dc50b434a","infreqPrac_resp","","","img/orange_2bandit_b.png","68","img/orange_2bandit_b.png","68","prac","","","","","","","","","","","","","","","","","","","",""
"null","182362","SARL_v6","SARL_v66gcwousw","63615bb6922c170dc50b434a","fixation","","","img/fixation.png","null","","","prac","","","","","","","","","","","","","","","","","","","",""
"526.3999999999069","182901","SARL_v6","SARL_v66gcwousw","63615bb6922c170dc50b434a","freqPrac","","","img/blue_2bandit_b2.png","70","img/blue_2bandit_b2.png","70","prac","1","2","","","","","","","","","","","","","","","","","",""
"526.3999999999069","183187","SARL_v6","SARL_v66gcwousw","63615bb6922c170dc50b434a","freqPrac_resp","","","img/blue_2bandit_b.png","70","img/blue_2bandit_b.png","70","prac","","","","","","","","","","","","","","","","","","","",""
"null","183355","SARL_v6","SARL_v66gcwousw","63615bb6922c170dc50b434a","fixation","","","img/fixation.png","null","","","prac","","","","","","","","","","","","","","","","","","","",""
"544.8999999999069","183912","SARL_v6","SARL_v66gcwousw","63615bb6922c170dc50b434a","infreqPrac","","","img/orange_2bandit_b2.png","70","img/orange_2bandit_b2.png","68","prac","0","3","","","","","","","","","","","","","","","","","",""
"544.8999999999069","184179","SARL_v6","SARL_v66gcwousw","63615bb6922c170dc50b434a","infreqPrac_resp","","","img/orange_2bandit_b.png","70","img/orange_2bandit_b.png","68","prac","","","","","","","","","","","","","","","","","","","",""
"null","185195","SARL_v6","SARL_v66gcwousw","63615bb6922c170dc50b434a","feedback","","","img/wrongKey.png","null","","na","prac","","","","","","","","","","","","","","","","","","","",""
"null","185362","SARL_v6","SARL_v66gcwousw","63615bb6922c170dc50b434a","fixation","","","img/fixation.png","null","","","prac","","","","","","","","","","","","","","","","","","","",""
"571.5","185945","SARL_v6","SARL_v66gcwousw","63615bb6922c170dc50b434a","freqPrac","","","img/blue_2bandit_b2.png","70","img/blue_2bandit_b2.png","70","prac","1","3","","","","","","","","","","","","","","","","","",""
"571.5","186187","SARL_v6","SARL_v66gcwousw","63615bb6922c170dc50b434a","freqPrac_resp","","","img/blue_2bandit_b.png","70","img/blue_2bandit_b.png","70","prac","","","","","","","","","","","","","","","","","","","",""
"null","186355","SARL_v6","SARL_v66gcwousw","63615bb6922c170dc50b434a","fixation","","","img/fixation.png","null","","","prac","","","","","","","","","","","","","","","","","","","",""
"401.1999999997206","186769","SARL_v6","SARL_v66gcwousw","63615bb6922c170dc50b434a","freqPrac","","","img/blue_2bandit_b2.png","70","img/blue_2bandit_b2.png","70","prac","1","3","","","","","","","","","","","","","","","","","",""
"401.1999999997206","187180","SARL_v6","SARL_v66gcwousw","63615bb6922c170dc50b434a","freqPrac_resp","","","img/blue_2bandit_b.png","70","img/blue_2bandit_b.png","70","prac","","","","","","","","","","","","","","","","","","","",""
"null","187347","SARL_v6","SARL_v66gcwousw","63615bb6922c170dc50b434a","fixation","","","img/fixation.png","null","","","prac","","","","","","","","","","","","","","","","","","","",""
"75907.3999999999","263261","SARL_v6","SARL_v66gcwousw","63615bb6922c170dc50b434a","","","","","","","","prac","","","","","","","","","","","","","","","","","","","",""
"733.6000000000931","264007","SARL_v6","SARL_v66gcwousw","63615bb6922c170dc50b434a","rlPractice","","","img/black_2bandit_b2.png","74","img/black_2bandit_b2.png","","prac","","","0","","","","","","","","","","","","","","","","",""
"null","264769","SARL_v6","SARL_v66gcwousw","63615bb6922c170dc50b434a","feedback","","","<div class=""veryhighPoints""> 10 </div>","null","","na","prac","","","1","10","-14","10","","","","","","","","","","","","","",""
"null","264929","SARL_v6","SARL_v66gcwousw","63615bb6922c170dc50b434a","fixation","","","img/fixation.png","null","","","prac","","","","","","","","","","","","","","","","","","","",""
"589","265527","SARL_v6","SARL_v66gcwousw","63615bb6922c170dc50b434a","rlPractice","","","img/black_2bandit_b2.png","75","img/black_2bandit_b2.png","","prac","","","1","","","","","","","","","","","","","","","","",""
"null","266289","SARL_v6","SARL_v66gcwousw","63615bb6922c170dc50b434a","feedback","","","<div class=""verylowPoints_sq""> -5 </div>","null","","na","prac","","","2","5","-5","5","","","","","","","","","","","","","",""
"null","266449","SARL_v6","SARL_v66gcwousw","63615bb6922c170dc50b434a","fixation","","","img/fixation.png","null","","","prac","","","","","","","","","","","","","","","","","","","",""
"479.1999999997206","266937","SARL_v6","SARL_v66gcwousw","63615bb6922c170dc50b434a","rlPractice","","","img/black_2bandit_b2.png","74","img/black_2bandit_b2.png","","prac","","","2","","","","","","","","","","","","","","","","",""
"null","267699","SARL_v6","SARL_v66gcwousw","63615bb6922c170dc50b434a","feedback","","","<div class=""veryhighPoints""> 30 </div>","null","","na","prac","","","3","30","2","30","","","","","","","","","","","","","",""
"null","267865","SARL_v6","SARL_v66gcwousw","63615bb6922c170dc50b434a","fixation","","","img/fixation.png","null","","","prac","","","","","","","","","","","","","","","","","","","",""
"561.4000000003725","268436","SARL_v6","SARL_v66gcwousw","63615bb6922c170dc50b434a","rlPractice","","","img/black_2bandit_b2.png","74","img/black_2bandit_b2.png","","prac","","","3","","","","","","","","","","","","","","","","",""
"null","269201","SARL_v6","SARL_v66gcwousw","63615bb6922c170dc50b434a","feedback","","","<div class=""verylowPoints""> -2 </div>","null","","na","prac","","","4","-2","20","-2","","","","","","","","","","","","","",""
"null","269362","SARL_v6","SARL_v66gcwousw","63615bb6922c170dc50b434a","fixation","","","img/fixation.png","null","","","prac","","","","","","","","","","","","","","","","","","","",""
"122570.8999999999","391941","SARL_v6","SARL_v66gcwousw","63615bb6922c170dc50b434a","","","","","","","","prac","","","","","","","","","","","","","","","","","","","",""
"null","392753","SARL_v6","SARL_v66gcwousw","63615bb6922c170dc50b434a","mixAttFreqPrac","","","img/blue_2bandit_b2.png","null","img/blue_2bandit_b2.png","70","prac","","","1","","","","","","","","","","","","","","","","",""
"null","392912","SARL_v6","SARL_v66gcwousw","63615bb6922c170dc50b434a","fixation","","","img/fixation.png","null","","","prac","","","","","","","","","","","","","","","","","","","",""
"33.299999999813735","392956","SARL_v6","SARL_v66gcwousw","63615bb6922c170dc50b434a","mixAttInfreqPrac","","","img/orange_2bandit_b2.png","70","img/orange_2bandit_b2.png","68","prac","","","2","","","","","","","","","","","","","","","","",""
"33.299999999813735","393739","SARL_v6","SARL_v66gcwousw","63615bb6922c170dc50b434a","infreqPrac_resp","","","img/orange_2bandit_b.png","70","img/blue_2bandit_b.png","68","prac","","","2","","","","","","","","","","","","","","","","",""
"null","393907","SARL_v6","SARL_v66gcwousw","63615bb6922c170dc50b434a","fixation","","","img/fixation.png","null","","","prac","","","","","","","","","","","","","","","","","","","",""
"558.0999999996275","394475","SARL_v6","SARL_v66gcwousw","63615bb6922c170dc50b434a","mixAttInfreqPrac","","","img/orange_2bandit_b2.png","68","img/orange_2bandit_b2.png","68","prac","","","3","","","","","","","","","","","","","","","","",""
"558.0999999996275","394730","SARL_v6","SARL_v66gcwousw","63615bb6922c170dc50b434a","infreqPrac_resp","","","img/orange_2bandit_b.png","68","img/blue_2bandit_b.png","68","prac","","","3","","","","","","","","","","","","","","","","",""
"null","394889","SARL_v6","SARL_v66gcwousw","63615bb6922c170dc50b434a","fixation","","","img/fixation.png","null","","","prac","","","","","","","","","","","","","","","","","","","",""
"356.3000000002794","395255","SARL_v6","SARL_v66gcwousw","63615bb6922c170dc50b434a","mixAttInfreqPrac","","","img/orange_2bandit_b2.png","68","img/orange_2bandit_b2.png","68","prac","","","4","","","","","","","","","","","","","","","","",""
"356.3000000002794","395712","SARL_v6","SARL_v66gcwousw","63615bb6922c170dc50b434a","infreqPrac_resp","","","img/orange_2bandit_b.png","68","img/blue_2bandit_b.png","68","prac","","","4","","","","","","","","","","","","","","","","",""
"null","395875","SARL_v6","SARL_v66gcwousw","63615bb6922c170dc50b434a","fixation","","","img/fixation.png","null","","","prac","","","","","","","","","","","","","","","","","","","",""
"424.5","396308","SARL_v6","SARL_v66gcwousw","63615bb6922c170dc50b434a","mixAttFreqPrac","","","img/blue_2bandit_b2.png","70","img/blue_2bandit_b2.png","70","prac","","","5","","","","","","","","","","","","","","","","",""
"424.5","396697","SARL_v6","SARL_v66gcwousw","63615bb6922c170dc50b434a","freqPrac_resp","","","img/blue_2bandit_b.png","70","img/blue_2bandit_b.png","70","prac","","","5","","","","","","","","","","","","","","","","",""
"null","396857","SARL_v6","SARL_v66gcwousw","63615bb6922c170dc50b434a","fixation","","","img/fixation.png","null","","","prac","","","","","","","","","","","","","","","","","","","",""
"783.1999999997206","397648","SARL_v6","SARL_v66gcwousw","63615bb6922c170dc50b434a","mixRLPractice","","","img/black_2bandit_b2.png","75","img/black_2bandit_b2.png","","prac","","","5","","","","","","","","","","","","","","","","",""
"null","398410","SARL_v6","SARL_v66gcwousw","63615bb6922c170dc50b434a","feedback","","","<div class=""veryhighPoints_sq""> 10 </div>","null","","na","prac","","","6","-14","10","-14","","","","","","","","","","","","","",""
"null","398570","SARL_v6","SARL_v66gcwousw","63615bb6922c170dc50b434a","fixation","","","img/fixation.png","null","","","prac","","","","","","","","","","","","","","","","","","","",""
"null","399386","SARL_v6","SARL_v66gcwousw","63615bb6922c170dc50b434a","mixAttFreqPrac","","","img/blue_2bandit_b2.png","null","img/blue_2bandit_b2.png","70","prac","","","7","","","","","","","","","","","","","","","","",""
"50.700000000186265","399545","SARL_v6","SARL_v66gcwousw","63615bb6922c170dc50b434a","fixation","","","img/fixation.png","70","","","prac","","","","","","","","","","","","","","","","","","","",""
"455.3000000002794","400009","SARL_v6","SARL_v66gcwousw","63615bb6922c170dc50b434a","mixAttInfreqPrac","","","img/orange_2bandit_b2.png","68","img/orange_2bandit_b2.png","68","prac","","","8","","","","","","","","","","","","","","","","",""
"455.3000000002794","400369","SARL_v6","SARL_v66gcwousw","63615bb6922c170dc50b434a","infreqPrac_resp","","","img/orange_2bandit_b.png","68","img/blue_2bandit_b.png","68","prac","","","8","","","","","","","","","","","","","","","","",""
"null","400530","SARL_v6","SARL_v66gcwousw","63615bb6922c170dc50b434a","fixation","","","img/fixation.png","null","","","prac","","","","","","","","","","","","","","","","","","","",""
"606.5","401147","SARL_v6","SARL_v66gcwousw","63615bb6922c170dc50b434a","mixAttFreqPrac","","","img/blue_2bandit_b2.png","70","img/blue_2bandit_b2.png","70","prac","","","9","","","","","","","","","","","","","","","","",""
"606.5","401353","SARL_v6","SARL_v66gcwousw","63615bb6922c170dc50b434a","freqPrac_resp","","","img/blue_2bandit_b.png","70","img/blue_2bandit_b.png","70","prac","","","9","","","","","","","","","","","","","","","","",""
"null","401512","SARL_v6","SARL_v66gcwousw","63615bb6922c170dc50b434a","fixation","","","img/fixation.png","null","","","prac","","","","","","","","","","","","","","","","","","","",""
"606.6000000000931","402128","SARL_v6","SARL_v66gcwousw","63615bb6922c170dc50b434a","mixAttFreqPrac","","","img/blue_2bandit_b2.png","70","img/blue_2bandit_b2.png","70","prac","","","10","","","","","","","","","","","","","","","","",""
"606.6000000000931","402337","SARL_v6","SARL_v66gcwousw","63615bb6922c170dc50b434a","freqPrac_resp","","","img/blue_2bandit_b.png","70","img/blue_2bandit_b.png","70","prac","","","10","","","","","","","","","","","","","","","","",""
"null","402497","SARL_v6","SARL_v66gcwousw","63615bb6922c170dc50b434a","fixation","","","img/fixation.png","null","","","prac","","","","","","","","","","","","","","","","","","","",""
"528.2000000001863","403035","SARL_v6","SARL_v66gcwousw","63615bb6922c170dc50b434a","mixAttInfreqPrac","","","img/orange_2bandit_b2.png","68","img/orange_2bandit_b2.png","68","prac","","","11","","","","","","","","","","","","","","","","",""
"528.2000000001863","403322","SARL_v6","SARL_v66gcwousw","63615bb6922c170dc50b434a","infreqPrac_resp","","","img/orange_2bandit_b.png","68","img/blue_2bandit_b.png","68","prac","","","11","","","","","","","","","","","","","","","","",""
"null","403483","SARL_v6","SARL_v66gcwousw","63615bb6922c170dc50b434a","fixation","","","img/fixation.png","null","","","prac","","","","","","","","","","","","","","","","","","","",""
"727.5999999996275","404220","SARL_v6","SARL_v66gcwousw","63615bb6922c170dc50b434a","mixRLPractice","","","img/black_2bandit_b2.png","74","img/black_2bandit_b2.png","","prac","","","11","","","","","","","","","","","","","","","","",""
"null","404985","SARL_v6","SARL_v66gcwousw","63615bb6922c170dc50b434a","feedback","","","<div class=""veryhighPoints""> 5 </div>","null","","na","prac","","","12","5","-5","5","","","","","","","","","","","","","",""
"null","405145","SARL_v6","SARL_v66gcwousw","63615bb6922c170dc50b434a","fixation","","","img/fixation.png","null","","","prac","","","","","","","","","","","","","","","","","","","",""
"247791.90000000037","652945","SARL_v6","SARL_v66gcwousw","63615bb6922c170dc50b434a","","","","","","","","prac","","","","","","","","","","","","","","","","","","","",""
"801.7999999998137","653761","SARL_v6","SARL_v66gcwousw","63615bb6922c170dc50b434a","freq","","","img/blue_2bandit_b2.png","70","","70","test","1","","1","","","","circle","square","1","1","1","1","","","","","","","",""
"null","653924","SARL_v6","SARL_v66gcwousw","63615bb6922c170dc50b434a","fixation","","","img/fixation.png","null","","","test","","","","","","","","","","","","","","","","","","","",""
"537","654473","SARL_v6","SARL_v66gcwousw","63615bb6922c170dc50b434a","freq","","","img/blue_2bandit_b2.png","70","","70","test","1","","2","","","","circle","square","2","2","1","1","","","","","","","",""
"null","654756","SARL_v6","SARL_v66gcwousw","63615bb6922c170dc50b434a","freq_resp","","","img/blue_2bandit_b.png","70","img/blue_2bandit_b.png","70","test","","","","","","","","","","","1","","","","","","","","",""
"null","654923","SARL_v6","SARL_v66gcwousw","63615bb6922c170dc50b434a","fixation","","","img/fixation.png","null","","","test","","","","","","","","","","","","","","","","","","","",""
"718.2999999998137","655654","SARL_v6","SARL_v66gcwousw","63615bb6922c170dc50b434a","freq","","","img/blue_2bandit_b2.png","70","","70","test","1","","3","","","","circle","square","3","3","1","1","","","","","","","",""
"null","655746","SARL_v6","SARL_v66gcwousw","63615bb6922c170dc50b434a","freq_resp","","","img/blue_2bandit_b.png","70","img/blue_2bandit_b.png","70","test","","","","","","","","","","","1","","","","","","","","",""
"null","655915","SARL_v6","SARL_v66gcwousw","63615bb6922c170dc50b434a","fixation","","","img/fixation.png","null","","","test","","","","","","","","","","","","","","","","","","","",""
"583.9000000003725","656511","SARL_v6","SARL_v66gcwousw","63615bb6922c170dc50b434a","freq","","","img/blue_2bandit_b2.png","70","","70","test","1","","4","","","","circle","square","4","4","1","1","","","","","","","",""
"null","656739","SARL_v6","SARL_v66gcwousw","63615bb6922c170dc50b434a","freq_resp","","","img/blue_2bandit_b.png","70","img/blue_2bandit_b.png","70","test","","","","","","","","","","","1","","","","","","","","",""
"null","656906","SARL_v6","SARL_v66gcwousw","63615bb6922c170dc50b434a","fixation","","","img/fixation.png","null","","","test","","","","","","","","","","","","","","","","","","","",""
"450.60000000009313","657368","SARL_v6","SARL_v66gcwousw","63615bb6922c170dc50b434a","infreq","","","img/orange_2bandit_b2.png","68","","68","test","1","","5","","","","circle","square","5","5","1","1","","","","","","","",""
"null","657731","SARL_v6","SARL_v66gcwousw","63615bb6922c170dc50b434a","infreq_resp","","","img/orange_2bandit_b.png","68","img/orange_2bandit_b.png","68","test","","","","","","","","","","","1","","","","","","","","",""
"null","657899","SARL_v6","SARL_v66gcwousw","63615bb6922c170dc50b434a","fixation","","","img/fixation.png","null","","","test","","","","","","","","","","","","","","","","","","","",""
"473.1999999997206","658384","SARL_v6","SARL_v66gcwousw","63615bb6922c170dc50b434a","freq","","","img/blue_2bandit_b2.png","70","","70","test","1","","6","","","","circle","square","6","6","1","1","","","","","","","",""
"null","658722","SARL_v6","SARL_v66gcwousw","63615bb6922c170dc50b434a","freq_resp","","","img/blue_2bandit_b.png","70","img/blue_2bandit_b.png","70","test","","","","","","","","","","","1","","","","","","","","",""
"null","658891","SARL_v6","SARL_v66gcwousw","63615bb6922c170dc50b434a","fixation","","","img/fixation.png","null","","","test","","","","","","","","","","","","","","","","","","","",""
"698.5","659602","SARL_v6","SARL_v66gcwousw","63615bb6922c170dc50b434a","freq","","","img/blue_2bandit_b2.png","70","","70","test","1","","7","","","","circle","square","7","7","1","1","","","","","","","",""
"null","659715","SARL_v6","SARL_v66gcwousw","63615bb6922c170dc50b434a","freq_resp","","","img/blue_2bandit_b.png","70","img/blue_2bandit_b.png","70","test","","","","","","","","","","","1","","","","","","","","",""
"null","659883","SARL_v6","SARL_v66gcwousw","63615bb6922c170dc50b434a","fixation","","","img/fixation.png","null","","","test","","","","","","","","","","","","","","","","","","","",""
"737.4000000003725","660632","SARL_v6","SARL_v66gcwousw","63615bb6922c170dc50b434a","freq","","","img/blue_2bandit_b2.png","70","","70","test","1","","8","","","","circle","square","8","8","1","1","","","","","","","",""
"null","660715","SARL_v6","SARL_v66gcwousw","63615bb6922c170dc50b434a","freq_resp","","","img/blue_2bandit_b.png","70","img/blue_2bandit_b.png","70","test","","","","","","","","","","","1","","","","","","","","",""
"null","660882","SARL_v6","SARL_v66gcwousw","63615bb6922c170dc50b434a","fixation","","","img/fixation.png","null","","","test","","","","","","","","","","","","","","","","","","","",""
"687.5","661580","SARL_v6","SARL_v66gcwousw","63615bb6922c170dc50b434a","freq","","","img/blue_2bandit_b2.png","70","","70","test","1","","9","","","","circle","square","9","9","1","1","","","","","","","",""
"null","661708","SARL_v6","SARL_v66gcwousw","63615bb6922c170dc50b434a","freq_resp","","","img/blue_2bandit_b.png","70","img/blue_2bandit_b.png","70","test","","","","","","","","","","","1","","","","","","","","",""
"null","661875","SARL_v6","SARL_v66gcwousw","63615bb6922c170dc50b434a","fixation","","","img/fixation.png","null","","","test","","","","","","","","","","","","","","","","","","","",""
"483.39999999990687","662369","SARL_v6","SARL_v66gcwousw","63615bb6922c170dc50b434a","freq","","","img/blue_2bandit_b2.png","70","","70","test","1","","10","","","","circle","square","10","10","1","1","","","","","","","",""
"null","662699","SARL_v6","SARL_v66gcwousw","63615bb6922c170dc50b434a","freq_resp","","","img/blue_2bandit_b.png","70","img/blue_2bandit_b.png","70","test","","","","","","","","","","","1","","","","","","","","",""
"null","662867","SARL_v6","SARL_v66gcwousw","63615bb6922c170dc50b434a","fixation","","","img/fixation.png","null","","","test","","","","","","","","","","","","","","","","","","","",""
"385.70000000018626","663264","SARL_v6","SARL_v66gcwousw","63615bb6922c170dc50b434a","freq","","","img/blue_2bandit_b2.png","70","","70","test","1","","11","","","","circle","square","11","11","1","1","","","","","","","",""
"null","663691","SARL_v6","SARL_v66gcwousw","63615bb6922c170dc50b434a","freq_resp","","","img/blue_2bandit_b.png","70","img/blue_2bandit_b.png","70","test","","","","","","","","","","","1","","","","","","","","",""
"null","663859","SARL_v6","SARL_v66gcwousw","63615bb6922c170dc50b434a","fixation","","","img/fixation.png","null","","","test","","","","","","","","","","","","","","","","","","","",""
"343.10000000009313","664214","SARL_v6","SARL_v66gcwousw","63615bb6922c170dc50b434a","freq","","","img/blue_2bandit_b2.png","70","","70","test","1","","12","","","","circle","square","12","12","1","1","","","","","","","",""
"null","664687","SARL_v6","SARL_v66gcwousw","63615bb6922c170dc50b434a","freq_resp","","","img/blue_2bandit_b.png","70","img/blue_2bandit_b.png","70","test","","","","","","","","","","","1","","","","","","","","",""
"null","664851","SARL_v6","SARL_v66gcwousw","63615bb6922c170dc50b434a","fixation","","","img/fixation.png","null","","","test","","","","","","","","","","","","","","","","","","","",""
"298.6999999997206","665162","SARL_v6","SARL_v66gcwousw","63615bb6922c170dc50b434a","freq","","","img/blue_2bandit_b2.png","70","","70","test","1","","13","","","","circle","square","13","13","1","1","","","","","","","",""
"null","665675","SARL_v6","SARL_v66gcwousw","63615bb6922c170dc50b434a","freq_resp","","","img/blue_2bandit_b.png","70","img/blue_2bandit_b.png","70","test","","","","","","","","","","","1","","","","","","","","",""
"null","665843","SARL_v6","SARL_v66gcwousw","63615bb6922c170dc50b434a","fixation","","","img/fixation.png","null","","","test","","","","","","","","","","","","","","","","","","","",""
"370","666225","SARL_v6","SARL_v66gcwousw","63615bb6922c170dc50b434a","freq","","","img/blue_2bandit_b2.png","70","","70","test","1","","14","","","","circle","square","14","14","1","1","","","","","","","",""
"null","666667","SARL_v6","SARL_v66gcwousw","63615bb6922c170dc50b434a","freq_resp","","","img/blue_2bandit_b.png","70","img/blue_2bandit_b.png","70","test","","","","","","","","","","","1","","","","","","","","",""
"null","666834","SARL_v6","SARL_v66gcwousw","63615bb6922c170dc50b434a","fixation","","","img/fixation.png","null","","","test","","","","","","","","","","","","","","","","","","","",""
"333.29999999981374","667178","SARL_v6","SARL_v66gcwousw","63615bb6922c170dc50b434a","freq","","","img/blue_2bandit_b2.png","70","","70","test","1","","15","","","","circle","square","15","15","1","1","","","","","","","",""
"null","667659","SARL_v6","SARL_v66gcwousw","63615bb6922c170dc50b434a","freq_resp","","","img/blue_2bandit_b.png","70","img/blue_2bandit_b.png","70","test","","","","","","","","","","","1","","","","","","","","",""
"null","667827","SARL_v6","SARL_v66gcwousw","63615bb6922c170dc50b434a","fixation","","","img/fixation.png","null","","","test","","","","","","","","","","","","","","","","","","","",""
"271.29999999981374","668109","SARL_v6","SARL_v66gcwousw","63615bb6922c170dc50b434a","freq","","","img/blue_2bandit_b2.png","70","","70","test","1","","16","","","","circle","square","16","16","1","1","","","","","","","",""
"null","668651","SARL_v6","SARL_v66gcwousw","63615bb6922c170dc50b434a","freq_resp","","","img/blue_2bandit_b.png","70","img/blue_2bandit_b.png","70","test","","","","","","","","","","","1","","","","","","","","",""
"null","668818","SARL_v6","SARL_v66gcwousw","63615bb6922c170dc50b434a","fixation","","","img/fixation.png","null","","","test","","","","","","","","","","","","","","","","","","","",""
"469.79999999981374","669298","SARL_v6","SARL_v66gcwousw","63615bb6922c170dc50b434a","infreq","","","img/orange_2bandit_b2.png","68","","68","test","1","","17","","","","circle","square","17","17","1","1","","","","","","","",""
"null","669642","SARL_v6","SARL_v66gcwousw","63615bb6922c170dc50b434a","infreq_resp","","","img/orange_2bandit_b.png","68","img/orange_2bandit_b.png","68","test","","","","","","","","","","","1","","","","","","","","",""
"null","669811","SARL_v6","SARL_v66gcwousw","63615bb6922c170dc50b434a","fixation","","","img/fixation.png","null","","","test","","","","","","","","","","","","","","","","","","","",""
"487.20000000018626","670310","SARL_v6","SARL_v66gcwousw","63615bb6922c170dc50b434a","freq","","","img/blue_2bandit_b2.png","70","","70","test","1","","18","","","","circle","square","18","18","1","1","","","","","","","",""
"null","670636","SARL_v6","SARL_v66gcwousw","63615bb6922c170dc50b434a","freq_resp","","","img/blue_2bandit_b.png","70","img/blue_2bandit_b.png","70","test","","","","","","","","","","","1","","","","","","","","",""
"null","670803","SARL_v6","SARL_v66gcwousw","63615bb6922c170dc50b434a","fixation","","","img/fixation.png","null","","","test","","","","","","","","","","","","","","","","","","","",""
"441.70000000018626","671257","SARL_v6","SARL_v66gcwousw","63615bb6922c170dc50b434a","freq","","","img/blue_2bandit_b2.png","70","","70","test","1","","19","","","","circle","square","19","19","1","1","","","","","","","",""
"null","671635","SARL_v6","SARL_v66gcwousw","63615bb6922c170dc50b434a","freq_resp","","","img/blue_2bandit_b.png","70","img/blue_2bandit_b.png","70","test","","","","","","","","","","","1","","","","","","","","",""
"null","671802","SARL_v6","SARL_v66gcwousw","63615bb6922c170dc50b434a","fixation","","","img/fixation.png","null","","","test","","","","","","","","","","","","","","","","","","","",""
"554.5","672369","SARL_v6","SARL_v66gcwousw","63615bb6922c170dc50b434a","rl","","","img/black_2bandit_b2.png","75","","0","test","","","20","","","-3","circle","square","","0","1","","75","-3","-3","-3","-3","square","1","0"
"null","673139","SARL_v6","SARL_v66gcwousw","63615bb6922c170dc50b434a","feedback","","","<div class=""verylowPoints_sq""> -3 </div>","null","","na","test","","","NaN","","","","","","","","1","","75","","","","","","1",""
"null","673955","SARL_v6","SARL_v66gcwousw","63615bb6922c170dc50b434a","freq","","","img/blue_2bandit_b2.png","null","","70","test","0","","21","","","","circle","square","20","1","2","0.95","","","","","","","",""
"null","674123","SARL_v6","SARL_v66gcwousw","63615bb6922c170dc50b434a","fixation","","","img/fixation.png","null","","","test","","","","","","","","","","","","","","","","","","","",""
"633.6000000000931","674768","SARL_v6","SARL_v66gcwousw","63615bb6922c170dc50b434a","freq","","","img/blue_2bandit_b2.png","70","","70","test","1","","22","","","","circle","square","21","2","2","0.9523809523809523","","","","","","","",""
"null","674948","SARL_v6","SARL_v66gcwousw","63615bb6922c170dc50b434a","freq_resp","","","img/blue_2bandit_b.png","70","img/blue_2bandit_b.png","70","test","","","","","","","","","","","2","","","","","","","","",""
"null","675116","SARL_v6","SARL_v66gcwousw","63615bb6922c170dc50b434a","fixation","","","img/fixation.png","null","","","test","","","","","","","","","","","","","","","","","","","",""
"null","675931","SARL_v6","SARL_v66gcwousw","63615bb6922c170dc50b434a","freq","","","img/blue_2bandit_b2.png","null","","70","test","0","","23","","","","circle","square","22","3","2","0.9090909090909091","","","","","","","",""
"null","676100","SARL_v6","SARL_v66gcwousw","63615bb6922c170dc50b434a","fixation","","","img/fixation.png","null","","","test","","","","","","","","","","","","","","","","","","","",""
"716.6999999997206","676829","SARL_v6","SARL_v66gcwousw","63615bb6922c170dc50b434a","freq","","","img/blue_2bandit_b2.png","70","","70","test","1","","24","","","","circle","square","23","4","2","0.9130434782608695","","","","","","","",""
"null","676931","SARL_v6","SARL_v66gcwousw","63615bb6922c170dc50b434a","freq_resp","","","img/blue_2bandit_b.png","70","img/blue_2bandit_b.png","70","test","","","","","","","","","","","2","","","","","","","","",""
"null","677098","SARL_v6","SARL_v66gcwousw","63615bb6922c170dc50b434a","fixation","","","img/fixation.png","null","","","test","","","","","","","","","","","","","","","","","","","",""
"564.2999999998137","677674","SARL_v6","SARL_v66gcwousw","63615bb6922c170dc50b434a","freq","","","img/blue_2bandit_b2.png","70","","70","test","1","","25","","","","circle","square","24","5","2","0.9166666666666666","","","","","","","",""
"null","677923","SARL_v6","SARL_v66gcwousw","63615bb6922c170dc50b434a","freq_resp","","","img/blue_2bandit_b.png","70","img/blue_2bandit_b.png","70","test","","","","","","","","","","","2","","","","","","","","",""
"null","678091","SARL_v6","SARL_v66gcwousw","63615bb6922c170dc50b434a","fixation","","","img/fixation.png","null","","","test","","","","","","","","","","","","","","","","","","","",""
"441.10000000009313","678545","SARL_v6","SARL_v66gcwousw","63615bb6922c170dc50b434a","freq","","","img/blue_2bandit_b2.png","70","","70","test","1","","26","","","","circle","square","25","6","2","0.92","","","","","","","",""
"null","678915","SARL_v6","SARL_v66gcwousw","63615bb6922c170dc50b434a","freq_resp","","","img/blue_2bandit_b.png","70","img/blue_2bandit_b.png","70","test","","","","","","","","","","","2","","","","","","","","",""
"null","679083","SARL_v6","SARL_v66gcwousw","63615bb6922c170dc50b434a","fixation","","","img/fixation.png","null","","","test","","","","","","","","","","","","","","","","","","","",""
"378.29999999981374","679473","SARL_v6","SARL_v66gcwousw","63615bb6922c170dc50b434a","freq","","","img/blue_2bandit_b2.png","70","","70","test","1","","27","","","","circle","square","26","7","2","0.9230769230769231","","","","","","","",""
"null","679907","SARL_v6","SARL_v66gcwousw","63615bb6922c170dc50b434a","freq_resp","","","img/blue_2bandit_b.png","70","img/blue_2bandit_b.png","70","test","","","","","","","","","","","2","","","","","","","","",""
"null","680075","SARL_v6","SARL_v66gcwousw","63615bb6922c170dc50b434a","fixation","","","img/fixation.png","null","","","test","","","","","","","","","","","","","","","","","","","",""
"317.5","680404","SARL_v6","SARL_v66gcwousw","63615bb6922c170dc50b434a","freq","","","img/blue_2bandit_b2.png","70","","70","test","1","","28","","","","circle","square","27","8","2","0.9259259259259259","","","","","","","",""
"null","680900","SARL_v6","SARL_v66gcwousw","63615bb6922c170dc50b434a","freq_resp","","","img/blue_2bandit_b.png","70","img/blue_2bandit_b.png","70","test","","","","","","","","","","","2","","","","","","","","",""
"null","681067","SARL_v6","SARL_v66gcwousw","63615bb6922c170dc50b434a","fixation","","","img/fixation.png","null","","","test","","","","","","","","","","","","","","","","","","","",""
"306.6999999997206","681386","SARL_v6","SARL_v66gcwousw","63615bb6922c170dc50b434a","freq","","","img/blue_2bandit_b2.png","70","","70","test","1","","29","","","","circle","square","28","9","2","0.9285714285714286","","","","","","","",""
"null","681891","SARL_v6","SARL_v66gcwousw","63615bb6922c170dc50b434a","freq_resp","","","img/blue_2bandit_b.png","70","img/blue_2bandit_b.png","70","test","","","","","","","","","","","2","","","","","","","","",""
"null","682059","SARL_v6","SARL_v66gcwousw","63615bb6922c170dc50b434a","fixation","","","img/fixation.png","null","","","test","","","","","","","","","","","","","","","","","","","",""
"332.90000000037253","682404","SARL_v6","SARL_v66gcwousw","63615bb6922c170dc50b434a","freq","","","img/blue_2bandit_b2.png","70","","70","test","1","","30","","","","circle","square","29","10","2","0.9310344827586207","","","","","","","",""
"null","682881","SARL_v6","SARL_v66gcwousw","63615bb6922c170dc50b434a","freq_resp","","","img/blue_2bandit_b.png","70","img/blue_2bandit_b.png","70","test","","","","","","","","","","","2","","","","","","","","",""
"null","683043","SARL_v6","SARL_v66gcwousw","63615bb6922c170dc50b434a","fixation","","","img/fixation.png","null","","","test","","","","","","","","","","","","","","","","","","","",""
"312","683369","SARL_v6","SARL_v66gcwousw","63615bb6922c170dc50b434a","freq","","","img/blue_2bandit_b2.png","70","","70","test","1","","31","","","","circle","square","30","11","2","0.9333333333333333","","","","","","","",""
"null","683875","SARL_v6","SARL_v66gcwousw","63615bb6922c170dc50b434a","freq_resp","","","img/blue_2bandit_b.png","70","img/blue_2bandit_b.png","70","test","","","","","","","","","","","2","","","","","","","","",""
"null","684042","SARL_v6","SARL_v66gcwousw","63615bb6922c170dc50b434a","fixation","","","img/fixation.png","null","","","test","","","","","","","","","","","","","","","","","","","",""
"290","684344","SARL_v6","SARL_v66gcwousw","63615bb6922c170dc50b434a","freq","","","img/blue_2bandit_b2.png","70","","70","test","1","","32","","","","circle","square","31","12","2","0.9354838709677419","","","","","","","",""
"null","684867","SARL_v6","SARL_v66gcwousw","63615bb6922c170dc50b434a","freq_resp","","","img/blue_2bandit_b.png","70","img/blue_2bandit_b.png","70","test","","","","","","","","","","","2","","","","","","","","",""
"null","685036","SARL_v6","SARL_v66gcwousw","63615bb6922c170dc50b434a","fixation","","","img/fixation.png","null","","","test","","","","","","","","","","","","","","","","","","","",""
"344.5","685392","SARL_v6","SARL_v66gcwousw","63615bb6922c170dc50b434a","freq","","","img/blue_2bandit_b2.png","70","","70","test","1","","33","","","","circle","square","32","13","2","0.9375","","","","","","","",""
"null","685859","SARL_v6","SARL_v66gcwousw","63615bb6922c170dc50b434a","freq_resp","","","img/blue_2bandit_b.png","70","img/blue_2bandit_b.png","70","test","","","","","","","","","","","2","","","","","","","","",""
"null","686027","SARL_v6","SARL_v66gcwousw","63615bb6922c170dc50b434a","fixation","","","img/fixation.png","null","","","test","","","","","","","","","","","","","","","","","","","",""
"572.3000000002794","686610","SARL_v6","SARL_v66gcwousw","63615bb6922c170dc50b434a","freq","","","img/blue_2bandit_b2.png","70","","70","test","1","","34","","","","circle","square","33","14","2","0.9393939393939394","","","","","","","",""
"null","686851","SARL_v6","SARL_v66gcwousw","63615bb6922c170dc50b434a","freq_resp","","","img/blue_2bandit_b.png","70","img/blue_2bandit_b.png","70","test","","","","","","","","","","","2","","","","","","","","",""
"null","687018","SARL_v6","SARL_v66gcwousw","63615bb6922c170dc50b434a","fixation","","","img/fixation.png","null","","","test","","","","","","","","","","","","","","","","","","","",""
"581.7999999998137","687612","SARL_v6","SARL_v66gcwousw","63615bb6922c170dc50b434a","infreq","","","img/orange_2bandit_b2.png","68","","68","test","1","","35","","","","circle","square","34","15","2","0.9411764705882353","","","","","","","",""
"null","687842","SARL_v6","SARL_v66gcwousw","63615bb6922c170dc50b434a","infreq_resp","","","img/orange_2bandit_b.png","68","img/orange_2bandit_b.png","68","test","","","","","","","","","","","2","","","","","","","","",""
"null","688003","SARL_v6","SARL_v66gcwousw","63615bb6922c170dc50b434a","fixation","","","img/fixation.png","null","","","test","","","","","","","","","","","","","","","","","","","",""
"376.20000000018626","688391","SARL_v6","SARL_v66gcwousw","63615bb6922c170dc50b434a","freq","","","img/blue_2bandit_b2.png","70","","70","test","1","","36","","","","circle","square","35","16","2","0.9428571428571428","","","","","","","",""
"null","688826","SARL_v6","SARL_v66gcwousw","63615bb6922c170dc50b434a","freq_resp","","","img/blue_2bandit_b.png","70","img/blue_2bandit_b.png","70","test","","","","","","","","","","","2","","","","","","","","",""
"null","688995","SARL_v6","SARL_v66gcwousw","63615bb6922c170dc50b434a","fixation","","","img/fixation.png","null","","","test","","","","","","","","","","","","","","","","","","","",""
"486.10000000009313","689493","SARL_v6","SARL_v66gcwousw","63615bb6922c170dc50b434a","freq","","","img/blue_2bandit_b2.png","70","","70","test","1","","37","","","","circle","square","36","17","2","0.9444444444444444","","","","","","","",""
"null","689818","SARL_v6","SARL_v66gcwousw","63615bb6922c170dc50b434a","freq_resp","","","img/blue_2bandit_b.png","70","img/blue_2bandit_b.png","70","test","","","","","","","","","","","2","","","","","","","","",""
"null","689987","SARL_v6","SARL_v66gcwousw","63615bb6922c170dc50b434a","fixation","","","img/fixation.png","null","","","test","","","","","","","","","","","","","","","","","","","",""
"318.89999999990687","690318","SARL_v6","SARL_v66gcwousw","63615bb6922c170dc50b434a","freq","","","img/blue_2bandit_b2.png","70","","70","test","1","","38","","","","circle","square","37","18","2","0.9459459459459459","","","","","","","",""
"null","690814","SARL_v6","SARL_v66gcwousw","63615bb6922c170dc50b434a","freq_resp","","","img/blue_2bandit_b.png","70","img/blue_2bandit_b.png","70","test","","","","","","","","","","","2","","","","","","","","",""
"null","690979","SARL_v6","SARL_v66gcwousw","63615bb6922c170dc50b434a","fixation","","","img/fixation.png","null","","","test","","","","","","","","","","","","","","","","","","","",""
"369.60000000009313","691361","SARL_v6","SARL_v66gcwousw","63615bb6922c170dc50b434a","infreq","","","img/orange_2bandit_b2.png","68","","68","test","1","","39","","","","circle","square","38","19","2","0.9473684210526315","","","","","","","",""
"null","691806","SARL_v6","SARL_v66gcwousw","63615bb6922c170dc50b434a","infreq_resp","","","img/orange_2bandit_b.png","68","img/orange_2bandit_b.png","68","test","","","","","","","","","","","2","","","","","","","","",""
"null","691971","SARL_v6","SARL_v66gcwousw","63615bb6922c170dc50b434a","fixation","","","img/fixation.png","null","","","test","","","","","","","","","","","","","","","","","","","",""
"415.29999999981374","692398","SARL_v6","SARL_v66gcwousw","63615bb6922c170dc50b434a","freq","","","img/blue_2bandit_b2.png","70","","70","test","1","","40","","","","circle","square","39","20","2","0.9487179487179487","","","","","","","",""
"null","692795","SARL_v6","SARL_v66gcwousw","63615bb6922c170dc50b434a","freq_resp","","","img/blue_2bandit_b.png","70","img/blue_2bandit_b.png","70","test","","","","","","","","","","","2","","","","","","","","",""
"null","692963","SARL_v6","SARL_v66gcwousw","63615bb6922c170dc50b434a","fixation","","","img/fixation.png","null","","","test","","","","","","","","","","","","","","","","","","","",""
"454.39999999990687","693429","SARL_v6","SARL_v66gcwousw","63615bb6922c170dc50b434a","freq","","","img/blue_2bandit_b2.png","70","","70","test","1","","41","","","","circle","square","40","21","2","0.95","","","","","","","",""
"null","693788","SARL_v6","SARL_v66gcwousw","63615bb6922c170dc50b434a","freq_resp","","","img/blue_2bandit_b.png","70","img/blue_2bandit_b.png","70","test","","","","","","","","","","","2","","","","","","","","",""
"null","693956","SARL_v6","SARL_v66gcwousw","63615bb6922c170dc50b434a","fixation","","","img/fixation.png","null","","","test","","","","","","","","","","","","","","","","","","","",""
"418.5","694386","SARL_v6","SARL_v66gcwousw","63615bb6922c170dc50b434a","freq","","","img/blue_2bandit_b2.png","70","","70","test","1","","42","","","","circle","square","41","22","2","0.9512195121951219","","","","","","","",""
"null","694779","SARL_v6","SARL_v66gcwousw","63615bb6922c170dc50b434a","freq_resp","","","img/blue_2bandit_b.png","70","img/blue_2bandit_b.png","70","test","","","","","","","","","","","2","","","","","","","","",""
"null","694947","SARL_v6","SARL_v66gcwousw","63615bb6922c170dc50b434a","fixation","","","img/fixation.png","null","","","test","","","","","","","","","","","","","","","","","","","",""
"706.2000000001863","695665","SARL_v6","SARL_v66gcwousw","63615bb6922c170dc50b434a","rl","","","img/black_2bandit_b2.png","74","","0","test","","","43","","","-5","circle","square","","0","2","","74","-5","-8","-5","-8","circle","2","0"
"null","696436","SARL_v6","SARL_v66gcwousw","63615bb6922c170dc50b434a","feedback","","","<div class=""verylowPoints""> -5 </div>","null","","na","test","","","NaN","","","","","","","","2","","74","","","","","","2",""
"695.4000000003725","697144","SARL_v6","SARL_v66gcwousw","63615bb6922c170dc50b434a","freq","","","img/blue_2bandit_b2.png","70","","70","test","1","","44","","","","circle","square","42","1","3","0.9523809523809523","","","","","","","",""
"null","697266","SARL_v6","SARL_v66gcwousw","63615bb6922c170dc50b434a","freq_resp","","","img/blue_2bandit_b.png","70","img/blue_2bandit_b.png","70","test","","","","","","","","","","","3","","","","","","","","",""
"null","697436","SARL_v6","SARL_v66gcwousw","63615bb6922c170dc50b434a","fixation","","","img/fixation.png","null","","","test","","","","","","","","","","","","","","","","","","","",""
"514.2000000001863","697961","SARL_v6","SARL_v66gcwousw","63615bb6922c170dc50b434a","freq","","","img/blue_2bandit_b2.png","70","","70","test","1","","45","","","","circle","square","43","2","3","0.9534883720930233","","","","","","","",""
"null","698259","SARL_v6","SARL_v66gcwousw","63615bb6922c170dc50b434a","freq_resp","","","img/blue_2bandit_b.png","70","img/blue_2bandit_b.png","70","test","","","","","","","","","","","3","","","","","","","","",""
"null","698427","SARL_v6","SARL_v66gcwousw","63615bb6922c170dc50b434a","fixation","","","img/fixation.png","null","","","test","","","","","","","","","","","","","","","","","","","",""
"509.70000000018626","698948","SARL_v6","SARL_v66gcwousw","63615bb6922c170dc50b434a","freq","","","img/blue_2bandit_b2.png","70","","70","test","1","","46","","","","circle","square","44","3","3","0.9545454545454546","","","","","","","",""
"null","699252","SARL_v6","SARL_v66gcwousw","63615bb6922c170dc50b434a","freq_resp","","","img/blue_2bandit_b.png","70","img/blue_2bandit_b.png","70","test","","","","","","","","","","","3","","","","","","","","",""
"null","699419","SARL_v6","SARL_v66gcwousw","63615bb6922c170dc50b434a","fixation","","","img/fixation.png","null","","","test","","","","","","","","","","","","","","","","","","","",""
"548.8999999999069","699979","SARL_v6","SARL_v66gcwousw","63615bb6922c170dc50b434a","freq","","","img/blue_2bandit_b2.png","70","","70","test","1","","47","","","","circle","square","45","4","3","0.9555555555555556","","","","","","","",""
"null","700251","SARL_v6","SARL_v66gcwousw","63615bb6922c170dc50b434a","freq_resp","","","img/blue_2bandit_b.png","70","img/blue_2bandit_b.png","70","test","","","","","","","","","","","3","","","","","","","","",""
"null","700419","SARL_v6","SARL_v66gcwousw","63615bb6922c170dc50b434a","fixation","","","img/fixation.png","null","","","test","","","","","","","","","","","","","","","","","","","",""
"465.29999999981374","700897","SARL_v6","SARL_v66gcwousw","63615bb6922c170dc50b434a","freq","","","img/blue_2bandit_b2.png","70","","70","test","1","","48","","","","circle","square","46","5","3","0.9565217391304348","","","","","","","",""
"null","701242","SARL_v6","SARL_v66gcwousw","63615bb6922c170dc50b434a","freq_resp","","","img/blue_2bandit_b.png","70","img/blue_2bandit_b.png","70","test","","","","","","","","","","","3","","","","","","","","",""
"null","701409","SARL_v6","SARL_v66gcwousw","63615bb6922c170dc50b434a","fixation","","","img/fixation.png","null","","","test","","","","","","","","","","","","","","","","","","","",""
"517.9000000003725","701937","SARL_v6","SARL_v66gcwousw","63615bb6922c170dc50b434a","infreq","","","img/orange_2bandit_b2.png","68","","68","test","1","","49","","","","circle","square","47","6","3","0.9574468085106383","","","","","","","",""
"null","702235","SARL_v6","SARL_v66gcwousw","63615bb6922c170dc50b434a","infreq_resp","","","img/orange_2bandit_b.png","68","img/orange_2bandit_b.png","68","test","","","","","","","","","","","3","","","","","","","","",""
"null","702393","SARL_v6","SARL_v66gcwousw","63615bb6922c170dc50b434a","fixation","","","img/fixation.png","null","","","test","","","","","","","","","","","","","","","","","","","",""
"545.6000000000931","702947","SARL_v6","SARL_v66gcwousw","63615bb6922c170dc50b434a","freq","","","img/blue_2bandit_b2.png","70","","70","test","1","","50","","","","circle","square","48","7","3","0.9583333333333334","","","","","","","",""
"null","703217","SARL_v6","SARL_v66gcwousw","63615bb6922c170dc50b434a","freq_resp","","","img/blue_2bandit_b.png","70","img/blue_2bandit_b.png","70","test","","","","","","","","","","","3","","","","","","","","",""
"null","703377","SARL_v6","SARL_v66gcwousw","63615bb6922c170dc50b434a","fixation","","","img/fixation.png","null","","","test","","","","","","","","","","","","","","","","","","","",""
"522.2000000001863","703907","SARL_v6","SARL_v66gcwousw","63615bb6922c170dc50b434a","freq","","","img/blue_2bandit_b2.png","70","","70","test","1","","51","","","","circle","square","49","8","3","0.9591836734693877","","","","","","","",""
"null","704194","SARL_v6","SARL_v66gcwousw","63615bb6922c170dc50b434a","freq_resp","","","img/blue_2bandit_b.png","70","img/blue_2bandit_b.png","70","test","","","","","","","","","","","3","","","","","","","","",""
"null","704355","SARL_v6","SARL_v66gcwousw","63615bb6922c170dc50b434a","fixation","","","img/fixation.png","null","","","test","","","","","","","","","","","","","","","","","","","",""
"396.70000000018626","704763","SARL_v6","SARL_v66gcwousw","63615bb6922c170dc50b434a","freq","","","img/blue_2bandit_b2.png","70","","70","test","1","","52","","","","circle","square","50","9","3","0.96","","","","","","","",""
"null","705178","SARL_v6","SARL_v66gcwousw","63615bb6922c170dc50b434a","freq_resp","","","img/blue_2bandit_b.png","70","img/blue_2bandit_b.png","70","test","","","","","","","","","","","3","","","","","","","","",""
"null","705339","SARL_v6","SARL_v66gcwousw","63615bb6922c170dc50b434a","fixation","","","img/fixation.png","null","","","test","","","","","","","","","","","","","","","","","","","",""
"342.89999999990687","705692","SARL_v6","SARL_v66gcwousw","63615bb6922c170dc50b434a","freq","","","img/blue_2bandit_b2.png","70","","70","test","1","","53","","","","circle","square","51","10","3","0.9607843137254902","","","","","","","",""
"null","706161","SARL_v6","SARL_v66gcwousw","63615bb6922c170dc50b434a","freq_resp","","","img/blue_2bandit_b.png","70","img/blue_2bandit_b.png","70","test","","","","","","","","","","","3","","","","","","","","",""
"null","706322","SARL_v6","SARL_v66gcwousw","63615bb6922c170dc50b434a","fixation","","","img/fixation.png","null","","","test","","","","","","","","","","","","","","","","","","","",""
"355.60000000009313","706685","SARL_v6","SARL_v66gcwousw","63615bb6922c170dc50b434a","freq","","","img/blue_2bandit_b2.png","70","","70","test","1","","54","","","","circle","square","52","11","3","0.9615384615384616","","","","","","","",""
"null","707144","SARL_v6","SARL_v66gcwousw","63615bb6922c170dc50b434a","freq_resp","","","img/blue_2bandit_b.png","70","img/blue_2bandit_b.png","70","test","","","","","","","","","","","3","","","","","","","","",""
"null","707306","SARL_v6","SARL_v66gcwousw","63615bb6922c170dc50b434a","fixation","","","img/fixation.png","null","","","test","","","","","","","","","","","","","","","","","","","",""
"377.40000000037253","707693","SARL_v6","SARL_v66gcwousw","63615bb6922c170dc50b434a","freq","","","img/blue_2bandit_b2.png","70","","70","test","1","","55","","","","circle","square","53","12","3","0.9622641509433962","","","","","","","",""
"null","708129","SARL_v6","SARL_v66gcwousw","63615bb6922c170dc50b434a","freq_resp","","","img/blue_2bandit_b.png","70","img/blue_2bandit_b.png","70","test","","","","","","","","","","","3","","","","","","","","",""
"null","708290","SARL_v6","SARL_v66gcwousw","63615bb6922c170dc50b434a","fixation","","","img/fixation.png","null","","","test","","","","","","","","","","","","","","","","","","","",""
"361.39999999990687","708660","SARL_v6","SARL_v66gcwousw","63615bb6922c170dc50b434a","freq","","","img/blue_2bandit_b2.png","70","","70","test","1","","56","","","","circle","square","54","13","3","0.9629629629629629","","","","","","","",""
"null","709114","SARL_v6","SARL_v66gcwousw","63615bb6922c170dc50b434a","freq_resp","","","img/blue_2bandit_b.png","70","img/blue_2bandit_b.png","70","test","","","","","","","","","","","3","","","","","","","","",""
"null","709274","SARL_v6","SARL_v66gcwousw","63615bb6922c170dc50b434a","fixation","","","img/fixation.png","null","","","test","","","","","","","","","","","","","","","","","","","",""
"313.79999999981374","709601","SARL_v6","SARL_v66gcwousw","63615bb6922c170dc50b434a","freq","","","img/blue_2bandit_b2.png","70","","70","test","1","","57","","","","circle","square","55","14","3","0.9636363636363636","","","","","","","",""
"null","710097","SARL_v6","SARL_v66gcwousw","63615bb6922c170dc50b434a","freq_resp","","","img/blue_2bandit_b.png","70","img/blue_2bandit_b.png","70","test","","","","","","","","","","","3","","","","","","","","",""
"null","710258","SARL_v6","SARL_v66gcwousw","63615bb6922c170dc50b434a","fixation","","","img/fixation.png","null","","","test","","","","","","","","","","","","","","","","","","","",""
"346.39999999990687","710615","SARL_v6","SARL_v66gcwousw","63615bb6922c170dc50b434a","freq","","","img/blue_2bandit_b2.png","70","","70","test","1","","58","","","","circle","square","56","15","3","0.9642857142857143","","","","","","","",""
"null","711082","SARL_v6","SARL_v66gcwousw","63615bb6922c170dc50b434a","freq_resp","","","img/blue_2bandit_b.png","70","img/blue_2bandit_b.png","70","test","","","","","","","","","","","3","","","","","","","","",""
"null","711242","SARL_v6","SARL_v66gcwousw","63615bb6922c170dc50b434a","fixation","","","img/fixation.png","null","","","test","","","","","","","","","","","","","","","","","","","",""
"300.20000000018626","711552","SARL_v6","SARL_v66gcwousw","63615bb6922c170dc50b434a","freq","","","img/blue_2bandit_b2.png","70","","70","test","1","","59","","","","circle","square","57","16","3","0.9649122807017544","","","","","","","",""
"null","712065","SARL_v6","SARL_v66gcwousw","63615bb6922c170dc50b434a","freq_resp","","","img/blue_2bandit_b.png","70","img/blue_2bandit_b.png","70","test","","","","","","","","","","","3","","","","","","","","",""
"null","712225","SARL_v6","SARL_v66gcwousw","63615bb6922c170dc50b434a","fixation","","","img/fixation.png","null","","","test","","","","","","","","","","","","","","","","","","","",""
"290.89999999990687","712525","SARL_v6","SARL_v66gcwousw","63615bb6922c170dc50b434a","freq","","","img/blue_2bandit_b2.png","70","","70","test","1","","60","","","","circle","square","58","17","3","0.9655172413793104","","","","","","","",""
"null","713050","SARL_v6","SARL_v66gcwousw","63615bb6922c170dc50b434a","freq_resp","","","img/blue_2bandit_b.png","70","img/blue_2bandit_b.png","70","test","","","","","","","","","","","3","","","","","","","","",""
"null","713211","SARL_v6","SARL_v66gcwousw","63615bb6922c170dc50b434a","fixation","","","img/fixation.png","null","","","test","","","","","","","","","","","","","","","","","","","",""
"315.79999999981374","713536","SARL_v6","SARL_v66gcwousw","63615bb6922c170dc50b434a","freq","","","img/blue_2bandit_b2.png","70","","70","test","1","","61","","","","circle","square","59","18","3","0.9661016949152542","","","","","","","",""
"null","714035","SARL_v6","SARL_v66gcwousw","63615bb6922c170dc50b434a","freq_resp","","","img/blue_2bandit_b.png","70","img/blue_2bandit_b.png","70","test","","","","","","","","","","","3","","","","","","","","",""
"null","714203","SARL_v6","SARL_v66gcwousw","63615bb6922c170dc50b434a","fixation","","","img/fixation.png","null","","","test","","","","","","","","","","","","","","","","","","","",""
"302.10000000009313","714513","SARL_v6","SARL_v66gcwousw","63615bb6922c170dc50b434a","freq","","","img/blue_2bandit_b2.png","70","","70","test","1","","62","","","","circle","square","60","19","3","0.9666666666666667","","","","","","","",""
"null","715027","SARL_v6","SARL_v66gcwousw","63615bb6922c170dc50b434a","freq_resp","","","img/blue_2bandit_b.png","70","img/blue_2bandit_b.png","70","test","","","","","","","","","","","3","","","","","","","","",""
"null","715185","SARL_v6","SARL_v66gcwousw","63615bb6922c170dc50b434a","fixation","","","img/fixation.png","null","","","test","","","","","","","","","","","","","","","","","","","",""
"424.70000000018626","715618","SARL_v6","SARL_v66gcwousw","63615bb6922c170dc50b434a","infreq","","","img/orange_2bandit_b2.png","68","","68","test","1","","63","","","","circle","square","61","20","3","0.9672131147540983","","","","","","","",""
"null","716009","SARL_v6","SARL_v66gcwousw","63615bb6922c170dc50b434a","infreq_resp","","","img/orange_2bandit_b.png","68","img/orange_2bandit_b.png","68","test","","","","","","","","","","","3","","","","","","","","",""
"null","716169","SARL_v6","SARL_v66gcwousw","63615bb6922c170dc50b434a","fixation","","","img/fixation.png","null","","","test","","","","","","","","","","","","","","","","","","","",""
"432.8000000002794","716611","SARL_v6","SARL_v66gcwousw","63615bb6922c170dc50b434a","freq","","","img/blue_2bandit_b2.png","70","","70","test","1","","64","","","","circle","square","62","21","3","0.967741935483871","","","","","","","",""
"null","716994","SARL_v6","SARL_v66gcwousw","63615bb6922c170dc50b434a","freq_resp","","","img/blue_2bandit_b.png","70","img/blue_2bandit_b.png","70","test","","","","","","","","","","","3","","","","","","","","",""
"null","717154","SARL_v6","SARL_v66gcwousw","63615bb6922c170dc50b434a","fixation","","","img/fixation.png","null","","","test","","","","","","","","","","","","","","","","","","","",""
"345.5","717512","SARL_v6","SARL_v66gcwousw","63615bb6922c170dc50b434a","freq","","","img/blue_2bandit_b2.png","70","","70","test","1","","65","","","","circle","square","63","22","3","0.9682539682539683","","","","","","","",""
"null","717977","SARL_v6","SARL_v66gcwousw","63615bb6922c170dc50b434a","freq_resp","","","img/blue_2bandit_b.png","70","img/blue_2bandit_b.png","70","test","","","","","","","","","","","3","","","","","","","","",""
"null","718136","SARL_v6","SARL_v66gcwousw","63615bb6922c170dc50b434a","fixation","","","img/fixation.png","null","","","test","","","","","","","","","","","","","","","","","","","",""
"570","718716","SARL_v6","SARL_v66gcwousw","63615bb6922c170dc50b434a","rl","","","img/black_2bandit_b2.png","75","","0","test","","","66","","","-8","circle","square","","0","3","","75","-4","-8","-4","-8","square","3","0"
"null","719483","SARL_v6","SARL_v66gcwousw","63615bb6922c170dc50b434a","feedback","","","<div class=""verylowPoints_sq""> -8 </div>","null","","na","test","","","NaN","","","","","","","","3","","75","","","","","","3",""
"468.60000000009313","719962","SARL_v6","SARL_v66gcwousw","63615bb6922c170dc50b434a","freq","","","img/blue_2bandit_b2.png","70","","70","test","1","","67","","","","circle","square","64","1","4","0.96875","","","","","","","",""
"null","720305","SARL_v6","SARL_v66gcwousw","63615bb6922c170dc50b434a","freq_resp","","","img/blue_2bandit_b.png","70","img/blue_2bandit_b.png","70","test","","","","","","","","","","","4","","","","","","","","",""
"null","720464","SARL_v6","SARL_v66gcwousw","63615bb6922c170dc50b434a","fixation","","","img/fixation.png","null","","","test","","","","","","","","","","","","","","","","","","","",""
"394.5","720867","SARL_v6","SARL_v66gcwousw","63615bb6922c170dc50b434a","freq","","","img/blue_2bandit_b2.png","70","","70","test","1","","68","","","","circle","square","65","2","4","0.9692307692307692","","","","","","","",""
"null","721282","SARL_v6","SARL_v66gcwousw","63615bb6922c170dc50b434a","freq_resp","","","img/blue_2bandit_b.png","70","img/blue_2bandit_b.png","70","test","","","","","","","","","","","4","","","","","","","","",""
"null","721441","SARL_v6","SARL_v66gcwousw","63615bb6922c170dc50b434a","fixation","","","img/fixation.png","null","","","test","","","","","","","","","","","","","","","","","","","",""
"384.10000000009313","721833","SARL_v6","SARL_v66gcwousw","63615bb6922c170dc50b434a","freq","","","img/blue_2bandit_b2.png","70","","70","test","1","","69","","","","circle","square","66","3","4","0.9696969696969697","","","","","","","",""
"null","722258","SARL_v6","SARL_v66gcwousw","63615bb6922c170dc50b434a","freq_resp","","","img/blue_2bandit_b.png","70","img/blue_2bandit_b.png","70","test","","","","","","","","","","","4","","","","","","","","",""
"null","722418","SARL_v6","SARL_v66gcwousw","63615bb6922c170dc50b434a","fixation","","","img/fixation.png","null","","","test","","","","","","","","","","","","","","","","","","","",""
"423.6999999997206","722854","SARL_v6","SARL_v66gcwousw","63615bb6922c170dc50b434a","freq","","","img/blue_2bandit_b2.png","70","","70","test","1","","70","","","","circle","square","67","4","4","0.9701492537313433","","","","","","","",""
"null","723242","SARL_v6","SARL_v66gcwousw","63615bb6922c170dc50b434a","freq_resp","","","img/blue_2bandit_b.png","70","img/blue_2bandit_b.png","70","test","","","","","","","","","","","4","","","","","","","","",""
"null","723409","SARL_v6","SARL_v66gcwousw","63615bb6922c170dc50b434a","fixation","","","img/fixation.png","null","","","test","","","","","","","","","","","","","","","","","","","",""
"442","723859","SARL_v6","SARL_v66gcwousw","63615bb6922c170dc50b434a","freq","","","img/blue_2bandit_b2.png","70","","70","test","1","","71","","","","circle","square","68","5","4","0.9705882352941176","","","","","","","",""
"null","724234","SARL_v6","SARL_v66gcwousw","63615bb6922c170dc50b434a","freq_resp","","","img/blue_2bandit_b.png","70","img/blue_2bandit_b.png","70","test","","","","","","","","","","","4","","","","","","","","",""
"null","724395","SARL_v6","SARL_v66gcwousw","63615bb6922c170dc50b434a","fixation","","","img/fixation.png","null","","","test","","","","","","","","","","","","","","","","","","","",""
"414.60000000009313","724821","SARL_v6","SARL_v66gcwousw","63615bb6922c170dc50b434a","freq","","","img/blue_2bandit_b2.png","70","","70","test","1","","72","","","","circle","square","69","6","4","0.9710144927536232","","","","","","","",""
"null","725217","SARL_v6","SARL_v66gcwousw","63615bb6922c170dc50b434a","freq_resp","","","img/blue_2bandit_b.png","70","img/blue_2bandit_b.png","70","test","","","","","","","","","","","4","","","","","","","","",""
"null","725377","SARL_v6","SARL_v66gcwousw","63615bb6922c170dc50b434a","fixation","","","img/fixation.png","null","","","test","","","","","","","","","","","","","","","","","","","",""
"345.10000000009313","725734","SARL_v6","SARL_v66gcwousw","63615bb6922c170dc50b434a","freq","","","img/blue_2bandit_b2.png","70","","70","test","1","","73","","","","circle","square","70","7","4","0.9714285714285714","","","","","","","",""
"null","726202","SARL_v6","SARL_v66gcwousw","63615bb6922c170dc50b434a","freq_resp","","","img/blue_2bandit_b.png","70","img/blue_2bandit_b.png","70","test","","","","","","","","","","","4","","","","","","","","",""
"null","726362","SARL_v6","SARL_v66gcwousw","63615bb6922c170dc50b434a","fixation","","","img/fixation.png","null","","","test","","","","","","","","","","","","","","","","","","","",""
"333.10000000009313","726706","SARL_v6","SARL_v66gcwousw","63615bb6922c170dc50b434a","freq","","","img/blue_2bandit_b2.png","70","","70","test","1","","74","","","","circle","square","71","8","4","0.971830985915493","","","","","","","",""
"null","727185","SARL_v6","SARL_v66gcwousw","63615bb6922c170dc50b434a","freq_resp","","","img/blue_2bandit_b.png","70","img/blue_2bandit_b.png","70","test","","","","","","","","","","","4","","","","","","","","",""
"null","727347","SARL_v6","SARL_v66gcwousw","63615bb6922c170dc50b434a","fixation","","","img/fixation.png","null","","","test","","","","","","","","","","","","","","","","","","","",""
"298.1999999997206","727657","SARL_v6","SARL_v66gcwousw","63615bb6922c170dc50b434a","freq","","","img/blue_2bandit_b2.png","70","","70","test","1","","75","","","","circle","square","72","9","4","0.9722222222222222","","","","","","","",""
"null","728170","SARL_v6","SARL_v66gcwousw","63615bb6922c170dc50b434a","freq_resp","","","img/blue_2bandit_b.png","70","img/blue_2bandit_b.png","70","test","","","","","","","","","","","4","","","","","","","","",""
"null","728330","SARL_v6","SARL_v66gcwousw","63615bb6922c170dc50b434a","fixation","","","img/fixation.png","null","","","test","","","","","","","","","","","","","","","","","","","",""
"299.10000000009313","728639","SARL_v6","SARL_v66gcwousw","63615bb6922c170dc50b434a","freq","","","img/blue_2bandit_b2.png","70","","70","test","1","","76","","","","circle","square","73","10","4","0.9726027397260274","","","","","","","",""
"null","729152","SARL_v6","SARL_v66gcwousw","63615bb6922c170dc50b434a","freq_resp","","","img/blue_2bandit_b.png","70","img/blue_2bandit_b.png","70","test","","","","","","","","","","","4","","","","","","","","",""
"null","729315","SARL_v6","SARL_v66gcwousw","63615bb6922c170dc50b434a","fixation","","","img/fixation.png","null","","","test","","","","","","","","","","","","","","","","","","","",""
"280.10000000009313","729604","SARL_v6","SARL_v66gcwousw","63615bb6922c170dc50b434a","freq","","","img/blue_2bandit_b2.png","70","","70","test","1","","77","","","","circle","square","74","11","4","0.972972972972973","","","","","","","",""
"null","730137","SARL_v6","SARL_v66gcwousw","63615bb6922c170dc50b434a","freq_resp","","","img/blue_2bandit_b.png","70","img/blue_2bandit_b.png","70","test","","","","","","","","","","","4","","","","","","","","",""
"null","730298","SARL_v6","SARL_v66gcwousw","63615bb6922c170dc50b434a","fixation","","","img/fixation.png","null","","","test","","","","","","","","","","","","","","","","","","","",""
"288.6999999997206","730597","SARL_v6","SARL_v66gcwousw","63615bb6922c170dc50b434a","freq","","","img/blue_2bandit_b2.png","70","","70","test","1","","78","","","","circle","square","75","12","4","0.9733333333333334","","","","","","","",""
"null","731120","SARL_v6","SARL_v66gcwousw","63615bb6922c170dc50b434a","freq_resp","","","img/blue_2bandit_b.png","70","img/blue_2bandit_b.png","70","test","","","","","","","","","","","4","","","","","","","","",""
"null","731280","SARL_v6","SARL_v66gcwousw","63615bb6922c170dc50b434a","fixation","","","img/fixation.png","null","","","test","","","","","","","","","","","","","","","","","","","",""
"294.79999999981374","731587","SARL_v6","SARL_v66gcwousw","63615bb6922c170dc50b434a","freq","","","img/blue_2bandit_b2.png","70","","70","test","1","","79","","","","circle","square","76","13","4","0.9736842105263158","","","","","","","",""
"null","732105","SARL_v6","SARL_v66gcwousw","63615bb6922c170dc50b434a","freq_resp","","","img/blue_2bandit_b.png","70","img/blue_2bandit_b.png","70","test","","","","","","","","","","","4","","","","","","","","",""
"null","732266","SARL_v6","SARL_v66gcwousw","63615bb6922c170dc50b434a","fixation","","","img/fixation.png","null","","","test","","","","","","","","","","","","","","","","","","","",""
"307.20000000018626","732584","SARL_v6","SARL_v66gcwousw","63615bb6922c170dc50b434a","freq","","","img/blue_2bandit_b2.png","70","","70","test","1","","80","","","","circle","square","77","14","4","0.974025974025974","","","","","","","",""
"null","733088","SARL_v6","SARL_v66gcwousw","63615bb6922c170dc50b434a","freq_resp","","","img/blue_2bandit_b.png","70","img/blue_2bandit_b.png","70","test","","","","","","","","","","","4","","","","","","","","",""
"null","733251","SARL_v6","SARL_v66gcwousw","63615bb6922c170dc50b434a","fixation","","","img/fixation.png","null","","","test","","","","","","","","","","","","","","","","","","","",""
"296.79999999981374","733558","SARL_v6","SARL_v66gcwousw","63615bb6922c170dc50b434a","freq","","","img/blue_2bandit_b2.png","70","","70","test","1","","81","","","","circle","square","78","15","4","0.9743589743589743","","","","","","","",""
"null","734073","SARL_v6","SARL_v66gcwousw","63615bb6922c170dc50b434a","freq_resp","","","img/blue_2bandit_b.png","70","img/blue_2bandit_b.png","70","test","","","","","","","","","","","4","","","","","","","","",""
"null","734234","SARL_v6","SARL_v66gcwousw","63615bb6922c170dc50b434a","fixation","","","img/fixation.png","null","","","test","","","","","","","","","","","","","","","","","","","",""
"407","734650","SARL_v6","SARL_v66gcwousw","63615bb6922c170dc50b434a","infreq","","","img/orange_2bandit_b2.png","68","","68","test","1","","82","","","","circle","square","79","16","4","0.9746835443037974","","","","","","","",""
"null","735058","SARL_v6","SARL_v66gcwousw","63615bb6922c170dc50b434a","infreq_resp","","","img/orange_2bandit_b.png","68","img/orange_2bandit_b.png","68","test","","","","","","","","","","","4","","","","","","","","",""
"null","735219","SARL_v6","SARL_v66gcwousw","63615bb6922c170dc50b434a","fixation","","","img/fixation.png","null","","","test","","","","","","","","","","","","","","","","","","","",""
"476","735703","SARL_v6","SARL_v66gcwousw","63615bb6922c170dc50b434a","freq","","","img/blue_2bandit_b2.png","70","","70","test","1","","83","","","","circle","square","80","17","4","0.975","","","","","","","",""
"null","736041","SARL_v6","SARL_v66gcwousw","63615bb6922c170dc50b434a","freq_resp","","","img/blue_2bandit_b.png","70","img/blue_2bandit_b.png","70","test","","","","","","","","","","","4","","","","","","","","",""
"null","736201","SARL_v6","SARL_v66gcwousw","63615bb6922c170dc50b434a","fixation","","","img/fixation.png","null","","","test","","","","","","","","","","","","","","","","","","","",""
"509","736719","SARL_v6","SARL_v66gcwousw","63615bb6922c170dc50b434a","infreq","","","img/orange_2bandit_b2.png","68","","68","test","1","","84","","","","circle","square","81","18","4","0.9753086419753086","","","","","","","",""
"null","737026","SARL_v6","SARL_v66gcwousw","63615bb6922c170dc50b434a","infreq_resp","","","img/orange_2bandit_b.png","68","img/orange_2bandit_b.png","68","test","","","","","","","","","","","4","","","","","","","","",""
"null","737186","SARL_v6","SARL_v66gcwousw","63615bb6922c170dc50b434a","fixation","","","img/fixation.png","null","","","test","","","","","","","","","","","","","","","","","","","",""
"465.39999999990687","737660","SARL_v6","SARL_v66gcwousw","63615bb6922c170dc50b434a","freq","","","img/blue_2bandit_b2.png","70","","70","test","1","","85","","","","circle","square","82","19","4","0.975609756097561","","","","","","","",""
"null","738009","SARL_v6","SARL_v66gcwousw","63615bb6922c170dc50b434a","freq_resp","","","img/blue_2bandit_b.png","70","img/blue_2bandit_b.png","70","test","","","","","","","","","","","4","","","","","","","","",""
"null","738169","SARL_v6","SARL_v66gcwousw","63615bb6922c170dc50b434a","fixation","","","img/fixation.png","null","","","test","","","","","","","","","","","","","","","","","","","",""
"375.89999999990687","738555","SARL_v6","SARL_v66gcwousw","63615bb6922c170dc50b434a","freq","","","img/blue_2bandit_b2.png","70","","70","test","1","","86","","","","circle","square","83","20","4","0.9759036144578314","","","","","","","",""
"null","738994","SARL_v6","SARL_v66gcwousw","63615bb6922c170dc50b434a","freq_resp","","","img/blue_2bandit_b.png","70","img/blue_2bandit_b.png","70","test","","","","","","","","","","","4","","","","","","","","",""
"null","739155","SARL_v6","SARL_v66gcwousw","63615bb6922c170dc50b434a","fixation","","","img/fixation.png","null","","","test","","","","","","","","","","","","","","","","","","","",""
"536.6000000000931","739703","SARL_v6","SARL_v66gcwousw","63615bb6922c170dc50b434a","freq","","","img/blue_2bandit_b2.png","70","","70","test","1","","87","","","","circle","square","84","21","4","0.9761904761904762","","","","","","","",""
"null","739980","SARL_v6","SARL_v66gcwousw","63615bb6922c170dc50b434a","freq_resp","","","img/blue_2bandit_b.png","70","img/blue_2bandit_b.png","70","test","","","","","","","","","","","4","","","","","","","","",""
"null","740145","SARL_v6","SARL_v66gcwousw","63615bb6922c170dc50b434a","fixation","","","img/fixation.png","null","","","test","","","","","","","","","","","","","","","","","","","",""
"811.9000000003725","740967","SARL_v6","SARL_v66gcwousw","63615bb6922c170dc50b434a","rl","","","img/black_2bandit_b2.png","74","","0","test","","","88","","","0","circle","square","","0","4","","74","0","-12","0","-12","circle","4","0"
"null","741730","SARL_v6","SARL_v66gcwousw","63615bb6922c170dc50b434a","feedback","","","<div class=""verylowPoints""> 0 </div>","null","","na","test","","","NaN","","","","","","","","4","","74","","","","","","4",""
"571.3999999999069","742311","SARL_v6","SARL_v66gcwousw","63615bb6922c170dc50b434a","freq","","","img/blue_2bandit_b2.png","70","","70","test","1","","89","","","","circle","square","85","1","5","0.9764705882352941","","","","","","","",""
"null","742554","SARL_v6","SARL_v66gcwousw","63615bb6922c170dc50b434a","freq_resp","","","img/blue_2bandit_b.png","70","img/blue_2bandit_b.png","70","test","","","","","","","","","","","5","","","","","","","","",""
"null","742722","SARL_v6","SARL_v66gcwousw","63615bb6922c170dc50b434a","fixation","","","img/fixation.png","null","","","test","","","","","","","","","","","","","","","","","","","",""
"416.09999999962747","743148","SARL_v6","SARL_v66gcwousw","63615bb6922c170dc50b434a","freq","","","img/blue_2bandit_b2.png","70","","70","test","1","","90","","","","circle","square","86","2","5","0.9767441860465116","","","","","","","",""
"null","743545","SARL_v6","SARL_v66gcwousw","63615bb6922c170dc50b434a","freq_resp","","","img/blue_2bandit_b.png","70","img/blue_2bandit_b.png","70","test","","","","","","","","","","","5","","","","","","","","",""
"null","743706","SARL_v6","SARL_v66gcwousw","63615bb6922c170dc50b434a","fixation","","","img/fixation.png","null","","","test","","","","","","","","","","","","","","","","","","","",""
"381.29999999981374","744098","SARL_v6","SARL_v66gcwousw","63615bb6922c170dc50b434a","freq","","","img/blue_2bandit_b2.png","70","","70","test","1","","91","","","","circle","square","87","3","5","0.9770114942528736","","","","","","","",""
"null","744529","SARL_v6","SARL_v66gcwousw","63615bb6922c170dc50b434a","freq_resp","","","img/blue_2bandit_b.png","70","img/blue_2bandit_b.png","70","test","","","","","","","","","","","5","","","","","","","","",""
"null","744689","SARL_v6","SARL_v66gcwousw","63615bb6922c170dc50b434a","fixation","","","img/fixation.png","null","","","test","","","","","","","","","","","","","","","","","","","",""
"707.3000000002794","745406","SARL_v6","SARL_v66gcwousw","63615bb6922c170dc50b434a","freq","","","img/blue_2bandit_b2.png","70","","70","test","1","","92","","","","circle","square","88","4","5","0.9772727272727273","","","","","","","",""
"null","745514","SARL_v6","SARL_v66gcwousw","63615bb6922c170dc50b434a","freq_resp","","","img/blue_2bandit_b.png","70","img/blue_2bandit_b.png","70","test","","","","","","","","","","","5","","","","","","","","",""
"null","745674","SARL_v6","SARL_v66gcwousw","63615bb6922c170dc50b434a","fixation","","","img/fixation.png","null","","","test","","","","","","","","","","","","","","","","","","","",""
"445.89999999990687","746128","SARL_v6","SARL_v66gcwousw","63615bb6922c170dc50b434a","freq","","","img/blue_2bandit_b2.png","70","","70","test","1","","93","","","","circle","square","89","5","5","0.9775280898876404","","","","","","","",""
"null","746497","SARL_v6","SARL_v66gcwousw","63615bb6922c170dc50b434a","freq_resp","","","img/blue_2bandit_b.png","70","img/blue_2bandit_b.png","70","test","","","","","","","","","","","5","","","","","","","","",""
"null","746657","SARL_v6","SARL_v66gcwousw","63615bb6922c170dc50b434a","fixation","","","img/fixation.png","null","","","test","","","","","","","","","","","","","","","","","","","",""
"419","747085","SARL_v6","SARL_v66gcwousw","63615bb6922c170dc50b434a","infreq","","","img/orange_2bandit_b2.png","68","","68","test","1","","94","","","","circle","square","90","6","5","0.9777777777777777","","","","","","","",""
"null","747483","SARL_v6","SARL_v66gcwousw","63615bb6922c170dc50b434a","infreq_resp","","","img/orange_2bandit_b.png","68","img/orange_2bandit_b.png","68","test","","","","","","","","","","","5","","","","","","","","",""
"null","747643","SARL_v6","SARL_v66gcwousw","63615bb6922c170dc50b434a","fixation","","","img/fixation.png","null","","","test","","","","","","","","","","","","","","","","","","","",""
"529.8999999999069","748182","SARL_v6","SARL_v66gcwousw","63615bb6922c170dc50b434a","freq","","","img/blue_2bandit_b2.png","70","","70","test","1","","95","","","","circle","square","91","7","5","0.978021978021978","","","","","","","",""
"null","748467","SARL_v6","SARL_v66gcwousw","63615bb6922c170dc50b434a","freq_resp","","","img/blue_2bandit_b.png","70","img/blue_2bandit_b.png","70","test","","","","","","","","","","","5","","","","","","","","",""
"null","748633","SARL_v6","SARL_v66gcwousw","63615bb6922c170dc50b434a","fixation","","","img/fixation.png","null","","","test","","","","","","","","","","","","","","","","","","","",""
"403.39999999990687","749047","SARL_v6","SARL_v66gcwousw","63615bb6922c170dc50b434a","freq","","","img/blue_2bandit_b2.png","70","","70","test","1","","96","","","","circle","square","92","8","5","0.9782608695652174","","","","","","","",""
"null","749459","SARL_v6","SARL_v66gcwousw","63615bb6922c170dc50b434a","freq_resp","","","img/blue_2bandit_b.png","70","img/blue_2bandit_b.png","70","test","","","","","","","","","","","5","","","","","","","","",""
"null","749627","SARL_v6","SARL_v66gcwousw","63615bb6922c170dc50b434a","fixation","","","img/fixation.png","null","","","test","","","","","","","","","","","","","","","","","","","",""
"326.3000000002794","749962","SARL_v6","SARL_v66gcwousw","63615bb6922c170dc50b434a","freq","","","img/blue_2bandit_b2.png","70","","70","test","1","","97","","","","circle","square","93","9","5","0.978494623655914","","","","","","","",""
"null","750450","SARL_v6","SARL_v66gcwousw","63615bb6922c170dc50b434a","freq_resp","","","img/blue_2bandit_b.png","70","img/blue_2bandit_b.png","70","test","","","","","","","","","","","5","","","","","","","","",""
"null","750610","SARL_v6","SARL_v66gcwousw","63615bb6922c170dc50b434a","fixation","","","img/fixation.png","null","","","test","","","","","","","","","","","","","","","","","","","",""
"269","750893","SARL_v6","SARL_v66gcwousw","63615bb6922c170dc50b434a","freq","","","img/blue_2bandit_b2.png","70","","70","test","1","","98","","","","circle","square","94","10","5","0.9787234042553191","","","","","","","",""
"null","751440","SARL_v6","SARL_v66gcwousw","63615bb6922c170dc50b434a","freq_resp","","","img/blue_2bandit_b.png","70","img/blue_2bandit_b.png","70","test","","","","","","","","","","","5","","","","","","","","",""
"null","751600","SARL_v6","SARL_v66gcwousw","63615bb6922c170dc50b434a","fixation","","","img/fixation.png","null","","","test","","","","","","","","","","","","","","","","","","","",""
"270.5","751880","SARL_v6","SARL_v66gcwousw","63615bb6922c170dc50b434a","freq","","","img/blue_2bandit_b2.png","70","","70","test","1","","99","","","","circle","square","95","11","5","0.9789473684210527","","","","","","","",""
"null","752417","SARL_v6","SARL_v66gcwousw","63615bb6922c170dc50b434a","freq_resp","","","img/blue_2bandit_b.png","70","img/blue_2bandit_b.png","70","test","","","","","","","","","","","5","","","","","","","","",""
"null","752578","SARL_v6","SARL_v66gcwousw","63615bb6922c170dc50b434a","fixation","","","img/fixation.png","null","","","test","","","","","","","","","","","","","","","","","","","",""
"281.60000000009313","752869","SARL_v6","SARL_v66gcwousw","63615bb6922c170dc50b434a","freq","","","img/blue_2bandit_b2.png","70","","70","test","1","","100","","","","circle","square","96","12","5","0.9791666666666666","","","","","","","",""
"null","753403","SARL_v6","SARL_v66gcwousw","63615bb6922c170dc50b434a","freq_resp","","","img/blue_2bandit_b.png","70","img/blue_2bandit_b.png","70","test","","","","","","","","","","","5","","","","","","","","",""
"null","753562","SARL_v6","SARL_v66gcwousw","63615bb6922c170dc50b434a","fixation","","","img/fixation.png","null","","","test","","","","","","","","","","","","","","","","","","","",""
"260.5","753833","SARL_v6","SARL_v66gcwousw","63615bb6922c170dc50b434a","freq","","","img/blue_2bandit_b2.png","70","","70","test","1","","101","","","","circle","square","97","13","5","0.979381443298969","","","","","","","",""
"null","754384","SARL_v6","SARL_v66gcwousw","63615bb6922c170dc50b434a","freq_resp","","","img/blue_2bandit_b.png","70","img/blue_2bandit_b.png","70","test","","","","","","","","","","","5","","","","","","","","",""
"null","754547","SARL_v6","SARL_v66gcwousw","63615bb6922c170dc50b434a","fixation","","","img/fixation.png","null","","","test","","","","","","","","","","","","","","","","","","","",""
"362","754921","SARL_v6","SARL_v66gcwousw","63615bb6922c170dc50b434a","freq","","","img/blue_2bandit_b2.png","70","","70","test","1","","102","","","","circle","square","98","14","5","0.9795918367346939","","","","","","","",""
"null","755370","SARL_v6","SARL_v66gcwousw","63615bb6922c170dc50b434a","freq_resp","","","img/blue_2bandit_b.png","70","img/blue_2bandit_b.png","70","test","","","","","","","","","","","5","","","","","","","","",""
"null","755530","SARL_v6","SARL_v66gcwousw","63615bb6922c170dc50b434a","fixation","","","img/fixation.png","null","","","test","","","","","","","","","","","","","","","","","","","",""
"492.8000000002794","756033","SARL_v6","SARL_v66gcwousw","63615bb6922c170dc50b434a","infreq","","","img/orange_2bandit_b2.png","68","","68","test","1","","103","","","","circle","square","99","15","5","0.9797979797979798","","","","","","","",""
"null","756354","SARL_v6","SARL_v66gcwousw","63615bb6922c170dc50b434a","infreq_resp","","","img/orange_2bandit_b.png","68","img/orange_2bandit_b.png","68","test","","","","","","","","","","","5","","","","","","","","",""
"null","756513","SARL_v6","SARL_v66gcwousw","63615bb6922c170dc50b434a","fixation","","","img/fixation.png","null","","","test","","","","","","","","","","","","","","","","","","","",""
"561.8000000002794","757083","SARL_v6","SARL_v66gcwousw","63615bb6922c170dc50b434a","freq","","","img/blue_2bandit_b2.png","70","","70","test","1","","104","","","","circle","square","100","16","5","0.98","","","","","","","",""
"null","757338","SARL_v6","SARL_v66gcwousw","63615bb6922c170dc50b434a","freq_resp","","","img/blue_2bandit_b.png","70","img/blue_2bandit_b.png","70","test","","","","","","","","","","","5","","","","","","","","",""
"null","757498","SARL_v6","SARL_v66gcwousw","63615bb6922c170dc50b434a","fixation","","","img/fixation.png","null","","","test","","","","","","","","","","","","","","","","","","","",""
"428","757937","SARL_v6","SARL_v66gcwousw","63615bb6922c170dc50b434a","freq","","","img/blue_2bandit_b2.png","70","","70","test","1","","105","","","","circle","square","101","17","5","0.9801980198019802","","","","","","","",""
"null","758320","SARL_v6","SARL_v66gcwousw","63615bb6922c170dc50b434a","freq_resp","","","img/blue_2bandit_b.png","70","img/blue_2bandit_b.png","70","test","","","","","","","","","","","5","","","","","","","","",""
"null","758480","SARL_v6","SARL_v66gcwousw","63615bb6922c170dc50b434a","fixation","","","img/fixation.png","null","","","test","","","","","","","","","","","","","","","","","","","",""
"359.90000000037253","758848","SARL_v6","SARL_v66gcwousw","63615bb6922c170dc50b434a","freq","","","img/blue_2bandit_b2.png","70","","70","test","1","","106","","","","circle","square","102","18","5","0.9803921568627451","","","","","","","",""
"null","759297","SARL_v6","SARL_v66gcwousw","63615bb6922c170dc50b434a","freq_resp","","","img/blue_2bandit_b.png","70","img/blue_2bandit_b.png","70","test","","","","","","","","","","","5","","","","","","","","",""
"null","759458","SARL_v6","SARL_v66gcwousw","63615bb6922c170dc50b434a","fixation","","","img/fixation.png","null","","","test","","","","","","","","","","","","","","","","","","","",""
"326.10000000009313","759795","SARL_v6","SARL_v66gcwousw","63615bb6922c170dc50b434a","freq","","","img/blue_2bandit_b2.png","70","","70","test","1","","107","","","","circle","square","103","19","5","0.9805825242718447","","","","","","","",""
"null","760282","SARL_v6","SARL_v66gcwousw","63615bb6922c170dc50b434a","freq_resp","","","img/blue_2bandit_b.png","70","img/blue_2bandit_b.png","70","test","","","","","","","","","","","5","","","","","","","","",""
"null","760443","SARL_v6","SARL_v66gcwousw","63615bb6922c170dc50b434a","fixation","","","img/fixation.png","null","","","test","","","","","","","","","","","","","","","","","","","",""
"337.8000000002794","760792","SARL_v6","SARL_v66gcwousw","63615bb6922c170dc50b434a","freq","","","img/blue_2bandit_b2.png","70","","70","test","1","","108","","","","circle","square","104","20","5","0.9807692307692307","","","","","","","",""
"null","761264","SARL_v6","SARL_v66gcwousw","63615bb6922c170dc50b434a","freq_resp","","","img/blue_2bandit_b.png","70","img/blue_2bandit_b.png","70","test","","","","","","","","","","","5","","","","","","","","",""
"null","761427","SARL_v6","SARL_v66gcwousw","63615bb6922c170dc50b434a","fixation","","","img/fixation.png","null","","","test","","","","","","","","","","","","","","","","","","","",""
"787.4000000003725","762224","SARL_v6","SARL_v66gcwousw","63615bb6922c170dc50b434a","rl","","","img/black_2bandit_b2.png","75","","0","test","","","109","","","-7","circle","square","","0","5","","75","4","-7","4","-7","square","5","0"
"null","762984","SARL_v6","SARL_v66gcwousw","63615bb6922c170dc50b434a","feedback","","","<div class=""verylowPoints_sq""> -7 </div>","null","","na","test","","","NaN","","","","","","","","5","","75","","","","","","5",""
"557.8999999999069","763551","SARL_v6","SARL_v66gcwousw","63615bb6922c170dc50b434a","freq","","","img/blue_2bandit_b2.png","70","","70","test","1","","110","","","","circle","square","105","1","6","0.9809523809523809","","","","","","","",""
"null","763803","SARL_v6","SARL_v66gcwousw","63615bb6922c170dc50b434a","freq_resp","","","img/blue_2bandit_b.png","70","img/blue_2bandit_b.png","70","test","","","","","","","","","","","6","","","","","","","","",""
"null","763969","SARL_v6","SARL_v66gcwousw","63615bb6922c170dc50b434a","fixation","","","img/fixation.png","null","","","test","","","","","","","","","","","","","","","","","","","",""
"456.10000000009313","764433","SARL_v6","SARL_v66gcwousw","63615bb6922c170dc50b434a","infreq","","","img/orange_2bandit_b2.png","68","","68","test","1","","111","","","","circle","square","106","2","6","0.9811320754716981","","","","","","","",""
"null","764794","SARL_v6","SARL_v66gcwousw","63615bb6922c170dc50b434a","infreq_resp","","","img/orange_2bandit_b.png","68","img/orange_2bandit_b.png","68","test","","","","","","","","","","","6","","","","","","","","",""
"null","764954","SARL_v6","SARL_v66gcwousw","63615bb6922c170dc50b434a","fixation","","","img/fixation.png","null","","","test","","","","","","","","","","","","","","","","","","","",""
"371.39999999990687","765335","SARL_v6","SARL_v66gcwousw","63615bb6922c170dc50b434a","freq","","","img/blue_2bandit_b2.png","70","","70","test","1","","112","","","","circle","square","107","3","6","0.9813084112149533","","","","","","","",""
"null","765778","SARL_v6","SARL_v66gcwousw","63615bb6922c170dc50b434a","freq_resp","","","img/blue_2bandit_b.png","70","img/blue_2bandit_b.png","70","test","","","","","","","","","","","6","","","","","","","","",""
"null","765937","SARL_v6","SARL_v66gcwousw","63615bb6922c170dc50b434a","fixation","","","img/fixation.png","null","","","test","","","","","","","","","","","","","","","","","","","",""
"470.70000000018626","766418","SARL_v6","SARL_v66gcwousw","63615bb6922c170dc50b434a","freq","","","img/blue_2bandit_b2.png","70","","70","test","1","","113","","","","circle","square","108","4","6","0.9814814814814815","","","","","","","",""
"null","766763","SARL_v6","SARL_v66gcwousw","63615bb6922c170dc50b434a","freq_resp","","","img/blue_2bandit_b.png","70","img/blue_2bandit_b.png","70","test","","","","","","","","","","","6","","","","","","","","",""
"null","766922","SARL_v6","SARL_v66gcwousw","63615bb6922c170dc50b434a","fixation","","","img/fixation.png","null","","","test","","","","","","","","","","","","","","","","","","","",""
"378.39999999990687","767311","SARL_v6","SARL_v66gcwousw","63615bb6922c170dc50b434a","freq","","","img/blue_2bandit_b2.png","70","","70","test","1","","114","","","","circle","square","109","5","6","0.981651376146789","","","","","","","",""
"null","767746","SARL_v6","SARL_v66gcwousw","63615bb6922c170dc50b434a","freq_resp","","","img/blue_2bandit_b.png","70","img/blue_2bandit_b.png","70","test","","","","","","","","","","","6","","","","","","","","",""
"null","767905","SARL_v6","SARL_v66gcwousw","63615bb6922c170dc50b434a","fixation","","","img/fixation.png","null","","","test","","","","","","","","","","","","","","","","","","","",""
"321.89999999990687","768237","SARL_v6","SARL_v66gcwousw","63615bb6922c170dc50b434a","freq","","","img/blue_2bandit_b2.png","70","","70","test","1","","115","","","","circle","square","110","6","6","0.9818181818181818","","","","","","","",""
"null","768730","SARL_v6","SARL_v66gcwousw","63615bb6922c170dc50b434a","freq_resp","","","img/blue_2bandit_b.png","70","img/blue_2bandit_b.png","70","test","","","","","","","","","","","6","","","","","","","","",""
"null","768890","SARL_v6","SARL_v66gcwousw","63615bb6922c170dc50b434a","fixation","","","img/fixation.png","null","","","test","","","","","","","","","","","","","","","","","","","",""
"373","769272","SARL_v6","SARL_v66gcwousw","63615bb6922c170dc50b434a","freq","","","img/blue_2bandit_b2.png","70","","70","test","1","","116","","","","circle","square","111","7","6","0.9819819819819819","","","","","","","",""
"null","769715","SARL_v6","SARL_v66gcwousw","63615bb6922c170dc50b434a","freq_resp","","","img/blue_2bandit_b.png","70","img/blue_2bandit_b.png","70","test","","","","","","","","","","","6","","","","","","","","",""
"null","769881","SARL_v6","SARL_v66gcwousw","63615bb6922c170dc50b434a","fixation","","","img/fixation.png","null","","","test","","","","","","","","","","","","","","","","","","","",""
"308.39999999990687","770200","SARL_v6","SARL_v66gcwousw","63615bb6922c170dc50b434a","freq","","","img/blue_2bandit_b2.png","70","","70","test","1","","117","","","","circle","square","112","8","6","0.9821428571428571","","","","","","","",""
"null","770706","SARL_v6","SARL_v66gcwousw","63615bb6922c170dc50b434a","freq_resp","","","img/blue_2bandit_b.png","70","img/blue_2bandit_b.png","70","test","","","","","","","","","","","6","","","","","","","","",""
"null","770867","SARL_v6","SARL_v66gcwousw","63615bb6922c170dc50b434a","fixation","","","img/fixation.png","null","","","test","","","","","","","","","","","","","","","","","","","",""
"300.79999999981374","771178","SARL_v6","SARL_v66gcwousw","63615bb6922c170dc50b434a","freq","","","img/blue_2bandit_b2.png","70","","70","test","1","","118","","","","circle","square","113","9","6","0.9823008849557522","","","","","","","",""
"null","771689","SARL_v6","SARL_v66gcwousw","63615bb6922c170dc50b434a","freq_resp","","","img/blue_2bandit_b.png","70","img/blue_2bandit_b.png","70","test","","","","","","","","","","","6","","","","","","","","",""
"null","771849","SARL_v6","SARL_v66gcwousw","63615bb6922c170dc50b434a","fixation","","","img/fixation.png","null","","","test","","","","","","","","","","","","","","","","","","","",""
"264.5","772125","SARL_v6","SARL_v66gcwousw","63615bb6922c170dc50b434a","freq","","","img/blue_2bandit_b2.png","70","","70","test","1","","119","","","","circle","square","114","10","6","0.9824561403508771","","","","","","","",""
"null","772675","SARL_v6","SARL_v66gcwousw","63615bb6922c170dc50b434a","freq_resp","","","img/blue_2bandit_b.png","70","img/blue_2bandit_b.png","70","test","","","","","","","","","","","6","","","","","","","","",""
"null","772834","SARL_v6","SARL_v66gcwousw","63615bb6922c170dc50b434a","fixation","","","img/fixation.png","null","","","test","","","","","","","","","","","","","","","","","","","",""
"303.20000000018626","773147","SARL_v6","SARL_v66gcwousw","63615bb6922c170dc50b434a","freq","","","img/blue_2bandit_b2.png","70","","70","test","1","","120","","","","circle","square","115","11","6","0.9826086956521739","","","","","","","",""
"null","773657","SARL_v6","SARL_v66gcwousw","63615bb6922c170dc50b434a","freq_resp","","","img/blue_2bandit_b.png","70","img/blue_2bandit_b.png","70","test","","","","","","","","","","","6","","","","","","","","",""
"null","773819","SARL_v6","SARL_v66gcwousw","63615bb6922c170dc50b434a","fixation","","","img/fixation.png","null","","","test","","","","","","","","","","","","","","","","","","","",""
"278.40000000037253","774107","SARL_v6","SARL_v66gcwousw","63615bb6922c170dc50b434a","freq","","","img/blue_2bandit_b2.png","70","","70","test","1","","121","","","","circle","square","116","12","6","0.9827586206896551","","","","","","","",""
"null","774641","SARL_v6","SARL_v66gcwousw","63615bb6922c170dc50b434a","freq_resp","","","img/blue_2bandit_b.png","70","img/blue_2bandit_b.png","70","test","","","","","","","","","","","6","","","","","","","","",""
"null","774802","SARL_v6","SARL_v66gcwousw","63615bb6922c170dc50b434a","fixation","","","img/fixation.png","null","","","test","","","","","","","","","","","","","","","","","","","",""
"349.29999999981374","775161","SARL_v6","SARL_v66gcwousw","63615bb6922c170dc50b434a","freq","","","img/blue_2bandit_b2.png","70","","70","test","1","","122","","","","circle","square","117","13","6","0.9829059829059829","","","","","","","",""
"null","775626","SARL_v6","SARL_v66gcwousw","63615bb6922c170dc50b434a","freq_resp","","","img/blue_2bandit_b.png","70","img/blue_2bandit_b.png","70","test","","","","","","","","","","","6","","","","","","","","",""
"null","775785","SARL_v6","SARL_v66gcwousw","63615bb6922c170dc50b434a","fixation","","","img/fixation.png","null","","","test","","","","","","","","","","","","","","","","","","","",""
"299.10000000009313","776093","SARL_v6","SARL_v66gcwousw","63615bb6922c170dc50b434a","freq","","","img/blue_2bandit_b2.png","70","","70","test","1","","123","","","","circle","square","118","14","6","0.9830508474576272","","","","","","","",""
"null","776610","SARL_v6","SARL_v66gcwousw","63615bb6922c170dc50b434a","freq_resp","","","img/blue_2bandit_b.png","70","img/blue_2bandit_b.png","70","test","","","","","","","","","","","6","","","","","","","","",""
"null","776770","SARL_v6","SARL_v66gcwousw","63615bb6922c170dc50b434a","fixation","","","img/fixation.png","null","","","test","","","","","","","","","","","","","","","","","","","",""
"310.20000000018626","777089","SARL_v6","SARL_v66gcwousw","63615bb6922c170dc50b434a","freq","","","img/blue_2bandit_b2.png","70","","70","test","1","","124","","","","circle","square","119","15","6","0.9831932773109243","","","","","","","",""
"null","777592","SARL_v6","SARL_v66gcwousw","63615bb6922c170dc50b434a","freq_resp","","","img/blue_2bandit_b.png","70","img/blue_2bandit_b.png","70","test","","","","","","","","","","","6","","","","","","","","",""
"null","777755","SARL_v6","SARL_v66gcwousw","63615bb6922c170dc50b434a","fixation","","","img/fixation.png","null","","","test","","","","","","","","","","","","","","","","","","","",""
"258.09999999962747","778021","SARL_v6","SARL_v66gcwousw","63615bb6922c170dc50b434a","freq","","","img/blue_2bandit_b2.png","70","","70","test","1","","125","","","","circle","square","120","16","6","0.9833333333333333","","","","","","","",""
"null","778577","SARL_v6","SARL_v66gcwousw","63615bb6922c170dc50b434a","freq_resp","","","img/blue_2bandit_b.png","70","img/blue_2bandit_b.png","70","test","","","","","","","","","","","6","","","","","","","","",""
"null","778737","SARL_v6","SARL_v66gcwousw","63615bb6922c170dc50b434a","fixation","","","img/fixation.png","null","","","test","","","","","","","","","","","","","","","","","","","",""
"268.39999999990687","779016","SARL_v6","SARL_v66gcwousw","63615bb6922c170dc50b434a","freq","","","img/blue_2bandit_b2.png","70","","70","test","1","","126","","","","circle","square","121","17","6","0.9834710743801653","","","","","","","",""
"null","779563","SARL_v6","SARL_v66gcwousw","63615bb6922c170dc50b434a","freq_resp","","","img/blue_2bandit_b.png","70","img/blue_2bandit_b.png","70","test","","","","","","","","","","","6","","","","","","","","",""
"null","779723","SARL_v6","SARL_v66gcwousw","63615bb6922c170dc50b434a","fixation","","","img/fixation.png","null","","","test","","","","","","","","","","","","","","","","","","","",""
"247.5","779981","SARL_v6","SARL_v66gcwousw","63615bb6922c170dc50b434a","freq","","","img/blue_2bandit_b2.png","70","","70","test","1","","127","","","","circle","square","122","18","6","0.9836065573770492","","","","","","","",""
"null","780544","SARL_v6","SARL_v66gcwousw","63615bb6922c170dc50b434a","freq_resp","","","img/blue_2bandit_b.png","70","img/blue_2bandit_b.png","70","test","","","","","","","","","","","6","","","","","","","","",""
"null","780707","SARL_v6","SARL_v66gcwousw","63615bb6922c170dc50b434a","fixation","","","img/fixation.png","null","","","test","","","","","","","","","","","","","","","","","","","",""
"289.5","781009","SARL_v6","SARL_v66gcwousw","63615bb6922c170dc50b434a","freq","","","img/blue_2bandit_b2.png","70","","70","test","1","","128","","","","circle","square","123","19","6","0.983739837398374","","","","","","","",""
"null","781531","SARL_v6","SARL_v66gcwousw","63615bb6922c170dc50b434a","freq_resp","","","img/blue_2bandit_b.png","70","img/blue_2bandit_b.png","70","test","","","","","","","","","","","6","","","","","","","","",""
"null","781699","SARL_v6","SARL_v66gcwousw","63615bb6922c170dc50b434a","fixation","","","img/fixation.png","null","","","test","","","","","","","","","","","","","","","","","","","",""
"293","782002","SARL_v6","SARL_v66gcwousw","63615bb6922c170dc50b434a","infreq","","","img/orange_2bandit_b2.png","70","","68","test","0","","129","","","","circle","square","124","20","6","0.9758064516129032","","","","","","","",""
"null","782521","SARL_v6","SARL_v66gcwousw","63615bb6922c170dc50b434a","infreq_resp","","","img/orange_2bandit_b.png","70","img/orange_2bandit_b.png","68","test","","","","","","","","","","","6","","","","","","","","",""
"null","782681","SARL_v6","SARL_v66gcwousw","63615bb6922c170dc50b434a","fixation","","","img/fixation.png","null","","","test","","","","","","","","","","","","","","","","","","","",""
"495.70000000018626","783188","SARL_v6","SARL_v66gcwousw","63615bb6922c170dc50b434a","freq","","","img/blue_2bandit_b2.png","70","","70","test","1","","130","","","","circle","square","125","21","6","0.976","","","","","","","",""
"null","783506","SARL_v6","SARL_v66gcwousw","63615bb6922c170dc50b434a","freq_resp","","","img/blue_2bandit_b.png","70","img/blue_2bandit_b.png","70","test","","","","","","","","","","","6","","","","","","","","",""
"null","783667","SARL_v6","SARL_v66gcwousw","63615bb6922c170dc50b434a","fixation","","","img/fixation.png","null","","","test","","","","","","","","","","","","","","","","","","","",""
"567.5","784245","SARL_v6","SARL_v66gcwousw","63615bb6922c170dc50b434a","rl","","","img/black_2bandit_b2.png","75","","0","test","","","131","","","-1","circle","square","","0","6","","75","-4","-1","-4","-1","square","6","0"
