"rt","time_elapsed","expId","subject","prolificID","trialType","rlType","attType","stimulus","key_press","stim","corrresp","phase","corr","pracCounter","trialNum","rewardOne","rewardTwo","reward","bandOne","bandTwo","attentionNum","attentionRunNum","blockNum","performance","bandChosen","circleVal","squareVal","bandOneVal","bandTwoVal","shapeChosen","rlNum","badFlag"
"5901.600000008941","5917","SARL_v6","SARL_v6dj9swa6u","5a7a1973000dab00018c3410","","","","","","","","","","","","","","","","","","","","","","","","","","","",""
"","8660","SARL_v6","SARL_v6dj9swa6u","5a7a1973000dab00018c3410","fullscreen","fullscreen","fullscreen","","","","","","","","","","","","","","","","","","","","","","","","",""
"52923.5","61598","SARL_v6","SARL_v6dj9swa6u","5a7a1973000dab00018c3410","","","","","","","","","","","","","","","","","","","","","","","","","","","",""
"null","62421","SARL_v6","SARL_v6dj9swa6u","5a7a1973000dab00018c3410","freqPrac","","","img/blue_2bandit_b2.png","null","img/blue_2bandit_b2.png","70","prac","0","1","","","","","","","","","","","","","","","","","",""
"null","63434","SARL_v6","SARL_v6dj9swa6u","5a7a1973000dab00018c3410","feedback","","","img/tooSlow.png","null","","na","prac","","","","","","","","","","","","","","","","","","","",""
"null","63603","SARL_v6","SARL_v6dj9swa6u","5a7a1973000dab00018c3410","fixation","","","img/fixation.png","null","","","prac","","","","","","","","","","","","","","","","","","","",""
"null","64426","SARL_v6","SARL_v6dj9swa6u","5a7a1973000dab00018c3410","infreqPrac","","","img/orange_2bandit_b2.png","null","img/orange_2bandit_b2.png","68","prac","0","2","","","","","","","","","","","","","","","","","",""
"null","65445","SARL_v6","SARL_v6dj9swa6u","5a7a1973000dab00018c3410","feedback","","","img/tooSlow.png","null","","na","prac","","","","","","","","","","","","","","","","","","","",""
"null","65617","SARL_v6","SARL_v6dj9swa6u","5a7a1973000dab00018c3410","fixation","","","img/fixation.png","null","","","prac","","","","","","","","","","","","","","","","","","","",""
"496","66123","SARL_v6","SARL_v6dj9swa6u","5a7a1973000dab00018c3410","freqPrac","","","img/blue_2bandit_b2.png","70","img/blue_2bandit_b2.png","70","prac","1","2","","","","","","","","","","","","","","","","","",""
"496","66448","SARL_v6","SARL_v6dj9swa6u","5a7a1973000dab00018c3410","freqPrac_resp","","","img/blue_2bandit_b.png","70","img/blue_2bandit_b.png","70","prac","","","","","","","","","","","","","","","","","","","",""
"null","66608","SARL_v6","SARL_v6dj9swa6u","5a7a1973000dab00018c3410","fixation","","","img/fixation.png","null","","","prac","","","","","","","","","","","","","","","","","","","",""
"589.3999999910593","67207","SARL_v6","SARL_v6dj9swa6u","5a7a1973000dab00018c3410","infreqPrac","","","img/orange_2bandit_b2.png","68","img/orange_2bandit_b2.png","68","prac","1","2","","","","","","","","","","","","","","","","","",""
"589.3999999910593","67436","SARL_v6","SARL_v6dj9swa6u","5a7a1973000dab00018c3410","infreqPrac_resp","","","img/orange_2bandit_b.png","68","img/orange_2bandit_b.png","68","prac","","","","","","","","","","","","","","","","","","","",""
"null","67599","SARL_v6","SARL_v6dj9swa6u","5a7a1973000dab00018c3410","fixation","","","img/fixation.png","null","","","prac","","","","","","","","","","","","","","","","","","","",""
"514","68122","SARL_v6","SARL_v6dj9swa6u","5a7a1973000dab00018c3410","infreqPrac","","","img/orange_2bandit_b2.png","68","img/orange_2bandit_b2.png","68","prac","1","2","","","","","","","","","","","","","","","","","",""
"514","68423","SARL_v6","SARL_v6dj9swa6u","5a7a1973000dab00018c3410","infreqPrac_resp","","","img/orange_2bandit_b.png","68","img/orange_2bandit_b.png","68","prac","","","","","","","","","","","","","","","","","","","",""
"null","68597","SARL_v6","SARL_v6dj9swa6u","5a7a1973000dab00018c3410","fixation","","","img/fixation.png","null","","","prac","","","","","","","","","","","","","","","","","","","",""
"370.8999999910593","68977","SARL_v6","SARL_v6dj9swa6u","5a7a1973000dab00018c3410","infreqPrac","","","img/orange_2bandit_b2.png","68","img/orange_2bandit_b2.png","68","prac","1","2","","","","","","","","","","","","","","","","","",""
"370.8999999910593","69427","SARL_v6","SARL_v6dj9swa6u","5a7a1973000dab00018c3410","infreqPrac_resp","","","img/orange_2bandit_b.png","68","img/orange_2bandit_b.png","68","prac","","","","","","","","","","","","","","","","","","","",""
"null","69599","SARL_v6","SARL_v6dj9swa6u","5a7a1973000dab00018c3410","fixation","","","img/fixation.png","null","","","prac","","","","","","","","","","","","","","","","","","","",""
"440.19999998807907","70048","SARL_v6","SARL_v6dj9swa6u","5a7a1973000dab00018c3410","freqPrac","","","img/blue_2bandit_b2.png","70","img/blue_2bandit_b2.png","70","prac","1","2","","","","","","","","","","","","","","","","","",""
"440.19999998807907","70426","SARL_v6","SARL_v6dj9swa6u","5a7a1973000dab00018c3410","freqPrac_resp","","","img/blue_2bandit_b.png","70","img/blue_2bandit_b.png","70","prac","","","","","","","","","","","","","","","","","","","",""
"null","70588","SARL_v6","SARL_v6dj9swa6u","5a7a1973000dab00018c3410","fixation","","","img/fixation.png","null","","","prac","","","","","","","","","","","","","","","","","","","",""
"702.1999999880791","71300","SARL_v6","SARL_v6dj9swa6u","5a7a1973000dab00018c3410","infreqPrac","","","img/orange_2bandit_b2.png","68","img/orange_2bandit_b2.png","68","prac","1","2","","","","","","","","","","","","","","","","","",""
"702.1999999880791","71409","SARL_v6","SARL_v6dj9swa6u","5a7a1973000dab00018c3410","infreqPrac_resp","","","img/orange_2bandit_b.png","68","img/orange_2bandit_b.png","68","prac","","","","","","","","","","","","","","","","","","","",""
"null","71572","SARL_v6","SARL_v6dj9swa6u","5a7a1973000dab00018c3410","fixation","","","img/fixation.png","null","","","prac","","","","","","","","","","","","","","","","","","","",""
"493.59999999403954","72074","SARL_v6","SARL_v6dj9swa6u","5a7a1973000dab00018c3410","freqPrac","","","img/blue_2bandit_b2.png","70","img/blue_2bandit_b2.png","70","prac","1","2","","","","","","","","","","","","","","","","","",""
"493.59999999403954","72394","SARL_v6","SARL_v6dj9swa6u","5a7a1973000dab00018c3410","freqPrac_resp","","","img/blue_2bandit_b.png","70","img/blue_2bandit_b.png","70","prac","","","","","","","","","","","","","","","","","","","",""
"null","72568","SARL_v6","SARL_v6dj9swa6u","5a7a1973000dab00018c3410","fixation","","","img/fixation.png","null","","","prac","","","","","","","","","","","","","","","","","","","",""
"397.59999999403954","72974","SARL_v6","SARL_v6dj9swa6u","5a7a1973000dab00018c3410","freqPrac","","","img/blue_2bandit_b2.png","70","img/blue_2bandit_b2.png","70","prac","1","2","","","","","","","","","","","","","","","","","",""
"397.59999999403954","73394","SARL_v6","SARL_v6dj9swa6u","5a7a1973000dab00018c3410","freqPrac_resp","","","img/blue_2bandit_b.png","70","img/blue_2bandit_b.png","70","prac","","","","","","","","","","","","","","","","","","","",""
"null","73567","SARL_v6","SARL_v6dj9swa6u","5a7a1973000dab00018c3410","fixation","","","img/fixation.png","null","","","prac","","","","","","","","","","","","","","","","","","","",""
"16044.90000000596","89620","SARL_v6","SARL_v6dj9swa6u","5a7a1973000dab00018c3410","","","","","","","","prac","","","","","","","","","","","","","","","","","","","",""
"634.6000000089407","90265","SARL_v6","SARL_v6dj9swa6u","5a7a1973000dab00018c3410","rlPractice","","","img/black_2bandit_b2.png","74","img/black_2bandit_b2.png","","prac","","","0","","","","","","","","","","","","","","","","",""
"null","91029","SARL_v6","SARL_v6dj9swa6u","5a7a1973000dab00018c3410","feedback","","","<div class=""veryhighPoints""> 10 </div>","null","","na","prac","","","1","10","-14","10","","","","","","","","","","","","","",""
"null","91193","SARL_v6","SARL_v6dj9swa6u","5a7a1973000dab00018c3410","fixation","","","img/fixation.png","null","","","prac","","","","","","","","","","","","","","","","","","","",""
"451.6000000089407","91654","SARL_v6","SARL_v6dj9swa6u","5a7a1973000dab00018c3410","rlPractice","","","img/black_2bandit_b2.png","74","img/black_2bandit_b2.png","","prac","","","1","","","","","","","","","","","","","","","","",""
"null","92426","SARL_v6","SARL_v6dj9swa6u","5a7a1973000dab00018c3410","feedback","","","<div class=""veryhighPoints""> 5 </div>","null","","na","prac","","","2","5","-5","5","","","","","","","","","","","","","",""
"null","92585","SARL_v6","SARL_v6dj9swa6u","5a7a1973000dab00018c3410","fixation","","","img/fixation.png","null","","","prac","","","","","","","","","","","","","","","","","","","",""
"286.59999999403954","92881","SARL_v6","SARL_v6dj9swa6u","5a7a1973000dab00018c3410","rlPractice","","","img/black_2bandit_b2.png","75","img/black_2bandit_b2.png","","prac","","","2","","","","","","","","","","","","","","","","",""
"null","93643","SARL_v6","SARL_v6dj9swa6u","5a7a1973000dab00018c3410","feedback","","","<div class=""veryhighPoints_sq""> 2 </div>","null","","na","prac","","","3","30","2","30","","","","","","","","","","","","","",""
"null","93815","SARL_v6","SARL_v6dj9swa6u","5a7a1973000dab00018c3410","fixation","","","img/fixation.png","null","","","prac","","","","","","","","","","","","","","","","","","","",""
"257.80000001192093","94082","SARL_v6","SARL_v6dj9swa6u","5a7a1973000dab00018c3410","rlPractice","","","img/black_2bandit_b2.png","74","img/black_2bandit_b2.png","","prac","","","3","","","","","","","","","","","","","","","","",""
"null","94850","SARL_v6","SARL_v6dj9swa6u","5a7a1973000dab00018c3410","feedback","","","<div class=""verylowPoints""> -2 </div>","null","","na","prac","","","4","-2","20","-2","","","","","","","","","","","","","",""
"null","95014","SARL_v6","SARL_v6dj9swa6u","5a7a1973000dab00018c3410","fixation","","","img/fixation.png","null","","","prac","","","","","","","","","","","","","","","","","","","",""
"28542","123560","SARL_v6","SARL_v6dj9swa6u","5a7a1973000dab00018c3410","","","","","","","","prac","","","","","","","","","","","","","","","","","","","",""
"null","124382","SARL_v6","SARL_v6dj9swa6u","5a7a1973000dab00018c3410","mixAttFreqPrac","","","img/blue_2bandit_b2.png","null","img/blue_2bandit_b2.png","70","prac","","","1","","","","","","","","","","","","","","","","",""
"null","124557","SARL_v6","SARL_v6dj9swa6u","5a7a1973000dab00018c3410","fixation","","","img/fixation.png","null","","","prac","","","","","","","","","","","","","","","","","","","",""
"199.5","124765","SARL_v6","SARL_v6dj9swa6u","5a7a1973000dab00018c3410","mixAttInfreqPrac","","","img/orange_2bandit_b2.png","68","img/orange_2bandit_b2.png","68","prac","","","2","","","","","","","","","","","","","","","","",""
"199.5","125383","SARL_v6","SARL_v6dj9swa6u","5a7a1973000dab00018c3410","infreqPrac_resp","","","img/orange_2bandit_b.png","68","img/blue_2bandit_b.png","68","prac","","","2","","","","","","","","","","","","","","","","",""
"111.5","125554","SARL_v6","SARL_v6dj9swa6u","5a7a1973000dab00018c3410","fixation","","","img/fixation.png","68","","","prac","","","","","","","","","","","","","","","","","","","",""
"469.09999999403954","126032","SARL_v6","SARL_v6dj9swa6u","5a7a1973000dab00018c3410","mixAttInfreqPrac","","","img/orange_2bandit_b2.png","68","img/orange_2bandit_b2.png","68","prac","","","3","","","","","","","","","","","","","","","","",""
"469.09999999403954","126385","SARL_v6","SARL_v6dj9swa6u","5a7a1973000dab00018c3410","infreqPrac_resp","","","img/orange_2bandit_b.png","68","img/blue_2bandit_b.png","68","prac","","","3","","","","","","","","","","","","","","","","",""
"null","126548","SARL_v6","SARL_v6dj9swa6u","5a7a1973000dab00018c3410","fixation","","","img/fixation.png","null","","","prac","","","","","","","","","","","","","","","","","","","",""
"325","126882","SARL_v6","SARL_v6dj9swa6u","5a7a1973000dab00018c3410","mixAttInfreqPrac","","","img/orange_2bandit_b2.png","68","img/orange_2bandit_b2.png","68","prac","","","4","","","","","","","","","","","","","","","","",""
"325","127375","SARL_v6","SARL_v6dj9swa6u","5a7a1973000dab00018c3410","infreqPrac_resp","","","img/orange_2bandit_b.png","68","img/blue_2bandit_b.png","68","prac","","","4","","","","","","","","","","","","","","","","",""
"null","127538","SARL_v6","SARL_v6dj9swa6u","5a7a1973000dab00018c3410","fixation","","","img/fixation.png","null","","","prac","","","","","","","","","","","","","","","","","","","",""
"450.8999999910593","127999","SARL_v6","SARL_v6dj9swa6u","5a7a1973000dab00018c3410","mixAttFreqPrac","","","img/blue_2bandit_b2.png","70","img/blue_2bandit_b2.png","70","prac","","","5","","","","","","","","","","","","","","","","",""
"450.8999999910593","128366","SARL_v6","SARL_v6dj9swa6u","5a7a1973000dab00018c3410","freqPrac_resp","","","img/blue_2bandit_b.png","70","img/blue_2bandit_b.png","70","prac","","","5","","","","","","","","","","","","","","","","",""
"null","128529","SARL_v6","SARL_v6dj9swa6u","5a7a1973000dab00018c3410","fixation","","","img/fixation.png","null","","","prac","","","","","","","","","","","","","","","","","","","",""
"591.7999999970198","129130","SARL_v6","SARL_v6dj9swa6u","5a7a1973000dab00018c3410","mixRLPractice","","","img/black_2bandit_b2.png","75","img/black_2bandit_b2.png","","prac","","","5","","","","","","","","","","","","","","","","",""
"null","129904","SARL_v6","SARL_v6dj9swa6u","5a7a1973000dab00018c3410","feedback","","","<div class=""veryhighPoints_sq""> 10 </div>","null","","na","prac","","","6","-14","10","-14","","","","","","","","","","","","","",""
"null","130077","SARL_v6","SARL_v6dj9swa6u","5a7a1973000dab00018c3410","fixation","","","img/fixation.png","null","","","prac","","","","","","","","","","","","","","","","","","","",""
"601.7000000029802","130687","SARL_v6","SARL_v6dj9swa6u","5a7a1973000dab00018c3410","mixAttFreqPrac","","","img/blue_2bandit_b2.png","70","img/blue_2bandit_b2.png","70","prac","","","7","","","","","","","","","","","","","","","","",""
"601.7000000029802","130898","SARL_v6","SARL_v6dj9swa6u","5a7a1973000dab00018c3410","freqPrac_resp","","","img/blue_2bandit_b.png","70","img/blue_2bandit_b.png","70","prac","","","7","","","","","","","","","","","","","","","","",""
"null","131061","SARL_v6","SARL_v6dj9swa6u","5a7a1973000dab00018c3410","fixation","","","img/fixation.png","null","","","prac","","","","","","","","","","","","","","","","","","","",""
"402.3999999910593","131472","SARL_v6","SARL_v6dj9swa6u","5a7a1973000dab00018c3410","mixAttInfreqPrac","","","img/orange_2bandit_b2.png","68","img/orange_2bandit_b2.png","68","prac","","","8","","","","","","","","","","","","","","","","",""
"402.3999999910593","131893","SARL_v6","SARL_v6dj9swa6u","5a7a1973000dab00018c3410","infreqPrac_resp","","","img/orange_2bandit_b.png","68","img/blue_2bandit_b.png","68","prac","","","8","","","","","","","","","","","","","","","","",""
"null","132066","SARL_v6","SARL_v6dj9swa6u","5a7a1973000dab00018c3410","fixation","","","img/fixation.png","null","","","prac","","","","","","","","","","","","","","","","","","","",""
"372.90000000596046","132447","SARL_v6","SARL_v6dj9swa6u","5a7a1973000dab00018c3410","mixAttFreqPrac","","","img/blue_2bandit_b2.png","70","img/blue_2bandit_b2.png","70","prac","","","9","","","","","","","","","","","","","","","","",""
"372.90000000596046","132889","SARL_v6","SARL_v6dj9swa6u","5a7a1973000dab00018c3410","freqPrac_resp","","","img/blue_2bandit_b.png","70","img/blue_2bandit_b.png","70","prac","","","9","","","","","","","","","","","","","","","","",""
"null","133048","SARL_v6","SARL_v6dj9swa6u","5a7a1973000dab00018c3410","fixation","","","img/fixation.png","null","","","prac","","","","","","","","","","","","","","","","","","","",""
"336.20000000298023","133393","SARL_v6","SARL_v6dj9swa6u","5a7a1973000dab00018c3410","mixAttFreqPrac","","","img/blue_2bandit_b2.png","70","img/blue_2bandit_b2.png","70","prac","","","10","","","","","","","","","","","","","","","","",""
"336.20000000298023","133877","SARL_v6","SARL_v6dj9swa6u","5a7a1973000dab00018c3410","freqPrac_resp","","","img/blue_2bandit_b.png","70","img/blue_2bandit_b.png","70","prac","","","10","","","","","","","","","","","","","","","","",""
"null","134040","SARL_v6","SARL_v6dj9swa6u","5a7a1973000dab00018c3410","fixation","","","img/fixation.png","null","","","prac","","","","","","","","","","","","","","","","","","","",""
"420.79999999701977","134469","SARL_v6","SARL_v6dj9swa6u","5a7a1973000dab00018c3410","mixAttInfreqPrac","","","img/orange_2bandit_b2.png","68","img/orange_2bandit_b2.png","68","prac","","","11","","","","","","","","","","","","","","","","",""
"420.79999999701977","134858","SARL_v6","SARL_v6dj9swa6u","5a7a1973000dab00018c3410","infreqPrac_resp","","","img/orange_2bandit_b.png","68","img/blue_2bandit_b.png","68","prac","","","11","","","","","","","","","","","","","","","","",""
"null","135029","SARL_v6","SARL_v6dj9swa6u","5a7a1973000dab00018c3410","fixation","","","img/fixation.png","null","","","prac","","","","","","","","","","","","","","","","","","","",""
"506.5","135544","SARL_v6","SARL_v6dj9swa6u","5a7a1973000dab00018c3410","mixRLPractice","","","img/black_2bandit_b2.png","75","img/black_2bandit_b2.png","","prac","","","11","","","","","","","","","","","","","","","","",""
"null","136314","SARL_v6","SARL_v6dj9swa6u","5a7a1973000dab00018c3410","feedback","","","<div class=""verylowPoints_sq""> -5 </div>","null","","na","prac","","","12","5","-5","5","","","","","","","","","","","","","",""
"null","136486","SARL_v6","SARL_v6dj9swa6u","5a7a1973000dab00018c3410","fixation","","","img/fixation.png","null","","","prac","","","","","","","","","","","","","","","","","","","",""
"4224.5","140719","SARL_v6","SARL_v6dj9swa6u","5a7a1973000dab00018c3410","","","","","","","","prac","","","","","","","","","","","","","","","","","","","",""
"532.9000000059605","141261","SARL_v6","SARL_v6dj9swa6u","5a7a1973000dab00018c3410","freq","","","img/blue_2bandit_b2.png","68","","70","test","0","","1","","","","circle","square","1","1","1","0","","","","","","","",""
"null","141551","SARL_v6","SARL_v6dj9swa6u","5a7a1973000dab00018c3410","freq_resp","","","img/blue_2bandit_b.png","68","img/blue_2bandit_b.png","70","test","","","","","","","","","","","1","","","","","","","","",""
"null","141723","SARL_v6","SARL_v6dj9swa6u","5a7a1973000dab00018c3410","fixation","","","img/fixation.png","null","","","test","","","","","","","","","","","","","","","","","","","",""
"776.5","142508","SARL_v6","SARL_v6dj9swa6u","5a7a1973000dab00018c3410","freq","","","img/blue_2bandit_b2.png","70","","70","test","1","","2","","","","circle","square","2","2","1","0.5","","","","","","","",""
"null","142541","SARL_v6","SARL_v6dj9swa6u","5a7a1973000dab00018c3410","freq_resp","","","img/blue_2bandit_b.png","70","img/blue_2bandit_b.png","70","test","","","","","","","","","","","1","","","","","","","","",""
"null","142715","SARL_v6","SARL_v6dj9swa6u","5a7a1973000dab00018c3410","fixation","","","img/fixation.png","null","","","test","","","","","","","","","","","","","","","","","","","",""
"438.6000000089407","143163","SARL_v6","SARL_v6dj9swa6u","5a7a1973000dab00018c3410","freq","","","img/blue_2bandit_b2.png","70","","70","test","1","","3","","","","circle","square","3","3","1","0.6666666666666666","","","","","","","",""
"null","143541","SARL_v6","SARL_v6dj9swa6u","5a7a1973000dab00018c3410","freq_resp","","","img/blue_2bandit_b.png","70","img/blue_2bandit_b.png","70","test","","","","","","","","","","","1","","","","","","","","",""
"null","143701","SARL_v6","SARL_v6dj9swa6u","5a7a1973000dab00018c3410","fixation","","","img/fixation.png","null","","","test","","","","","","","","","","","","","","","","","","","",""
"281.5","143991","SARL_v6","SARL_v6dj9swa6u","5a7a1973000dab00018c3410","freq","","","img/blue_2bandit_b2.png","70","","70","test","1","","4","","","","circle","square","4","4","1","0.75","","","","","","","",""
"null","144531","SARL_v6","SARL_v6dj9swa6u","5a7a1973000dab00018c3410","freq_resp","","","img/blue_2bandit_b.png","70","img/blue_2bandit_b.png","70","test","","","","","","","","","","","1","","","","","","","","",""
"null","144703","SARL_v6","SARL_v6dj9swa6u","5a7a1973000dab00018c3410","fixation","","","img/fixation.png","null","","","test","","","","","","","","","","","","","","","","","","","",""
"330.40000000596046","145043","SARL_v6","SARL_v6dj9swa6u","5a7a1973000dab00018c3410","freq","","","img/blue_2bandit_b2.png","70","","70","test","1","","5","","","","circle","square","5","5","1","0.8","","","","","","","",""
"null","145532","SARL_v6","SARL_v6dj9swa6u","5a7a1973000dab00018c3410","freq_resp","","","img/blue_2bandit_b.png","70","img/blue_2bandit_b.png","70","test","","","","","","","","","","","1","","","","","","","","",""
"null","145696","SARL_v6","SARL_v6dj9swa6u","5a7a1973000dab00018c3410","fixation","","","img/fixation.png","null","","","test","","","","","","","","","","","","","","","","","","","",""
"283","145987","SARL_v6","SARL_v6dj9swa6u","5a7a1973000dab00018c3410","freq","","","img/blue_2bandit_b2.png","70","","70","test","1","","6","","","","circle","square","6","6","1","0.8333333333333334","","","","","","","",""
"null","146521","SARL_v6","SARL_v6dj9swa6u","5a7a1973000dab00018c3410","freq_resp","","","img/blue_2bandit_b.png","70","img/blue_2bandit_b.png","70","test","","","","","","","","","","","1","","","","","","","","",""
"null","146681","SARL_v6","SARL_v6dj9swa6u","5a7a1973000dab00018c3410","fixation","","","img/fixation.png","null","","","test","","","","","","","","","","","","","","","","","","","",""
"243.20000000298023","146933","SARL_v6","SARL_v6dj9swa6u","5a7a1973000dab00018c3410","freq","","","img/blue_2bandit_b2.png","70","","70","test","1","","7","","","","circle","square","7","7","1","0.8571428571428571","","","","","","","",""
"null","147508","SARL_v6","SARL_v6dj9swa6u","5a7a1973000dab00018c3410","freq_resp","","","img/blue_2bandit_b.png","70","img/blue_2bandit_b.png","70","test","","","","","","","","","","","1","","","","","","","","",""
"null","147668","SARL_v6","SARL_v6dj9swa6u","5a7a1973000dab00018c3410","fixation","","","img/fixation.png","null","","","test","","","","","","","","","","","","","","","","","","","",""
"389.09999999403954","148069","SARL_v6","SARL_v6dj9swa6u","5a7a1973000dab00018c3410","freq","","","img/blue_2bandit_b2.png","70","","70","test","1","","8","","","","circle","square","8","8","1","0.875","","","","","","","",""
"null","148501","SARL_v6","SARL_v6dj9swa6u","5a7a1973000dab00018c3410","freq_resp","","","img/blue_2bandit_b.png","70","img/blue_2bandit_b.png","70","test","","","","","","","","","","","1","","","","","","","","",""
"null","148676","SARL_v6","SARL_v6dj9swa6u","5a7a1973000dab00018c3410","fixation","","","img/fixation.png","null","","","test","","","","","","","","","","","","","","","","","","","",""
"294.59999999403954","148979","SARL_v6","SARL_v6dj9swa6u","5a7a1973000dab00018c3410","freq","","","img/blue_2bandit_b2.png","70","","70","test","1","","9","","","","circle","square","9","9","1","0.8888888888888888","","","","","","","",""
"null","149508","SARL_v6","SARL_v6dj9swa6u","5a7a1973000dab00018c3410","freq_resp","","","img/blue_2bandit_b.png","70","img/blue_2bandit_b.png","70","test","","","","","","","","","","","1","","","","","","","","",""
"null","149682","SARL_v6","SARL_v6dj9swa6u","5a7a1973000dab00018c3410","fixation","","","img/fixation.png","null","","","test","","","","","","","","","","","","","","","","","","","",""
"279","149970","SARL_v6","SARL_v6dj9swa6u","5a7a1973000dab00018c3410","freq","","","img/blue_2bandit_b2.png","70","","70","test","1","","10","","","","circle","square","10","10","1","0.9","","","","","","","",""
"null","150516","SARL_v6","SARL_v6dj9swa6u","5a7a1973000dab00018c3410","freq_resp","","","img/blue_2bandit_b.png","70","img/blue_2bandit_b.png","70","test","","","","","","","","","","","1","","","","","","","","",""
"null","150689","SARL_v6","SARL_v6dj9swa6u","5a7a1973000dab00018c3410","fixation","","","img/fixation.png","null","","","test","","","","","","","","","","","","","","","","","","","",""
"246.70000000298023","150947","SARL_v6","SARL_v6dj9swa6u","5a7a1973000dab00018c3410","freq","","","img/blue_2bandit_b2.png","70","","70","test","1","","11","","","","circle","square","11","11","1","0.9090909090909091","","","","","","","",""
"null","151513","SARL_v6","SARL_v6dj9swa6u","5a7a1973000dab00018c3410","freq_resp","","","img/blue_2bandit_b.png","70","img/blue_2bandit_b.png","70","test","","","","","","","","","","","1","","","","","","","","",""
"null","151673","SARL_v6","SARL_v6dj9swa6u","5a7a1973000dab00018c3410","fixation","","","img/fixation.png","null","","","test","","","","","","","","","","","","","","","","","","","",""
"389.5","152071","SARL_v6","SARL_v6dj9swa6u","5a7a1973000dab00018c3410","infreq","","","img/orange_2bandit_b2.png","68","","68","test","1","","12","","","","circle","square","12","12","1","0.9166666666666666","","","","","","","",""
"null","152496","SARL_v6","SARL_v6dj9swa6u","5a7a1973000dab00018c3410","infreq_resp","","","img/orange_2bandit_b.png","68","img/orange_2bandit_b.png","68","test","","","","","","","","","","","1","","","","","","","","",""
"null","152671","SARL_v6","SARL_v6dj9swa6u","5a7a1973000dab00018c3410","fixation","","","img/fixation.png","null","","","test","","","","","","","","","","","","","","","","","","","",""
"356.8999999910593","153037","SARL_v6","SARL_v6dj9swa6u","5a7a1973000dab00018c3410","freq","","","img/blue_2bandit_b2.png","68","","70","test","0","","13","","","","circle","square","13","13","1","0.8461538461538461","","","","","","","",""
"null","153493","SARL_v6","SARL_v6dj9swa6u","5a7a1973000dab00018c3410","freq_resp","","","img/blue_2bandit_b.png","68","img/blue_2bandit_b.png","70","test","","","","","","","","","","","1","","","","","","","","",""
"null","153656","SARL_v6","SARL_v6dj9swa6u","5a7a1973000dab00018c3410","fixation","","","img/fixation.png","null","","","test","","","","","","","","","","","","","","","","","","","",""
"574.7000000029802","154240","SARL_v6","SARL_v6dj9swa6u","5a7a1973000dab00018c3410","freq","","","img/blue_2bandit_b2.png","70","","70","test","1","","14","","","","circle","square","14","14","1","0.8571428571428571","","","","","","","",""
"null","154481","SARL_v6","SARL_v6dj9swa6u","5a7a1973000dab00018c3410","freq_resp","","","img/blue_2bandit_b.png","70","img/blue_2bandit_b.png","70","test","","","","","","","","","","","1","","","","","","","","",""
"null","154645","SARL_v6","SARL_v6dj9swa6u","5a7a1973000dab00018c3410","fixation","","","img/fixation.png","null","","","test","","","","","","","","","","","","","","","","","","","",""
"369.20000000298023","155023","SARL_v6","SARL_v6dj9swa6u","5a7a1973000dab00018c3410","freq","","","img/blue_2bandit_b2.png","70","","70","test","1","","15","","","","circle","square","15","15","1","0.8666666666666667","","","","","","","",""
"null","155474","SARL_v6","SARL_v6dj9swa6u","5a7a1973000dab00018c3410","freq_resp","","","img/blue_2bandit_b.png","70","img/blue_2bandit_b.png","70","test","","","","","","","","","","","1","","","","","","","","",""
"null","155637","SARL_v6","SARL_v6dj9swa6u","5a7a1973000dab00018c3410","fixation","","","img/fixation.png","null","","","test","","","","","","","","","","","","","","","","","","","",""
"362.80000001192093","156009","SARL_v6","SARL_v6dj9swa6u","5a7a1973000dab00018c3410","freq","","","img/blue_2bandit_b2.png","70","","70","test","1","","16","","","","circle","square","16","16","1","0.875","","","","","","","",""
"null","156465","SARL_v6","SARL_v6dj9swa6u","5a7a1973000dab00018c3410","freq_resp","","","img/blue_2bandit_b.png","70","img/blue_2bandit_b.png","70","test","","","","","","","","","","","1","","","","","","","","",""
"null","156627","SARL_v6","SARL_v6dj9swa6u","5a7a1973000dab00018c3410","fixation","","","img/fixation.png","null","","","test","","","","","","","","","","","","","","","","","","","",""
"402.6000000089407","157039","SARL_v6","SARL_v6dj9swa6u","5a7a1973000dab00018c3410","freq","","","img/blue_2bandit_b2.png","70","","70","test","1","","17","","","","circle","square","17","17","1","0.8823529411764706","","","","","","","",""
"null","157457","SARL_v6","SARL_v6dj9swa6u","5a7a1973000dab00018c3410","freq_resp","","","img/blue_2bandit_b.png","70","img/blue_2bandit_b.png","70","test","","","","","","","","","","","1","","","","","","","","",""
"null","157617","SARL_v6","SARL_v6dj9swa6u","5a7a1973000dab00018c3410","fixation","","","img/fixation.png","null","","","test","","","","","","","","","","","","","","","","","","","",""
"297.70000000298023","157924","SARL_v6","SARL_v6dj9swa6u","5a7a1973000dab00018c3410","freq","","","img/blue_2bandit_b2.png","70","","70","test","1","","18","","","","circle","square","18","18","1","0.8888888888888888","","","","","","","",""
"null","158442","SARL_v6","SARL_v6dj9swa6u","5a7a1973000dab00018c3410","freq_resp","","","img/blue_2bandit_b.png","70","img/blue_2bandit_b.png","70","test","","","","","","","","","","","1","","","","","","","","",""
"null","158615","SARL_v6","SARL_v6dj9swa6u","5a7a1973000dab00018c3410","fixation","","","img/fixation.png","null","","","test","","","","","","","","","","","","","","","","","","","",""
"330.5","158955","SARL_v6","SARL_v6dj9swa6u","5a7a1973000dab00018c3410","freq","","","img/blue_2bandit_b2.png","70","","70","test","1","","19","","","","circle","square","19","19","1","0.8947368421052632","","","","","","","",""
"null","159436","SARL_v6","SARL_v6dj9swa6u","5a7a1973000dab00018c3410","freq_resp","","","img/blue_2bandit_b.png","70","img/blue_2bandit_b.png","70","test","","","","","","","","","","","1","","","","","","","","",""
"null","159599","SARL_v6","SARL_v6dj9swa6u","5a7a1973000dab00018c3410","fixation","","","img/fixation.png","null","","","test","","","","","","","","","","","","","","","","","","","",""
"352.20000000298023","159960","SARL_v6","SARL_v6dj9swa6u","5a7a1973000dab00018c3410","freq","","","img/blue_2bandit_b2.png","70","","70","test","1","","20","","","","circle","square","20","20","1","0.9","","","","","","","",""
"null","160425","SARL_v6","SARL_v6dj9swa6u","5a7a1973000dab00018c3410","freq_resp","","","img/blue_2bandit_b.png","70","img/blue_2bandit_b.png","70","test","","","","","","","","","","","1","","","","","","","","",""
"null","160599","SARL_v6","SARL_v6dj9swa6u","5a7a1973000dab00018c3410","fixation","","","img/fixation.png","null","","","test","","","","","","","","","","","","","","","","","","","",""
"347.5","160956","SARL_v6","SARL_v6dj9swa6u","5a7a1973000dab00018c3410","freq","","","img/blue_2bandit_b2.png","70","","70","test","1","","21","","","","circle","square","21","21","1","0.9047619047619048","","","","","","","",""
"null","161427","SARL_v6","SARL_v6dj9swa6u","5a7a1973000dab00018c3410","freq_resp","","","img/blue_2bandit_b.png","70","img/blue_2bandit_b.png","70","test","","","","","","","","","","","1","","","","","","","","",""
"null","161598","SARL_v6","SARL_v6dj9swa6u","5a7a1973000dab00018c3410","fixation","","","img/fixation.png","null","","","test","","","","","","","","","","","","","","","","","","","",""
"435.30000001192093","162042","SARL_v6","SARL_v6dj9swa6u","5a7a1973000dab00018c3410","infreq","","","img/orange_2bandit_b2.png","68","","68","test","1","","22","","","","circle","square","22","22","1","0.9090909090909091","","","","","","","",""
"null","162429","SARL_v6","SARL_v6dj9swa6u","5a7a1973000dab00018c3410","infreq_resp","","","img/orange_2bandit_b.png","68","img/orange_2bandit_b.png","68","test","","","","","","","","","","","1","","","","","","","","",""
"null","162604","SARL_v6","SARL_v6dj9swa6u","5a7a1973000dab00018c3410","fixation","","","img/fixation.png","null","","","test","","","","","","","","","","","","","","","","","","","",""
"384.6000000089407","162997","SARL_v6","SARL_v6dj9swa6u","5a7a1973000dab00018c3410","freq","","","img/blue_2bandit_b2.png","70","","70","test","1","","23","","","","circle","square","23","23","1","0.9130434782608695","","","","","","","",""
"null","163432","SARL_v6","SARL_v6dj9swa6u","5a7a1973000dab00018c3410","freq_resp","","","img/blue_2bandit_b.png","70","img/blue_2bandit_b.png","70","test","","","","","","","","","","","1","","","","","","","","",""
"null","163601","SARL_v6","SARL_v6dj9swa6u","5a7a1973000dab00018c3410","fixation","","","img/fixation.png","null","","","test","","","","","","","","","","","","","","","","","","","",""
"357.5","163967","SARL_v6","SARL_v6dj9swa6u","5a7a1973000dab00018c3410","freq","","","img/blue_2bandit_b2.png","70","","70","test","1","","24","","","","circle","square","24","24","1","0.9166666666666666","","","","","","","",""
"null","164424","SARL_v6","SARL_v6dj9swa6u","5a7a1973000dab00018c3410","freq_resp","","","img/blue_2bandit_b.png","70","img/blue_2bandit_b.png","70","test","","","","","","","","","","","1","","","","","","","","",""
"null","164594","SARL_v6","SARL_v6dj9swa6u","5a7a1973000dab00018c3410","fixation","","","img/fixation.png","null","","","test","","","","","","","","","","","","","","","","","","","",""
"325.3999999910593","164929","SARL_v6","SARL_v6dj9swa6u","5a7a1973000dab00018c3410","freq","","","img/blue_2bandit_b2.png","70","","70","test","1","","25","","","","circle","square","25","25","1","0.92","","","","","","","",""
"null","165414","SARL_v6","SARL_v6dj9swa6u","5a7a1973000dab00018c3410","freq_resp","","","img/blue_2bandit_b.png","70","img/blue_2bandit_b.png","70","test","","","","","","","","","","","1","","","","","","","","",""
"null","165576","SARL_v6","SARL_v6dj9swa6u","5a7a1973000dab00018c3410","fixation","","","img/fixation.png","null","","","test","","","","","","","","","","","","","","","","","","","",""
"277.79999999701977","165863","SARL_v6","SARL_v6dj9swa6u","5a7a1973000dab00018c3410","freq","","","img/blue_2bandit_b2.png","70","","70","test","1","","26","","","","circle","square","26","26","1","0.9230769230769231","","","","","","","",""
"null","166400","SARL_v6","SARL_v6dj9swa6u","5a7a1973000dab00018c3410","freq_resp","","","img/blue_2bandit_b.png","70","img/blue_2bandit_b.png","70","test","","","","","","","","","","","1","","","","","","","","",""
"null","166574","SARL_v6","SARL_v6dj9swa6u","5a7a1973000dab00018c3410","fixation","","","img/fixation.png","null","","","test","","","","","","","","","","","","","","","","","","","",""
"592.0999999940395","167176","SARL_v6","SARL_v6dj9swa6u","5a7a1973000dab00018c3410","rl","","","img/black_2bandit_b2.png","75","","0","test","","","27","","","-3","circle","square","","0","1","","75","-3","-3","-3","-3","square","1","0"
"null","167942","SARL_v6","SARL_v6dj9swa6u","5a7a1973000dab00018c3410","feedback","","","<div class=""verylowPoints_sq""> -3 </div>","null","","na","test","","","NaN","","","","","","","","1","","75","","","","","","1",""
"614.2999999970198","168568","SARL_v6","SARL_v6dj9swa6u","5a7a1973000dab00018c3410","freq","","","img/blue_2bandit_b2.png","70","","70","test","1","","28","","","","circle","square","27","1","2","0.9259259259259259","","","","","","","",""
"null","168777","SARL_v6","SARL_v6dj9swa6u","5a7a1973000dab00018c3410","freq_resp","","","img/blue_2bandit_b.png","70","img/blue_2bandit_b.png","70","test","","","","","","","","","","","2","","","","","","","","",""
"null","168947","SARL_v6","SARL_v6dj9swa6u","5a7a1973000dab00018c3410","fixation","","","img/fixation.png","null","","","test","","","","","","","","","","","","","","","","","","","",""
"342.09999999403954","169298","SARL_v6","SARL_v6dj9swa6u","5a7a1973000dab00018c3410","freq","","","img/blue_2bandit_b2.png","70","","70","test","1","","29","","","","circle","square","28","2","2","0.9285714285714286","","","","","","","",""
"null","169776","SARL_v6","SARL_v6dj9swa6u","5a7a1973000dab00018c3410","freq_resp","","","img/blue_2bandit_b.png","70","img/blue_2bandit_b.png","70","test","","","","","","","","","","","2","","","","","","","","",""
"null","169945","SARL_v6","SARL_v6dj9swa6u","5a7a1973000dab00018c3410","fixation","","","img/fixation.png","null","","","test","","","","","","","","","","","","","","","","","","","",""
"248.59999999403954","170202","SARL_v6","SARL_v6dj9swa6u","5a7a1973000dab00018c3410","freq","","","img/blue_2bandit_b2.png","70","","70","test","1","","30","","","","circle","square","29","3","2","0.9310344827586207","","","","","","","",""
"null","170777","SARL_v6","SARL_v6dj9swa6u","5a7a1973000dab00018c3410","freq_resp","","","img/blue_2bandit_b.png","70","img/blue_2bandit_b.png","70","test","","","","","","","","","","","2","","","","","","","","",""
"null","170937","SARL_v6","SARL_v6dj9swa6u","5a7a1973000dab00018c3410","fixation","","","img/fixation.png","null","","","test","","","","","","","","","","","","","","","","","","","",""
"261.5","171208","SARL_v6","SARL_v6dj9swa6u","5a7a1973000dab00018c3410","freq","","","img/blue_2bandit_b2.png","70","","70","test","1","","31","","","","circle","square","30","4","2","0.9333333333333333","","","","","","","",""
"null","171767","SARL_v6","SARL_v6dj9swa6u","5a7a1973000dab00018c3410","freq_resp","","","img/blue_2bandit_b.png","70","img/blue_2bandit_b.png","70","test","","","","","","","","","","","2","","","","","","","","",""
"null","171928","SARL_v6","SARL_v6dj9swa6u","5a7a1973000dab00018c3410","fixation","","","img/fixation.png","null","","","test","","","","","","","","","","","","","","","","","","","",""
"276.59999999403954","172213","SARL_v6","SARL_v6dj9swa6u","5a7a1973000dab00018c3410","freq","","","img/blue_2bandit_b2.png","70","","70","test","1","","32","","","","circle","square","31","5","2","0.9354838709677419","","","","","","","",""
"null","172753","SARL_v6","SARL_v6dj9swa6u","5a7a1973000dab00018c3410","freq_resp","","","img/blue_2bandit_b.png","70","img/blue_2bandit_b.png","70","test","","","","","","","","","","","2","","","","","","","","",""
"null","172926","SARL_v6","SARL_v6dj9swa6u","5a7a1973000dab00018c3410","fixation","","","img/fixation.png","null","","","test","","","","","","","","","","","","","","","","","","","",""
"329.6000000089407","173264","SARL_v6","SARL_v6dj9swa6u","5a7a1973000dab00018c3410","freq","","","img/blue_2bandit_b2.png","70","","70","test","1","","33","","","","circle","square","32","6","2","0.9375","","","","","","","",""
"null","173749","SARL_v6","SARL_v6dj9swa6u","5a7a1973000dab00018c3410","freq_resp","","","img/blue_2bandit_b.png","70","img/blue_2bandit_b.png","70","test","","","","","","","","","","","2","","","","","","","","",""
"null","173909","SARL_v6","SARL_v6dj9swa6u","5a7a1973000dab00018c3410","fixation","","","img/fixation.png","null","","","test","","","","","","","","","","","","","","","","","","","",""
"331.70000000298023","174250","SARL_v6","SARL_v6dj9swa6u","5a7a1973000dab00018c3410","freq","","","img/blue_2bandit_b2.png","70","","70","test","1","","34","","","","circle","square","33","7","2","0.9393939393939394","","","","","","","",""
"null","174737","SARL_v6","SARL_v6dj9swa6u","5a7a1973000dab00018c3410","freq_resp","","","img/blue_2bandit_b.png","70","img/blue_2bandit_b.png","70","test","","","","","","","","","","","2","","","","","","","","",""
"null","174907","SARL_v6","SARL_v6dj9swa6u","5a7a1973000dab00018c3410","fixation","","","img/fixation.png","null","","","test","","","","","","","","","","","","","","","","","","","",""
"385.09999999403954","175301","SARL_v6","SARL_v6dj9swa6u","5a7a1973000dab00018c3410","infreq","","","img/orange_2bandit_b2.png","68","","68","test","1","","35","","","","circle","square","34","8","2","0.9411764705882353","","","","","","","",""
"null","175722","SARL_v6","SARL_v6dj9swa6u","5a7a1973000dab00018c3410","infreq_resp","","","img/orange_2bandit_b.png","68","img/orange_2bandit_b.png","68","test","","","","","","","","","","","2","","","","","","","","",""
"null","175889","SARL_v6","SARL_v6dj9swa6u","5a7a1973000dab00018c3410","fixation","","","img/fixation.png","null","","","test","","","","","","","","","","","","","","","","","","","",""
"528.8999999910593","176427","SARL_v6","SARL_v6dj9swa6u","5a7a1973000dab00018c3410","freq","","","img/blue_2bandit_b2.png","70","","70","test","1","","36","","","","circle","square","35","9","2","0.9428571428571428","","","","","","","",""
"null","176708","SARL_v6","SARL_v6dj9swa6u","5a7a1973000dab00018c3410","freq_resp","","","img/blue_2bandit_b.png","70","img/blue_2bandit_b.png","70","test","","","","","","","","","","","2","","","","","","","","",""
"null","176880","SARL_v6","SARL_v6dj9swa6u","5a7a1973000dab00018c3410","fixation","","","img/fixation.png","null","","","test","","","","","","","","","","","","","","","","","","","",""
"342.59999999403954","177232","SARL_v6","SARL_v6dj9swa6u","5a7a1973000dab00018c3410","freq","","","img/blue_2bandit_b2.png","70","","70","test","1","","37","","","","circle","square","36","10","2","0.9444444444444444","","","","","","","",""
"null","177712","SARL_v6","SARL_v6dj9swa6u","5a7a1973000dab00018c3410","freq_resp","","","img/blue_2bandit_b.png","70","img/blue_2bandit_b.png","70","test","","","","","","","","","","","2","","","","","","","","",""
"null","177872","SARL_v6","SARL_v6dj9swa6u","5a7a1973000dab00018c3410","fixation","","","img/fixation.png","null","","","test","","","","","","","","","","","","","","","","","","","",""
"245.3999999910593","178126","SARL_v6","SARL_v6dj9swa6u","5a7a1973000dab00018c3410","freq","","","img/blue_2bandit_b2.png","70","","70","test","1","","38","","","","circle","square","37","11","2","0.9459459459459459","","","","","","","",""
"null","178695","SARL_v6","SARL_v6dj9swa6u","5a7a1973000dab00018c3410","freq_resp","","","img/blue_2bandit_b.png","70","img/blue_2bandit_b.png","70","test","","","","","","","","","","","2","","","","","","","","",""
"null","178855","SARL_v6","SARL_v6dj9swa6u","5a7a1973000dab00018c3410","fixation","","","img/fixation.png","null","","","test","","","","","","","","","","","","","","","","","","","",""
"258.70000000298023","179122","SARL_v6","SARL_v6dj9swa6u","5a7a1973000dab00018c3410","freq","","","img/blue_2bandit_b2.png","70","","70","test","1","","39","","","","circle","square","38","12","2","0.9473684210526315","","","","","","","",""
"null","179673","SARL_v6","SARL_v6dj9swa6u","5a7a1973000dab00018c3410","freq_resp","","","img/blue_2bandit_b.png","70","img/blue_2bandit_b.png","70","test","","","","","","","","","","","2","","","","","","","","",""
"null","179833","SARL_v6","SARL_v6dj9swa6u","5a7a1973000dab00018c3410","fixation","","","img/fixation.png","null","","","test","","","","","","","","","","","","","","","","","","","",""
"220.8999999910593","180063","SARL_v6","SARL_v6dj9swa6u","5a7a1973000dab00018c3410","freq","","","img/blue_2bandit_b2.png","70","","70","test","1","","40","","","","circle","square","39","13","2","0.9487179487179487","","","","","","","",""
"null","180663","SARL_v6","SARL_v6dj9swa6u","5a7a1973000dab00018c3410","freq_resp","","","img/blue_2bandit_b.png","70","img/blue_2bandit_b.png","70","test","","","","","","","","","","","2","","","","","","","","",""
"null","180825","SARL_v6","SARL_v6dj9swa6u","5a7a1973000dab00018c3410","fixation","","","img/fixation.png","null","","","test","","","","","","","","","","","","","","","","","","","",""
"229.5","181063","SARL_v6","SARL_v6dj9swa6u","5a7a1973000dab00018c3410","freq","","","img/blue_2bandit_b2.png","70","","70","test","1","","41","","","","circle","square","40","14","2","0.95","","","","","","","",""
"null","181645","SARL_v6","SARL_v6dj9swa6u","5a7a1973000dab00018c3410","freq_resp","","","img/blue_2bandit_b.png","70","img/blue_2bandit_b.png","70","test","","","","","","","","","","","2","","","","","","","","",""
"null","181815","SARL_v6","SARL_v6dj9swa6u","5a7a1973000dab00018c3410","fixation","","","img/fixation.png","null","","","test","","","","","","","","","","","","","","","","","","","",""
"466.59999999403954","182291","SARL_v6","SARL_v6dj9swa6u","5a7a1973000dab00018c3410","infreq","","","img/orange_2bandit_b2.png","68","","68","test","1","","42","","","","circle","square","41","15","2","0.9512195121951219","","","","","","","",""
"null","182643","SARL_v6","SARL_v6dj9swa6u","5a7a1973000dab00018c3410","infreq_resp","","","img/orange_2bandit_b.png","68","img/orange_2bandit_b.png","68","test","","","","","","","","","","","2","","","","","","","","",""
"null","182812","SARL_v6","SARL_v6dj9swa6u","5a7a1973000dab00018c3410","fixation","","","img/fixation.png","null","","","test","","","","","","","","","","","","","","","","","","","",""
"354.5","183175","SARL_v6","SARL_v6dj9swa6u","5a7a1973000dab00018c3410","freq","","","img/blue_2bandit_b2.png","70","","70","test","1","","43","","","","circle","square","42","16","2","0.9523809523809523","","","","","","","",""
"null","183635","SARL_v6","SARL_v6dj9swa6u","5a7a1973000dab00018c3410","freq_resp","","","img/blue_2bandit_b.png","70","img/blue_2bandit_b.png","70","test","","","","","","","","","","","2","","","","","","","","",""
"null","183796","SARL_v6","SARL_v6dj9swa6u","5a7a1973000dab00018c3410","fixation","","","img/fixation.png","null","","","test","","","","","","","","","","","","","","","","","","","",""
"254.90000000596046","184060","SARL_v6","SARL_v6dj9swa6u","5a7a1973000dab00018c3410","freq","","","img/blue_2bandit_b2.png","70","","70","test","1","","44","","","","circle","square","43","17","2","0.9534883720930233","","","","","","","",""
"null","184626","SARL_v6","SARL_v6dj9swa6u","5a7a1973000dab00018c3410","freq_resp","","","img/blue_2bandit_b.png","70","img/blue_2bandit_b.png","70","test","","","","","","","","","","","2","","","","","","","","",""
"null","184786","SARL_v6","SARL_v6dj9swa6u","5a7a1973000dab00018c3410","fixation","","","img/fixation.png","null","","","test","","","","","","","","","","","","","","","","","","","",""
"259.40000000596046","185052","SARL_v6","SARL_v6dj9swa6u","5a7a1973000dab00018c3410","freq","","","img/blue_2bandit_b2.png","70","","70","test","1","","45","","","","circle","square","44","18","2","0.9545454545454546","","","","","","","",""
"null","185616","SARL_v6","SARL_v6dj9swa6u","5a7a1973000dab00018c3410","freq_resp","","","img/blue_2bandit_b.png","70","img/blue_2bandit_b.png","70","test","","","","","","","","","","","2","","","","","","","","",""
"null","185777","SARL_v6","SARL_v6dj9swa6u","5a7a1973000dab00018c3410","fixation","","","img/fixation.png","null","","","test","","","","","","","","","","","","","","","","","","","",""
"296","186081","SARL_v6","SARL_v6dj9swa6u","5a7a1973000dab00018c3410","freq","","","img/blue_2bandit_b2.png","70","","70","test","1","","46","","","","circle","square","45","19","2","0.9555555555555556","","","","","","","",""
"null","186603","SARL_v6","SARL_v6dj9swa6u","5a7a1973000dab00018c3410","freq_resp","","","img/blue_2bandit_b.png","70","img/blue_2bandit_b.png","70","test","","","","","","","","","","","2","","","","","","","","",""
"null","186775","SARL_v6","SARL_v6dj9swa6u","5a7a1973000dab00018c3410","fixation","","","img/fixation.png","null","","","test","","","","","","","","","","","","","","","","","","","",""
"288.3999999910593","187073","SARL_v6","SARL_v6dj9swa6u","5a7a1973000dab00018c3410","freq","","","img/blue_2bandit_b2.png","70","","70","test","1","","47","","","","circle","square","46","20","2","0.9565217391304348","","","","","","","",""
"null","187601","SARL_v6","SARL_v6dj9swa6u","5a7a1973000dab00018c3410","freq_resp","","","img/blue_2bandit_b.png","70","img/blue_2bandit_b.png","70","test","","","","","","","","","","","2","","","","","","","","",""
"null","187774","SARL_v6","SARL_v6dj9swa6u","5a7a1973000dab00018c3410","fixation","","","img/fixation.png","null","","","test","","","","","","","","","","","","","","","","","","","",""
"280.19999998807907","188063","SARL_v6","SARL_v6dj9swa6u","5a7a1973000dab00018c3410","freq","","","img/blue_2bandit_b2.png","70","","70","test","1","","48","","","","circle","square","47","21","2","0.9574468085106383","","","","","","","",""
"null","188600","SARL_v6","SARL_v6dj9swa6u","5a7a1973000dab00018c3410","freq_resp","","","img/blue_2bandit_b.png","70","img/blue_2bandit_b.png","70","test","","","","","","","","","","","2","","","","","","","","",""
"null","188773","SARL_v6","SARL_v6dj9swa6u","5a7a1973000dab00018c3410","fixation","","","img/fixation.png","null","","","test","","","","","","","","","","","","","","","","","","","",""
"281.90000000596046","189063","SARL_v6","SARL_v6dj9swa6u","5a7a1973000dab00018c3410","freq","","","img/blue_2bandit_b2.png","70","","70","test","1","","49","","","","circle","square","48","22","2","0.9583333333333334","","","","","","","",""
"null","189592","SARL_v6","SARL_v6dj9swa6u","5a7a1973000dab00018c3410","freq_resp","","","img/blue_2bandit_b.png","70","img/blue_2bandit_b.png","70","test","","","","","","","","","","","2","","","","","","","","",""
"null","189756","SARL_v6","SARL_v6dj9swa6u","5a7a1973000dab00018c3410","fixation","","","img/fixation.png","null","","","test","","","","","","","","","","","","","","","","","","","",""
"288.3999999910593","190054","SARL_v6","SARL_v6dj9swa6u","5a7a1973000dab00018c3410","freq","","","img/blue_2bandit_b2.png","70","","70","test","1","","50","","","","circle","square","49","23","2","0.9591836734693877","","","","","","","",""
"null","190584","SARL_v6","SARL_v6dj9swa6u","5a7a1973000dab00018c3410","freq_resp","","","img/blue_2bandit_b.png","70","img/blue_2bandit_b.png","70","test","","","","","","","","","","","2","","","","","","","","",""
"null","190754","SARL_v6","SARL_v6dj9swa6u","5a7a1973000dab00018c3410","fixation","","","img/fixation.png","null","","","test","","","","","","","","","","","","","","","","","","","",""
"276.1000000089407","191039","SARL_v6","SARL_v6dj9swa6u","5a7a1973000dab00018c3410","freq","","","img/blue_2bandit_b2.png","70","","70","test","1","","51","","","","circle","square","50","24","2","0.96","","","","","","","",""
"null","191572","SARL_v6","SARL_v6dj9swa6u","5a7a1973000dab00018c3410","freq_resp","","","img/blue_2bandit_b.png","70","img/blue_2bandit_b.png","70","test","","","","","","","","","","","2","","","","","","","","",""
"null","191745","SARL_v6","SARL_v6dj9swa6u","5a7a1973000dab00018c3410","fixation","","","img/fixation.png","null","","","test","","","","","","","","","","","","","","","","","","","",""
"506.20000000298023","192261","SARL_v6","SARL_v6dj9swa6u","5a7a1973000dab00018c3410","rl","","","img/black_2bandit_b2.png","75","","0","test","","","52","","","-5","circle","square","","0","2","","75","-8","-5","-8","-5","square","2","0"
"null","193027","SARL_v6","SARL_v6dj9swa6u","5a7a1973000dab00018c3410","feedback","","","<div class=""verylowPoints_sq""> -5 </div>","null","","na","test","","","NaN","","","","","","","","2","","75","","","","","","2",""
"516.4000000059605","193553","SARL_v6","SARL_v6dj9swa6u","5a7a1973000dab00018c3410","freq","","","img/blue_2bandit_b2.png","70","","70","test","1","","53","","","","circle","square","51","1","3","0.9607843137254902","","","","","","","",""
"null","193851","SARL_v6","SARL_v6dj9swa6u","5a7a1973000dab00018c3410","freq_resp","","","img/blue_2bandit_b.png","70","img/blue_2bandit_b.png","70","test","","","","","","","","","","","3","","","","","","","","",""
"null","194011","SARL_v6","SARL_v6dj9swa6u","5a7a1973000dab00018c3410","fixation","","","img/fixation.png","null","","","test","","","","","","","","","","","","","","","","","","","",""
"524","194544","SARL_v6","SARL_v6dj9swa6u","5a7a1973000dab00018c3410","freq","","","img/blue_2bandit_b2.png","70","","70","test","1","","54","","","","circle","square","52","2","3","0.9615384615384616","","","","","","","",""
"null","194835","SARL_v6","SARL_v6dj9swa6u","5a7a1973000dab00018c3410","freq_resp","","","img/blue_2bandit_b.png","70","img/blue_2bandit_b.png","70","test","","","","","","","","","","","3","","","","","","","","",""
"null","195008","SARL_v6","SARL_v6dj9swa6u","5a7a1973000dab00018c3410","fixation","","","img/fixation.png","null","","","test","","","","","","","","","","","","","","","","","","","",""
"280","195298","SARL_v6","SARL_v6dj9swa6u","5a7a1973000dab00018c3410","freq","","","img/blue_2bandit_b2.png","70","","70","test","1","","55","","","","circle","square","53","3","3","0.9622641509433962","","","","","","","",""
"null","195836","SARL_v6","SARL_v6dj9swa6u","5a7a1973000dab00018c3410","freq_resp","","","img/blue_2bandit_b.png","70","img/blue_2bandit_b.png","70","test","","","","","","","","","","","3","","","","","","","","",""
"null","196010","SARL_v6","SARL_v6dj9swa6u","5a7a1973000dab00018c3410","fixation","","","img/fixation.png","null","","","test","","","","","","","","","","","","","","","","","","","",""
"234","196253","SARL_v6","SARL_v6dj9swa6u","5a7a1973000dab00018c3410","freq","","","img/blue_2bandit_b2.png","70","","70","test","1","","56","","","","circle","square","54","4","3","0.9629629629629629","","","","","","","",""
"null","196831","SARL_v6","SARL_v6dj9swa6u","5a7a1973000dab00018c3410","freq_resp","","","img/blue_2bandit_b.png","70","img/blue_2bandit_b.png","70","test","","","","","","","","","","","3","","","","","","","","",""
"null","196991","SARL_v6","SARL_v6dj9swa6u","5a7a1973000dab00018c3410","fixation","","","img/fixation.png","null","","","test","","","","","","","","","","","","","","","","","","","",""
"92.70000000298023","197093","SARL_v6","SARL_v6dj9swa6u","5a7a1973000dab00018c3410","freq","","","img/blue_2bandit_b2.png","70","","70","test","1","","57","","","","circle","square","55","5","3","0.9636363636363636","","","","","","","",""
"null","197821","SARL_v6","SARL_v6dj9swa6u","5a7a1973000dab00018c3410","freq_resp","","","img/blue_2bandit_b.png","70","img/blue_2bandit_b.png","70","test","","","","","","","","","","","3","","","","","","","","",""
"null","197992","SARL_v6","SARL_v6dj9swa6u","5a7a1973000dab00018c3410","fixation","","","img/fixation.png","null","","","test","","","","","","","","","","","","","","","","","","","",""
"108.40000000596046","198109","SARL_v6","SARL_v6dj9swa6u","5a7a1973000dab00018c3410","freq","","","img/blue_2bandit_b2.png","70","","70","test","1","","58","","","","circle","square","56","6","3","0.9642857142857143","","","","","","","",""
"null","198820","SARL_v6","SARL_v6dj9swa6u","5a7a1973000dab00018c3410","freq_resp","","","img/blue_2bandit_b.png","70","img/blue_2bandit_b.png","70","test","","","","","","","","","","","3","","","","","","","","",""
"null","198980","SARL_v6","SARL_v6dj9swa6u","5a7a1973000dab00018c3410","fixation","","","img/fixation.png","null","","","test","","","","","","","","","","","","","","","","","","","",""
"104.59999999403954","199094","SARL_v6","SARL_v6dj9swa6u","5a7a1973000dab00018c3410","freq","","","img/blue_2bandit_b2.png","70","","70","test","1","","59","","","","circle","square","57","7","3","0.9649122807017544","","","","","","","",""
"null","199805","SARL_v6","SARL_v6dj9swa6u","5a7a1973000dab00018c3410","freq_resp","","","img/blue_2bandit_b.png","70","img/blue_2bandit_b.png","70","test","","","","","","","","","","","3","","","","","","","","",""
"null","199978","SARL_v6","SARL_v6dj9swa6u","5a7a1973000dab00018c3410","fixation","","","img/fixation.png","null","","","test","","","","","","","","","","","","","","","","","","","",""
"409.20000000298023","200396","SARL_v6","SARL_v6dj9swa6u","5a7a1973000dab00018c3410","infreq","","","img/orange_2bandit_b2.png","68","","68","test","1","","60","","","","circle","square","58","8","3","0.9655172413793104","","","","","","","",""
"null","200806","SARL_v6","SARL_v6dj9swa6u","5a7a1973000dab00018c3410","infreq_resp","","","img/orange_2bandit_b.png","68","img/orange_2bandit_b.png","68","test","","","","","","","","","","","3","","","","","","","","",""
"null","200978","SARL_v6","SARL_v6dj9swa6u","5a7a1973000dab00018c3410","fixation","","","img/fixation.png","null","","","test","","","","","","","","","","","","","","","","","","","",""
"278.70000000298023","201266","SARL_v6","SARL_v6dj9swa6u","5a7a1973000dab00018c3410","infreq","","","img/orange_2bandit_b2.png","68","","68","test","1","","61","","","","circle","square","59","9","3","0.9661016949152542","","","","","","","",""
"null","201803","SARL_v6","SARL_v6dj9swa6u","5a7a1973000dab00018c3410","infreq_resp","","","img/orange_2bandit_b.png","68","img/orange_2bandit_b.png","68","test","","","","","","","","","","","3","","","","","","","","",""
"null","201976","SARL_v6","SARL_v6dj9swa6u","5a7a1973000dab00018c3410","fixation","","","img/fixation.png","null","","","test","","","","","","","","","","","","","","","","","","","",""
"331.79999999701977","202320","SARL_v6","SARL_v6dj9swa6u","5a7a1973000dab00018c3410","freq","","","img/blue_2bandit_b2.png","70","","70","test","1","","62","","","","circle","square","60","10","3","0.9666666666666667","","","","","","","",""
"null","202799","SARL_v6","SARL_v6dj9swa6u","5a7a1973000dab00018c3410","freq_resp","","","img/blue_2bandit_b.png","70","img/blue_2bandit_b.png","70","test","","","","","","","","","","","3","","","","","","","","",""
"null","202973","SARL_v6","SARL_v6dj9swa6u","5a7a1973000dab00018c3410","fixation","","","img/fixation.png","null","","","test","","","","","","","","","","","","","","","","","","","",""
"270.1000000089407","203252","SARL_v6","SARL_v6dj9swa6u","5a7a1973000dab00018c3410","freq","","","img/blue_2bandit_b2.png","70","","70","test","1","","63","","","","circle","square","61","11","3","0.9672131147540983","","","","","","","",""
"null","203794","SARL_v6","SARL_v6dj9swa6u","5a7a1973000dab00018c3410","freq_resp","","","img/blue_2bandit_b.png","70","img/blue_2bandit_b.png","70","test","","","","","","","","","","","3","","","","","","","","",""
"null","203966","SARL_v6","SARL_v6dj9swa6u","5a7a1973000dab00018c3410","fixation","","","img/fixation.png","null","","","test","","","","","","","","","","","","","","","","","","","",""
"337.70000000298023","204313","SARL_v6","SARL_v6dj9swa6u","5a7a1973000dab00018c3410","freq","","","img/blue_2bandit_b2.png","70","","70","test","1","","64","","","","circle","square","62","12","3","0.967741935483871","","","","","","","",""
"null","204788","SARL_v6","SARL_v6dj9swa6u","5a7a1973000dab00018c3410","freq_resp","","","img/blue_2bandit_b.png","70","img/blue_2bandit_b.png","70","test","","","","","","","","","","","3","","","","","","","","",""
"null","204956","SARL_v6","SARL_v6dj9swa6u","5a7a1973000dab00018c3410","fixation","","","img/fixation.png","null","","","test","","","","","","","","","","","","","","","","","","","",""
"237.8999999910593","205203","SARL_v6","SARL_v6dj9swa6u","5a7a1973000dab00018c3410","freq","","","img/blue_2bandit_b2.png","70","","70","test","1","","65","","","","circle","square","63","13","3","0.9682539682539683","","","","","","","",""
"null","205788","SARL_v6","SARL_v6dj9swa6u","5a7a1973000dab00018c3410","freq_resp","","","img/blue_2bandit_b.png","70","img/blue_2bandit_b.png","70","test","","","","","","","","","","","3","","","","","","","","",""
"null","205958","SARL_v6","SARL_v6dj9swa6u","5a7a1973000dab00018c3410","fixation","","","img/fixation.png","null","","","test","","","","","","","","","","","","","","","","","","","",""
"206.3999999910593","206173","SARL_v6","SARL_v6dj9swa6u","5a7a1973000dab00018c3410","freq","","","img/blue_2bandit_b2.png","70","","70","test","1","","66","","","","circle","square","64","14","3","0.96875","","","","","","","",""
"null","206777","SARL_v6","SARL_v6dj9swa6u","5a7a1973000dab00018c3410","freq_resp","","","img/blue_2bandit_b.png","70","img/blue_2bandit_b.png","70","test","","","","","","","","","","","3","","","","","","","","",""
"null","206939","SARL_v6","SARL_v6dj9swa6u","5a7a1973000dab00018c3410","fixation","","","img/fixation.png","null","","","test","","","","","","","","","","","","","","","","","","","",""
"306.5","207254","SARL_v6","SARL_v6dj9swa6u","5a7a1973000dab00018c3410","freq","","","img/blue_2bandit_b2.png","70","","70","test","1","","67","","","","circle","square","65","15","3","0.9692307692307692","","","","","","","",""
"null","207756","SARL_v6","SARL_v6dj9swa6u","5a7a1973000dab00018c3410","freq_resp","","","img/blue_2bandit_b.png","70","img/blue_2bandit_b.png","70","test","","","","","","","","","","","3","","","","","","","","",""
"null","207930","SARL_v6","SARL_v6dj9swa6u","5a7a1973000dab00018c3410","fixation","","","img/fixation.png","null","","","test","","","","","","","","","","","","","","","","","","","",""
"306.19999998807907","208245","SARL_v6","SARL_v6dj9swa6u","5a7a1973000dab00018c3410","freq","","","img/blue_2bandit_b2.png","70","","70","test","1","","68","","","","circle","square","66","16","3","0.9696969696969697","","","","","","","",""
"null","208749","SARL_v6","SARL_v6dj9swa6u","5a7a1973000dab00018c3410","freq_resp","","","img/blue_2bandit_b.png","70","img/blue_2bandit_b.png","70","test","","","","","","","","","","","3","","","","","","","","",""
"null","208920","SARL_v6","SARL_v6dj9swa6u","5a7a1973000dab00018c3410","fixation","","","img/fixation.png","null","","","test","","","","","","","","","","","","","","","","","","","",""
"301.70000000298023","209231","SARL_v6","SARL_v6dj9swa6u","5a7a1973000dab00018c3410","freq","","","img/blue_2bandit_b2.png","70","","70","test","1","","69","","","","circle","square","67","17","3","0.9701492537313433","","","","","","","",""
"null","209739","SARL_v6","SARL_v6dj9swa6u","5a7a1973000dab00018c3410","freq_resp","","","img/blue_2bandit_b.png","70","img/blue_2bandit_b.png","70","test","","","","","","","","","","","3","","","","","","","","",""
"null","209913","SARL_v6","SARL_v6dj9swa6u","5a7a1973000dab00018c3410","fixation","","","img/fixation.png","null","","","test","","","","","","","","","","","","","","","","","","","",""
"218","210140","SARL_v6","SARL_v6dj9swa6u","5a7a1973000dab00018c3410","freq","","","img/blue_2bandit_b2.png","70","","70","test","1","","70","","","","circle","square","68","18","3","0.9705882352941176","","","","","","","",""
"null","210734","SARL_v6","SARL_v6dj9swa6u","5a7a1973000dab00018c3410","freq_resp","","","img/blue_2bandit_b.png","70","img/blue_2bandit_b.png","70","test","","","","","","","","","","","3","","","","","","","","",""
"null","210894","SARL_v6","SARL_v6dj9swa6u","5a7a1973000dab00018c3410","fixation","","","img/fixation.png","null","","","test","","","","","","","","","","","","","","","","","","","",""
"283.29999999701977","211186","SARL_v6","SARL_v6dj9swa6u","5a7a1973000dab00018c3410","freq","","","img/blue_2bandit_b2.png","70","","70","test","1","","71","","","","circle","square","69","19","3","0.9710144927536232","","","","","","","",""
"null","211719","SARL_v6","SARL_v6dj9swa6u","5a7a1973000dab00018c3410","freq_resp","","","img/blue_2bandit_b.png","70","img/blue_2bandit_b.png","70","test","","","","","","","","","","","3","","","","","","","","",""
"null","211879","SARL_v6","SARL_v6dj9swa6u","5a7a1973000dab00018c3410","fixation","","","img/fixation.png","null","","","test","","","","","","","","","","","","","","","","","","","",""
"248.5","212137","SARL_v6","SARL_v6dj9swa6u","5a7a1973000dab00018c3410","freq","","","img/blue_2bandit_b2.png","70","","70","test","1","","72","","","","circle","square","70","20","3","0.9714285714285714","","","","","","","",""
"null","212701","SARL_v6","SARL_v6dj9swa6u","5a7a1973000dab00018c3410","freq_resp","","","img/blue_2bandit_b.png","70","img/blue_2bandit_b.png","70","test","","","","","","","","","","","3","","","","","","","","",""
"null","212874","SARL_v6","SARL_v6dj9swa6u","5a7a1973000dab00018c3410","fixation","","","img/fixation.png","null","","","test","","","","","","","","","","","","","","","","","","","",""
"294.1000000089407","213178","SARL_v6","SARL_v6dj9swa6u","5a7a1973000dab00018c3410","freq","","","img/blue_2bandit_b2.png","70","","70","test","1","","73","","","","circle","square","71","21","3","0.971830985915493","","","","","","","",""
"null","213693","SARL_v6","SARL_v6dj9swa6u","5a7a1973000dab00018c3410","freq_resp","","","img/blue_2bandit_b.png","70","img/blue_2bandit_b.png","70","test","","","","","","","","","","","3","","","","","","","","",""
"null","213865","SARL_v6","SARL_v6dj9swa6u","5a7a1973000dab00018c3410","fixation","","","img/fixation.png","null","","","test","","","","","","","","","","","","","","","","","","","",""
"223.90000000596046","214097","SARL_v6","SARL_v6dj9swa6u","5a7a1973000dab00018c3410","freq","","","img/blue_2bandit_b2.png","70","","70","test","1","","74","","","","circle","square","72","22","3","0.9722222222222222","","","","","","","",""
"null","214695","SARL_v6","SARL_v6dj9swa6u","5a7a1973000dab00018c3410","freq_resp","","","img/blue_2bandit_b.png","70","img/blue_2bandit_b.png","70","test","","","","","","","","","","","3","","","","","","","","",""
"null","214857","SARL_v6","SARL_v6dj9swa6u","5a7a1973000dab00018c3410","fixation","","","img/fixation.png","null","","","test","","","","","","","","","","","","","","","","","","","",""
"493.40000000596046","215360","SARL_v6","SARL_v6dj9swa6u","5a7a1973000dab00018c3410","rl","","","img/black_2bandit_b2.png","74","","0","test","","","75","","","-8","circle","square","","0","3","","74","-8","-4","-8","-4","circle","3","0"
"null","216131","SARL_v6","SARL_v6dj9swa6u","5a7a1973000dab00018c3410","feedback","","","<div class=""verylowPoints""> -8 </div>","null","","na","test","","","NaN","","","","","","","","3","","74","","","","","","3",""
"436.70000000298023","216577","SARL_v6","SARL_v6dj9swa6u","5a7a1973000dab00018c3410","freq","","","img/blue_2bandit_b2.png","70","","70","test","1","","76","","","","circle","square","73","1","4","0.9726027397260274","","","","","","","",""
"null","216958","SARL_v6","SARL_v6dj9swa6u","5a7a1973000dab00018c3410","freq_resp","","","img/blue_2bandit_b.png","70","img/blue_2bandit_b.png","70","test","","","","","","","","","","","4","","","","","","","","",""
"null","217129","SARL_v6","SARL_v6dj9swa6u","5a7a1973000dab00018c3410","fixation","","","img/fixation.png","null","","","test","","","","","","","","","","","","","","","","","","","",""
"313.09999999403954","217451","SARL_v6","SARL_v6dj9swa6u","5a7a1973000dab00018c3410","freq","","","img/blue_2bandit_b2.png","70","","70","test","1","","77","","","","circle","square","74","2","4","0.972972972972973","","","","","","","",""
"null","217956","SARL_v6","SARL_v6dj9swa6u","5a7a1973000dab00018c3410","freq_resp","","","img/blue_2bandit_b.png","70","img/blue_2bandit_b.png","70","test","","","","","","","","","","","4","","","","","","","","",""
"null","218128","SARL_v6","SARL_v6dj9swa6u","5a7a1973000dab00018c3410","fixation","","","img/fixation.png","null","","","test","","","","","","","","","","","","","","","","","","","",""
"234.40000000596046","218372","SARL_v6","SARL_v6dj9swa6u","5a7a1973000dab00018c3410","freq","","","img/blue_2bandit_b2.png","70","","70","test","1","","78","","","","circle","square","75","3","4","0.9733333333333334","","","","","","","",""
"null","218958","SARL_v6","SARL_v6dj9swa6u","5a7a1973000dab00018c3410","freq_resp","","","img/blue_2bandit_b.png","70","img/blue_2bandit_b.png","70","test","","","","","","","","","","","4","","","","","","","","",""
"null","219122","SARL_v6","SARL_v6dj9swa6u","5a7a1973000dab00018c3410","fixation","","","img/fixation.png","null","","","test","","","","","","","","","","","","","","","","","","","",""
"136.3999999910593","219267","SARL_v6","SARL_v6dj9swa6u","5a7a1973000dab00018c3410","freq","","","img/blue_2bandit_b2.png","70","","70","test","1","","79","","","","circle","square","76","4","4","0.9736842105263158","","","","","","","",""
"null","219942","SARL_v6","SARL_v6dj9swa6u","5a7a1973000dab00018c3410","freq_resp","","","img/blue_2bandit_b.png","70","img/blue_2bandit_b.png","70","test","","","","","","","","","","","4","","","","","","","","",""
"null","220117","SARL_v6","SARL_v6dj9swa6u","5a7a1973000dab00018c3410","fixation","","","img/fixation.png","null","","","test","","","","","","","","","","","","","","","","","","","",""
"256.29999999701977","220382","SARL_v6","SARL_v6dj9swa6u","5a7a1973000dab00018c3410","freq","","","img/blue_2bandit_b2.png","70","","70","test","1","","80","","","","circle","square","77","5","4","0.974025974025974","","","","","","","",""
"null","220943","SARL_v6","SARL_v6dj9swa6u","5a7a1973000dab00018c3410","freq_resp","","","img/blue_2bandit_b.png","70","img/blue_2bandit_b.png","70","test","","","","","","","","","","","4","","","","","","","","",""
"null","221117","SARL_v6","SARL_v6dj9swa6u","5a7a1973000dab00018c3410","fixation","","","img/fixation.png","null","","","test","","","","","","","","","","","","","","","","","","","",""
"510","221636","SARL_v6","SARL_v6dj9swa6u","5a7a1973000dab00018c3410","infreq","","","img/orange_2bandit_b2.png","68","","68","test","1","","81","","","","circle","square","78","6","4","0.9743589743589743","","","","","","","",""
"null","221949","SARL_v6","SARL_v6dj9swa6u","5a7a1973000dab00018c3410","infreq_resp","","","img/orange_2bandit_b.png","68","img/orange_2bandit_b.png","68","test","","","","","","","","","","","4","","","","","","","","",""
"null","222123","SARL_v6","SARL_v6dj9swa6u","5a7a1973000dab00018c3410","fixation","","","img/fixation.png","null","","","test","","","","","","","","","","","","","","","","","","","",""
"468.6000000089407","222601","SARL_v6","SARL_v6dj9swa6u","5a7a1973000dab00018c3410","freq","","","img/blue_2bandit_b2.png","70","","70","test","1","","82","","","","circle","square","79","7","4","0.9746835443037974","","","","","","","",""
"null","222944","SARL_v6","SARL_v6dj9swa6u","5a7a1973000dab00018c3410","freq_resp","","","img/blue_2bandit_b.png","70","img/blue_2bandit_b.png","70","test","","","","","","","","","","","4","","","","","","","","",""
"null","223107","SARL_v6","SARL_v6dj9swa6u","5a7a1973000dab00018c3410","fixation","","","img/fixation.png","null","","","test","","","","","","","","","","","","","","","","","","","",""
"369.20000000298023","223485","SARL_v6","SARL_v6dj9swa6u","5a7a1973000dab00018c3410","freq","","","img/blue_2bandit_b2.png","70","","70","test","1","","83","","","","circle","square","80","8","4","0.975","","","","","","","",""
"null","223936","SARL_v6","SARL_v6dj9swa6u","5a7a1973000dab00018c3410","freq_resp","","","img/blue_2bandit_b.png","70","img/blue_2bandit_b.png","70","test","","","","","","","","","","","4","","","","","","","","",""
"null","224099","SARL_v6","SARL_v6dj9swa6u","5a7a1973000dab00018c3410","fixation","","","img/fixation.png","null","","","test","","","","","","","","","","","","","","","","","","","",""
"261.8999999910593","224370","SARL_v6","SARL_v6dj9swa6u","5a7a1973000dab00018c3410","freq","","","img/blue_2bandit_b2.png","70","","70","test","1","","84","","","","circle","square","81","9","4","0.9753086419753086","","","","","","","",""
"null","224929","SARL_v6","SARL_v6dj9swa6u","5a7a1973000dab00018c3410","freq_resp","","","img/blue_2bandit_b.png","70","img/blue_2bandit_b.png","70","test","","","","","","","","","","","4","","","","","","","","",""
"null","225088","SARL_v6","SARL_v6dj9swa6u","5a7a1973000dab00018c3410","fixation","","","img/fixation.png","null","","","test","","","","","","","","","","","","","","","","","","","",""
"258.3999999910593","225355","SARL_v6","SARL_v6dj9swa6u","5a7a1973000dab00018c3410","freq","","","img/blue_2bandit_b2.png","70","","70","test","1","","85","","","","circle","square","82","10","4","0.975609756097561","","","","","","","",""
"null","225921","SARL_v6","SARL_v6dj9swa6u","5a7a1973000dab00018c3410","freq_resp","","","img/blue_2bandit_b.png","70","img/blue_2bandit_b.png","70","test","","","","","","","","","","","4","","","","","","","","",""
"null","226094","SARL_v6","SARL_v6dj9swa6u","5a7a1973000dab00018c3410","fixation","","","img/fixation.png","null","","","test","","","","","","","","","","","","","","","","","","","",""
"207.5","226312","SARL_v6","SARL_v6dj9swa6u","5a7a1973000dab00018c3410","freq","","","img/blue_2bandit_b2.png","70","","70","test","1","","86","","","","circle","square","83","11","4","0.9759036144578314","","","","","","","",""
"null","226924","SARL_v6","SARL_v6dj9swa6u","5a7a1973000dab00018c3410","freq_resp","","","img/blue_2bandit_b.png","70","img/blue_2bandit_b.png","70","test","","","","","","","","","","","4","","","","","","","","",""
"null","227086","SARL_v6","SARL_v6dj9swa6u","5a7a1973000dab00018c3410","fixation","","","img/fixation.png","null","","","test","","","","","","","","","","","","","","","","","","","",""
"291.69999998807907","227387","SARL_v6","SARL_v6dj9swa6u","5a7a1973000dab00018c3410","freq","","","img/blue_2bandit_b2.png","70","","70","test","1","","87","","","","circle","square","84","12","4","0.9761904761904762","","","","","","","",""
"null","227905","SARL_v6","SARL_v6dj9swa6u","5a7a1973000dab00018c3410","freq_resp","","","img/blue_2bandit_b.png","70","img/blue_2bandit_b.png","70","test","","","","","","","","","","","4","","","","","","","","",""
"null","228069","SARL_v6","SARL_v6dj9swa6u","5a7a1973000dab00018c3410","fixation","","","img/fixation.png","null","","","test","","","","","","","","","","","","","","","","","","","",""
"199.6000000089407","228278","SARL_v6","SARL_v6dj9swa6u","5a7a1973000dab00018c3410","infreq","","","img/orange_2bandit_b2.png","70","","68","test","0","","88","","","","circle","square","85","13","4","0.9647058823529412","","","","","","","",""
"null","228897","SARL_v6","SARL_v6dj9swa6u","5a7a1973000dab00018c3410","infreq_resp","","","img/orange_2bandit_b.png","70","img/orange_2bandit_b.png","68","test","","","","","","","","","","","4","","","","","","","","",""
"null","229060","SARL_v6","SARL_v6dj9swa6u","5a7a1973000dab00018c3410","fixation","","","img/fixation.png","null","","","test","","","","","","","","","","","","","","","","","","","",""
"354.5","229423","SARL_v6","SARL_v6dj9swa6u","5a7a1973000dab00018c3410","freq","","","img/blue_2bandit_b2.png","70","","70","test","1","","89","","","","circle","square","86","14","4","0.9651162790697675","","","","","","","",""
"null","229889","SARL_v6","SARL_v6dj9swa6u","5a7a1973000dab00018c3410","freq_resp","","","img/blue_2bandit_b.png","70","img/blue_2bandit_b.png","70","test","","","","","","","","","","","4","","","","","","","","",""
"null","230050","SARL_v6","SARL_v6dj9swa6u","5a7a1973000dab00018c3410","fixation","","","img/fixation.png","null","","","test","","","","","","","","","","","","","","","","","","","",""
"248.8999999910593","230308","SARL_v6","SARL_v6dj9swa6u","5a7a1973000dab00018c3410","freq","","","img/blue_2bandit_b2.png","70","","70","test","1","","90","","","","circle","square","87","15","4","0.9655172413793104","","","","","","","",""
"null","230881","SARL_v6","SARL_v6dj9swa6u","5a7a1973000dab00018c3410","freq_resp","","","img/blue_2bandit_b.png","70","img/blue_2bandit_b.png","70","test","","","","","","","","","","","4","","","","","","","","",""
"null","231041","SARL_v6","SARL_v6dj9swa6u","5a7a1973000dab00018c3410","fixation","","","img/fixation.png","null","","","test","","","","","","","","","","","","","","","","","","","",""
"250.5","231300","SARL_v6","SARL_v6dj9swa6u","5a7a1973000dab00018c3410","freq","","","img/blue_2bandit_b2.png","70","","70","test","1","","91","","","","circle","square","88","16","4","0.9659090909090909","","","","","","","",""
"null","231865","SARL_v6","SARL_v6dj9swa6u","5a7a1973000dab00018c3410","freq_resp","","","img/blue_2bandit_b.png","70","img/blue_2bandit_b.png","70","test","","","","","","","","","","","4","","","","","","","","",""
"null","232039","SARL_v6","SARL_v6dj9swa6u","5a7a1973000dab00018c3410","fixation","","","img/fixation.png","null","","","test","","","","","","","","","","","","","","","","","","","",""
"266.3999999910593","232314","SARL_v6","SARL_v6dj9swa6u","5a7a1973000dab00018c3410","freq","","","img/blue_2bandit_b2.png","70","","70","test","1","","92","","","","circle","square","89","17","4","0.9662921348314607","","","","","","","",""
"null","232872","SARL_v6","SARL_v6dj9swa6u","5a7a1973000dab00018c3410","freq_resp","","","img/blue_2bandit_b.png","70","img/blue_2bandit_b.png","70","test","","","","","","","","","","","4","","","","","","","","",""
"null","233046","SARL_v6","SARL_v6dj9swa6u","5a7a1973000dab00018c3410","fixation","","","img/fixation.png","null","","","test","","","","","","","","","","","","","","","","","","","",""
"244.79999999701977","233300","SARL_v6","SARL_v6dj9swa6u","5a7a1973000dab00018c3410","freq","","","img/blue_2bandit_b2.png","70","","70","test","1","","93","","","","circle","square","90","18","4","0.9666666666666667","","","","","","","",""
"null","233879","SARL_v6","SARL_v6dj9swa6u","5a7a1973000dab00018c3410","freq_resp","","","img/blue_2bandit_b.png","70","img/blue_2bandit_b.png","70","test","","","","","","","","","","","4","","","","","","","","",""
"null","234054","SARL_v6","SARL_v6dj9swa6u","5a7a1973000dab00018c3410","fixation","","","img/fixation.png","null","","","test","","","","","","","","","","","","","","","","","","","",""
"262.20000000298023","234326","SARL_v6","SARL_v6dj9swa6u","5a7a1973000dab00018c3410","freq","","","img/blue_2bandit_b2.png","70","","70","test","1","","94","","","","circle","square","91","19","4","0.967032967032967","","","","","","","",""
"null","234877","SARL_v6","SARL_v6dj9swa6u","5a7a1973000dab00018c3410","freq_resp","","","img/blue_2bandit_b.png","70","img/blue_2bandit_b.png","70","test","","","","","","","","","","","4","","","","","","","","",""
"null","235037","SARL_v6","SARL_v6dj9swa6u","5a7a1973000dab00018c3410","fixation","","","img/fixation.png","null","","","test","","","","","","","","","","","","","","","","","","","",""
"440.59999999403954","235487","SARL_v6","SARL_v6dj9swa6u","5a7a1973000dab00018c3410","rl","","","img/black_2bandit_b2.png","74","","0","test","","","95","","","-12","circle","square","","0","4","","74","-12","0","-12","0","circle","4","0"
"null","236262","SARL_v6","SARL_v6dj9swa6u","5a7a1973000dab00018c3410","feedback","","","<div class=""verylowPoints""> -12 </div>","null","","na","test","","","NaN","","","","","","","","4","","74","","","","","","4",""
"256","236528","SARL_v6","SARL_v6dj9swa6u","5a7a1973000dab00018c3410","freq","","","img/blue_2bandit_b2.png","70","","70","test","1","","96","","","","circle","square","92","1","5","0.967391304347826","","","","","","","",""
"null","237084","SARL_v6","SARL_v6dj9swa6u","5a7a1973000dab00018c3410","freq_resp","","","img/blue_2bandit_b.png","70","img/blue_2bandit_b.png","70","test","","","","","","","","","","","5","","","","","","","","",""
"null","237269","SARL_v6","SARL_v6dj9swa6u","5a7a1973000dab00018c3410","fixation","","","img/fixation.png","null","","","test","","","","","","","","","","","","","","","","","","","",""
"204.90000000596046","237483","SARL_v6","SARL_v6dj9swa6u","5a7a1973000dab00018c3410","freq","","","img/blue_2bandit_b2.png","70","","70","test","1","","97","","","","circle","square","93","2","5","0.967741935483871","","","","","","","",""
"null","238103","SARL_v6","SARL_v6dj9swa6u","5a7a1973000dab00018c3410","freq_resp","","","img/blue_2bandit_b.png","70","img/blue_2bandit_b.png","70","test","","","","","","","","","","","5","","","","","","","","",""
"null","238274","SARL_v6","SARL_v6dj9swa6u","5a7a1973000dab00018c3410","fixation","","","img/fixation.png","null","","","test","","","","","","","","","","","","","","","","","","","",""
"115.40000000596046","238399","SARL_v6","SARL_v6dj9swa6u","5a7a1973000dab00018c3410","freq","","","img/blue_2bandit_b2.png","70","","70","test","1","","98","","","","circle","square","94","3","5","0.9680851063829787","","","","","","","",""
"null","239098","SARL_v6","SARL_v6dj9swa6u","5a7a1973000dab00018c3410","freq_resp","","","img/blue_2bandit_b.png","70","img/blue_2bandit_b.png","70","test","","","","","","","","","","","5","","","","","","","","",""
"null","239258","SARL_v6","SARL_v6dj9swa6u","5a7a1973000dab00018c3410","fixation","","","img/fixation.png","null","","","test","","","","","","","","","","","","","","","","","","","",""
"88","239355","SARL_v6","SARL_v6dj9swa6u","5a7a1973000dab00018c3410","freq","","","img/blue_2bandit_b2.png","70","","70","test","1","","99","","","","circle","square","95","4","5","0.968421052631579","","","","","","","",""
"null","240087","SARL_v6","SARL_v6dj9swa6u","5a7a1973000dab00018c3410","freq_resp","","","img/blue_2bandit_b.png","70","img/blue_2bandit_b.png","70","test","","","","","","","","","","","5","","","","","","","","",""
"null","240256","SARL_v6","SARL_v6dj9swa6u","5a7a1973000dab00018c3410","fixation","","","img/fixation.png","null","","","test","","","","","","","","","","","","","","","","","","","",""
"99.29999999701977","240364","SARL_v6","SARL_v6dj9swa6u","5a7a1973000dab00018c3410","freq","","","img/blue_2bandit_b2.png","70","","70","test","1","","100","","","","circle","square","96","5","5","0.96875","","","","","","","",""
"null","241080","SARL_v6","SARL_v6dj9swa6u","5a7a1973000dab00018c3410","freq_resp","","","img/blue_2bandit_b.png","70","img/blue_2bandit_b.png","70","test","","","","","","","","","","","5","","","","","","","","",""
"null","241254","SARL_v6","SARL_v6dj9swa6u","5a7a1973000dab00018c3410","fixation","","","img/fixation.png","null","","","test","","","","","","","","","","","","","","","","","","","",""
"92.09999999403954","241355","SARL_v6","SARL_v6dj9swa6u","5a7a1973000dab00018c3410","freq","","","img/blue_2bandit_b2.png","70","","70","test","1","","101","","","","circle","square","97","6","5","0.9690721649484536","","","","","","","",""
"null","242084","SARL_v6","SARL_v6dj9swa6u","5a7a1973000dab00018c3410","freq_resp","","","img/blue_2bandit_b.png","70","img/blue_2bandit_b.png","70","test","","","","","","","","","","","5","","","","","","","","",""
"null","242255","SARL_v6","SARL_v6dj9swa6u","5a7a1973000dab00018c3410","fixation","","","img/fixation.png","null","","","test","","","","","","","","","","","","","","","","","","","",""
"16","242281","SARL_v6","SARL_v6dj9swa6u","5a7a1973000dab00018c3410","freq","","","img/blue_2bandit_b2.png","70","","70","test","1","","102","","","","circle","square","98","7","5","0.9693877551020408","","","","","","","",""
"null","243080","SARL_v6","SARL_v6dj9swa6u","5a7a1973000dab00018c3410","freq_resp","","","img/blue_2bandit_b.png","70","img/blue_2bandit_b.png","70","test","","","","","","","","","","","5","","","","","","","","",""
"null","243253","SARL_v6","SARL_v6dj9swa6u","5a7a1973000dab00018c3410","fixation","","","img/fixation.png","null","","","test","","","","","","","","","","","","","","","","","","","",""
"79.19999998807907","243341","SARL_v6","SARL_v6dj9swa6u","5a7a1973000dab00018c3410","freq","","","img/blue_2bandit_b2.png","70","","70","test","1","","103","","","","circle","square","99","8","5","0.9696969696969697","","","","","","","",""
"null","244075","SARL_v6","SARL_v6dj9swa6u","5a7a1973000dab00018c3410","freq_resp","","","img/blue_2bandit_b.png","70","img/blue_2bandit_b.png","70","test","","","","","","","","","","","5","","","","","","","","",""
"null","244236","SARL_v6","SARL_v6dj9swa6u","5a7a1973000dab00018c3410","fixation","","","img/fixation.png","null","","","test","","","","","","","","","","","","","","","","","","","",""
"257.29999999701977","244502","SARL_v6","SARL_v6dj9swa6u","5a7a1973000dab00018c3410","freq","","","img/blue_2bandit_b2.png","70","","70","test","1","","104","","","","circle","square","100","9","5","0.97","","","","","","","",""
"null","245067","SARL_v6","SARL_v6dj9swa6u","5a7a1973000dab00018c3410","freq_resp","","","img/blue_2bandit_b.png","70","img/blue_2bandit_b.png","70","test","","","","","","","","","","","5","","","","","","","","",""
"null","245227","SARL_v6","SARL_v6dj9swa6u","5a7a1973000dab00018c3410","fixation","","","img/fixation.png","null","","","test","","","","","","","","","","","","","","","","","","","",""
"216.5","245452","SARL_v6","SARL_v6dj9swa6u","5a7a1973000dab00018c3410","freq","","","img/blue_2bandit_b2.png","70","","70","test","1","","105","","","","circle","square","101","10","5","0.9702970297029703","","","","","","","",""
"null","246048","SARL_v6","SARL_v6dj9swa6u","5a7a1973000dab00018c3410","freq_resp","","","img/blue_2bandit_b.png","70","img/blue_2bandit_b.png","70","test","","","","","","","","","","","5","","","","","","","","",""
"null","246219","SARL_v6","SARL_v6dj9swa6u","5a7a1973000dab00018c3410","fixation","","","img/fixation.png","null","","","test","","","","","","","","","","","","","","","","","","","",""
"231.3999999910593","246459","SARL_v6","SARL_v6dj9swa6u","5a7a1973000dab00018c3410","infreq","","","img/orange_2bandit_b2.png","70","","68","test","0","","106","","","","circle","square","102","11","5","0.9607843137254902","","","","","","","",""
"null","247040","SARL_v6","SARL_v6dj9swa6u","5a7a1973000dab00018c3410","infreq_resp","","","img/orange_2bandit_b.png","70","img/orange_2bandit_b.png","68","test","","","","","","","","","","","5","","","","","","","","",""
"null","247200","SARL_v6","SARL_v6dj9swa6u","5a7a1973000dab00018c3410","fixation","","","img/fixation.png","null","","","test","","","","","","","","","","","","","","","","","","","",""
"390.70000000298023","247600","SARL_v6","SARL_v6dj9swa6u","5a7a1973000dab00018c3410","freq","","","img/blue_2bandit_b2.png","70","","70","test","1","","107","","","","circle","square","103","12","5","0.9611650485436893","","","","","","","",""
"null","248023","SARL_v6","SARL_v6dj9swa6u","5a7a1973000dab00018c3410","freq_resp","","","img/blue_2bandit_b.png","70","img/blue_2bandit_b.png","70","test","","","","","","","","","","","5","","","","","","","","",""
"null","248198","SARL_v6","SARL_v6dj9swa6u","5a7a1973000dab00018c3410","fixation","","","img/fixation.png","null","","","test","","","","","","","","","","","","","","","","","","","",""
"313.30000001192093","248520","SARL_v6","SARL_v6dj9swa6u","5a7a1973000dab00018c3410","freq","","","img/blue_2bandit_b2.png","70","","70","test","1","","108","","","","circle","square","104","13","5","0.9615384615384616","","","","","","","",""
"null","249019","SARL_v6","SARL_v6dj9swa6u","5a7a1973000dab00018c3410","freq_resp","","","img/blue_2bandit_b.png","70","img/blue_2bandit_b.png","70","test","","","","","","","","","","","5","","","","","","","","",""
"null","249181","SARL_v6","SARL_v6dj9swa6u","5a7a1973000dab00018c3410","fixation","","","img/fixation.png","null","","","test","","","","","","","","","","","","","","","","","","","",""
"265.1000000089407","249456","SARL_v6","SARL_v6dj9swa6u","5a7a1973000dab00018c3410","freq","","","img/blue_2bandit_b2.png","70","","70","test","1","","109","","","","circle","square","105","14","5","0.9619047619047619","","","","","","","",""
"null","250005","SARL_v6","SARL_v6dj9swa6u","5a7a1973000dab00018c3410","freq_resp","","","img/blue_2bandit_b.png","70","img/blue_2bandit_b.png","70","test","","","","","","","","","","","5","","","","","","","","",""
"null","250179","SARL_v6","SARL_v6dj9swa6u","5a7a1973000dab00018c3410","fixation","","","img/fixation.png","null","","","test","","","","","","","","","","","","","","","","","","","",""
"337.70000000298023","250526","SARL_v6","SARL_v6dj9swa6u","5a7a1973000dab00018c3410","freq","","","img/blue_2bandit_b2.png","70","","70","test","1","","110","","","","circle","square","106","15","5","0.9622641509433962","","","","","","","",""
"null","251002","SARL_v6","SARL_v6dj9swa6u","5a7a1973000dab00018c3410","freq_resp","","","img/blue_2bandit_b.png","70","img/blue_2bandit_b.png","70","test","","","","","","","","","","","5","","","","","","","","",""
"null","251171","SARL_v6","SARL_v6dj9swa6u","5a7a1973000dab00018c3410","fixation","","","img/fixation.png","null","","","test","","","","","","","","","","","","","","","","","","","",""
"250.40000000596046","251431","SARL_v6","SARL_v6dj9swa6u","5a7a1973000dab00018c3410","infreq","","","img/orange_2bandit_b2.png","70","","68","test","0","","111","","","","circle","square","107","16","5","0.9532710280373832","","","","","","","",""
"null","251996","SARL_v6","SARL_v6dj9swa6u","5a7a1973000dab00018c3410","infreq_resp","","","img/orange_2bandit_b.png","70","img/orange_2bandit_b.png","68","test","","","","","","","","","","","5","","","","","","","","",""
"null","252169","SARL_v6","SARL_v6dj9swa6u","5a7a1973000dab00018c3410","fixation","","","img/fixation.png","null","","","test","","","","","","","","","","","","","","","","","","","",""
"434.30000001192093","252612","SARL_v6","SARL_v6dj9swa6u","5a7a1973000dab00018c3410","freq","","","img/blue_2bandit_b2.png","70","","70","test","1","","112","","","","circle","square","108","17","5","0.9537037037037037","","","","","","","",""
"null","252990","SARL_v6","SARL_v6dj9swa6u","5a7a1973000dab00018c3410","freq_resp","","","img/blue_2bandit_b.png","70","img/blue_2bandit_b.png","70","test","","","","","","","","","","","5","","","","","","","","",""
"null","253153","SARL_v6","SARL_v6dj9swa6u","5a7a1973000dab00018c3410","fixation","","","img/fixation.png","null","","","test","","","","","","","","","","","","","","","","","","","",""
"310.59999999403954","253473","SARL_v6","SARL_v6dj9swa6u","5a7a1973000dab00018c3410","freq","","","img/blue_2bandit_b2.png","70","","70","test","1","","113","","","","circle","square","109","18","5","0.9541284403669725","","","","","","","",""
"null","253986","SARL_v6","SARL_v6dj9swa6u","5a7a1973000dab00018c3410","freq_resp","","","img/blue_2bandit_b.png","70","img/blue_2bandit_b.png","70","test","","","","","","","","","","","5","","","","","","","","",""
"null","254156","SARL_v6","SARL_v6dj9swa6u","5a7a1973000dab00018c3410","fixation","","","img/fixation.png","null","","","test","","","","","","","","","","","","","","","","","","","",""
"292.70000000298023","254458","SARL_v6","SARL_v6dj9swa6u","5a7a1973000dab00018c3410","freq","","","img/blue_2bandit_b2.png","70","","70","test","1","","114","","","","circle","square","110","19","5","0.9545454545454546","","","","","","","",""
"null","254977","SARL_v6","SARL_v6dj9swa6u","5a7a1973000dab00018c3410","freq_resp","","","img/blue_2bandit_b.png","70","img/blue_2bandit_b.png","70","test","","","","","","","","","","","5","","","","","","","","",""
"null","255137","SARL_v6","SARL_v6dj9swa6u","5a7a1973000dab00018c3410","fixation","","","img/fixation.png","null","","","test","","","","","","","","","","","","","","","","","","","",""
"252.3999999910593","255398","SARL_v6","SARL_v6dj9swa6u","5a7a1973000dab00018c3410","freq","","","img/blue_2bandit_b2.png","70","","70","test","1","","115","","","","circle","square","111","20","5","0.954954954954955","","","","","","","",""
"null","255965","SARL_v6","SARL_v6dj9swa6u","5a7a1973000dab00018c3410","freq_resp","","","img/blue_2bandit_b.png","70","img/blue_2bandit_b.png","70","test","","","","","","","","","","","5","","","","","","","","",""
"null","256140","SARL_v6","SARL_v6dj9swa6u","5a7a1973000dab00018c3410","fixation","","","img/fixation.png","null","","","test","","","","","","","","","","","","","","","","","","","",""
"169.40000000596046","256319","SARL_v6","SARL_v6dj9swa6u","5a7a1973000dab00018c3410","freq","","","img/blue_2bandit_b2.png","70","","70","test","1","","116","","","","circle","square","112","21","5","0.9553571428571429","","","","","","","",""
"null","256974","SARL_v6","SARL_v6dj9swa6u","5a7a1973000dab00018c3410","freq_resp","","","img/blue_2bandit_b.png","70","img/blue_2bandit_b.png","70","test","","","","","","","","","","","5","","","","","","","","",""
"null","257135","SARL_v6","SARL_v6dj9swa6u","5a7a1973000dab00018c3410","fixation","","","img/fixation.png","null","","","test","","","","","","","","","","","","","","","","","","","",""
"160.09999999403954","257306","SARL_v6","SARL_v6dj9swa6u","5a7a1973000dab00018c3410","freq","","","img/blue_2bandit_b2.png","70","","70","test","1","","117","","","","circle","square","113","22","5","0.9557522123893806","","","","","","","",""
"null","257957","SARL_v6","SARL_v6dj9swa6u","5a7a1973000dab00018c3410","freq_resp","","","img/blue_2bandit_b.png","70","img/blue_2bandit_b.png","70","test","","","","","","","","","","","5","","","","","","","","",""
"null","258130","SARL_v6","SARL_v6dj9swa6u","5a7a1973000dab00018c3410","fixation","","","img/fixation.png","null","","","test","","","","","","","","","","","","","","","","","","","",""
"130.09999999403954","258269","SARL_v6","SARL_v6dj9swa6u","5a7a1973000dab00018c3410","freq","","","img/blue_2bandit_b2.png","70","","70","test","1","","118","","","","circle","square","114","23","5","0.956140350877193","","","","","","","",""
"null","258963","SARL_v6","SARL_v6dj9swa6u","5a7a1973000dab00018c3410","freq_resp","","","img/blue_2bandit_b.png","70","img/blue_2bandit_b.png","70","test","","","","","","","","","","","5","","","","","","","","",""
"null","259137","SARL_v6","SARL_v6dj9swa6u","5a7a1973000dab00018c3410","fixation","","","img/fixation.png","null","","","test","","","","","","","","","","","","","","","","","","","",""
"561.1000000089407","259708","SARL_v6","SARL_v6dj9swa6u","5a7a1973000dab00018c3410","rl","","","img/black_2bandit_b2.png","75","","0","test","","","119","","","4","circle","square","","0","5","","75","-7","4","-7","4","square","5","0"
"null","260473","SARL_v6","SARL_v6dj9swa6u","5a7a1973000dab00018c3410","feedback","","","<div class=""veryhighPoints_sq""> 4 </div>","null","","na","test","","","NaN","","","","","","","","5","","75","","","","","","5",""
"542.2999999970198","261024","SARL_v6","SARL_v6dj9swa6u","5a7a1973000dab00018c3410","freq","","","img/blue_2bandit_b2.png","70","","70","test","1","","120","","","","circle","square","115","1","6","0.9565217391304348","","","","","","","",""
"null","261305","SARL_v6","SARL_v6dj9swa6u","5a7a1973000dab00018c3410","freq_resp","","","img/blue_2bandit_b.png","70","img/blue_2bandit_b.png","70","test","","","","","","","","","","","6","","","","","","","","",""
"null","261470","SARL_v6","SARL_v6dj9swa6u","5a7a1973000dab00018c3410","fixation","","","img/fixation.png","null","","","test","","","","","","","","","","","","","","","","","","","",""
"375.59999999403954","261855","SARL_v6","SARL_v6dj9swa6u","5a7a1973000dab00018c3410","freq","","","img/blue_2bandit_b2.png","70","","70","test","1","","121","","","","circle","square","116","2","6","0.9568965517241379","","","","","","","",""
"null","262293","SARL_v6","SARL_v6dj9swa6u","5a7a1973000dab00018c3410","freq_resp","","","img/blue_2bandit_b.png","70","img/blue_2bandit_b.png","70","test","","","","","","","","","","","6","","","","","","","","",""
"null","262467","SARL_v6","SARL_v6dj9swa6u","5a7a1973000dab00018c3410","fixation","","","img/fixation.png","null","","","test","","","","","","","","","","","","","","","","","","","",""
"265.09999999403954","262741","SARL_v6","SARL_v6dj9swa6u","5a7a1973000dab00018c3410","freq","","","img/blue_2bandit_b2.png","70","","70","test","1","","122","","","","circle","square","117","3","6","0.9572649572649573","","","","","","","",""
"null","263292","SARL_v6","SARL_v6dj9swa6u","5a7a1973000dab00018c3410","freq_resp","","","img/blue_2bandit_b.png","70","img/blue_2bandit_b.png","70","test","","","","","","","","","","","6","","","","","","","","",""
"null","263466","SARL_v6","SARL_v6dj9swa6u","5a7a1973000dab00018c3410","fixation","","","img/fixation.png","null","","","test","","","","","","","","","","","","","","","","","","","",""
"355.70000000298023","263831","SARL_v6","SARL_v6dj9swa6u","5a7a1973000dab00018c3410","freq","","","img/blue_2bandit_b2.png","70","","70","test","1","","123","","","","circle","square","118","4","6","0.9576271186440678","","","","","","","",""
"null","264290","SARL_v6","SARL_v6dj9swa6u","5a7a1973000dab00018c3410","freq_resp","","","img/blue_2bandit_b.png","70","img/blue_2bandit_b.png","70","test","","","","","","","","","","","6","","","","","","","","",""
"null","264449","SARL_v6","SARL_v6dj9swa6u","5a7a1973000dab00018c3410","fixation","","","img/fixation.png","null","","","test","","","","","","","","","","","","","","","","","","","",""
"256.40000000596046","264718","SARL_v6","SARL_v6dj9swa6u","5a7a1973000dab00018c3410","freq","","","img/blue_2bandit_b2.png","70","","70","test","1","","124","","","","circle","square","119","5","6","0.957983193277311","","","","","","","",""
"null","265273","SARL_v6","SARL_v6dj9swa6u","5a7a1973000dab00018c3410","freq_resp","","","img/blue_2bandit_b.png","70","img/blue_2bandit_b.png","70","test","","","","","","","","","","","6","","","","","","","","",""
"null","265450","SARL_v6","SARL_v6dj9swa6u","5a7a1973000dab00018c3410","fixation","","","img/fixation.png","null","","","test","","","","","","","","","","","","","","","","","","","",""
"236","265695","SARL_v6","SARL_v6dj9swa6u","5a7a1973000dab00018c3410","freq","","","img/blue_2bandit_b2.png","70","","70","test","1","","125","","","","circle","square","120","6","6","0.9583333333333334","","","","","","","",""
"null","266279","SARL_v6","SARL_v6dj9swa6u","5a7a1973000dab00018c3410","freq_resp","","","img/blue_2bandit_b.png","70","img/blue_2bandit_b.png","70","test","","","","","","","","","","","6","","","","","","","","",""
"null","266439","SARL_v6","SARL_v6dj9swa6u","5a7a1973000dab00018c3410","fixation","","","img/fixation.png","null","","","test","","","","","","","","","","","","","","","","","","","",""
"217.59999999403954","266666","SARL_v6","SARL_v6dj9swa6u","5a7a1973000dab00018c3410","freq","","","img/blue_2bandit_b2.png","70","","70","test","1","","126","","","","circle","square","121","7","6","0.9586776859504132","","","","","","","",""
"null","267262","SARL_v6","SARL_v6dj9swa6u","5a7a1973000dab00018c3410","freq_resp","","","img/blue_2bandit_b.png","70","img/blue_2bandit_b.png","70","test","","","","","","","","","","","6","","","","","","","","",""
"null","267428","SARL_v6","SARL_v6dj9swa6u","5a7a1973000dab00018c3410","fixation","","","img/fixation.png","null","","","test","","","","","","","","","","","","","","","","","","","",""
"259.59999999403954","267696","SARL_v6","SARL_v6dj9swa6u","5a7a1973000dab00018c3410","freq","","","img/blue_2bandit_b2.png","70","","70","test","1","","127","","","","circle","square","122","8","6","0.9590163934426229","","","","","","","",""
"null","268260","SARL_v6","SARL_v6dj9swa6u","5a7a1973000dab00018c3410","freq_resp","","","img/blue_2bandit_b.png","70","img/blue_2bandit_b.png","70","test","","","","","","","","","","","6","","","","","","","","",""
"null","268421","SARL_v6","SARL_v6dj9swa6u","5a7a1973000dab00018c3410","fixation","","","img/fixation.png","null","","","test","","","","","","","","","","","","","","","","","","","",""
"166.79999999701977","268596","SARL_v6","SARL_v6dj9swa6u","5a7a1973000dab00018c3410","freq","","","img/blue_2bandit_b2.png","70","","70","test","1","","128","","","","circle","square","123","9","6","0.959349593495935","","","","","","","",""
"null","269240","SARL_v6","SARL_v6dj9swa6u","5a7a1973000dab00018c3410","freq_resp","","","img/blue_2bandit_b.png","70","img/blue_2bandit_b.png","70","test","","","","","","","","","","","6","","","","","","","","",""
"null","269404","SARL_v6","SARL_v6dj9swa6u","5a7a1973000dab00018c3410","fixation","","","img/fixation.png","null","","","test","","","","","","","","","","","","","","","","","","","",""
"199","269612","SARL_v6","SARL_v6dj9swa6u","5a7a1973000dab00018c3410","infreq","","","img/orange_2bandit_b2.png","70","","68","test","0","","129","","","","circle","square","124","10","6","0.9516129032258065","","","","","","","",""
"null","270224","SARL_v6","SARL_v6dj9swa6u","5a7a1973000dab00018c3410","infreq_resp","","","img/orange_2bandit_b.png","70","img/orange_2bandit_b.png","68","test","","","","","","","","","","","6","","","","","","","","",""
"null","270387","SARL_v6","SARL_v6dj9swa6u","5a7a1973000dab00018c3410","fixation","","","img/fixation.png","null","","","test","","","","","","","","","","","","","","","","","","","",""
"453.70000000298023","270850","SARL_v6","SARL_v6dj9swa6u","5a7a1973000dab00018c3410","freq","","","img/blue_2bandit_b2.png","70","","70","test","1","","130","","","","circle","square","125","11","6","0.952","","","","","","","",""
