"rt","time_elapsed","expId","subject","prolificID","trialType","rlType","attType","stimulus","key_press","stim","corrresp","phase","corr","pracCounter","trialNum","rewardOne","rewardTwo","reward","bandOne","bandTwo","attentionNum","attentionRunNum","blockNum","performance","bandChosen","circleVal","squareVal","bandOneVal","bandTwoVal","shapeChosen","rlNum","badFlag"
"10363","10373","SARL_v6","SARL_v6md393deo","63251e479509813fab713ad2","","","","","","","","","","","","","","","","","","","","","","","","","","","",""
"","13320","SARL_v6","SARL_v6md393deo","63251e479509813fab713ad2","fullscreen","fullscreen","fullscreen","","","","","","","","","","","","","","","","","","","","","","","","",""
"129632","142958","SARL_v6","SARL_v6md393deo","63251e479509813fab713ad2","","","","","","","","","","","","","","","","","","","","","","","","","","","",""
"618.7000000476837","143586","SARL_v6","SARL_v6md393deo","63251e479509813fab713ad2","freqPrac","","","img/orange_2bandit_b2.png","70","img/orange_2bandit_b2.png","70","prac","1","0","","","","","","","","","","","","","","","","","",""
"618.7000000476837","143779","SARL_v6","SARL_v6md393deo","63251e479509813fab713ad2","freqPrac_resp","","","img/orange_2bandit_b.png","70","img/orange_2bandit_b.png","70","prac","","","","","","","","","","","","","","","","","","","",""
"null","143939","SARL_v6","SARL_v6md393deo","63251e479509813fab713ad2","fixation","","","img/fixation.png","null","","","prac","","","","","","","","","","","","","","","","","","","",""
"558.3000001907349","144504","SARL_v6","SARL_v6md393deo","63251e479509813fab713ad2","infreqPrac","","","img/blue_2bandit_b2.png","68","img/blue_2bandit_b2.png","68","prac","1","0","","","","","","","","","","","","","","","","","",""
"558.3000001907349","144769","SARL_v6","SARL_v6md393deo","63251e479509813fab713ad2","infreqPrac_resp","","","img/blue_2bandit_b.png","68","img/blue_2bandit_b.png","68","prac","","","","","","","","","","","","","","","","","","","",""
"null","144939","SARL_v6","SARL_v6md393deo","63251e479509813fab713ad2","fixation","","","img/fixation.png","null","","","prac","","","","","","","","","","","","","","","","","","","",""
"422.2000000476837","145367","SARL_v6","SARL_v6md393deo","63251e479509813fab713ad2","freqPrac","","","img/orange_2bandit_b2.png","70","img/orange_2bandit_b2.png","70","prac","1","0","","","","","","","","","","","","","","","","","",""
"422.2000000476837","145769","SARL_v6","SARL_v6md393deo","63251e479509813fab713ad2","freqPrac_resp","","","img/orange_2bandit_b.png","70","img/orange_2bandit_b.png","70","prac","","","","","","","","","","","","","","","","","","","",""
"null","145938","SARL_v6","SARL_v6md393deo","63251e479509813fab713ad2","fixation","","","img/fixation.png","null","","","prac","","","","","","","","","","","","","","","","","","","",""
"486.7999999523163","146431","SARL_v6","SARL_v6md393deo","63251e479509813fab713ad2","infreqPrac","","","img/blue_2bandit_b2.png","68","img/blue_2bandit_b2.png","68","prac","1","0","","","","","","","","","","","","","","","","","",""
"486.7999999523163","146763","SARL_v6","SARL_v6md393deo","63251e479509813fab713ad2","infreqPrac_resp","","","img/blue_2bandit_b.png","68","img/blue_2bandit_b.png","68","prac","","","","","","","","","","","","","","","","","","","",""
"null","146940","SARL_v6","SARL_v6md393deo","63251e479509813fab713ad2","fixation","","","img/fixation.png","null","","","prac","","","","","","","","","","","","","","","","","","","",""
"500.90000009536743","147447","SARL_v6","SARL_v6md393deo","63251e479509813fab713ad2","infreqPrac","","","img/blue_2bandit_b2.png","68","img/blue_2bandit_b2.png","68","prac","1","0","","","","","","","","","","","","","","","","","",""
"500.90000009536743","147758","SARL_v6","SARL_v6md393deo","63251e479509813fab713ad2","infreqPrac_resp","","","img/blue_2bandit_b.png","68","img/blue_2bandit_b.png","68","prac","","","","","","","","","","","","","","","","","","","",""
"null","147918","SARL_v6","SARL_v6md393deo","63251e479509813fab713ad2","fixation","","","img/fixation.png","null","","","prac","","","","","","","","","","","","","","","","","","","",""
"593.9000000953674","148519","SARL_v6","SARL_v6md393deo","63251e479509813fab713ad2","infreqPrac","","","img/blue_2bandit_b2.png","68","img/blue_2bandit_b2.png","68","prac","1","0","","","","","","","","","","","","","","","","","",""
"593.9000000953674","148739","SARL_v6","SARL_v6md393deo","63251e479509813fab713ad2","infreqPrac_resp","","","img/blue_2bandit_b.png","68","img/blue_2bandit_b.png","68","prac","","","","","","","","","","","","","","","","","","","",""
"null","148909","SARL_v6","SARL_v6md393deo","63251e479509813fab713ad2","fixation","","","img/fixation.png","null","","","prac","","","","","","","","","","","","","","","","","","","",""
"523.5","149439","SARL_v6","SARL_v6md393deo","63251e479509813fab713ad2","freqPrac","","","img/orange_2bandit_b2.png","70","img/orange_2bandit_b2.png","70","prac","1","0","","","","","","","","","","","","","","","","","",""
"523.5","149723","SARL_v6","SARL_v6md393deo","63251e479509813fab713ad2","freqPrac_resp","","","img/orange_2bandit_b.png","70","img/orange_2bandit_b.png","70","prac","","","","","","","","","","","","","","","","","","","",""
"null","149890","SARL_v6","SARL_v6md393deo","63251e479509813fab713ad2","fixation","","","img/fixation.png","null","","","prac","","","","","","","","","","","","","","","","","","","",""
"495.60000014305115","150391","SARL_v6","SARL_v6md393deo","63251e479509813fab713ad2","infreqPrac","","","img/blue_2bandit_b2.png","68","img/blue_2bandit_b2.png","68","prac","1","0","","","","","","","","","","","","","","","","","",""
"495.60000014305115","150720","SARL_v6","SARL_v6md393deo","63251e479509813fab713ad2","infreqPrac_resp","","","img/blue_2bandit_b.png","68","img/blue_2bandit_b.png","68","prac","","","","","","","","","","","","","","","","","","","",""
"null","150889","SARL_v6","SARL_v6md393deo","63251e479509813fab713ad2","fixation","","","img/fixation.png","null","","","prac","","","","","","","","","","","","","","","","","","","",""
"471.59999990463257","151367","SARL_v6","SARL_v6md393deo","63251e479509813fab713ad2","freqPrac","","","img/orange_2bandit_b2.png","70","img/orange_2bandit_b2.png","70","prac","1","0","","","","","","","","","","","","","","","","","",""
"471.59999990463257","151718","SARL_v6","SARL_v6md393deo","63251e479509813fab713ad2","freqPrac_resp","","","img/orange_2bandit_b.png","70","img/orange_2bandit_b.png","70","prac","","","","","","","","","","","","","","","","","","","",""
"null","151890","SARL_v6","SARL_v6md393deo","63251e479509813fab713ad2","fixation","","","img/fixation.png","null","","","prac","","","","","","","","","","","","","","","","","","","",""
"446.7000000476837","152343","SARL_v6","SARL_v6md393deo","63251e479509813fab713ad2","freqPrac","","","img/orange_2bandit_b2.png","70","img/orange_2bandit_b2.png","70","prac","1","0","","","","","","","","","","","","","","","","","",""
"446.7000000476837","152723","SARL_v6","SARL_v6md393deo","63251e479509813fab713ad2","freqPrac_resp","","","img/orange_2bandit_b.png","70","img/orange_2bandit_b.png","70","prac","","","","","","","","","","","","","","","","","","","",""
"null","152889","SARL_v6","SARL_v6md393deo","63251e479509813fab713ad2","fixation","","","img/fixation.png","null","","","prac","","","","","","","","","","","","","","","","","","","",""
"58565.5","211458","SARL_v6","SARL_v6md393deo","63251e479509813fab713ad2","","","","","","","","prac","","","","","","","","","","","","","","","","","","","",""
"501.90000009536743","211965","SARL_v6","SARL_v6md393deo","63251e479509813fab713ad2","rlPractice","","","img/black_2bandit_b2.png","75","img/black_2bandit_b2.png","","prac","","","0","","","","","","","","","","","","","","","","",""
"null","212739","SARL_v6","SARL_v6md393deo","63251e479509813fab713ad2","feedback","","","<div class=""verylowPoints_sq""> -14 </div>","null","","na","prac","","","1","10","-14","10","","","","","","","","","","","","","",""
"null","212908","SARL_v6","SARL_v6md393deo","63251e479509813fab713ad2","fixation","","","img/fixation.png","null","","","prac","","","","","","","","","","","","","","","","","","","",""
"612.0999999046326","213525","SARL_v6","SARL_v6md393deo","63251e479509813fab713ad2","rlPractice","","","img/black_2bandit_b2.png","74","img/black_2bandit_b2.png","","prac","","","1","","","","","","","","","","","","","","","","",""
"null","214291","SARL_v6","SARL_v6md393deo","63251e479509813fab713ad2","feedback","","","<div class=""veryhighPoints""> 5 </div>","null","","na","prac","","","2","5","-5","5","","","","","","","","","","","","","",""
"null","214459","SARL_v6","SARL_v6md393deo","63251e479509813fab713ad2","fixation","","","img/fixation.png","null","","","prac","","","","","","","","","","","","","","","","","","","",""
"479.2999999523163","214944","SARL_v6","SARL_v6md393deo","63251e479509813fab713ad2","rlPractice","","","img/black_2bandit_b2.png","74","img/black_2bandit_b2.png","","prac","","","2","","","","","","","","","","","","","","","","",""
"null","215704","SARL_v6","SARL_v6md393deo","63251e479509813fab713ad2","feedback","","","<div class=""veryhighPoints""> 30 </div>","null","","na","prac","","","3","30","2","30","","","","","","","","","","","","","",""
"null","215869","SARL_v6","SARL_v6md393deo","63251e479509813fab713ad2","fixation","","","img/fixation.png","null","","","prac","","","","","","","","","","","","","","","","","","","",""
"436.2999999523163","216311","SARL_v6","SARL_v6md393deo","63251e479509813fab713ad2","rlPractice","","","img/black_2bandit_b2.png","74","img/black_2bandit_b2.png","","prac","","","3","","","","","","","","","","","","","","","","",""
"null","217084","SARL_v6","SARL_v6md393deo","63251e479509813fab713ad2","feedback","","","<div class=""verylowPoints""> -2 </div>","null","","na","prac","","","4","-2","20","-2","","","","","","","","","","","","","",""
"null","217259","SARL_v6","SARL_v6md393deo","63251e479509813fab713ad2","fixation","","","img/fixation.png","null","","","prac","","","","","","","","","","","","","","","","","","","",""
"19984.199999809265","237248","SARL_v6","SARL_v6md393deo","63251e479509813fab713ad2","","","","","","","","prac","","","","","","","","","","","","","","","","","","","",""
"785.6000001430511","238040","SARL_v6","SARL_v6md393deo","63251e479509813fab713ad2","mixAttFreqPrac","","","img/orange_2bandit_b2.png","70","img/orange_2bandit_b2.png","70","prac","","","1","","","","","","","","","","","","","","","","",""
"785.6000001430511","238061","SARL_v6","SARL_v6md393deo","63251e479509813fab713ad2","freqPrac_resp","","","img/orange_2bandit_b.png","70","img/orange_2bandit_b.png","70","prac","","","1","","","","","","","","","","","","","","","","",""
"null","238221","SARL_v6","SARL_v6md393deo","63251e479509813fab713ad2","fixation","","","img/fixation.png","null","","","prac","","","","","","","","","","","","","","","","","","","",""
"547.7999999523163","238775","SARL_v6","SARL_v6md393deo","63251e479509813fab713ad2","mixAttInfreqPrac","","","img/blue_2bandit_b2.png","68","img/blue_2bandit_b2.png","68","prac","","","2","","","","","","","","","","","","","","","","",""
"547.7999999523163","239039","SARL_v6","SARL_v6md393deo","63251e479509813fab713ad2","infreqPrac_resp","","","img/blue_2bandit_b.png","68","img/orange_2bandit_b.png","68","prac","","","2","","","","","","","","","","","","","","","","",""
"null","239210","SARL_v6","SARL_v6md393deo","63251e479509813fab713ad2","fixation","","","img/fixation.png","null","","","prac","","","","","","","","","","","","","","","","","","","",""
"695.8999998569489","239912","SARL_v6","SARL_v6md393deo","63251e479509813fab713ad2","mixAttInfreqPrac","","","img/blue_2bandit_b2.png","68","img/blue_2bandit_b2.png","68","prac","","","3","","","","","","","","","","","","","","","","",""
"695.8999998569489","240039","SARL_v6","SARL_v6md393deo","63251e479509813fab713ad2","infreqPrac_resp","","","img/blue_2bandit_b.png","68","img/orange_2bandit_b.png","68","prac","","","3","","","","","","","","","","","","","","","","",""
"null","240210","SARL_v6","SARL_v6md393deo","63251e479509813fab713ad2","fixation","","","img/fixation.png","null","","","prac","","","","","","","","","","","","","","","","","","","",""
"476.7000000476837","240691","SARL_v6","SARL_v6md393deo","63251e479509813fab713ad2","mixAttInfreqPrac","","","img/blue_2bandit_b2.png","68","img/blue_2bandit_b2.png","68","prac","","","4","","","","","","","","","","","","","","","","",""
"476.7000000476837","241021","SARL_v6","SARL_v6md393deo","63251e479509813fab713ad2","infreqPrac_resp","","","img/blue_2bandit_b.png","68","img/orange_2bandit_b.png","68","prac","","","4","","","","","","","","","","","","","","","","",""
"null","241180","SARL_v6","SARL_v6md393deo","63251e479509813fab713ad2","fixation","","","img/fixation.png","null","","","prac","","","","","","","","","","","","","","","","","","","",""
"573.8000001907349","241759","SARL_v6","SARL_v6md393deo","63251e479509813fab713ad2","mixAttFreqPrac","","","img/orange_2bandit_b2.png","70","img/orange_2bandit_b2.png","70","prac","","","5","","","","","","","","","","","","","","","","",""
"573.8000001907349","242010","SARL_v6","SARL_v6md393deo","63251e479509813fab713ad2","freqPrac_resp","","","img/orange_2bandit_b.png","70","img/orange_2bandit_b.png","70","prac","","","5","","","","","","","","","","","","","","","","",""
"null","242180","SARL_v6","SARL_v6md393deo","63251e479509813fab713ad2","fixation","","","img/fixation.png","null","","","prac","","","","","","","","","","","","","","","","","","","",""
"861.3000001907349","243047","SARL_v6","SARL_v6md393deo","63251e479509813fab713ad2","mixRLPractice","","","img/black_2bandit_b2.png","75","img/black_2bandit_b2.png","","prac","","","5","","","","","","","","","","","","","","","","",""
"null","243819","SARL_v6","SARL_v6md393deo","63251e479509813fab713ad2","feedback","","","<div class=""veryhighPoints_sq""> 10 </div>","null","","na","prac","","","6","-14","10","-14","","","","","","","","","","","","","",""
"null","243989","SARL_v6","SARL_v6md393deo","63251e479509813fab713ad2","fixation","","","img/fixation.png","null","","","prac","","","","","","","","","","","","","","","","","","","",""
"716.4000000953674","244711","SARL_v6","SARL_v6md393deo","63251e479509813fab713ad2","mixAttFreqPrac","","","img/orange_2bandit_b2.png","70","img/orange_2bandit_b2.png","70","prac","","","7","","","","","","","","","","","","","","","","",""
"716.4000000953674","244810","SARL_v6","SARL_v6md393deo","63251e479509813fab713ad2","freqPrac_resp","","","img/orange_2bandit_b.png","70","img/orange_2bandit_b.png","70","prac","","","7","","","","","","","","","","","","","","","","",""
"null","244984","SARL_v6","SARL_v6md393deo","63251e479509813fab713ad2","fixation","","","img/fixation.png","null","","","prac","","","","","","","","","","","","","","","","","","","",""
"607.9000000953674","245599","SARL_v6","SARL_v6md393deo","63251e479509813fab713ad2","mixAttInfreqPrac","","","img/blue_2bandit_b2.png","68","img/blue_2bandit_b2.png","68","prac","","","8","","","","","","","","","","","","","","","","",""
"607.9000000953674","245800","SARL_v6","SARL_v6md393deo","63251e479509813fab713ad2","infreqPrac_resp","","","img/blue_2bandit_b.png","68","img/orange_2bandit_b.png","68","prac","","","8","","","","","","","","","","","","","","","","",""
"null","245959","SARL_v6","SARL_v6md393deo","63251e479509813fab713ad2","fixation","","","img/fixation.png","null","","","prac","","","","","","","","","","","","","","","","","","","",""
"null","246769","SARL_v6","SARL_v6md393deo","63251e479509813fab713ad2","mixAttFreqPrac","","","img/orange_2bandit_b2.png","null","img/orange_2bandit_b2.png","70","prac","","","9","","","","","","","","","","","","","","","","",""
"120.40000009536743","246940","SARL_v6","SARL_v6md393deo","63251e479509813fab713ad2","fixation","","","img/fixation.png","70","","","prac","","","","","","","","","","","","","","","","","","","",""
"734.6999998092651","247680","SARL_v6","SARL_v6md393deo","63251e479509813fab713ad2","mixAttFreqPrac","","","img/orange_2bandit_b2.png","70","img/orange_2bandit_b2.png","70","prac","","","10","","","","","","","","","","","","","","","","",""
"734.6999998092651","247758","SARL_v6","SARL_v6md393deo","63251e479509813fab713ad2","freqPrac_resp","","","img/orange_2bandit_b.png","70","img/orange_2bandit_b.png","70","prac","","","10","","","","","","","","","","","","","","","","",""
"null","247929","SARL_v6","SARL_v6md393deo","63251e479509813fab713ad2","fixation","","","img/fixation.png","null","","","prac","","","","","","","","","","","","","","","","","","","",""
"551.7000000476837","248488","SARL_v6","SARL_v6md393deo","63251e479509813fab713ad2","mixAttInfreqPrac","","","img/blue_2bandit_b2.png","68","img/blue_2bandit_b2.png","68","prac","","","11","","","","","","","","","","","","","","","","",""
"551.7000000476837","248759","SARL_v6","SARL_v6md393deo","63251e479509813fab713ad2","infreqPrac_resp","","","img/blue_2bandit_b.png","68","img/orange_2bandit_b.png","68","prac","","","11","","","","","","","","","","","","","","","","",""
"null","248931","SARL_v6","SARL_v6md393deo","63251e479509813fab713ad2","fixation","","","img/fixation.png","null","","","prac","","","","","","","","","","","","","","","","","","","",""
"712","249650","SARL_v6","SARL_v6md393deo","63251e479509813fab713ad2","mixRLPractice","","","img/black_2bandit_b2.png","75","img/black_2bandit_b2.png","","prac","","","11","","","","","","","","","","","","","","","","",""
"null","250419","SARL_v6","SARL_v6md393deo","63251e479509813fab713ad2","feedback","","","<div class=""verylowPoints_sq""> -5 </div>","null","","na","prac","","","12","5","-5","5","","","","","","","","","","","","","",""
"null","250589","SARL_v6","SARL_v6md393deo","63251e479509813fab713ad2","fixation","","","img/fixation.png","null","","","prac","","","","","","","","","","","","","","","","","","","",""
"26469.200000047684","277063","SARL_v6","SARL_v6md393deo","63251e479509813fab713ad2","","","","","","","","prac","","","","","","","","","","","","","","","","","","","",""
"617.3000001907349","277687","SARL_v6","SARL_v6md393deo","63251e479509813fab713ad2","freq","","","img/orange_2bandit_b2.png","70","","70","test","1","","1","","","","circle","square","1","1","1","1","","","","","","","",""
"null","277879","SARL_v6","SARL_v6md393deo","63251e479509813fab713ad2","freq_resp","","","img/orange_2bandit_b.png","70","img/orange_2bandit_b.png","70","test","","","","","","","","","","","1","","","","","","","","",""
"null","278039","SARL_v6","SARL_v6md393deo","63251e479509813fab713ad2","fixation","","","img/fixation.png","null","","","test","","","","","","","","","","","","","","","","","","","",""
"481.19999980926514","278527","SARL_v6","SARL_v6md393deo","63251e479509813fab713ad2","freq","","","img/orange_2bandit_b2.png","70","","70","test","1","","2","","","","circle","square","2","2","1","1","","","","","","","",""
"null","278859","SARL_v6","SARL_v6md393deo","63251e479509813fab713ad2","freq_resp","","","img/orange_2bandit_b.png","70","img/orange_2bandit_b.png","70","test","","","","","","","","","","","1","","","","","","","","",""
"null","279019","SARL_v6","SARL_v6md393deo","63251e479509813fab713ad2","fixation","","","img/fixation.png","null","","","test","","","","","","","","","","","","","","","","","","","",""
"406.59999990463257","279432","SARL_v6","SARL_v6md393deo","63251e479509813fab713ad2","freq","","","img/orange_2bandit_b2.png","70","","70","test","1","","3","","","","circle","square","3","3","1","1","","","","","","","",""
"null","279839","SARL_v6","SARL_v6md393deo","63251e479509813fab713ad2","freq_resp","","","img/orange_2bandit_b.png","70","img/orange_2bandit_b.png","70","test","","","","","","","","","","","1","","","","","","","","",""
"null","280009","SARL_v6","SARL_v6md393deo","63251e479509813fab713ad2","fixation","","","img/fixation.png","null","","","test","","","","","","","","","","","","","","","","","","","",""
"369.10000014305115","280385","SARL_v6","SARL_v6md393deo","63251e479509813fab713ad2","freq","","","img/orange_2bandit_b2.png","70","","70","test","1","","4","","","","circle","square","4","4","1","1","","","","","","","",""
"null","280839","SARL_v6","SARL_v6md393deo","63251e479509813fab713ad2","freq_resp","","","img/orange_2bandit_b.png","70","img/orange_2bandit_b.png","70","test","","","","","","","","","","","1","","","","","","","","",""
"null","281009","SARL_v6","SARL_v6md393deo","63251e479509813fab713ad2","fixation","","","img/fixation.png","null","","","test","","","","","","","","","","","","","","","","","","","",""
"352","281366","SARL_v6","SARL_v6md393deo","63251e479509813fab713ad2","freq","","","img/orange_2bandit_b2.png","70","","70","test","1","","5","","","","circle","square","5","5","1","1","","","","","","","",""
"null","281839","SARL_v6","SARL_v6md393deo","63251e479509813fab713ad2","freq_resp","","","img/orange_2bandit_b.png","70","img/orange_2bandit_b.png","70","test","","","","","","","","","","","1","","","","","","","","",""
"null","282004","SARL_v6","SARL_v6md393deo","63251e479509813fab713ad2","fixation","","","img/fixation.png","null","","","test","","","","","","","","","","","","","","","","","","","",""
"412.7000000476837","282422","SARL_v6","SARL_v6md393deo","63251e479509813fab713ad2","freq","","","img/orange_2bandit_b2.png","70","","70","test","1","","6","","","","circle","square","6","6","1","1","","","","","","","",""
"null","282832","SARL_v6","SARL_v6md393deo","63251e479509813fab713ad2","freq_resp","","","img/orange_2bandit_b.png","70","img/orange_2bandit_b.png","70","test","","","","","","","","","","","1","","","","","","","","",""
"null","283009","SARL_v6","SARL_v6md393deo","63251e479509813fab713ad2","fixation","","","img/fixation.png","null","","","test","","","","","","","","","","","","","","","","","","","",""
"392","283408","SARL_v6","SARL_v6md393deo","63251e479509813fab713ad2","freq","","","img/orange_2bandit_b2.png","70","","70","test","1","","7","","","","circle","square","7","7","1","1","","","","","","","",""
"null","283838","SARL_v6","SARL_v6md393deo","63251e479509813fab713ad2","freq_resp","","","img/orange_2bandit_b.png","70","img/orange_2bandit_b.png","70","test","","","","","","","","","","","1","","","","","","","","",""
"null","284010","SARL_v6","SARL_v6md393deo","63251e479509813fab713ad2","fixation","","","img/fixation.png","null","","","test","","","","","","","","","","","","","","","","","","","",""
"424.30000019073486","284440","SARL_v6","SARL_v6md393deo","63251e479509813fab713ad2","freq","","","img/orange_2bandit_b2.png","70","","70","test","1","","8","","","","circle","square","8","8","1","1","","","","","","","",""
"null","284824","SARL_v6","SARL_v6md393deo","63251e479509813fab713ad2","freq_resp","","","img/orange_2bandit_b.png","70","img/orange_2bandit_b.png","70","test","","","","","","","","","","","1","","","","","","","","",""
"null","284991","SARL_v6","SARL_v6md393deo","63251e479509813fab713ad2","fixation","","","img/fixation.png","null","","","test","","","","","","","","","","","","","","","","","","","",""
"393.09999990463257","285391","SARL_v6","SARL_v6md393deo","63251e479509813fab713ad2","freq","","","img/orange_2bandit_b2.png","70","","70","test","1","","9","","","","circle","square","9","9","1","1","","","","","","","",""
"null","285818","SARL_v6","SARL_v6md393deo","63251e479509813fab713ad2","freq_resp","","","img/orange_2bandit_b.png","70","img/orange_2bandit_b.png","70","test","","","","","","","","","","","1","","","","","","","","",""
"null","285986","SARL_v6","SARL_v6md393deo","63251e479509813fab713ad2","fixation","","","img/fixation.png","null","","","test","","","","","","","","","","","","","","","","","","","",""
"366.69999980926514","286358","SARL_v6","SARL_v6md393deo","63251e479509813fab713ad2","freq","","","img/orange_2bandit_b2.png","70","","70","test","1","","10","","","","circle","square","10","10","1","1","","","","","","","",""
"null","286800","SARL_v6","SARL_v6md393deo","63251e479509813fab713ad2","freq_resp","","","img/orange_2bandit_b.png","70","img/orange_2bandit_b.png","70","test","","","","","","","","","","","1","","","","","","","","",""
"null","286959","SARL_v6","SARL_v6md393deo","63251e479509813fab713ad2","fixation","","","img/fixation.png","null","","","test","","","","","","","","","","","","","","","","","","","",""
"338.90000009536743","287305","SARL_v6","SARL_v6md393deo","63251e479509813fab713ad2","freq","","","img/orange_2bandit_b2.png","70","","70","test","1","","11","","","","circle","square","11","11","1","1","","","","","","","",""
"null","287787","SARL_v6","SARL_v6md393deo","63251e479509813fab713ad2","freq_resp","","","img/orange_2bandit_b.png","70","img/orange_2bandit_b.png","70","test","","","","","","","","","","","1","","","","","","","","",""
"null","287959","SARL_v6","SARL_v6md393deo","63251e479509813fab713ad2","fixation","","","img/fixation.png","null","","","test","","","","","","","","","","","","","","","","","","","",""
"410","288375","SARL_v6","SARL_v6md393deo","63251e479509813fab713ad2","infreq","","","img/blue_2bandit_b2.png","68","","68","test","1","","12","","","","circle","square","12","12","1","1","","","","","","","",""
"null","288780","SARL_v6","SARL_v6md393deo","63251e479509813fab713ad2","infreq_resp","","","img/blue_2bandit_b.png","68","img/blue_2bandit_b.png","68","test","","","","","","","","","","","1","","","","","","","","",""
"null","288939","SARL_v6","SARL_v6md393deo","63251e479509813fab713ad2","fixation","","","img/fixation.png","null","","","test","","","","","","","","","","","","","","","","","","","",""
"446.5","289392","SARL_v6","SARL_v6md393deo","63251e479509813fab713ad2","freq","","","img/orange_2bandit_b2.png","70","","70","test","1","","13","","","","circle","square","13","13","1","1","","","","","","","",""
"null","289761","SARL_v6","SARL_v6md393deo","63251e479509813fab713ad2","freq_resp","","","img/orange_2bandit_b.png","70","img/orange_2bandit_b.png","70","test","","","","","","","","","","","1","","","","","","","","",""
"null","289919","SARL_v6","SARL_v6md393deo","63251e479509813fab713ad2","fixation","","","img/fixation.png","null","","","test","","","","","","","","","","","","","","","","","","","",""
"457.5","290383","SARL_v6","SARL_v6md393deo","63251e479509813fab713ad2","freq","","","img/orange_2bandit_b2.png","70","","70","test","1","","14","","","","circle","square","14","14","1","1","","","","","","","",""
"null","290738","SARL_v6","SARL_v6md393deo","63251e479509813fab713ad2","freq_resp","","","img/orange_2bandit_b.png","70","img/orange_2bandit_b.png","70","test","","","","","","","","","","","1","","","","","","","","",""
"null","290909","SARL_v6","SARL_v6md393deo","63251e479509813fab713ad2","fixation","","","img/fixation.png","null","","","test","","","","","","","","","","","","","","","","","","","",""
"451","291366","SARL_v6","SARL_v6md393deo","63251e479509813fab713ad2","freq","","","img/orange_2bandit_b2.png","70","","70","test","1","","15","","","","circle","square","15","15","1","1","","","","","","","",""
"null","291738","SARL_v6","SARL_v6md393deo","63251e479509813fab713ad2","freq_resp","","","img/orange_2bandit_b.png","70","img/orange_2bandit_b.png","70","test","","","","","","","","","","","1","","","","","","","","",""
"null","291898","SARL_v6","SARL_v6md393deo","63251e479509813fab713ad2","fixation","","","img/fixation.png","null","","","test","","","","","","","","","","","","","","","","","","","",""
"622.2999999523163","292527","SARL_v6","SARL_v6md393deo","63251e479509813fab713ad2","freq","","","img/orange_2bandit_b2.png","70","","70","test","1","","16","","","","circle","square","16","16","1","1","","","","","","","",""
"null","292718","SARL_v6","SARL_v6md393deo","63251e479509813fab713ad2","freq_resp","","","img/orange_2bandit_b.png","70","img/orange_2bandit_b.png","70","test","","","","","","","","","","","1","","","","","","","","",""
"null","292889","SARL_v6","SARL_v6md393deo","63251e479509813fab713ad2","fixation","","","img/fixation.png","null","","","test","","","","","","","","","","","","","","","","","","","",""
"423.7000000476837","293320","SARL_v6","SARL_v6md393deo","63251e479509813fab713ad2","freq","","","img/orange_2bandit_b2.png","70","","70","test","1","","17","","","","circle","square","17","17","1","1","","","","","","","",""
"null","293721","SARL_v6","SARL_v6md393deo","63251e479509813fab713ad2","freq_resp","","","img/orange_2bandit_b.png","70","img/orange_2bandit_b.png","70","test","","","","","","","","","","","1","","","","","","","","",""
"null","293889","SARL_v6","SARL_v6md393deo","63251e479509813fab713ad2","fixation","","","img/fixation.png","null","","","test","","","","","","","","","","","","","","","","","","","",""
"391.5","294287","SARL_v6","SARL_v6md393deo","63251e479509813fab713ad2","freq","","","img/orange_2bandit_b2.png","70","","70","test","1","","18","","","","circle","square","18","18","1","1","","","","","","","",""
"null","294720","SARL_v6","SARL_v6md393deo","63251e479509813fab713ad2","freq_resp","","","img/orange_2bandit_b.png","70","img/orange_2bandit_b.png","70","test","","","","","","","","","","","1","","","","","","","","",""
"null","294890","SARL_v6","SARL_v6md393deo","63251e479509813fab713ad2","fixation","","","img/fixation.png","null","","","test","","","","","","","","","","","","","","","","","","","",""
"415.40000009536743","295312","SARL_v6","SARL_v6md393deo","63251e479509813fab713ad2","freq","","","img/orange_2bandit_b2.png","70","","70","test","1","","19","","","","circle","square","19","19","1","1","","","","","","","",""
"null","295719","SARL_v6","SARL_v6md393deo","63251e479509813fab713ad2","freq_resp","","","img/orange_2bandit_b.png","70","img/orange_2bandit_b.png","70","test","","","","","","","","","","","1","","","","","","","","",""
"null","295889","SARL_v6","SARL_v6md393deo","63251e479509813fab713ad2","fixation","","","img/fixation.png","null","","","test","","","","","","","","","","","","","","","","","","","",""
"352","296248","SARL_v6","SARL_v6md393deo","63251e479509813fab713ad2","freq","","","img/orange_2bandit_b2.png","70","","70","test","1","","20","","","","circle","square","20","20","1","1","","","","","","","",""
"null","296705","SARL_v6","SARL_v6md393deo","63251e479509813fab713ad2","freq_resp","","","img/orange_2bandit_b.png","70","img/orange_2bandit_b.png","70","test","","","","","","","","","","","1","","","","","","","","",""
"null","296870","SARL_v6","SARL_v6md393deo","63251e479509813fab713ad2","fixation","","","img/fixation.png","null","","","test","","","","","","","","","","","","","","","","","","","",""
"357.10000014305115","297233","SARL_v6","SARL_v6md393deo","63251e479509813fab713ad2","freq","","","img/orange_2bandit_b2.png","70","","70","test","1","","21","","","","circle","square","21","21","1","1","","","","","","","",""
"null","297699","SARL_v6","SARL_v6md393deo","63251e479509813fab713ad2","freq_resp","","","img/orange_2bandit_b.png","70","img/orange_2bandit_b.png","70","test","","","","","","","","","","","1","","","","","","","","",""
"null","297870","SARL_v6","SARL_v6md393deo","63251e479509813fab713ad2","fixation","","","img/fixation.png","null","","","test","","","","","","","","","","","","","","","","","","","",""
"546.5999999046326","298423","SARL_v6","SARL_v6md393deo","63251e479509813fab713ad2","infreq","","","img/blue_2bandit_b2.png","68","","68","test","1","","22","","","","circle","square","22","22","1","1","","","","","","","",""
"null","298693","SARL_v6","SARL_v6md393deo","63251e479509813fab713ad2","infreq_resp","","","img/blue_2bandit_b.png","68","img/blue_2bandit_b.png","68","test","","","","","","","","","","","1","","","","","","","","",""
"null","298858","SARL_v6","SARL_v6md393deo","63251e479509813fab713ad2","fixation","","","img/fixation.png","null","","","test","","","","","","","","","","","","","","","","","","","",""
"487.19999980926514","299351","SARL_v6","SARL_v6md393deo","63251e479509813fab713ad2","freq","","","img/orange_2bandit_b2.png","70","","70","test","1","","23","","","","circle","square","23","23","1","1","","","","","","","",""
"null","299680","SARL_v6","SARL_v6md393deo","63251e479509813fab713ad2","freq_resp","","","img/orange_2bandit_b.png","70","img/orange_2bandit_b.png","70","test","","","","","","","","","","","1","","","","","","","","",""
"null","299839","SARL_v6","SARL_v6md393deo","63251e479509813fab713ad2","fixation","","","img/fixation.png","null","","","test","","","","","","","","","","","","","","","","","","","",""
"401.7999999523163","300248","SARL_v6","SARL_v6md393deo","63251e479509813fab713ad2","freq","","","img/orange_2bandit_b2.png","70","","70","test","1","","24","","","","circle","square","24","24","1","1","","","","","","","",""
"null","300658","SARL_v6","SARL_v6md393deo","63251e479509813fab713ad2","freq_resp","","","img/orange_2bandit_b.png","70","img/orange_2bandit_b.png","70","test","","","","","","","","","","","1","","","","","","","","",""
"null","300819","SARL_v6","SARL_v6md393deo","63251e479509813fab713ad2","fixation","","","img/fixation.png","null","","","test","","","","","","","","","","","","","","","","","","","",""
"350","301174","SARL_v6","SARL_v6md393deo","63251e479509813fab713ad2","freq","","","img/orange_2bandit_b2.png","70","","70","test","1","","25","","","","circle","square","25","25","1","1","","","","","","","",""
"null","301654","SARL_v6","SARL_v6md393deo","63251e479509813fab713ad2","freq_resp","","","img/orange_2bandit_b.png","70","img/orange_2bandit_b.png","70","test","","","","","","","","","","","1","","","","","","","","",""
"null","301823","SARL_v6","SARL_v6md393deo","63251e479509813fab713ad2","fixation","","","img/fixation.png","null","","","test","","","","","","","","","","","","","","","","","","","",""
"345.2000000476837","302174","SARL_v6","SARL_v6md393deo","63251e479509813fab713ad2","freq","","","img/orange_2bandit_b2.png","70","","70","test","1","","26","","","","circle","square","26","26","1","1","","","","","","","",""
"null","302642","SARL_v6","SARL_v6md393deo","63251e479509813fab713ad2","freq_resp","","","img/orange_2bandit_b.png","70","img/orange_2bandit_b.png","70","test","","","","","","","","","","","1","","","","","","","","",""
"null","302809","SARL_v6","SARL_v6md393deo","63251e479509813fab713ad2","fixation","","","img/fixation.png","null","","","test","","","","","","","","","","","","","","","","","","","",""
"719.8999998569489","303535","SARL_v6","SARL_v6md393deo","63251e479509813fab713ad2","rl","","","img/black_2bandit_b2.png","74","","0","test","","","27","","","-3","circle","square","","0","1","","74","-3","-3","-3","-3","circle","1","0"
"null","304294","SARL_v6","SARL_v6md393deo","63251e479509813fab713ad2","feedback","","","<div class=""verylowPoints""> -3 </div>","null","","na","test","","","NaN","","","","","","","","1","","74","","","","","","1",""
"null","305120","SARL_v6","SARL_v6md393deo","63251e479509813fab713ad2","freq","","","img/orange_2bandit_b2.png","null","","70","test","0","","28","","","","circle","square","27","1","2","0.9629629629629629","","","","","","","",""
"null","305291","SARL_v6","SARL_v6md393deo","63251e479509813fab713ad2","fixation","","","img/fixation.png","null","","","test","","","","","","","","","","","","","","","","","","","",""
"678.5","305977","SARL_v6","SARL_v6md393deo","63251e479509813fab713ad2","freq","","","img/orange_2bandit_b2.png","70","","70","test","1","","29","","","","circle","square","28","2","2","0.9642857142857143","","","","","","","",""
"null","306120","SARL_v6","SARL_v6md393deo","63251e479509813fab713ad2","freq_resp","","","img/orange_2bandit_b.png","70","img/orange_2bandit_b.png","70","test","","","","","","","","","","","2","","","","","","","","",""
"null","306289","SARL_v6","SARL_v6md393deo","63251e479509813fab713ad2","fixation","","","img/fixation.png","null","","","test","","","","","","","","","","","","","","","","","","","",""
"575.5","306871","SARL_v6","SARL_v6md393deo","63251e479509813fab713ad2","freq","","","img/orange_2bandit_b2.png","70","","70","test","1","","30","","","","circle","square","29","3","2","0.9655172413793104","","","","","","","",""
"null","307119","SARL_v6","SARL_v6md393deo","63251e479509813fab713ad2","freq_resp","","","img/orange_2bandit_b.png","70","img/orange_2bandit_b.png","70","test","","","","","","","","","","","2","","","","","","","","",""
"null","307289","SARL_v6","SARL_v6md393deo","63251e479509813fab713ad2","fixation","","","img/fixation.png","null","","","test","","","","","","","","","","","","","","","","","","","",""
"431.7000000476837","307727","SARL_v6","SARL_v6md393deo","63251e479509813fab713ad2","freq","","","img/orange_2bandit_b2.png","70","","70","test","1","","31","","","","circle","square","30","4","2","0.9666666666666667","","","","","","","",""
"null","308120","SARL_v6","SARL_v6md393deo","63251e479509813fab713ad2","freq_resp","","","img/orange_2bandit_b.png","70","img/orange_2bandit_b.png","70","test","","","","","","","","","","","2","","","","","","","","",""
"null","308289","SARL_v6","SARL_v6md393deo","63251e479509813fab713ad2","fixation","","","img/fixation.png","null","","","test","","","","","","","","","","","","","","","","","","","",""
"608","308904","SARL_v6","SARL_v6md393deo","63251e479509813fab713ad2","freq","","","img/orange_2bandit_b2.png","70","","70","test","1","","32","","","","circle","square","31","5","2","0.967741935483871","","","","","","","",""
"null","309120","SARL_v6","SARL_v6md393deo","63251e479509813fab713ad2","freq_resp","","","img/orange_2bandit_b.png","70","img/orange_2bandit_b.png","70","test","","","","","","","","","","","2","","","","","","","","",""
"null","309289","SARL_v6","SARL_v6md393deo","63251e479509813fab713ad2","fixation","","","img/fixation.png","null","","","test","","","","","","","","","","","","","","","","","","","",""
"536.2000000476837","309831","SARL_v6","SARL_v6md393deo","63251e479509813fab713ad2","freq","","","img/orange_2bandit_b2.png","70","","70","test","1","","33","","","","circle","square","32","6","2","0.96875","","","","","","","",""
"null","310119","SARL_v6","SARL_v6md393deo","63251e479509813fab713ad2","freq_resp","","","img/orange_2bandit_b.png","70","img/orange_2bandit_b.png","70","test","","","","","","","","","","","2","","","","","","","","",""
"null","310289","SARL_v6","SARL_v6md393deo","63251e479509813fab713ad2","fixation","","","img/fixation.png","null","","","test","","","","","","","","","","","","","","","","","","","",""
"367.5","310661","SARL_v6","SARL_v6md393deo","63251e479509813fab713ad2","freq","","","img/orange_2bandit_b2.png","70","","70","test","1","","34","","","","circle","square","33","7","2","0.9696969696969697","","","","","","","",""
"null","311100","SARL_v6","SARL_v6md393deo","63251e479509813fab713ad2","freq_resp","","","img/orange_2bandit_b.png","70","img/orange_2bandit_b.png","70","test","","","","","","","","","","","2","","","","","","","","",""
"null","311259","SARL_v6","SARL_v6md393deo","63251e479509813fab713ad2","fixation","","","img/fixation.png","null","","","test","","","","","","","","","","","","","","","","","","","",""
"550","311815","SARL_v6","SARL_v6md393deo","63251e479509813fab713ad2","infreq","","","img/blue_2bandit_b2.png","68","","68","test","1","","35","","","","circle","square","34","8","2","0.9705882352941176","","","","","","","",""
"null","312090","SARL_v6","SARL_v6md393deo","63251e479509813fab713ad2","infreq_resp","","","img/blue_2bandit_b.png","68","img/blue_2bandit_b.png","68","test","","","","","","","","","","","2","","","","","","","","",""
"null","312249","SARL_v6","SARL_v6md393deo","63251e479509813fab713ad2","fixation","","","img/fixation.png","null","","","test","","","","","","","","","","","","","","","","","","","",""
"576.7999999523163","312832","SARL_v6","SARL_v6md393deo","63251e479509813fab713ad2","freq","","","img/orange_2bandit_b2.png","70","","70","test","1","","36","","","","circle","square","35","9","2","0.9714285714285714","","","","","","","",""
"null","313068","SARL_v6","SARL_v6md393deo","63251e479509813fab713ad2","freq_resp","","","img/orange_2bandit_b.png","70","img/orange_2bandit_b.png","70","test","","","","","","","","","","","2","","","","","","","","",""
"null","313240","SARL_v6","SARL_v6md393deo","63251e479509813fab713ad2","fixation","","","img/fixation.png","null","","","test","","","","","","","","","","","","","","","","","","","",""
"592.7000000476837","313839","SARL_v6","SARL_v6md393deo","63251e479509813fab713ad2","freq","","","img/orange_2bandit_b2.png","70","","70","test","1","","37","","","","circle","square","36","10","2","0.9722222222222222","","","","","","","",""
"null","314069","SARL_v6","SARL_v6md393deo","63251e479509813fab713ad2","freq_resp","","","img/orange_2bandit_b.png","70","img/orange_2bandit_b.png","70","test","","","","","","","","","","","2","","","","","","","","",""
"null","314239","SARL_v6","SARL_v6md393deo","63251e479509813fab713ad2","fixation","","","img/fixation.png","null","","","test","","","","","","","","","","","","","","","","","","","",""
"529.2000000476837","314775","SARL_v6","SARL_v6md393deo","63251e479509813fab713ad2","freq","","","img/orange_2bandit_b2.png","70","","70","test","1","","38","","","","circle","square","37","11","2","0.972972972972973","","","","","","","",""
"null","315059","SARL_v6","SARL_v6md393deo","63251e479509813fab713ad2","freq_resp","","","img/orange_2bandit_b.png","70","img/orange_2bandit_b.png","70","test","","","","","","","","","","","2","","","","","","","","",""
"null","315231","SARL_v6","SARL_v6md393deo","63251e479509813fab713ad2","fixation","","","img/fixation.png","null","","","test","","","","","","","","","","","","","","","","","","","",""
"394.80000019073486","315632","SARL_v6","SARL_v6md393deo","63251e479509813fab713ad2","freq","","","img/orange_2bandit_b2.png","70","","70","test","1","","39","","","","circle","square","38","12","2","0.9736842105263158","","","","","","","",""
"null","316064","SARL_v6","SARL_v6md393deo","63251e479509813fab713ad2","freq_resp","","","img/orange_2bandit_b.png","70","img/orange_2bandit_b.png","70","test","","","","","","","","","","","2","","","","","","","","",""
"null","316239","SARL_v6","SARL_v6md393deo","63251e479509813fab713ad2","fixation","","","img/fixation.png","null","","","test","","","","","","","","","","","","","","","","","","","",""
"360.7000000476837","316605","SARL_v6","SARL_v6md393deo","63251e479509813fab713ad2","freq","","","img/orange_2bandit_b2.png","70","","70","test","1","","40","","","","circle","square","39","13","2","0.9743589743589743","","","","","","","",""
"null","317057","SARL_v6","SARL_v6md393deo","63251e479509813fab713ad2","freq_resp","","","img/orange_2bandit_b.png","70","img/orange_2bandit_b.png","70","test","","","","","","","","","","","2","","","","","","","","",""
"null","317217","SARL_v6","SARL_v6md393deo","63251e479509813fab713ad2","fixation","","","img/fixation.png","null","","","test","","","","","","","","","","","","","","","","","","","",""
"408.40000009536743","317631","SARL_v6","SARL_v6md393deo","63251e479509813fab713ad2","freq","","","img/orange_2bandit_b2.png","70","","70","test","1","","41","","","","circle","square","40","14","2","0.975","","","","","","","",""
"null","318040","SARL_v6","SARL_v6md393deo","63251e479509813fab713ad2","freq_resp","","","img/orange_2bandit_b.png","70","img/orange_2bandit_b.png","70","test","","","","","","","","","","","2","","","","","","","","",""
"null","318204","SARL_v6","SARL_v6md393deo","63251e479509813fab713ad2","fixation","","","img/fixation.png","null","","","test","","","","","","","","","","","","","","","","","","","",""
"523.1999998092651","318732","SARL_v6","SARL_v6md393deo","63251e479509813fab713ad2","infreq","","","img/blue_2bandit_b2.png","68","","68","test","1","","42","","","","circle","square","41","15","2","0.975609756097561","","","","","","","",""
"null","319017","SARL_v6","SARL_v6md393deo","63251e479509813fab713ad2","infreq_resp","","","img/blue_2bandit_b.png","68","img/blue_2bandit_b.png","68","test","","","","","","","","","","","2","","","","","","","","",""
"null","319189","SARL_v6","SARL_v6md393deo","63251e479509813fab713ad2","fixation","","","img/fixation.png","null","","","test","","","","","","","","","","","","","","","","","","","",""
"523.7999999523163","319720","SARL_v6","SARL_v6md393deo","63251e479509813fab713ad2","freq","","","img/orange_2bandit_b2.png","70","","70","test","1","","43","","","","circle","square","42","16","2","0.9761904761904762","","","","","","","",""
"null","320019","SARL_v6","SARL_v6md393deo","63251e479509813fab713ad2","freq_resp","","","img/orange_2bandit_b.png","70","img/orange_2bandit_b.png","70","test","","","","","","","","","","","2","","","","","","","","",""
"null","320179","SARL_v6","SARL_v6md393deo","63251e479509813fab713ad2","fixation","","","img/fixation.png","null","","","test","","","","","","","","","","","","","","","","","","","",""
"422.40000009536743","320607","SARL_v6","SARL_v6md393deo","63251e479509813fab713ad2","freq","","","img/orange_2bandit_b2.png","70","","70","test","1","","44","","","","circle","square","43","17","2","0.9767441860465116","","","","","","","",""
"null","320999","SARL_v6","SARL_v6md393deo","63251e479509813fab713ad2","freq_resp","","","img/orange_2bandit_b.png","70","img/orange_2bandit_b.png","70","test","","","","","","","","","","","2","","","","","","","","",""
"null","321162","SARL_v6","SARL_v6md393deo","63251e479509813fab713ad2","fixation","","","img/fixation.png","null","","","test","","","","","","","","","","","","","","","","","","","",""
"367.2000000476837","321537","SARL_v6","SARL_v6md393deo","63251e479509813fab713ad2","freq","","","img/orange_2bandit_b2.png","70","","70","test","1","","45","","","","circle","square","44","18","2","0.9772727272727273","","","","","","","",""
"null","321980","SARL_v6","SARL_v6md393deo","63251e479509813fab713ad2","freq_resp","","","img/orange_2bandit_b.png","70","img/orange_2bandit_b.png","70","test","","","","","","","","","","","2","","","","","","","","",""
"null","322138","SARL_v6","SARL_v6md393deo","63251e479509813fab713ad2","fixation","","","img/fixation.png","null","","","test","","","","","","","","","","","","","","","","","","","",""
"326.5","322471","SARL_v6","SARL_v6md393deo","63251e479509813fab713ad2","freq","","","img/orange_2bandit_b2.png","70","","70","test","1","","46","","","","circle","square","45","19","2","0.9777777777777777","","","","","","","",""
"null","322960","SARL_v6","SARL_v6md393deo","63251e479509813fab713ad2","freq_resp","","","img/orange_2bandit_b.png","70","img/orange_2bandit_b.png","70","test","","","","","","","","","","","2","","","","","","","","",""
"null","323128","SARL_v6","SARL_v6md393deo","63251e479509813fab713ad2","fixation","","","img/fixation.png","null","","","test","","","","","","","","","","","","","","","","","","","",""
"408.7999999523163","323543","SARL_v6","SARL_v6md393deo","63251e479509813fab713ad2","freq","","","img/orange_2bandit_b2.png","70","","70","test","1","","47","","","","circle","square","46","20","2","0.9782608695652174","","","","","","","",""
"null","323961","SARL_v6","SARL_v6md393deo","63251e479509813fab713ad2","freq_resp","","","img/orange_2bandit_b.png","70","img/orange_2bandit_b.png","70","test","","","","","","","","","","","2","","","","","","","","",""
"null","324120","SARL_v6","SARL_v6md393deo","63251e479509813fab713ad2","fixation","","","img/fixation.png","null","","","test","","","","","","","","","","","","","","","","","","","",""
"425.2000000476837","324551","SARL_v6","SARL_v6md393deo","63251e479509813fab713ad2","freq","","","img/orange_2bandit_b2.png","70","","70","test","1","","48","","","","circle","square","47","21","2","0.9787234042553191","","","","","","","",""
"null","324939","SARL_v6","SARL_v6md393deo","63251e479509813fab713ad2","freq_resp","","","img/orange_2bandit_b.png","70","img/orange_2bandit_b.png","70","test","","","","","","","","","","","2","","","","","","","","",""
"null","325109","SARL_v6","SARL_v6md393deo","63251e479509813fab713ad2","fixation","","","img/fixation.png","null","","","test","","","","","","","","","","","","","","","","","","","",""
"525.1999998092651","325642","SARL_v6","SARL_v6md393deo","63251e479509813fab713ad2","freq","","","img/orange_2bandit_b2.png","70","","70","test","1","","49","","","","circle","square","48","22","2","0.9791666666666666","","","","","","","",""
"null","325924","SARL_v6","SARL_v6md393deo","63251e479509813fab713ad2","freq_resp","","","img/orange_2bandit_b.png","70","img/orange_2bandit_b.png","70","test","","","","","","","","","","","2","","","","","","","","",""
"null","326091","SARL_v6","SARL_v6md393deo","63251e479509813fab713ad2","fixation","","","img/fixation.png","null","","","test","","","","","","","","","","","","","","","","","","","",""
"390.40000009536743","326487","SARL_v6","SARL_v6md393deo","63251e479509813fab713ad2","freq","","","img/orange_2bandit_b2.png","70","","70","test","1","","50","","","","circle","square","49","23","2","0.9795918367346939","","","","","","","",""
"null","326920","SARL_v6","SARL_v6md393deo","63251e479509813fab713ad2","freq_resp","","","img/orange_2bandit_b.png","70","img/orange_2bandit_b.png","70","test","","","","","","","","","","","2","","","","","","","","",""
"null","327077","SARL_v6","SARL_v6md393deo","63251e479509813fab713ad2","fixation","","","img/fixation.png","null","","","test","","","","","","","","","","","","","","","","","","","",""
"395.40000009536743","327476","SARL_v6","SARL_v6md393deo","63251e479509813fab713ad2","freq","","","img/orange_2bandit_b2.png","70","","70","test","1","","51","","","","circle","square","50","24","2","0.98","","","","","","","",""
"null","327898","SARL_v6","SARL_v6md393deo","63251e479509813fab713ad2","freq_resp","","","img/orange_2bandit_b.png","70","img/orange_2bandit_b.png","70","test","","","","","","","","","","","2","","","","","","","","",""
"null","328059","SARL_v6","SARL_v6md393deo","63251e479509813fab713ad2","fixation","","","img/fixation.png","null","","","test","","","","","","","","","","","","","","","","","","","",""
"790.8999998569489","328855","SARL_v6","SARL_v6md393deo","63251e479509813fab713ad2","rl","","","img/black_2bandit_b2.png","74","","0","test","","","52","","","-8","circle","square","","0","2","","74","-8","-5","-8","-5","circle","2","0"
"null","329619","SARL_v6","SARL_v6md393deo","63251e479509813fab713ad2","feedback","","","<div class=""verylowPoints""> -8 </div>","null","","na","test","","","NaN","","","","","","","","2","","74","","","","","","2",""
"693.9000000953674","330320","SARL_v6","SARL_v6md393deo","63251e479509813fab713ad2","freq","","","img/orange_2bandit_b2.png","70","","70","test","1","","53","","","","circle","square","51","1","3","0.9803921568627451","","","","","","","",""
"null","330439","SARL_v6","SARL_v6md393deo","63251e479509813fab713ad2","freq_resp","","","img/orange_2bandit_b.png","70","img/orange_2bandit_b.png","70","test","","","","","","","","","","","3","","","","","","","","",""
"null","330608","SARL_v6","SARL_v6md393deo","63251e479509813fab713ad2","fixation","","","img/fixation.png","null","","","test","","","","","","","","","","","","","","","","","","","",""
"536.8999998569489","331149","SARL_v6","SARL_v6md393deo","63251e479509813fab713ad2","freq","","","img/orange_2bandit_b2.png","70","","70","test","1","","54","","","","circle","square","52","2","3","0.9807692307692307","","","","","","","",""
"null","331422","SARL_v6","SARL_v6md393deo","63251e479509813fab713ad2","freq_resp","","","img/orange_2bandit_b.png","70","img/orange_2bandit_b.png","70","test","","","","","","","","","","","3","","","","","","","","",""
"null","331582","SARL_v6","SARL_v6md393deo","63251e479509813fab713ad2","fixation","","","img/fixation.png","null","","","test","","","","","","","","","","","","","","","","","","","",""
"578.7999999523163","332164","SARL_v6","SARL_v6md393deo","63251e479509813fab713ad2","freq","","","img/orange_2bandit_b2.png","70","","70","test","1","","55","","","","circle","square","53","3","3","0.9811320754716981","","","","","","","",""
"null","332397","SARL_v6","SARL_v6md393deo","63251e479509813fab713ad2","freq_resp","","","img/orange_2bandit_b.png","70","img/orange_2bandit_b.png","70","test","","","","","","","","","","","3","","","","","","","","",""
"null","332557","SARL_v6","SARL_v6md393deo","63251e479509813fab713ad2","fixation","","","img/fixation.png","null","","","test","","","","","","","","","","","","","","","","","","","",""
"740.2000000476837","333301","SARL_v6","SARL_v6md393deo","63251e479509813fab713ad2","freq","","","img/orange_2bandit_b2.png","70","","70","test","1","","56","","","","circle","square","54","4","3","0.9814814814814815","","","","","","","",""
"null","333368","SARL_v6","SARL_v6md393deo","63251e479509813fab713ad2","freq_resp","","","img/orange_2bandit_b.png","70","img/orange_2bandit_b.png","70","test","","","","","","","","","","","3","","","","","","","","",""
"null","333532","SARL_v6","SARL_v6md393deo","63251e479509813fab713ad2","fixation","","","img/fixation.png","null","","","test","","","","","","","","","","","","","","","","","","","",""
"398","333938","SARL_v6","SARL_v6md393deo","63251e479509813fab713ad2","freq","","","img/orange_2bandit_b2.png","70","","70","test","1","","57","","","","circle","square","55","5","3","0.9818181818181818","","","","","","","",""
"null","334349","SARL_v6","SARL_v6md393deo","63251e479509813fab713ad2","freq_resp","","","img/orange_2bandit_b.png","70","img/orange_2bandit_b.png","70","test","","","","","","","","","","","3","","","","","","","","",""
"null","334508","SARL_v6","SARL_v6md393deo","63251e479509813fab713ad2","fixation","","","img/fixation.png","null","","","test","","","","","","","","","","","","","","","","","","","",""
"367.30000019073486","334881","SARL_v6","SARL_v6md393deo","63251e479509813fab713ad2","freq","","","img/orange_2bandit_b2.png","70","","70","test","1","","58","","","","circle","square","56","6","3","0.9821428571428571","","","","","","","",""
"null","335339","SARL_v6","SARL_v6md393deo","63251e479509813fab713ad2","freq_resp","","","img/orange_2bandit_b.png","70","img/orange_2bandit_b.png","70","test","","","","","","","","","","","3","","","","","","","","",""
"null","335499","SARL_v6","SARL_v6md393deo","63251e479509813fab713ad2","fixation","","","img/fixation.png","null","","","test","","","","","","","","","","","","","","","","","","","",""
"316.89999985694885","335822","SARL_v6","SARL_v6md393deo","63251e479509813fab713ad2","freq","","","img/orange_2bandit_b2.png","70","","70","test","1","","59","","","","circle","square","57","7","3","0.9824561403508771","","","","","","","",""
"null","336332","SARL_v6","SARL_v6md393deo","63251e479509813fab713ad2","freq_resp","","","img/orange_2bandit_b.png","70","img/orange_2bandit_b.png","70","test","","","","","","","","","","","3","","","","","","","","",""
"null","336505","SARL_v6","SARL_v6md393deo","63251e479509813fab713ad2","fixation","","","img/fixation.png","null","","","test","","","","","","","","","","","","","","","","","","","",""
"622.7999999523163","337132","SARL_v6","SARL_v6md393deo","63251e479509813fab713ad2","infreq","","","img/blue_2bandit_b2.png","68","","68","test","1","","60","","","","circle","square","58","8","3","0.9827586206896551","","","","","","","",""
"null","337329","SARL_v6","SARL_v6md393deo","63251e479509813fab713ad2","infreq_resp","","","img/blue_2bandit_b.png","68","img/blue_2bandit_b.png","68","test","","","","","","","","","","","3","","","","","","","","",""
"null","337504","SARL_v6","SARL_v6md393deo","63251e479509813fab713ad2","fixation","","","img/fixation.png","null","","","test","","","","","","","","","","","","","","","","","","","",""
"417","337927","SARL_v6","SARL_v6md393deo","63251e479509813fab713ad2","infreq","","","img/blue_2bandit_b2.png","68","","68","test","1","","61","","","","circle","square","59","9","3","0.9830508474576272","","","","","","","",""
"null","338320","SARL_v6","SARL_v6md393deo","63251e479509813fab713ad2","infreq_resp","","","img/blue_2bandit_b.png","68","img/blue_2bandit_b.png","68","test","","","","","","","","","","","3","","","","","","","","",""
"null","338489","SARL_v6","SARL_v6md393deo","63251e479509813fab713ad2","fixation","","","img/fixation.png","null","","","test","","","","","","","","","","","","","","","","","","","",""
"504.59999990463257","339000","SARL_v6","SARL_v6md393deo","63251e479509813fab713ad2","freq","","","img/orange_2bandit_b2.png","70","","70","test","1","","62","","","","circle","square","60","10","3","0.9833333333333333","","","","","","","",""
"null","339320","SARL_v6","SARL_v6md393deo","63251e479509813fab713ad2","freq_resp","","","img/orange_2bandit_b.png","70","img/orange_2bandit_b.png","70","test","","","","","","","","","","","3","","","","","","","","",""
"null","339490","SARL_v6","SARL_v6md393deo","63251e479509813fab713ad2","fixation","","","img/fixation.png","null","","","test","","","","","","","","","","","","","","","","","","","",""
"719.8999998569489","340216","SARL_v6","SARL_v6md393deo","63251e479509813fab713ad2","freq","","","img/orange_2bandit_b2.png","70","","70","test","1","","63","","","","circle","square","61","11","3","0.9836065573770492","","","","","","","",""
"null","340309","SARL_v6","SARL_v6md393deo","63251e479509813fab713ad2","freq_resp","","","img/orange_2bandit_b.png","70","img/orange_2bandit_b.png","70","test","","","","","","","","","","","3","","","","","","","","",""
"null","340479","SARL_v6","SARL_v6md393deo","63251e479509813fab713ad2","fixation","","","img/fixation.png","null","","","test","","","","","","","","","","","","","","","","","","","",""
"458.2000000476837","340943","SARL_v6","SARL_v6md393deo","63251e479509813fab713ad2","freq","","","img/orange_2bandit_b2.png","70","","70","test","1","","64","","","","circle","square","62","12","3","0.9838709677419355","","","","","","","",""
"null","341304","SARL_v6","SARL_v6md393deo","63251e479509813fab713ad2","freq_resp","","","img/orange_2bandit_b.png","70","img/orange_2bandit_b.png","70","test","","","","","","","","","","","3","","","","","","","","",""
"null","341470","SARL_v6","SARL_v6md393deo","63251e479509813fab713ad2","fixation","","","img/fixation.png","null","","","test","","","","","","","","","","","","","","","","","","","",""
"442.7000000476837","341920","SARL_v6","SARL_v6md393deo","63251e479509813fab713ad2","freq","","","img/orange_2bandit_b2.png","70","","70","test","1","","65","","","","circle","square","63","13","3","0.9841269841269841","","","","","","","",""
"null","342295","SARL_v6","SARL_v6md393deo","63251e479509813fab713ad2","freq_resp","","","img/orange_2bandit_b.png","70","img/orange_2bandit_b.png","70","test","","","","","","","","","","","3","","","","","","","","",""
"null","342459","SARL_v6","SARL_v6md393deo","63251e479509813fab713ad2","fixation","","","img/fixation.png","null","","","test","","","","","","","","","","","","","","","","","","","",""
"372.5","342836","SARL_v6","SARL_v6md393deo","63251e479509813fab713ad2","freq","","","img/orange_2bandit_b2.png","70","","70","test","1","","66","","","","circle","square","64","14","3","0.984375","","","","","","","",""
"null","343269","SARL_v6","SARL_v6md393deo","63251e479509813fab713ad2","freq_resp","","","img/orange_2bandit_b.png","70","img/orange_2bandit_b.png","70","test","","","","","","","","","","","3","","","","","","","","",""
"null","343439","SARL_v6","SARL_v6md393deo","63251e479509813fab713ad2","fixation","","","img/fixation.png","null","","","test","","","","","","","","","","","","","","","","","","","",""
"346.10000014305115","343792","SARL_v6","SARL_v6md393deo","63251e479509813fab713ad2","freq","","","img/orange_2bandit_b2.png","70","","70","test","1","","67","","","","circle","square","65","15","3","0.9846153846153847","","","","","","","",""
"null","344259","SARL_v6","SARL_v6md393deo","63251e479509813fab713ad2","freq_resp","","","img/orange_2bandit_b.png","70","img/orange_2bandit_b.png","70","test","","","","","","","","","","","3","","","","","","","","",""
"null","344429","SARL_v6","SARL_v6md393deo","63251e479509813fab713ad2","fixation","","","img/fixation.png","null","","","test","","","","","","","","","","","","","","","","","","","",""
"324.60000014305115","344759","SARL_v6","SARL_v6md393deo","63251e479509813fab713ad2","freq","","","img/orange_2bandit_b2.png","70","","70","test","1","","68","","","","circle","square","66","16","3","0.9848484848484849","","","","","","","",""
"null","345253","SARL_v6","SARL_v6md393deo","63251e479509813fab713ad2","freq_resp","","","img/orange_2bandit_b.png","70","img/orange_2bandit_b.png","70","test","","","","","","","","","","","3","","","","","","","","",""
"null","345419","SARL_v6","SARL_v6md393deo","63251e479509813fab713ad2","fixation","","","img/fixation.png","null","","","test","","","","","","","","","","","","","","","","","","","",""
"349.7000000476837","345775","SARL_v6","SARL_v6md393deo","63251e479509813fab713ad2","freq","","","img/orange_2bandit_b2.png","70","","70","test","1","","69","","","","circle","square","67","17","3","0.9850746268656716","","","","","","","",""
"null","346240","SARL_v6","SARL_v6md393deo","63251e479509813fab713ad2","freq_resp","","","img/orange_2bandit_b.png","70","img/orange_2bandit_b.png","70","test","","","","","","","","","","","3","","","","","","","","",""
"null","346399","SARL_v6","SARL_v6md393deo","63251e479509813fab713ad2","fixation","","","img/fixation.png","null","","","test","","","","","","","","","","","","","","","","","","","",""
"297.2999999523163","346703","SARL_v6","SARL_v6md393deo","63251e479509813fab713ad2","freq","","","img/orange_2bandit_b2.png","70","","70","test","1","","70","","","","circle","square","68","18","3","0.9852941176470589","","","","","","","",""
"null","347220","SARL_v6","SARL_v6md393deo","63251e479509813fab713ad2","freq_resp","","","img/orange_2bandit_b.png","70","img/orange_2bandit_b.png","70","test","","","","","","","","","","","3","","","","","","","","",""
"null","347382","SARL_v6","SARL_v6md393deo","63251e479509813fab713ad2","fixation","","","img/fixation.png","null","","","test","","","","","","","","","","","","","","","","","","","",""
"362.5","347751","SARL_v6","SARL_v6md393deo","63251e479509813fab713ad2","freq","","","img/orange_2bandit_b2.png","70","","70","test","1","","71","","","","circle","square","69","19","3","0.9855072463768116","","","","","","","",""
"null","348203","SARL_v6","SARL_v6md393deo","63251e479509813fab713ad2","freq_resp","","","img/orange_2bandit_b.png","70","img/orange_2bandit_b.png","70","test","","","","","","","","","","","3","","","","","","","","",""
"null","348368","SARL_v6","SARL_v6md393deo","63251e479509813fab713ad2","fixation","","","img/fixation.png","null","","","test","","","","","","","","","","","","","","","","","","","",""
"327.89999985694885","348700","SARL_v6","SARL_v6md393deo","63251e479509813fab713ad2","freq","","","img/orange_2bandit_b2.png","70","","70","test","1","","72","","","","circle","square","70","20","3","0.9857142857142858","","","","","","","",""
"null","349179","SARL_v6","SARL_v6md393deo","63251e479509813fab713ad2","freq_resp","","","img/orange_2bandit_b.png","70","img/orange_2bandit_b.png","70","test","","","","","","","","","","","3","","","","","","","","",""
"null","349337","SARL_v6","SARL_v6md393deo","63251e479509813fab713ad2","fixation","","","img/fixation.png","null","","","test","","","","","","","","","","","","","","","","","","","",""
"294.90000009536743","349636","SARL_v6","SARL_v6md393deo","63251e479509813fab713ad2","freq","","","img/orange_2bandit_b2.png","70","","70","test","1","","73","","","","circle","square","71","21","3","0.9859154929577465","","","","","","","",""
"null","350148","SARL_v6","SARL_v6md393deo","63251e479509813fab713ad2","freq_resp","","","img/orange_2bandit_b.png","70","img/orange_2bandit_b.png","70","test","","","","","","","","","","","3","","","","","","","","",""
"null","350319","SARL_v6","SARL_v6md393deo","63251e479509813fab713ad2","fixation","","","img/fixation.png","null","","","test","","","","","","","","","","","","","","","","","","","",""
"458.2999999523163","350783","SARL_v6","SARL_v6md393deo","63251e479509813fab713ad2","freq","","","img/orange_2bandit_b2.png","70","","70","test","1","","74","","","","circle","square","72","22","3","0.9861111111111112","","","","","","","",""
"null","351139","SARL_v6","SARL_v6md393deo","63251e479509813fab713ad2","freq_resp","","","img/orange_2bandit_b.png","70","img/orange_2bandit_b.png","70","test","","","","","","","","","","","3","","","","","","","","",""
"null","351304","SARL_v6","SARL_v6md393deo","63251e479509813fab713ad2","fixation","","","img/fixation.png","null","","","test","","","","","","","","","","","","","","","","","","","",""
"608.8999998569489","351921","SARL_v6","SARL_v6md393deo","63251e479509813fab713ad2","rl","","","img/black_2bandit_b2.png","75","","0","test","","","75","","","-4","circle","square","","0","3","","75","-8","-4","-8","-4","square","3","0"
"null","352690","SARL_v6","SARL_v6md393deo","63251e479509813fab713ad2","feedback","","","<div class=""verylowPoints_sq""> -4 </div>","null","","na","test","","","NaN","","","","","","","","3","","75","","","","","","3",""
"446.5","353144","SARL_v6","SARL_v6md393deo","63251e479509813fab713ad2","freq","","","img/orange_2bandit_b2.png","70","","70","test","1","","76","","","","circle","square","73","1","4","0.9863013698630136","","","","","","","",""
"null","353509","SARL_v6","SARL_v6md393deo","63251e479509813fab713ad2","freq_resp","","","img/orange_2bandit_b.png","70","img/orange_2bandit_b.png","70","test","","","","","","","","","","","4","","","","","","","","",""
"null","353671","SARL_v6","SARL_v6md393deo","63251e479509813fab713ad2","fixation","","","img/fixation.png","null","","","test","","","","","","","","","","","","","","","","","","","",""
"434.2000000476837","354110","SARL_v6","SARL_v6md393deo","63251e479509813fab713ad2","freq","","","img/orange_2bandit_b2.png","70","","70","test","1","","77","","","","circle","square","74","2","4","0.9864864864864865","","","","","","","",""
"null","354501","SARL_v6","SARL_v6md393deo","63251e479509813fab713ad2","freq_resp","","","img/orange_2bandit_b.png","70","img/orange_2bandit_b.png","70","test","","","","","","","","","","","4","","","","","","","","",""
"null","354659","SARL_v6","SARL_v6md393deo","63251e479509813fab713ad2","fixation","","","img/fixation.png","null","","","test","","","","","","","","","","","","","","","","","","","",""
"350.7999999523163","355016","SARL_v6","SARL_v6md393deo","63251e479509813fab713ad2","freq","","","img/orange_2bandit_b2.png","70","","70","test","1","","78","","","","circle","square","75","3","4","0.9866666666666667","","","","","","","",""
"null","355479","SARL_v6","SARL_v6md393deo","63251e479509813fab713ad2","freq_resp","","","img/orange_2bandit_b.png","70","img/orange_2bandit_b.png","70","test","","","","","","","","","","","4","","","","","","","","",""
"null","355638","SARL_v6","SARL_v6md393deo","63251e479509813fab713ad2","fixation","","","img/fixation.png","null","","","test","","","","","","","","","","","","","","","","","","","",""
"394","356038","SARL_v6","SARL_v6md393deo","63251e479509813fab713ad2","freq","","","img/orange_2bandit_b2.png","70","","70","test","1","","79","","","","circle","square","76","4","4","0.9868421052631579","","","","","","","",""
"null","356460","SARL_v6","SARL_v6md393deo","63251e479509813fab713ad2","freq_resp","","","img/orange_2bandit_b.png","70","img/orange_2bandit_b.png","70","test","","","","","","","","","","","4","","","","","","","","",""
"null","356621","SARL_v6","SARL_v6md393deo","63251e479509813fab713ad2","fixation","","","img/fixation.png","null","","","test","","","","","","","","","","","","","","","","","","","",""
"300.09999990463257","356926","SARL_v6","SARL_v6md393deo","63251e479509813fab713ad2","freq","","","img/orange_2bandit_b2.png","70","","70","test","1","","80","","","","circle","square","77","5","4","0.987012987012987","","","","","","","",""
"null","357440","SARL_v6","SARL_v6md393deo","63251e479509813fab713ad2","freq_resp","","","img/orange_2bandit_b.png","70","img/orange_2bandit_b.png","70","test","","","","","","","","","","","4","","","","","","","","",""
"null","357604","SARL_v6","SARL_v6md393deo","63251e479509813fab713ad2","fixation","","","img/fixation.png","null","","","test","","","","","","","","","","","","","","","","","","","",""
"748.2000000476837","358359","SARL_v6","SARL_v6md393deo","63251e479509813fab713ad2","infreq","","","img/blue_2bandit_b2.png","68","","68","test","1","","81","","","","circle","square","78","6","4","0.9871794871794872","","","","","","","",""
"null","358429","SARL_v6","SARL_v6md393deo","63251e479509813fab713ad2","infreq_resp","","","img/blue_2bandit_b.png","68","img/blue_2bandit_b.png","68","test","","","","","","","","","","","4","","","","","","","","",""
"null","358589","SARL_v6","SARL_v6md393deo","63251e479509813fab713ad2","fixation","","","img/fixation.png","null","","","test","","","","","","","","","","","","","","","","","","","",""
"500.10000014305115","359095","SARL_v6","SARL_v6md393deo","63251e479509813fab713ad2","freq","","","img/orange_2bandit_b2.png","70","","70","test","1","","82","","","","circle","square","79","7","4","0.9873417721518988","","","","","","","",""
"null","359419","SARL_v6","SARL_v6md393deo","63251e479509813fab713ad2","freq_resp","","","img/orange_2bandit_b.png","70","img/orange_2bandit_b.png","70","test","","","","","","","","","","","4","","","","","","","","",""
"null","359589","SARL_v6","SARL_v6md393deo","63251e479509813fab713ad2","fixation","","","img/fixation.png","null","","","test","","","","","","","","","","","","","","","","","","","",""
"387.90000009536743","359984","SARL_v6","SARL_v6md393deo","63251e479509813fab713ad2","freq","","","img/orange_2bandit_b2.png","70","","70","test","1","","83","","","","circle","square","80","8","4","0.9875","","","","","","","",""
"null","360409","SARL_v6","SARL_v6md393deo","63251e479509813fab713ad2","freq_resp","","","img/orange_2bandit_b.png","70","img/orange_2bandit_b.png","70","test","","","","","","","","","","","4","","","","","","","","",""
"null","360578","SARL_v6","SARL_v6md393deo","63251e479509813fab713ad2","fixation","","","img/fixation.png","null","","","test","","","","","","","","","","","","","","","","","","","",""
"373.7000000476837","360958","SARL_v6","SARL_v6md393deo","63251e479509813fab713ad2","freq","","","img/orange_2bandit_b2.png","70","","70","test","1","","84","","","","circle","square","81","9","4","0.9876543209876543","","","","","","","",""
"null","361408","SARL_v6","SARL_v6md393deo","63251e479509813fab713ad2","freq_resp","","","img/orange_2bandit_b.png","70","img/orange_2bandit_b.png","70","test","","","","","","","","","","","4","","","","","","","","",""
"null","361579","SARL_v6","SARL_v6md393deo","63251e479509813fab713ad2","fixation","","","img/fixation.png","null","","","test","","","","","","","","","","","","","","","","","","","",""
"349.2999999523163","361936","SARL_v6","SARL_v6md393deo","63251e479509813fab713ad2","freq","","","img/orange_2bandit_b2.png","70","","70","test","1","","85","","","","circle","square","82","10","4","0.9878048780487805","","","","","","","",""
"null","362409","SARL_v6","SARL_v6md393deo","63251e479509813fab713ad2","freq_resp","","","img/orange_2bandit_b.png","70","img/orange_2bandit_b.png","70","test","","","","","","","","","","","4","","","","","","","","",""
"null","362578","SARL_v6","SARL_v6md393deo","63251e479509813fab713ad2","fixation","","","img/fixation.png","null","","","test","","","","","","","","","","","","","","","","","","","",""
"335.39999985694885","362920","SARL_v6","SARL_v6md393deo","63251e479509813fab713ad2","freq","","","img/orange_2bandit_b2.png","70","","70","test","1","","86","","","","circle","square","83","11","4","0.9879518072289156","","","","","","","",""
"null","363398","SARL_v6","SARL_v6md393deo","63251e479509813fab713ad2","freq_resp","","","img/orange_2bandit_b.png","70","img/orange_2bandit_b.png","70","test","","","","","","","","","","","4","","","","","","","","",""
"null","363558","SARL_v6","SARL_v6md393deo","63251e479509813fab713ad2","fixation","","","img/fixation.png","null","","","test","","","","","","","","","","","","","","","","","","","",""
"330.90000009536743","363894","SARL_v6","SARL_v6md393deo","63251e479509813fab713ad2","freq","","","img/orange_2bandit_b2.png","70","","70","test","1","","87","","","","circle","square","84","12","4","0.9880952380952381","","","","","","","",""
"null","364379","SARL_v6","SARL_v6md393deo","63251e479509813fab713ad2","freq_resp","","","img/orange_2bandit_b.png","70","img/orange_2bandit_b.png","70","test","","","","","","","","","","","4","","","","","","","","",""
"null","364538","SARL_v6","SARL_v6md393deo","63251e479509813fab713ad2","fixation","","","img/fixation.png","null","","","test","","","","","","","","","","","","","","","","","","","",""
"494","365039","SARL_v6","SARL_v6md393deo","63251e479509813fab713ad2","infreq","","","img/blue_2bandit_b2.png","68","","68","test","1","","88","","","","circle","square","85","13","4","0.9882352941176471","","","","","","","",""
"null","365358","SARL_v6","SARL_v6md393deo","63251e479509813fab713ad2","infreq_resp","","","img/blue_2bandit_b.png","68","img/blue_2bandit_b.png","68","test","","","","","","","","","","","4","","","","","","","","",""
"null","365530","SARL_v6","SARL_v6md393deo","63251e479509813fab713ad2","fixation","","","img/fixation.png","null","","","test","","","","","","","","","","","","","","","","","","","",""
"542.8999998569489","366079","SARL_v6","SARL_v6md393deo","63251e479509813fab713ad2","freq","","","img/orange_2bandit_b2.png","70","","70","test","1","","89","","","","circle","square","86","14","4","0.9883720930232558","","","","","","","",""
"null","366359","SARL_v6","SARL_v6md393deo","63251e479509813fab713ad2","freq_resp","","","img/orange_2bandit_b.png","70","img/orange_2bandit_b.png","70","test","","","","","","","","","","","4","","","","","","","","",""
"null","366528","SARL_v6","SARL_v6md393deo","63251e479509813fab713ad2","fixation","","","img/fixation.png","null","","","test","","","","","","","","","","","","","","","","","","","",""
"376.30000019073486","366910","SARL_v6","SARL_v6md393deo","63251e479509813fab713ad2","freq","","","img/orange_2bandit_b2.png","70","","70","test","1","","90","","","","circle","square","87","15","4","0.9885057471264368","","","","","","","",""
"null","367359","SARL_v6","SARL_v6md393deo","63251e479509813fab713ad2","freq_resp","","","img/orange_2bandit_b.png","70","img/orange_2bandit_b.png","70","test","","","","","","","","","","","4","","","","","","","","",""
"null","367530","SARL_v6","SARL_v6md393deo","63251e479509813fab713ad2","fixation","","","img/fixation.png","null","","","test","","","","","","","","","","","","","","","","","","","",""
"334","367870","SARL_v6","SARL_v6md393deo","63251e479509813fab713ad2","freq","","","img/orange_2bandit_b2.png","70","","70","test","1","","91","","","","circle","square","88","16","4","0.9886363636363636","","","","","","","",""
"null","368361","SARL_v6","SARL_v6md393deo","63251e479509813fab713ad2","freq_resp","","","img/orange_2bandit_b.png","70","img/orange_2bandit_b.png","70","test","","","","","","","","","","","4","","","","","","","","",""
"null","368529","SARL_v6","SARL_v6md393deo","63251e479509813fab713ad2","fixation","","","img/fixation.png","null","","","test","","","","","","","","","","","","","","","","","","","",""
"343.90000009536743","368878","SARL_v6","SARL_v6md393deo","63251e479509813fab713ad2","freq","","","img/orange_2bandit_b2.png","70","","70","test","1","","92","","","","circle","square","89","17","4","0.9887640449438202","","","","","","","",""
"null","369359","SARL_v6","SARL_v6md393deo","63251e479509813fab713ad2","freq_resp","","","img/orange_2bandit_b.png","70","img/orange_2bandit_b.png","70","test","","","","","","","","","","","4","","","","","","","","",""
"null","369528","SARL_v6","SARL_v6md393deo","63251e479509813fab713ad2","fixation","","","img/fixation.png","null","","","test","","","","","","","","","","","","","","","","","","","",""
"328.7999999523163","369864","SARL_v6","SARL_v6md393deo","63251e479509813fab713ad2","freq","","","img/orange_2bandit_b2.png","70","","70","test","1","","93","","","","circle","square","90","18","4","0.9888888888888889","","","","","","","",""
"null","370348","SARL_v6","SARL_v6md393deo","63251e479509813fab713ad2","freq_resp","","","img/orange_2bandit_b.png","70","img/orange_2bandit_b.png","70","test","","","","","","","","","","","4","","","","","","","","",""
"null","370509","SARL_v6","SARL_v6md393deo","63251e479509813fab713ad2","fixation","","","img/fixation.png","null","","","test","","","","","","","","","","","","","","","","","","","",""
"342.2000000476837","370858","SARL_v6","SARL_v6md393deo","63251e479509813fab713ad2","freq","","","img/orange_2bandit_b2.png","70","","70","test","1","","94","","","","circle","square","91","19","4","0.989010989010989","","","","","","","",""
"null","371327","SARL_v6","SARL_v6md393deo","63251e479509813fab713ad2","freq_resp","","","img/orange_2bandit_b.png","70","img/orange_2bandit_b.png","70","test","","","","","","","","","","","4","","","","","","","","",""
"null","371481","SARL_v6","SARL_v6md393deo","63251e479509813fab713ad2","fixation","","","img/fixation.png","null","","","test","","","","","","","","","","","","","","","","","","","",""
"719","372204","SARL_v6","SARL_v6md393deo","63251e479509813fab713ad2","rl","","","img/black_2bandit_b2.png","75","","0","test","","","95","","","0","circle","square","","0","4","","75","-12","0","-12","0","square","4","0"
"null","372979","SARL_v6","SARL_v6md393deo","63251e479509813fab713ad2","feedback","","","<div class=""verylowPoints_sq""> 0 </div>","null","","na","test","","","NaN","","","","","","","","4","","75","","","","","","4",""
"620.4000000953674","373604","SARL_v6","SARL_v6md393deo","63251e479509813fab713ad2","freq","","","img/orange_2bandit_b2.png","70","","70","test","1","","96","","","","circle","square","92","1","5","0.9891304347826086","","","","","","","",""
"null","373794","SARL_v6","SARL_v6md393deo","63251e479509813fab713ad2","freq_resp","","","img/orange_2bandit_b.png","70","img/orange_2bandit_b.png","70","test","","","","","","","","","","","5","","","","","","","","",""
"null","373959","SARL_v6","SARL_v6md393deo","63251e479509813fab713ad2","fixation","","","img/fixation.png","null","","","test","","","","","","","","","","","","","","","","","","","",""
"577.0999999046326","374543","SARL_v6","SARL_v6md393deo","63251e479509813fab713ad2","freq","","","img/orange_2bandit_b2.png","70","","70","test","1","","97","","","","circle","square","93","2","5","0.989247311827957","","","","","","","",""
"null","374789","SARL_v6","SARL_v6md393deo","63251e479509813fab713ad2","freq_resp","","","img/orange_2bandit_b.png","70","img/orange_2bandit_b.png","70","test","","","","","","","","","","","5","","","","","","","","",""
"null","374960","SARL_v6","SARL_v6md393deo","63251e479509813fab713ad2","fixation","","","img/fixation.png","null","","","test","","","","","","","","","","","","","","","","","","","",""
"560.2999999523163","375527","SARL_v6","SARL_v6md393deo","63251e479509813fab713ad2","freq","","","img/orange_2bandit_b2.png","70","","70","test","1","","98","","","","circle","square","94","3","5","0.9893617021276596","","","","","","","",""
"null","375789","SARL_v6","SARL_v6md393deo","63251e479509813fab713ad2","freq_resp","","","img/orange_2bandit_b.png","70","img/orange_2bandit_b.png","70","test","","","","","","","","","","","5","","","","","","","","",""
"null","375959","SARL_v6","SARL_v6md393deo","63251e479509813fab713ad2","fixation","","","img/fixation.png","null","","","test","","","","","","","","","","","","","","","","","","","",""
"466.60000014305115","376432","SARL_v6","SARL_v6md393deo","63251e479509813fab713ad2","freq","","","img/orange_2bandit_b2.png","70","","70","test","1","","99","","","","circle","square","95","4","5","0.9894736842105263","","","","","","","",""
"null","376779","SARL_v6","SARL_v6md393deo","63251e479509813fab713ad2","freq_resp","","","img/orange_2bandit_b.png","70","img/orange_2bandit_b.png","70","test","","","","","","","","","","","5","","","","","","","","",""
"null","376939","SARL_v6","SARL_v6md393deo","63251e479509813fab713ad2","fixation","","","img/fixation.png","null","","","test","","","","","","","","","","","","","","","","","","","",""
"294.10000014305115","377239","SARL_v6","SARL_v6md393deo","63251e479509813fab713ad2","freq","","","img/orange_2bandit_b2.png","70","","70","test","1","","100","","","","circle","square","96","5","5","0.9895833333333334","","","","","","","",""
"null","377758","SARL_v6","SARL_v6md393deo","63251e479509813fab713ad2","freq_resp","","","img/orange_2bandit_b.png","70","img/orange_2bandit_b.png","70","test","","","","","","","","","","","5","","","","","","","","",""
"null","377929","SARL_v6","SARL_v6md393deo","63251e479509813fab713ad2","fixation","","","img/fixation.png","null","","","test","","","","","","","","","","","","","","","","","","","",""
"414.40000009536743","378350","SARL_v6","SARL_v6md393deo","63251e479509813fab713ad2","freq","","","img/orange_2bandit_b2.png","70","","70","test","1","","101","","","","circle","square","97","6","5","0.9896907216494846","","","","","","","",""
"null","378749","SARL_v6","SARL_v6md393deo","63251e479509813fab713ad2","freq_resp","","","img/orange_2bandit_b.png","70","img/orange_2bandit_b.png","70","test","","","","","","","","","","","5","","","","","","","","",""
"null","378909","SARL_v6","SARL_v6md393deo","63251e479509813fab713ad2","fixation","","","img/fixation.png","null","","","test","","","","","","","","","","","","","","","","","","","",""
"323.60000014305115","379239","SARL_v6","SARL_v6md393deo","63251e479509813fab713ad2","freq","","","img/orange_2bandit_b2.png","70","","70","test","1","","102","","","","circle","square","98","7","5","0.9897959183673469","","","","","","","",""
"null","379724","SARL_v6","SARL_v6md393deo","63251e479509813fab713ad2","freq_resp","","","img/orange_2bandit_b.png","70","img/orange_2bandit_b.png","70","test","","","","","","","","","","","5","","","","","","","","",""
"null","379889","SARL_v6","SARL_v6md393deo","63251e479509813fab713ad2","fixation","","","img/fixation.png","null","","","test","","","","","","","","","","","","","","","","","","","",""
"327.90000009536743","380224","SARL_v6","SARL_v6md393deo","63251e479509813fab713ad2","freq","","","img/orange_2bandit_b2.png","70","","70","test","1","","103","","","","circle","square","99","8","5","0.98989898989899","","","","","","","",""
"null","380705","SARL_v6","SARL_v6md393deo","63251e479509813fab713ad2","freq_resp","","","img/orange_2bandit_b.png","70","img/orange_2bandit_b.png","70","test","","","","","","","","","","","5","","","","","","","","",""
"null","380863","SARL_v6","SARL_v6md393deo","63251e479509813fab713ad2","fixation","","","img/fixation.png","null","","","test","","","","","","","","","","","","","","","","","","","",""
"364.10000014305115","381235","SARL_v6","SARL_v6md393deo","63251e479509813fab713ad2","freq","","","img/orange_2bandit_b2.png","70","","70","test","1","","104","","","","circle","square","100","9","5","0.99","","","","","","","",""
"null","381689","SARL_v6","SARL_v6md393deo","63251e479509813fab713ad2","freq_resp","","","img/orange_2bandit_b.png","70","img/orange_2bandit_b.png","70","test","","","","","","","","","","","5","","","","","","","","",""
"null","381862","SARL_v6","SARL_v6md393deo","63251e479509813fab713ad2","fixation","","","img/fixation.png","null","","","test","","","","","","","","","","","","","","","","","","","",""
"324.40000009536743","382192","SARL_v6","SARL_v6md393deo","63251e479509813fab713ad2","freq","","","img/orange_2bandit_b2.png","70","","70","test","1","","105","","","","circle","square","101","10","5","0.9900990099009901","","","","","","","",""
"null","382679","SARL_v6","SARL_v6md393deo","63251e479509813fab713ad2","freq_resp","","","img/orange_2bandit_b.png","70","img/orange_2bandit_b.png","70","test","","","","","","","","","","","5","","","","","","","","",""
"null","382838","SARL_v6","SARL_v6md393deo","63251e479509813fab713ad2","fixation","","","img/fixation.png","null","","","test","","","","","","","","","","","","","","","","","","","",""
"459.10000014305115","383303","SARL_v6","SARL_v6md393deo","63251e479509813fab713ad2","infreq","","","img/blue_2bandit_b2.png","68","","68","test","1","","106","","","","circle","square","102","11","5","0.9901960784313726","","","","","","","",""
"null","383657","SARL_v6","SARL_v6md393deo","63251e479509813fab713ad2","infreq_resp","","","img/blue_2bandit_b.png","68","img/blue_2bandit_b.png","68","test","","","","","","","","","","","5","","","","","","","","",""
"null","383828","SARL_v6","SARL_v6md393deo","63251e479509813fab713ad2","fixation","","","img/fixation.png","null","","","test","","","","","","","","","","","","","","","","","","","",""
"636.2999999523163","384471","SARL_v6","SARL_v6md393deo","63251e479509813fab713ad2","freq","","","img/orange_2bandit_b2.png","70","","70","test","1","","107","","","","circle","square","103","12","5","0.9902912621359223","","","","","","","",""
"null","384659","SARL_v6","SARL_v6md393deo","63251e479509813fab713ad2","freq_resp","","","img/orange_2bandit_b.png","70","img/orange_2bandit_b.png","70","test","","","","","","","","","","","5","","","","","","","","",""
"null","384824","SARL_v6","SARL_v6md393deo","63251e479509813fab713ad2","fixation","","","img/fixation.png","null","","","test","","","","","","","","","","","","","","","","","","","",""
"375.7999999523163","385207","SARL_v6","SARL_v6md393deo","63251e479509813fab713ad2","freq","","","img/orange_2bandit_b2.png","70","","70","test","1","","108","","","","circle","square","104","13","5","0.9903846153846154","","","","","","","",""
"null","385643","SARL_v6","SARL_v6md393deo","63251e479509813fab713ad2","freq_resp","","","img/orange_2bandit_b.png","70","img/orange_2bandit_b.png","70","test","","","","","","","","","","","5","","","","","","","","",""
"null","385809","SARL_v6","SARL_v6md393deo","63251e479509813fab713ad2","fixation","","","img/fixation.png","null","","","test","","","","","","","","","","","","","","","","","","","",""
"390.90000009536743","386206","SARL_v6","SARL_v6md393deo","63251e479509813fab713ad2","freq","","","img/orange_2bandit_b2.png","70","","70","test","1","","109","","","","circle","square","105","14","5","0.9904761904761905","","","","","","","",""
"null","386641","SARL_v6","SARL_v6md393deo","63251e479509813fab713ad2","freq_resp","","","img/orange_2bandit_b.png","70","img/orange_2bandit_b.png","70","test","","","","","","","","","","","5","","","","","","","","",""
"null","386799","SARL_v6","SARL_v6md393deo","63251e479509813fab713ad2","fixation","","","img/fixation.png","null","","","test","","","","","","","","","","","","","","","","","","","",""
"337.60000014305115","387143","SARL_v6","SARL_v6md393deo","63251e479509813fab713ad2","freq","","","img/orange_2bandit_b2.png","70","","70","test","1","","110","","","","circle","square","106","15","5","0.9905660377358491","","","","","","","",""
"null","387650","SARL_v6","SARL_v6md393deo","63251e479509813fab713ad2","freq_resp","","","img/orange_2bandit_b.png","70","img/orange_2bandit_b.png","70","test","","","","","","","","","","","5","","","","","","","","",""
"null","387809","SARL_v6","SARL_v6md393deo","63251e479509813fab713ad2","fixation","","","img/fixation.png","null","","","test","","","","","","","","","","","","","","","","","","","",""
"503","388319","SARL_v6","SARL_v6md393deo","63251e479509813fab713ad2","infreq","","","img/blue_2bandit_b2.png","68","","68","test","1","","111","","","","circle","square","107","16","5","0.9906542056074766","","","","","","","",""
"null","388632","SARL_v6","SARL_v6md393deo","63251e479509813fab713ad2","infreq_resp","","","img/blue_2bandit_b.png","68","img/blue_2bandit_b.png","68","test","","","","","","","","","","","5","","","","","","","","",""
"null","388788","SARL_v6","SARL_v6md393deo","63251e479509813fab713ad2","fixation","","","img/fixation.png","null","","","test","","","","","","","","","","","","","","","","","","","",""
"364.5","389159","SARL_v6","SARL_v6md393deo","63251e479509813fab713ad2","freq","","","img/orange_2bandit_b2.png","70","","70","test","1","","112","","","","circle","square","108","17","5","0.9907407407407407","","","","","","","",""
"null","389637","SARL_v6","SARL_v6md393deo","63251e479509813fab713ad2","freq_resp","","","img/orange_2bandit_b.png","70","img/orange_2bandit_b.png","70","test","","","","","","","","","","","5","","","","","","","","",""
"null","389804","SARL_v6","SARL_v6md393deo","63251e479509813fab713ad2","fixation","","","img/fixation.png","null","","","test","","","","","","","","","","","","","","","","","","","",""
"382","390192","SARL_v6","SARL_v6md393deo","63251e479509813fab713ad2","freq","","","img/orange_2bandit_b2.png","70","","70","test","1","","113","","","","circle","square","109","18","5","0.9908256880733946","","","","","","","",""
"null","390619","SARL_v6","SARL_v6md393deo","63251e479509813fab713ad2","freq_resp","","","img/orange_2bandit_b.png","70","img/orange_2bandit_b.png","70","test","","","","","","","","","","","5","","","","","","","","",""
"null","390779","SARL_v6","SARL_v6md393deo","63251e479509813fab713ad2","fixation","","","img/fixation.png","null","","","test","","","","","","","","","","","","","","","","","","","",""
"398.59999990463257","391184","SARL_v6","SARL_v6md393deo","63251e479509813fab713ad2","freq","","","img/orange_2bandit_b2.png","70","","70","test","1","","114","","","","circle","square","110","19","5","0.990909090909091","","","","","","","",""
"null","391598","SARL_v6","SARL_v6md393deo","63251e479509813fab713ad2","freq_resp","","","img/orange_2bandit_b.png","70","img/orange_2bandit_b.png","70","test","","","","","","","","","","","5","","","","","","","","",""
"null","391758","SARL_v6","SARL_v6md393deo","63251e479509813fab713ad2","fixation","","","img/fixation.png","null","","","test","","","","","","","","","","","","","","","","","","","",""
"346.2000000476837","392111","SARL_v6","SARL_v6md393deo","63251e479509813fab713ad2","freq","","","img/orange_2bandit_b2.png","70","","70","test","1","","115","","","","circle","square","111","20","5","0.990990990990991","","","","","","","",""
"null","392574","SARL_v6","SARL_v6md393deo","63251e479509813fab713ad2","freq_resp","","","img/orange_2bandit_b.png","70","img/orange_2bandit_b.png","70","test","","","","","","","","","","","5","","","","","","","","",""
"null","392738","SARL_v6","SARL_v6md393deo","63251e479509813fab713ad2","fixation","","","img/fixation.png","null","","","test","","","","","","","","","","","","","","","","","","","",""
"359.5","393104","SARL_v6","SARL_v6md393deo","63251e479509813fab713ad2","freq","","","img/orange_2bandit_b2.png","70","","70","test","1","","116","","","","circle","square","112","21","5","0.9910714285714286","","","","","","","",""
"null","393552","SARL_v6","SARL_v6md393deo","63251e479509813fab713ad2","freq_resp","","","img/orange_2bandit_b.png","70","img/orange_2bandit_b.png","70","test","","","","","","","","","","","5","","","","","","","","",""
"null","393707","SARL_v6","SARL_v6md393deo","63251e479509813fab713ad2","fixation","","","img/fixation.png","null","","","test","","","","","","","","","","","","","","","","","","","",""
"311.10000014305115","394024","SARL_v6","SARL_v6md393deo","63251e479509813fab713ad2","freq","","","img/orange_2bandit_b2.png","70","","70","test","1","","117","","","","circle","square","113","22","5","0.9911504424778761","","","","","","","",""
"null","394535","SARL_v6","SARL_v6md393deo","63251e479509813fab713ad2","freq_resp","","","img/orange_2bandit_b.png","70","img/orange_2bandit_b.png","70","test","","","","","","","","","","","5","","","","","","","","",""
"null","394709","SARL_v6","SARL_v6md393deo","63251e479509813fab713ad2","fixation","","","img/fixation.png","null","","","test","","","","","","","","","","","","","","","","","","","",""
"324.90000009536743","395040","SARL_v6","SARL_v6md393deo","63251e479509813fab713ad2","freq","","","img/orange_2bandit_b2.png","70","","70","test","1","","118","","","","circle","square","114","23","5","0.9912280701754386","","","","","","","",""
"null","395540","SARL_v6","SARL_v6md393deo","63251e479509813fab713ad2","freq_resp","","","img/orange_2bandit_b.png","70","img/orange_2bandit_b.png","70","test","","","","","","","","","","","5","","","","","","","","",""
"null","395709","SARL_v6","SARL_v6md393deo","63251e479509813fab713ad2","fixation","","","img/fixation.png","null","","","test","","","","","","","","","","","","","","","","","","","",""
"699.7000000476837","396416","SARL_v6","SARL_v6md393deo","63251e479509813fab713ad2","rl","","","img/black_2bandit_b2.png","74","","0","test","","","119","","","-7","circle","square","","0","5","","74","-7","4","-7","4","circle","5","0"
"null","397189","SARL_v6","SARL_v6md393deo","63251e479509813fab713ad2","feedback","","","<div class=""verylowPoints""> -7 </div>","null","","na","test","","","NaN","","","","","","","","5","","74","","","","","","5",""
"347.7000000476837","397543","SARL_v6","SARL_v6md393deo","63251e479509813fab713ad2","freq","","","img/orange_2bandit_b2.png","70","","70","test","1","","120","","","","circle","square","115","1","6","0.991304347826087","","","","","","","",""
"null","398020","SARL_v6","SARL_v6md393deo","63251e479509813fab713ad2","freq_resp","","","img/orange_2bandit_b.png","70","img/orange_2bandit_b.png","70","test","","","","","","","","","","","6","","","","","","","","",""
"null","398189","SARL_v6","SARL_v6md393deo","63251e479509813fab713ad2","fixation","","","img/fixation.png","null","","","test","","","","","","","","","","","","","","","","","","","",""
"435.10000014305115","398630","SARL_v6","SARL_v6md393deo","63251e479509813fab713ad2","freq","","","img/orange_2bandit_b2.png","70","","70","test","1","","121","","","","circle","square","116","2","6","0.9913793103448276","","","","","","","",""
"null","399018","SARL_v6","SARL_v6md393deo","63251e479509813fab713ad2","freq_resp","","","img/orange_2bandit_b.png","70","img/orange_2bandit_b.png","70","test","","","","","","","","","","","6","","","","","","","","",""
"null","399189","SARL_v6","SARL_v6md393deo","63251e479509813fab713ad2","fixation","","","img/fixation.png","null","","","test","","","","","","","","","","","","","","","","","","","",""
"355.39999985694885","399551","SARL_v6","SARL_v6md393deo","63251e479509813fab713ad2","freq","","","img/orange_2bandit_b2.png","70","","70","test","1","","122","","","","circle","square","117","3","6","0.9914529914529915","","","","","","","",""
"null","400010","SARL_v6","SARL_v6md393deo","63251e479509813fab713ad2","freq_resp","","","img/orange_2bandit_b.png","70","img/orange_2bandit_b.png","70","test","","","","","","","","","","","6","","","","","","","","",""
"null","400184","SARL_v6","SARL_v6md393deo","63251e479509813fab713ad2","fixation","","","img/fixation.png","null","","","test","","","","","","","","","","","","","","","","","","","",""
"312.59999990463257","400504","SARL_v6","SARL_v6md393deo","63251e479509813fab713ad2","freq","","","img/orange_2bandit_b2.png","70","","70","test","1","","123","","","","circle","square","118","4","6","0.9915254237288136","","","","","","","",""
"null","400999","SARL_v6","SARL_v6md393deo","63251e479509813fab713ad2","freq_resp","","","img/orange_2bandit_b.png","70","img/orange_2bandit_b.png","70","test","","","","","","","","","","","6","","","","","","","","",""
"null","401158","SARL_v6","SARL_v6md393deo","63251e479509813fab713ad2","fixation","","","img/fixation.png","null","","","test","","","","","","","","","","","","","","","","","","","",""
"355.40000009536743","401520","SARL_v6","SARL_v6md393deo","63251e479509813fab713ad2","freq","","","img/orange_2bandit_b2.png","70","","70","test","1","","124","","","","circle","square","119","5","6","0.9915966386554622","","","","","","","",""
"null","401980","SARL_v6","SARL_v6md393deo","63251e479509813fab713ad2","freq_resp","","","img/orange_2bandit_b.png","70","img/orange_2bandit_b.png","70","test","","","","","","","","","","","6","","","","","","","","",""
"null","402140","SARL_v6","SARL_v6md393deo","63251e479509813fab713ad2","fixation","","","img/fixation.png","null","","","test","","","","","","","","","","","","","","","","","","","",""
"356.7999999523163","402504","SARL_v6","SARL_v6md393deo","63251e479509813fab713ad2","freq","","","img/orange_2bandit_b2.png","70","","70","test","1","","125","","","","circle","square","120","6","6","0.9916666666666667","","","","","","","",""
"null","402959","SARL_v6","SARL_v6md393deo","63251e479509813fab713ad2","freq_resp","","","img/orange_2bandit_b.png","70","img/orange_2bandit_b.png","70","test","","","","","","","","","","","6","","","","","","","","",""
"null","403121","SARL_v6","SARL_v6md393deo","63251e479509813fab713ad2","fixation","","","img/fixation.png","null","","","test","","","","","","","","","","","","","","","","","","","",""
"351.89999985694885","403479","SARL_v6","SARL_v6md393deo","63251e479509813fab713ad2","freq","","","img/orange_2bandit_b2.png","70","","70","test","1","","126","","","","circle","square","121","7","6","0.9917355371900827","","","","","","","",""
"null","403940","SARL_v6","SARL_v6md393deo","63251e479509813fab713ad2","freq_resp","","","img/orange_2bandit_b.png","70","img/orange_2bandit_b.png","70","test","","","","","","","","","","","6","","","","","","","","",""
"null","404109","SARL_v6","SARL_v6md393deo","63251e479509813fab713ad2","fixation","","","img/fixation.png","null","","","test","","","","","","","","","","","","","","","","","","","",""
"307.7000000476837","404423","SARL_v6","SARL_v6md393deo","63251e479509813fab713ad2","freq","","","img/orange_2bandit_b2.png","70","","70","test","1","","127","","","","circle","square","122","8","6","0.9918032786885246","","","","","","","",""
"null","404940","SARL_v6","SARL_v6md393deo","63251e479509813fab713ad2","freq_resp","","","img/orange_2bandit_b.png","70","img/orange_2bandit_b.png","70","test","","","","","","","","","","","6","","","","","","","","",""
"null","405111","SARL_v6","SARL_v6md393deo","63251e479509813fab713ad2","fixation","","","img/fixation.png","null","","","test","","","","","","","","","","","","","","","","","","","",""
"258.2999999523163","405377","SARL_v6","SARL_v6md393deo","63251e479509813fab713ad2","freq","","","img/orange_2bandit_b2.png","70","","70","test","1","","128","","","","circle","square","123","9","6","0.991869918699187","","","","","","","",""
"null","405939","SARL_v6","SARL_v6md393deo","63251e479509813fab713ad2","freq_resp","","","img/orange_2bandit_b.png","70","img/orange_2bandit_b.png","70","test","","","","","","","","","","","6","","","","","","","","",""
"null","406109","SARL_v6","SARL_v6md393deo","63251e479509813fab713ad2","fixation","","","img/fixation.png","null","","","test","","","","","","","","","","","","","","","","","","","",""
"675.4000000953674","406790","SARL_v6","SARL_v6md393deo","63251e479509813fab713ad2","infreq","","","img/blue_2bandit_b2.png","68","","68","test","1","","129","","","","circle","square","124","10","6","0.9919354838709677","","","","","","","",""
"null","406938","SARL_v6","SARL_v6md393deo","63251e479509813fab713ad2","infreq_resp","","","img/blue_2bandit_b.png","68","img/blue_2bandit_b.png","68","test","","","","","","","","","","","6","","","","","","","","",""
