"rt","time_elapsed","expId","subject","prolificID","trialType","rlType","attType","stimulus","key_press","stim","corrresp","phase","corr","pracCounter","trialNum","rewardOne","rewardTwo","reward","bandOne","bandTwo","attentionNum","attentionRunNum","blockNum","performance","bandChosen","circleVal","squareVal","bandOneVal","bandTwoVal","shapeChosen","rlNum","badFlag"
"5870.099999904633","5873","SARL_v6","SARL_v61ddd848w","5f6e36c7f042f033d0f97bc1","","","","","","","","","","","","","","","","","","","","","","","","","","","",""
"","9907","SARL_v6","SARL_v61ddd848w","5f6e36c7f042f033d0f97bc1","fullscreen","fullscreen","fullscreen","","","","","","","","","","","","","","","","","","","","","","","","",""
"53915.200000047684","63824","SARL_v6","SARL_v61ddd848w","5f6e36c7f042f033d0f97bc1","","","","","","","","","","","","","","","","","","","","","","","","","","","",""
"null","64629","SARL_v6","SARL_v61ddd848w","5f6e36c7f042f033d0f97bc1","freqPrac","","","img/blue_2bandit_b2.png","null","img/blue_2bandit_b2.png","70","prac","0","1","","","","","","","","","","","","","","","","","",""
"null","65632","SARL_v6","SARL_v61ddd848w","5f6e36c7f042f033d0f97bc1","feedback","","","img/tooSlow.png","null","","na","prac","","","","","","","","","","","","","","","","","","","",""
"null","65785","SARL_v6","SARL_v61ddd848w","5f6e36c7f042f033d0f97bc1","fixation","","","img/fixation.png","null","","","prac","","","","","","","","","","","","","","","","","","","",""
"718.9000000953674","66505","SARL_v6","SARL_v61ddd848w","5f6e36c7f042f033d0f97bc1","infreqPrac","","","img/orange_2bandit_b2.png","68","img/orange_2bandit_b2.png","68","prac","1","1","","","","","","","","","","","","","","","","","",""
"718.9000000953674","66589","SARL_v6","SARL_v61ddd848w","5f6e36c7f042f033d0f97bc1","infreqPrac_resp","","","img/orange_2bandit_b.png","68","img/orange_2bandit_b.png","68","prac","","","","","","","","","","","","","","","","","","","",""
"null","66742","SARL_v6","SARL_v61ddd848w","5f6e36c7f042f033d0f97bc1","fixation","","","img/fixation.png","null","","","prac","","","","","","","","","","","","","","","","","","","",""
"529.7999999523163","67273","SARL_v6","SARL_v61ddd848w","5f6e36c7f042f033d0f97bc1","freqPrac","","","img/blue_2bandit_b2.png","70","img/blue_2bandit_b2.png","70","prac","1","1","","","","","","","","","","","","","","","","","",""
"529.7999999523163","67546","SARL_v6","SARL_v61ddd848w","5f6e36c7f042f033d0f97bc1","freqPrac_resp","","","img/blue_2bandit_b.png","70","img/blue_2bandit_b.png","70","prac","","","","","","","","","","","","","","","","","","","",""
"null","67699","SARL_v6","SARL_v61ddd848w","5f6e36c7f042f033d0f97bc1","fixation","","","img/fixation.png","null","","","prac","","","","","","","","","","","","","","","","","","","",""
"461","68161","SARL_v6","SARL_v61ddd848w","5f6e36c7f042f033d0f97bc1","infreqPrac","","","img/orange_2bandit_b2.png","68","img/orange_2bandit_b2.png","68","prac","1","1","","","","","","","","","","","","","","","","","",""
"461","68503","SARL_v6","SARL_v61ddd848w","5f6e36c7f042f033d0f97bc1","infreqPrac_resp","","","img/orange_2bandit_b.png","68","img/orange_2bandit_b.png","68","prac","","","","","","","","","","","","","","","","","","","",""
"null","68655","SARL_v6","SARL_v61ddd848w","5f6e36c7f042f033d0f97bc1","fixation","","","img/fixation.png","null","","","prac","","","","","","","","","","","","","","","","","","","",""
"361.30000019073486","69017","SARL_v6","SARL_v61ddd848w","5f6e36c7f042f033d0f97bc1","infreqPrac","","","img/orange_2bandit_b2.png","68","img/orange_2bandit_b2.png","68","prac","1","1","","","","","","","","","","","","","","","","","",""
"361.30000019073486","69458","SARL_v6","SARL_v61ddd848w","5f6e36c7f042f033d0f97bc1","infreqPrac_resp","","","img/orange_2bandit_b.png","68","img/orange_2bandit_b.png","68","prac","","","","","","","","","","","","","","","","","","","",""
"null","69610","SARL_v6","SARL_v61ddd848w","5f6e36c7f042f033d0f97bc1","fixation","","","img/fixation.png","null","","","prac","","","","","","","","","","","","","","","","","","","",""
"517.2999999523163","70129","SARL_v6","SARL_v61ddd848w","5f6e36c7f042f033d0f97bc1","infreqPrac","","","img/orange_2bandit_b2.png","68","img/orange_2bandit_b2.png","68","prac","1","1","","","","","","","","","","","","","","","","","",""
"517.2999999523163","70413","SARL_v6","SARL_v61ddd848w","5f6e36c7f042f033d0f97bc1","infreqPrac_resp","","","img/orange_2bandit_b.png","68","img/orange_2bandit_b.png","68","prac","","","","","","","","","","","","","","","","","","","",""
"null","70565","SARL_v6","SARL_v61ddd848w","5f6e36c7f042f033d0f97bc1","fixation","","","img/fixation.png","null","","","prac","","","","","","","","","","","","","","","","","","","",""
"418.39999985694885","70985","SARL_v6","SARL_v61ddd848w","5f6e36c7f042f033d0f97bc1","freqPrac","","","img/blue_2bandit_b2.png","70","img/blue_2bandit_b2.png","70","prac","1","1","","","","","","","","","","","","","","","","","",""
"418.39999985694885","71368","SARL_v6","SARL_v61ddd848w","5f6e36c7f042f033d0f97bc1","freqPrac_resp","","","img/blue_2bandit_b.png","70","img/blue_2bandit_b.png","70","prac","","","","","","","","","","","","","","","","","","","",""
"null","71521","SARL_v6","SARL_v61ddd848w","5f6e36c7f042f033d0f97bc1","fixation","","","img/fixation.png","null","","","prac","","","","","","","","","","","","","","","","","","","",""
"534.5999999046326","72057","SARL_v6","SARL_v61ddd848w","5f6e36c7f042f033d0f97bc1","infreqPrac","","","img/orange_2bandit_b2.png","68","img/orange_2bandit_b2.png","68","prac","1","1","","","","","","","","","","","","","","","","","",""
"534.5999999046326","72324","SARL_v6","SARL_v61ddd848w","5f6e36c7f042f033d0f97bc1","infreqPrac_resp","","","img/orange_2bandit_b.png","68","img/orange_2bandit_b.png","68","prac","","","","","","","","","","","","","","","","","","","",""
"null","72477","SARL_v6","SARL_v61ddd848w","5f6e36c7f042f033d0f97bc1","fixation","","","img/fixation.png","null","","","prac","","","","","","","","","","","","","","","","","","","",""
"578.7000000476837","73057","SARL_v6","SARL_v61ddd848w","5f6e36c7f042f033d0f97bc1","freqPrac","","","img/blue_2bandit_b2.png","70","img/blue_2bandit_b2.png","70","prac","1","1","","","","","","","","","","","","","","","","","",""
"578.7000000476837","73280","SARL_v6","SARL_v61ddd848w","5f6e36c7f042f033d0f97bc1","freqPrac_resp","","","img/blue_2bandit_b.png","70","img/blue_2bandit_b.png","70","prac","","","","","","","","","","","","","","","","","","","",""
"null","73432","SARL_v6","SARL_v61ddd848w","5f6e36c7f042f033d0f97bc1","fixation","","","img/fixation.png","null","","","prac","","","","","","","","","","","","","","","","","","","",""
"375.90000009536743","73809","SARL_v6","SARL_v61ddd848w","5f6e36c7f042f033d0f97bc1","freqPrac","","","img/blue_2bandit_b2.png","70","img/blue_2bandit_b2.png","70","prac","1","1","","","","","","","","","","","","","","","","","",""
"375.90000009536743","74236","SARL_v6","SARL_v61ddd848w","5f6e36c7f042f033d0f97bc1","freqPrac_resp","","","img/blue_2bandit_b.png","70","img/blue_2bandit_b.png","70","prac","","","","","","","","","","","","","","","","","","","",""
"null","74389","SARL_v6","SARL_v61ddd848w","5f6e36c7f042f033d0f97bc1","fixation","","","img/fixation.png","null","","","prac","","","","","","","","","","","","","","","","","","","",""
"33946","108336","SARL_v6","SARL_v61ddd848w","5f6e36c7f042f033d0f97bc1","","","","","","","","prac","","","","","","","","","","","","","","","","","","","",""
"1167.2000000476837","109504","SARL_v6","SARL_v61ddd848w","5f6e36c7f042f033d0f97bc1","rlPractice","","","img/black_2bandit_b2.png","74","img/black_2bandit_b2.png","","prac","","","0","","","","","","","","","","","","","","","","",""
"null","110257","SARL_v6","SARL_v61ddd848w","5f6e36c7f042f033d0f97bc1","feedback","","","<div class=""veryhighPoints""> 10 </div>","null","","na","prac","","","1","10","-14","10","","","","","","","","","","","","","",""
"null","110410","SARL_v6","SARL_v61ddd848w","5f6e36c7f042f033d0f97bc1","fixation","","","img/fixation.png","null","","","prac","","","","","","","","","","","","","","","","","","","",""
"653","111064","SARL_v6","SARL_v61ddd848w","5f6e36c7f042f033d0f97bc1","rlPractice","","","img/black_2bandit_b2.png","75","img/black_2bandit_b2.png","","prac","","","1","","","","","","","","","","","","","","","","",""
"null","111817","SARL_v6","SARL_v61ddd848w","5f6e36c7f042f033d0f97bc1","feedback","","","<div class=""verylowPoints_sq""> -5 </div>","null","","na","prac","","","2","5","-5","5","","","","","","","","","","","","","",""
"null","111970","SARL_v6","SARL_v61ddd848w","5f6e36c7f042f033d0f97bc1","fixation","","","img/fixation.png","null","","","prac","","","","","","","","","","","","","","","","","","","",""
"420.7999999523163","112392","SARL_v6","SARL_v61ddd848w","5f6e36c7f042f033d0f97bc1","rlPractice","","","img/black_2bandit_b2.png","74","img/black_2bandit_b2.png","","prac","","","2","","","","","","","","","","","","","","","","",""
"null","113145","SARL_v6","SARL_v61ddd848w","5f6e36c7f042f033d0f97bc1","feedback","","","<div class=""veryhighPoints""> 30 </div>","null","","na","prac","","","3","30","2","30","","","","","","","","","","","","","",""
"null","113297","SARL_v6","SARL_v61ddd848w","5f6e36c7f042f033d0f97bc1","fixation","","","img/fixation.png","null","","","prac","","","","","","","","","","","","","","","","","","","",""
"365.5","113664","SARL_v6","SARL_v61ddd848w","5f6e36c7f042f033d0f97bc1","rlPractice","","","img/black_2bandit_b2.png","74","img/black_2bandit_b2.png","","prac","","","3","","","","","","","","","","","","","","","","",""
"null","114417","SARL_v6","SARL_v61ddd848w","5f6e36c7f042f033d0f97bc1","feedback","","","<div class=""verylowPoints""> -2 </div>","null","","na","prac","","","4","-2","20","-2","","","","","","","","","","","","","",""
"null","114570","SARL_v6","SARL_v61ddd848w","5f6e36c7f042f033d0f97bc1","fixation","","","img/fixation.png","null","","","prac","","","","","","","","","","","","","","","","","","","",""
"8980.099999904633","123551","SARL_v6","SARL_v61ddd848w","5f6e36c7f042f033d0f97bc1","","","","","","","","prac","","","","","","","","","","","","","","","","","","","",""
"null","124353","SARL_v6","SARL_v61ddd848w","5f6e36c7f042f033d0f97bc1","mixAttFreqPrac","","","img/blue_2bandit_b2.png","null","img/blue_2bandit_b2.png","70","prac","","","1","","","","","","","","","","","","","","","","",""
"45.299999952316284","124506","SARL_v6","SARL_v61ddd848w","5f6e36c7f042f033d0f97bc1","fixation","","","img/fixation.png","70","","","prac","","","","","","","","","","","","","","","","","","","",""
"564.5","125072","SARL_v6","SARL_v61ddd848w","5f6e36c7f042f033d0f97bc1","mixAttInfreqPrac","","","img/orange_2bandit_b2.png","68","img/orange_2bandit_b2.png","68","prac","","","2","","","","","","","","","","","","","","","","",""
"564.5","125310","SARL_v6","SARL_v61ddd848w","5f6e36c7f042f033d0f97bc1","infreqPrac_resp","","","img/orange_2bandit_b.png","68","img/blue_2bandit_b.png","68","prac","","","2","","","","","","","","","","","","","","","","",""
"null","125462","SARL_v6","SARL_v61ddd848w","5f6e36c7f042f033d0f97bc1","fixation","","","img/fixation.png","null","","","prac","","","","","","","","","","","","","","","","","","","",""
"424.59999990463257","125888","SARL_v6","SARL_v61ddd848w","5f6e36c7f042f033d0f97bc1","mixAttInfreqPrac","","","img/orange_2bandit_b2.png","68","img/orange_2bandit_b2.png","68","prac","","","3","","","","","","","","","","","","","","","","",""
"424.59999990463257","126265","SARL_v6","SARL_v61ddd848w","5f6e36c7f042f033d0f97bc1","infreqPrac_resp","","","img/orange_2bandit_b.png","68","img/blue_2bandit_b.png","68","prac","","","3","","","","","","","","","","","","","","","","",""
"null","126418","SARL_v6","SARL_v61ddd848w","5f6e36c7f042f033d0f97bc1","fixation","","","img/fixation.png","null","","","prac","","","","","","","","","","","","","","","","","","","",""
"340.7000000476837","126760","SARL_v6","SARL_v61ddd848w","5f6e36c7f042f033d0f97bc1","mixAttInfreqPrac","","","img/orange_2bandit_b2.png","68","img/orange_2bandit_b2.png","68","prac","","","4","","","","","","","","","","","","","","","","",""
"340.7000000476837","127221","SARL_v6","SARL_v61ddd848w","5f6e36c7f042f033d0f97bc1","infreqPrac_resp","","","img/orange_2bandit_b.png","68","img/blue_2bandit_b.png","68","prac","","","4","","","","","","","","","","","","","","","","",""
"null","127374","SARL_v6","SARL_v61ddd848w","5f6e36c7f042f033d0f97bc1","fixation","","","img/fixation.png","null","","","prac","","","","","","","","","","","","","","","","","","","",""
"680.7999999523163","128056","SARL_v6","SARL_v61ddd848w","5f6e36c7f042f033d0f97bc1","mixAttFreqPrac","","","img/blue_2bandit_b2.png","70","img/blue_2bandit_b2.png","70","prac","","","5","","","","","","","","","","","","","","","","",""
"680.7999999523163","128178","SARL_v6","SARL_v61ddd848w","5f6e36c7f042f033d0f97bc1","freqPrac_resp","","","img/blue_2bandit_b.png","70","img/blue_2bandit_b.png","70","prac","","","5","","","","","","","","","","","","","","","","",""
"null","128331","SARL_v6","SARL_v61ddd848w","5f6e36c7f042f033d0f97bc1","fixation","","","img/fixation.png","null","","","prac","","","","","","","","","","","","","","","","","","","",""
"579.8999998569489","128912","SARL_v6","SARL_v61ddd848w","5f6e36c7f042f033d0f97bc1","mixRLPractice","","","img/black_2bandit_b2.png","74","img/black_2bandit_b2.png","","prac","","","5","","","","","","","","","","","","","","","","",""
"null","129665","SARL_v6","SARL_v61ddd848w","5f6e36c7f042f033d0f97bc1","feedback","","","<div class=""verylowPoints""> -14 </div>","null","","na","prac","","","6","-14","10","-14","","","","","","","","","","","","","",""
"null","129818","SARL_v6","SARL_v61ddd848w","5f6e36c7f042f033d0f97bc1","fixation","","","img/fixation.png","null","","","prac","","","","","","","","","","","","","","","","","","","",""
"700.7000000476837","130520","SARL_v6","SARL_v61ddd848w","5f6e36c7f042f033d0f97bc1","mixAttFreqPrac","","","img/blue_2bandit_b2.png","70","img/blue_2bandit_b2.png","70","prac","","","7","","","","","","","","","","","","","","","","",""
"700.7000000476837","130621","SARL_v6","SARL_v61ddd848w","5f6e36c7f042f033d0f97bc1","freqPrac_resp","","","img/blue_2bandit_b.png","70","img/blue_2bandit_b.png","70","prac","","","7","","","","","","","","","","","","","","","","",""
"null","130774","SARL_v6","SARL_v61ddd848w","5f6e36c7f042f033d0f97bc1","fixation","","","img/fixation.png","null","","","prac","","","","","","","","","","","","","","","","","","","",""
"504.89999985694885","131280","SARL_v6","SARL_v61ddd848w","5f6e36c7f042f033d0f97bc1","mixAttInfreqPrac","","","img/orange_2bandit_b2.png","68","img/orange_2bandit_b2.png","68","prac","","","8","","","","","","","","","","","","","","","","",""
"504.89999985694885","131578","SARL_v6","SARL_v61ddd848w","5f6e36c7f042f033d0f97bc1","infreqPrac_resp","","","img/orange_2bandit_b.png","68","img/blue_2bandit_b.png","68","prac","","","8","","","","","","","","","","","","","","","","",""
"null","131731","SARL_v6","SARL_v61ddd848w","5f6e36c7f042f033d0f97bc1","fixation","","","img/fixation.png","null","","","prac","","","","","","","","","","","","","","","","","","","",""
"756","132488","SARL_v6","SARL_v61ddd848w","5f6e36c7f042f033d0f97bc1","mixAttFreqPrac","","","img/blue_2bandit_b2.png","70","img/blue_2bandit_b2.png","70","prac","","","9","","","","","","","","","","","","","","","","",""
"756","132535","SARL_v6","SARL_v61ddd848w","5f6e36c7f042f033d0f97bc1","freqPrac_resp","","","img/blue_2bandit_b.png","70","img/blue_2bandit_b.png","70","prac","","","9","","","","","","","","","","","","","","","","",""
"null","132688","SARL_v6","SARL_v61ddd848w","5f6e36c7f042f033d0f97bc1","fixation","","","img/fixation.png","null","","","prac","","","","","","","","","","","","","","","","","","","",""
"430.90000009536743","133120","SARL_v6","SARL_v61ddd848w","5f6e36c7f042f033d0f97bc1","mixAttFreqPrac","","","img/blue_2bandit_b2.png","70","img/blue_2bandit_b2.png","70","prac","","","10","","","","","","","","","","","","","","","","",""
"430.90000009536743","133492","SARL_v6","SARL_v61ddd848w","5f6e36c7f042f033d0f97bc1","freqPrac_resp","","","img/blue_2bandit_b.png","70","img/blue_2bandit_b.png","70","prac","","","10","","","","","","","","","","","","","","","","",""
"null","133645","SARL_v6","SARL_v61ddd848w","5f6e36c7f042f033d0f97bc1","fixation","","","img/fixation.png","null","","","prac","","","","","","","","","","","","","","","","","","","",""
"490.2000000476837","134136","SARL_v6","SARL_v61ddd848w","5f6e36c7f042f033d0f97bc1","mixAttInfreqPrac","","","img/orange_2bandit_b2.png","68","img/orange_2bandit_b2.png","68","prac","","","11","","","","","","","","","","","","","","","","",""
"490.2000000476837","134448","SARL_v6","SARL_v61ddd848w","5f6e36c7f042f033d0f97bc1","infreqPrac_resp","","","img/orange_2bandit_b.png","68","img/blue_2bandit_b.png","68","prac","","","11","","","","","","","","","","","","","","","","",""
"null","134600","SARL_v6","SARL_v61ddd848w","5f6e36c7f042f033d0f97bc1","fixation","","","img/fixation.png","null","","","prac","","","","","","","","","","","","","","","","","","","",""
"686.4000000953674","135288","SARL_v6","SARL_v61ddd848w","5f6e36c7f042f033d0f97bc1","mixRLPractice","","","img/black_2bandit_b2.png","75","img/black_2bandit_b2.png","","prac","","","11","","","","","","","","","","","","","","","","",""
"null","136041","SARL_v6","SARL_v61ddd848w","5f6e36c7f042f033d0f97bc1","feedback","","","<div class=""verylowPoints_sq""> -5 </div>","null","","na","prac","","","12","5","-5","5","","","","","","","","","","","","","",""
"null","136194","SARL_v6","SARL_v61ddd848w","5f6e36c7f042f033d0f97bc1","fixation","","","img/fixation.png","null","","","prac","","","","","","","","","","","","","","","","","","","",""
"8701.700000047684","144896","SARL_v6","SARL_v61ddd848w","5f6e36c7f042f033d0f97bc1","","","","","","","","prac","","","","","","","","","","","","","","","","","","","",""
"null","145699","SARL_v6","SARL_v61ddd848w","5f6e36c7f042f033d0f97bc1","freq","","","img/blue_2bandit_b2.png","null","","70","test","0","","1","","","","circle","square","1","1","1","0","","","","","","","",""
"null","145850","SARL_v6","SARL_v61ddd848w","5f6e36c7f042f033d0f97bc1","fixation","","","img/fixation.png","null","","","test","","","","","","","","","","","","","","","","","","","",""
"444.2999999523163","146296","SARL_v6","SARL_v61ddd848w","5f6e36c7f042f033d0f97bc1","freq","","","img/blue_2bandit_b2.png","70","","70","test","1","","2","","","","circle","square","2","2","1","0.5","","","","","","","",""
"null","146653","SARL_v6","SARL_v61ddd848w","5f6e36c7f042f033d0f97bc1","freq_resp","","","img/blue_2bandit_b.png","70","img/blue_2bandit_b.png","70","test","","","","","","","","","","","1","","","","","","","","",""
"null","146806","SARL_v6","SARL_v61ddd848w","5f6e36c7f042f033d0f97bc1","fixation","","","img/fixation.png","null","","","test","","","","","","","","","","","","","","","","","","","",""
"360.7000000476837","147168","SARL_v6","SARL_v61ddd848w","5f6e36c7f042f033d0f97bc1","freq","","","img/blue_2bandit_b2.png","70","","70","test","1","","3","","","","circle","square","3","3","1","0.6666666666666666","","","","","","","",""
"null","147609","SARL_v6","SARL_v61ddd848w","5f6e36c7f042f033d0f97bc1","freq_resp","","","img/blue_2bandit_b.png","70","img/blue_2bandit_b.png","70","test","","","","","","","","","","","1","","","","","","","","",""
"null","147762","SARL_v6","SARL_v61ddd848w","5f6e36c7f042f033d0f97bc1","fixation","","","img/fixation.png","null","","","test","","","","","","","","","","","","","","","","","","","",""
"356.7000000476837","148120","SARL_v6","SARL_v61ddd848w","5f6e36c7f042f033d0f97bc1","freq","","","img/blue_2bandit_b2.png","70","","70","test","1","","4","","","","circle","square","4","4","1","0.75","","","","","","","",""
"null","148565","SARL_v6","SARL_v61ddd848w","5f6e36c7f042f033d0f97bc1","freq_resp","","","img/blue_2bandit_b.png","70","img/blue_2bandit_b.png","70","test","","","","","","","","","","","1","","","","","","","","",""
"null","148718","SARL_v6","SARL_v61ddd848w","5f6e36c7f042f033d0f97bc1","fixation","","","img/fixation.png","null","","","test","","","","","","","","","","","","","","","","","","","",""
"336.90000009536743","149056","SARL_v6","SARL_v61ddd848w","5f6e36c7f042f033d0f97bc1","freq","","","img/blue_2bandit_b2.png","70","","70","test","1","","5","","","","circle","square","5","5","1","0.8","","","","","","","",""
"null","149522","SARL_v6","SARL_v61ddd848w","5f6e36c7f042f033d0f97bc1","freq_resp","","","img/blue_2bandit_b.png","70","img/blue_2bandit_b.png","70","test","","","","","","","","","","","1","","","","","","","","",""
"null","149675","SARL_v6","SARL_v61ddd848w","5f6e36c7f042f033d0f97bc1","fixation","","","img/fixation.png","null","","","test","","","","","","","","","","","","","","","","","","","",""
"315.89999985694885","149992","SARL_v6","SARL_v61ddd848w","5f6e36c7f042f033d0f97bc1","freq","","","img/blue_2bandit_b2.png","70","","70","test","1","","6","","","","circle","square","6","6","1","0.8333333333333334","","","","","","","",""
"null","150479","SARL_v6","SARL_v61ddd848w","5f6e36c7f042f033d0f97bc1","freq_resp","","","img/blue_2bandit_b.png","70","img/blue_2bandit_b.png","70","test","","","","","","","","","","","1","","","","","","","","",""
"null","150632","SARL_v6","SARL_v61ddd848w","5f6e36c7f042f033d0f97bc1","fixation","","","img/fixation.png","null","","","test","","","","","","","","","","","","","","","","","","","",""
"343","150976","SARL_v6","SARL_v61ddd848w","5f6e36c7f042f033d0f97bc1","freq","","","img/blue_2bandit_b2.png","70","","70","test","1","","7","","","","circle","square","7","7","1","0.8571428571428571","","","","","","","",""
"null","151436","SARL_v6","SARL_v61ddd848w","5f6e36c7f042f033d0f97bc1","freq_resp","","","img/blue_2bandit_b.png","70","img/blue_2bandit_b.png","70","test","","","","","","","","","","","1","","","","","","","","",""
"null","151589","SARL_v6","SARL_v61ddd848w","5f6e36c7f042f033d0f97bc1","fixation","","","img/fixation.png","null","","","test","","","","","","","","","","","","","","","","","","","",""
"642.0999999046326","152232","SARL_v6","SARL_v61ddd848w","5f6e36c7f042f033d0f97bc1","freq","","","img/blue_2bandit_b2.png","70","","70","test","1","","8","","","","circle","square","8","8","1","0.875","","","","","","","",""
"null","152392","SARL_v6","SARL_v61ddd848w","5f6e36c7f042f033d0f97bc1","freq_resp","","","img/blue_2bandit_b.png","70","img/blue_2bandit_b.png","70","test","","","","","","","","","","","1","","","","","","","","",""
"null","152543","SARL_v6","SARL_v61ddd848w","5f6e36c7f042f033d0f97bc1","fixation","","","img/fixation.png","null","","","test","","","","","","","","","","","","","","","","","","","",""
"647.3000001907349","153192","SARL_v6","SARL_v61ddd848w","5f6e36c7f042f033d0f97bc1","freq","","","img/blue_2bandit_b2.png","70","","70","test","1","","9","","","","circle","square","9","9","1","0.8888888888888888","","","","","","","",""
"null","153347","SARL_v6","SARL_v61ddd848w","5f6e36c7f042f033d0f97bc1","freq_resp","","","img/blue_2bandit_b.png","70","img/blue_2bandit_b.png","70","test","","","","","","","","","","","1","","","","","","","","",""
"null","153499","SARL_v6","SARL_v61ddd848w","5f6e36c7f042f033d0f97bc1","fixation","","","img/fixation.png","null","","","test","","","","","","","","","","","","","","","","","","","",""
"579.3999998569489","154080","SARL_v6","SARL_v61ddd848w","5f6e36c7f042f033d0f97bc1","freq","","","img/blue_2bandit_b2.png","70","","70","test","1","","10","","","","circle","square","10","10","1","0.9","","","","","","","",""
"null","154302","SARL_v6","SARL_v61ddd848w","5f6e36c7f042f033d0f97bc1","freq_resp","","","img/blue_2bandit_b.png","70","img/blue_2bandit_b.png","70","test","","","","","","","","","","","1","","","","","","","","",""
"null","154455","SARL_v6","SARL_v61ddd848w","5f6e36c7f042f033d0f97bc1","fixation","","","img/fixation.png","null","","","test","","","","","","","","","","","","","","","","","","","",""
"495.40000009536743","154952","SARL_v6","SARL_v61ddd848w","5f6e36c7f042f033d0f97bc1","freq","","","img/blue_2bandit_b2.png","70","","70","test","1","","11","","","","circle","square","11","11","1","0.9090909090909091","","","","","","","",""
"null","155258","SARL_v6","SARL_v61ddd848w","5f6e36c7f042f033d0f97bc1","freq_resp","","","img/blue_2bandit_b.png","70","img/blue_2bandit_b.png","70","test","","","","","","","","","","","1","","","","","","","","",""
"null","155410","SARL_v6","SARL_v61ddd848w","5f6e36c7f042f033d0f97bc1","fixation","","","img/fixation.png","null","","","test","","","","","","","","","","","","","","","","","","","",""
"596.7000000476837","156008","SARL_v6","SARL_v61ddd848w","5f6e36c7f042f033d0f97bc1","freq","","","img/blue_2bandit_b2.png","70","","70","test","1","","12","","","","circle","square","12","12","1","0.9166666666666666","","","","","","","",""
"null","156213","SARL_v6","SARL_v61ddd848w","5f6e36c7f042f033d0f97bc1","freq_resp","","","img/blue_2bandit_b.png","70","img/blue_2bandit_b.png","70","test","","","","","","","","","","","1","","","","","","","","",""
"null","156365","SARL_v6","SARL_v61ddd848w","5f6e36c7f042f033d0f97bc1","fixation","","","img/fixation.png","null","","","test","","","","","","","","","","","","","","","","","","","",""
"657.7000000476837","157024","SARL_v6","SARL_v61ddd848w","5f6e36c7f042f033d0f97bc1","freq","","","img/blue_2bandit_b2.png","70","","70","test","1","","13","","","","circle","square","13","13","1","0.9230769230769231","","","","","","","",""
"null","157168","SARL_v6","SARL_v61ddd848w","5f6e36c7f042f033d0f97bc1","freq_resp","","","img/blue_2bandit_b.png","70","img/blue_2bandit_b.png","70","test","","","","","","","","","","","1","","","","","","","","",""
"null","157321","SARL_v6","SARL_v61ddd848w","5f6e36c7f042f033d0f97bc1","fixation","","","img/fixation.png","null","","","test","","","","","","","","","","","","","","","","","","","",""
"541.8999998569489","157864","SARL_v6","SARL_v61ddd848w","5f6e36c7f042f033d0f97bc1","freq","","","img/blue_2bandit_b2.png","70","","70","test","1","","14","","","","circle","square","14","14","1","0.9285714285714286","","","","","","","",""
"null","158125","SARL_v6","SARL_v61ddd848w","5f6e36c7f042f033d0f97bc1","freq_resp","","","img/blue_2bandit_b.png","70","img/blue_2bandit_b.png","70","test","","","","","","","","","","","1","","","","","","","","",""
"null","158277","SARL_v6","SARL_v61ddd848w","5f6e36c7f042f033d0f97bc1","fixation","","","img/fixation.png","null","","","test","","","","","","","","","","","","","","","","","","","",""
"434","158712","SARL_v6","SARL_v61ddd848w","5f6e36c7f042f033d0f97bc1","freq","","","img/blue_2bandit_b2.png","70","","70","test","1","","15","","","","circle","square","15","15","1","0.9333333333333333","","","","","","","",""
"null","159081","SARL_v6","SARL_v61ddd848w","5f6e36c7f042f033d0f97bc1","freq_resp","","","img/blue_2bandit_b.png","70","img/blue_2bandit_b.png","70","test","","","","","","","","","","","1","","","","","","","","",""
"null","159234","SARL_v6","SARL_v61ddd848w","5f6e36c7f042f033d0f97bc1","fixation","","","img/fixation.png","null","","","test","","","","","","","","","","","","","","","","","","","",""
"341","159576","SARL_v6","SARL_v61ddd848w","5f6e36c7f042f033d0f97bc1","freq","","","img/blue_2bandit_b2.png","70","","70","test","1","","16","","","","circle","square","16","16","1","0.9375","","","","","","","",""
"null","160038","SARL_v6","SARL_v61ddd848w","5f6e36c7f042f033d0f97bc1","freq_resp","","","img/blue_2bandit_b.png","70","img/blue_2bandit_b.png","70","test","","","","","","","","","","","1","","","","","","","","",""
"null","160191","SARL_v6","SARL_v61ddd848w","5f6e36c7f042f033d0f97bc1","fixation","","","img/fixation.png","null","","","test","","","","","","","","","","","","","","","","","","","",""
"472.30000019073486","160664","SARL_v6","SARL_v61ddd848w","5f6e36c7f042f033d0f97bc1","infreq","","","img/orange_2bandit_b2.png","68","","68","test","1","","17","","","","circle","square","17","17","1","0.9411764705882353","","","","","","","",""
"null","160994","SARL_v6","SARL_v61ddd848w","5f6e36c7f042f033d0f97bc1","infreq_resp","","","img/orange_2bandit_b.png","68","img/orange_2bandit_b.png","68","test","","","","","","","","","","","1","","","","","","","","",""
"null","161146","SARL_v6","SARL_v61ddd848w","5f6e36c7f042f033d0f97bc1","fixation","","","img/fixation.png","null","","","test","","","","","","","","","","","","","","","","","","","",""
"301.2000000476837","161448","SARL_v6","SARL_v61ddd848w","5f6e36c7f042f033d0f97bc1","infreq","","","img/orange_2bandit_b2.png","68","","68","test","1","","18","","","","circle","square","18","18","1","0.9444444444444444","","","","","","","",""
"null","161949","SARL_v6","SARL_v61ddd848w","5f6e36c7f042f033d0f97bc1","infreq_resp","","","img/orange_2bandit_b.png","68","img/orange_2bandit_b.png","68","test","","","","","","","","","","","1","","","","","","","","",""
"null","162100","SARL_v6","SARL_v61ddd848w","5f6e36c7f042f033d0f97bc1","fixation","","","img/fixation.png","null","","","test","","","","","","","","","","","","","","","","","","","",""
"666.3999998569489","162768","SARL_v6","SARL_v61ddd848w","5f6e36c7f042f033d0f97bc1","freq","","","img/blue_2bandit_b2.png","70","","70","test","1","","19","","","","circle","square","19","19","1","0.9473684210526315","","","","","","","",""
"null","162903","SARL_v6","SARL_v61ddd848w","5f6e36c7f042f033d0f97bc1","freq_resp","","","img/blue_2bandit_b.png","70","img/blue_2bandit_b.png","70","test","","","","","","","","","","","1","","","","","","","","",""
"null","163056","SARL_v6","SARL_v61ddd848w","5f6e36c7f042f033d0f97bc1","fixation","","","img/fixation.png","null","","","test","","","","","","","","","","","","","","","","","","","",""
"494.5","163552","SARL_v6","SARL_v61ddd848w","5f6e36c7f042f033d0f97bc1","freq","","","img/blue_2bandit_b2.png","70","","70","test","1","","20","","","","circle","square","20","20","1","0.95","","","","","","","",""
"null","163859","SARL_v6","SARL_v61ddd848w","5f6e36c7f042f033d0f97bc1","freq_resp","","","img/blue_2bandit_b.png","70","img/blue_2bandit_b.png","70","test","","","","","","","","","","","1","","","","","","","","",""
"null","164012","SARL_v6","SARL_v61ddd848w","5f6e36c7f042f033d0f97bc1","fixation","","","img/fixation.png","null","","","test","","","","","","","","","","","","","","","","","","","",""
"378.60000014305115","164392","SARL_v6","SARL_v61ddd848w","5f6e36c7f042f033d0f97bc1","freq","","","img/blue_2bandit_b2.png","70","","70","test","1","","21","","","","circle","square","21","21","1","0.9523809523809523","","","","","","","",""
"null","164815","SARL_v6","SARL_v61ddd848w","5f6e36c7f042f033d0f97bc1","freq_resp","","","img/blue_2bandit_b.png","70","img/blue_2bandit_b.png","70","test","","","","","","","","","","","1","","","","","","","","",""
"null","164968","SARL_v6","SARL_v61ddd848w","5f6e36c7f042f033d0f97bc1","fixation","","","img/fixation.png","null","","","test","","","","","","","","","","","","","","","","","","","",""
"494.7000000476837","165464","SARL_v6","SARL_v61ddd848w","5f6e36c7f042f033d0f97bc1","rl","","","img/black_2bandit_b2.png","74","","0","test","","","22","","","-3","circle","square","","0","1","","74","-3","-3","-3","-3","circle","1","0"
"null","166217","SARL_v6","SARL_v61ddd848w","5f6e36c7f042f033d0f97bc1","feedback","","","<div class=""verylowPoints""> -3 </div>","null","","na","test","","","NaN","","","","","","","","1","","74","","","","","","1",""
"694.1000001430511","166912","SARL_v6","SARL_v61ddd848w","5f6e36c7f042f033d0f97bc1","freq","","","img/blue_2bandit_b2.png","70","","70","test","1","","23","","","","circle","square","22","1","2","0.9545454545454546","","","","","","","",""
"null","167020","SARL_v6","SARL_v61ddd848w","5f6e36c7f042f033d0f97bc1","freq_resp","","","img/blue_2bandit_b.png","70","img/blue_2bandit_b.png","70","test","","","","","","","","","","","2","","","","","","","","",""
"null","167172","SARL_v6","SARL_v61ddd848w","5f6e36c7f042f033d0f97bc1","fixation","","","img/fixation.png","null","","","test","","","","","","","","","","","","","","","","","","","",""
"666.3999998569489","167840","SARL_v6","SARL_v61ddd848w","5f6e36c7f042f033d0f97bc1","infreq","","","img/orange_2bandit_b2.png","68","","68","test","1","","24","","","","circle","square","23","2","2","0.9565217391304348","","","","","","","",""
"null","167975","SARL_v6","SARL_v61ddd848w","5f6e36c7f042f033d0f97bc1","infreq_resp","","","img/orange_2bandit_b.png","68","img/orange_2bandit_b.png","68","test","","","","","","","","","","","2","","","","","","","","",""
"null","168128","SARL_v6","SARL_v61ddd848w","5f6e36c7f042f033d0f97bc1","fixation","","","img/fixation.png","null","","","test","","","","","","","","","","","","","","","","","","","",""
"574.5","168705","SARL_v6","SARL_v61ddd848w","5f6e36c7f042f033d0f97bc1","freq","","","img/blue_2bandit_b2.png","70","","70","test","1","","25","","","","circle","square","24","3","2","0.9583333333333334","","","","","","","",""
"null","168932","SARL_v6","SARL_v61ddd848w","5f6e36c7f042f033d0f97bc1","freq_resp","","","img/blue_2bandit_b.png","70","img/blue_2bandit_b.png","70","test","","","","","","","","","","","2","","","","","","","","",""
"null","169084","SARL_v6","SARL_v61ddd848w","5f6e36c7f042f033d0f97bc1","fixation","","","img/fixation.png","null","","","test","","","","","","","","","","","","","","","","","","","",""
"547.5999999046326","169633","SARL_v6","SARL_v61ddd848w","5f6e36c7f042f033d0f97bc1","infreq","","","img/orange_2bandit_b2.png","68","","68","test","1","","26","","","","circle","square","25","4","2","0.96","","","","","","","",""
"null","169888","SARL_v6","SARL_v61ddd848w","5f6e36c7f042f033d0f97bc1","infreq_resp","","","img/orange_2bandit_b.png","68","img/orange_2bandit_b.png","68","test","","","","","","","","","","","2","","","","","","","","",""
"null","170041","SARL_v6","SARL_v61ddd848w","5f6e36c7f042f033d0f97bc1","fixation","","","img/fixation.png","null","","","test","","","","","","","","","","","","","","","","","","","",""
"534.7000000476837","170577","SARL_v6","SARL_v61ddd848w","5f6e36c7f042f033d0f97bc1","freq","","","img/blue_2bandit_b2.png","70","","70","test","1","","27","","","","circle","square","26","5","2","0.9615384615384616","","","","","","","",""
"null","170845","SARL_v6","SARL_v61ddd848w","5f6e36c7f042f033d0f97bc1","freq_resp","","","img/blue_2bandit_b.png","70","img/blue_2bandit_b.png","70","test","","","","","","","","","","","2","","","","","","","","",""
"null","170998","SARL_v6","SARL_v61ddd848w","5f6e36c7f042f033d0f97bc1","fixation","","","img/fixation.png","null","","","test","","","","","","","","","","","","","","","","","","","",""
"433.7999999523163","171433","SARL_v6","SARL_v61ddd848w","5f6e36c7f042f033d0f97bc1","freq","","","img/blue_2bandit_b2.png","70","","70","test","1","","28","","","","circle","square","27","6","2","0.9629629629629629","","","","","","","",""
"null","171802","SARL_v6","SARL_v61ddd848w","5f6e36c7f042f033d0f97bc1","freq_resp","","","img/blue_2bandit_b.png","70","img/blue_2bandit_b.png","70","test","","","","","","","","","","","2","","","","","","","","",""
"null","171954","SARL_v6","SARL_v61ddd848w","5f6e36c7f042f033d0f97bc1","fixation","","","img/fixation.png","null","","","test","","","","","","","","","","","","","","","","","","","",""
"389","172345","SARL_v6","SARL_v61ddd848w","5f6e36c7f042f033d0f97bc1","freq","","","img/blue_2bandit_b2.png","70","","70","test","1","","29","","","","circle","square","28","7","2","0.9642857142857143","","","","","","","",""
"null","172758","SARL_v6","SARL_v61ddd848w","5f6e36c7f042f033d0f97bc1","freq_resp","","","img/blue_2bandit_b.png","70","img/blue_2bandit_b.png","70","test","","","","","","","","","","","2","","","","","","","","",""
"null","172911","SARL_v6","SARL_v61ddd848w","5f6e36c7f042f033d0f97bc1","fixation","","","img/fixation.png","null","","","test","","","","","","","","","","","","","","","","","","","",""
"344","173257","SARL_v6","SARL_v61ddd848w","5f6e36c7f042f033d0f97bc1","freq","","","img/blue_2bandit_b2.png","70","","70","test","1","","30","","","","circle","square","29","8","2","0.9655172413793104","","","","","","","",""
"null","173715","SARL_v6","SARL_v61ddd848w","5f6e36c7f042f033d0f97bc1","freq_resp","","","img/blue_2bandit_b.png","70","img/blue_2bandit_b.png","70","test","","","","","","","","","","","2","","","","","","","","",""
"null","173868","SARL_v6","SARL_v61ddd848w","5f6e36c7f042f033d0f97bc1","fixation","","","img/fixation.png","null","","","test","","","","","","","","","","","","","","","","","","","",""
"363.2000000476837","174233","SARL_v6","SARL_v61ddd848w","5f6e36c7f042f033d0f97bc1","freq","","","img/blue_2bandit_b2.png","70","","70","test","1","","31","","","","circle","square","30","9","2","0.9666666666666667","","","","","","","",""
"null","174672","SARL_v6","SARL_v61ddd848w","5f6e36c7f042f033d0f97bc1","freq_resp","","","img/blue_2bandit_b.png","70","img/blue_2bandit_b.png","70","test","","","","","","","","","","","2","","","","","","","","",""
"null","174824","SARL_v6","SARL_v61ddd848w","5f6e36c7f042f033d0f97bc1","fixation","","","img/fixation.png","null","","","test","","","","","","","","","","","","","","","","","","","",""
"383.2999999523163","175209","SARL_v6","SARL_v61ddd848w","5f6e36c7f042f033d0f97bc1","freq","","","img/blue_2bandit_b2.png","70","","70","test","1","","32","","","","circle","square","31","10","2","0.967741935483871","","","","","","","",""
"null","175627","SARL_v6","SARL_v61ddd848w","5f6e36c7f042f033d0f97bc1","freq_resp","","","img/blue_2bandit_b.png","70","img/blue_2bandit_b.png","70","test","","","","","","","","","","","2","","","","","","","","",""
"null","175780","SARL_v6","SARL_v61ddd848w","5f6e36c7f042f033d0f97bc1","fixation","","","img/fixation.png","null","","","test","","","","","","","","","","","","","","","","","","","",""
"371.39999985694885","176153","SARL_v6","SARL_v61ddd848w","5f6e36c7f042f033d0f97bc1","freq","","","img/blue_2bandit_b2.png","70","","70","test","1","","33","","","","circle","square","32","11","2","0.96875","","","","","","","",""
"null","176583","SARL_v6","SARL_v61ddd848w","5f6e36c7f042f033d0f97bc1","freq_resp","","","img/blue_2bandit_b.png","70","img/blue_2bandit_b.png","70","test","","","","","","","","","","","2","","","","","","","","",""
"null","176736","SARL_v6","SARL_v61ddd848w","5f6e36c7f042f033d0f97bc1","fixation","","","img/fixation.png","null","","","test","","","","","","","","","","","","","","","","","","","",""
"367.60000014305115","177105","SARL_v6","SARL_v61ddd848w","5f6e36c7f042f033d0f97bc1","freq","","","img/blue_2bandit_b2.png","70","","70","test","1","","34","","","","circle","square","33","12","2","0.9696969696969697","","","","","","","",""
"null","177539","SARL_v6","SARL_v61ddd848w","5f6e36c7f042f033d0f97bc1","freq_resp","","","img/blue_2bandit_b.png","70","img/blue_2bandit_b.png","70","test","","","","","","","","","","","2","","","","","","","","",""
"null","177692","SARL_v6","SARL_v61ddd848w","5f6e36c7f042f033d0f97bc1","fixation","","","img/fixation.png","null","","","test","","","","","","","","","","","","","","","","","","","",""
"363.7000000476837","178057","SARL_v6","SARL_v61ddd848w","5f6e36c7f042f033d0f97bc1","freq","","","img/blue_2bandit_b2.png","70","","70","test","1","","35","","","","circle","square","34","13","2","0.9705882352941176","","","","","","","",""
"null","178495","SARL_v6","SARL_v61ddd848w","5f6e36c7f042f033d0f97bc1","freq_resp","","","img/blue_2bandit_b.png","70","img/blue_2bandit_b.png","70","test","","","","","","","","","","","2","","","","","","","","",""
"null","178648","SARL_v6","SARL_v61ddd848w","5f6e36c7f042f033d0f97bc1","fixation","","","img/fixation.png","null","","","test","","","","","","","","","","","","","","","","","","","",""
"383.80000019073486","179033","SARL_v6","SARL_v61ddd848w","5f6e36c7f042f033d0f97bc1","freq","","","img/blue_2bandit_b2.png","70","","70","test","1","","36","","","","circle","square","35","14","2","0.9714285714285714","","","","","","","",""
"null","179452","SARL_v6","SARL_v61ddd848w","5f6e36c7f042f033d0f97bc1","freq_resp","","","img/blue_2bandit_b.png","70","img/blue_2bandit_b.png","70","test","","","","","","","","","","","2","","","","","","","","",""
"null","179604","SARL_v6","SARL_v61ddd848w","5f6e36c7f042f033d0f97bc1","fixation","","","img/fixation.png","null","","","test","","","","","","","","","","","","","","","","","","","",""
"506.89999985694885","180113","SARL_v6","SARL_v61ddd848w","5f6e36c7f042f033d0f97bc1","freq","","","img/blue_2bandit_b2.png","70","","70","test","1","","37","","","","circle","square","36","15","2","0.9722222222222222","","","","","","","",""
"null","180409","SARL_v6","SARL_v61ddd848w","5f6e36c7f042f033d0f97bc1","freq_resp","","","img/blue_2bandit_b.png","70","img/blue_2bandit_b.png","70","test","","","","","","","","","","","2","","","","","","","","",""
"null","180560","SARL_v6","SARL_v61ddd848w","5f6e36c7f042f033d0f97bc1","fixation","","","img/fixation.png","null","","","test","","","","","","","","","","","","","","","","","","","",""
"415","180977","SARL_v6","SARL_v61ddd848w","5f6e36c7f042f033d0f97bc1","freq","","","img/blue_2bandit_b2.png","70","","70","test","1","","38","","","","circle","square","37","16","2","0.972972972972973","","","","","","","",""
"null","181364","SARL_v6","SARL_v61ddd848w","5f6e36c7f042f033d0f97bc1","freq_resp","","","img/blue_2bandit_b.png","70","img/blue_2bandit_b.png","70","test","","","","","","","","","","","2","","","","","","","","",""
"null","181517","SARL_v6","SARL_v61ddd848w","5f6e36c7f042f033d0f97bc1","fixation","","","img/fixation.png","null","","","test","","","","","","","","","","","","","","","","","","","",""
"346.09999990463257","181865","SARL_v6","SARL_v61ddd848w","5f6e36c7f042f033d0f97bc1","freq","","","img/blue_2bandit_b2.png","70","","70","test","1","","39","","","","circle","square","38","17","2","0.9736842105263158","","","","","","","",""
"null","182320","SARL_v6","SARL_v61ddd848w","5f6e36c7f042f033d0f97bc1","freq_resp","","","img/blue_2bandit_b.png","70","img/blue_2bandit_b.png","70","test","","","","","","","","","","","2","","","","","","","","",""
"null","182473","SARL_v6","SARL_v61ddd848w","5f6e36c7f042f033d0f97bc1","fixation","","","img/fixation.png","null","","","test","","","","","","","","","","","","","","","","","","","",""
"326.10000014305115","182801","SARL_v6","SARL_v61ddd848w","5f6e36c7f042f033d0f97bc1","freq","","","img/blue_2bandit_b2.png","70","","70","test","1","","40","","","","circle","square","39","18","2","0.9743589743589743","","","","","","","",""
"null","183276","SARL_v6","SARL_v61ddd848w","5f6e36c7f042f033d0f97bc1","freq_resp","","","img/blue_2bandit_b.png","70","img/blue_2bandit_b.png","70","test","","","","","","","","","","","2","","","","","","","","",""
"null","183428","SARL_v6","SARL_v61ddd848w","5f6e36c7f042f033d0f97bc1","fixation","","","img/fixation.png","null","","","test","","","","","","","","","","","","","","","","","","","",""
"355.2999999523163","183785","SARL_v6","SARL_v61ddd848w","5f6e36c7f042f033d0f97bc1","freq","","","img/blue_2bandit_b2.png","70","","70","test","1","","41","","","","circle","square","40","19","2","0.975","","","","","","","",""
"null","184231","SARL_v6","SARL_v61ddd848w","5f6e36c7f042f033d0f97bc1","freq_resp","","","img/blue_2bandit_b.png","70","img/blue_2bandit_b.png","70","test","","","","","","","","","","","2","","","","","","","","",""
"null","184384","SARL_v6","SARL_v61ddd848w","5f6e36c7f042f033d0f97bc1","fixation","","","img/fixation.png","null","","","test","","","","","","","","","","","","","","","","","","","",""
"591.3999998569489","184977","SARL_v6","SARL_v61ddd848w","5f6e36c7f042f033d0f97bc1","rl","","","img/black_2bandit_b2.png","74","","0","test","","","42","","","-8","circle","square","","0","2","","74","-8","-5","-8","-5","circle","2","0"
"null","185729","SARL_v6","SARL_v61ddd848w","5f6e36c7f042f033d0f97bc1","feedback","","","<div class=""verylowPoints""> -8 </div>","null","","na","test","","","NaN","","","","","","","","2","","74","","","","","","2",""
"622","186353","SARL_v6","SARL_v61ddd848w","5f6e36c7f042f033d0f97bc1","freq","","","img/blue_2bandit_b2.png","70","","70","test","1","","43","","","","circle","square","41","1","3","0.975609756097561","","","","","","","",""
"null","186533","SARL_v6","SARL_v61ddd848w","5f6e36c7f042f033d0f97bc1","freq_resp","","","img/blue_2bandit_b.png","70","img/blue_2bandit_b.png","70","test","","","","","","","","","","","3","","","","","","","","",""
"null","186685","SARL_v6","SARL_v61ddd848w","5f6e36c7f042f033d0f97bc1","fixation","","","img/fixation.png","null","","","test","","","","","","","","","","","","","","","","","","","",""
"530.3000001907349","187217","SARL_v6","SARL_v61ddd848w","5f6e36c7f042f033d0f97bc1","freq","","","img/blue_2bandit_b2.png","70","","70","test","1","","44","","","","circle","square","42","2","3","0.9761904761904762","","","","","","","",""
"null","187488","SARL_v6","SARL_v61ddd848w","5f6e36c7f042f033d0f97bc1","freq_resp","","","img/blue_2bandit_b.png","70","img/blue_2bandit_b.png","70","test","","","","","","","","","","","3","","","","","","","","",""
"null","187641","SARL_v6","SARL_v61ddd848w","5f6e36c7f042f033d0f97bc1","fixation","","","img/fixation.png","null","","","test","","","","","","","","","","","","","","","","","","","",""
"414.2999999523163","188057","SARL_v6","SARL_v61ddd848w","5f6e36c7f042f033d0f97bc1","freq","","","img/blue_2bandit_b2.png","70","","70","test","1","","45","","","","circle","square","43","3","3","0.9767441860465116","","","","","","","",""
"null","188444","SARL_v6","SARL_v61ddd848w","5f6e36c7f042f033d0f97bc1","freq_resp","","","img/blue_2bandit_b.png","70","img/blue_2bandit_b.png","70","test","","","","","","","","","","","3","","","","","","","","",""
"null","188597","SARL_v6","SARL_v61ddd848w","5f6e36c7f042f033d0f97bc1","fixation","","","img/fixation.png","null","","","test","","","","","","","","","","","","","","","","","","","",""
"322.39999985694885","188921","SARL_v6","SARL_v61ddd848w","5f6e36c7f042f033d0f97bc1","freq","","","img/blue_2bandit_b2.png","70","","70","test","1","","46","","","","circle","square","44","4","3","0.9772727272727273","","","","","","","",""
"null","189400","SARL_v6","SARL_v61ddd848w","5f6e36c7f042f033d0f97bc1","freq_resp","","","img/blue_2bandit_b.png","70","img/blue_2bandit_b.png","70","test","","","","","","","","","","","3","","","","","","","","",""
"null","189552","SARL_v6","SARL_v61ddd848w","5f6e36c7f042f033d0f97bc1","fixation","","","img/fixation.png","null","","","test","","","","","","","","","","","","","","","","","","","",""
"327.40000009536743","189881","SARL_v6","SARL_v61ddd848w","5f6e36c7f042f033d0f97bc1","freq","","","img/blue_2bandit_b2.png","70","","70","test","1","","47","","","","circle","square","45","5","3","0.9777777777777777","","","","","","","",""
"null","190355","SARL_v6","SARL_v61ddd848w","5f6e36c7f042f033d0f97bc1","freq_resp","","","img/blue_2bandit_b.png","70","img/blue_2bandit_b.png","70","test","","","","","","","","","","","3","","","","","","","","",""
"null","190508","SARL_v6","SARL_v61ddd848w","5f6e36c7f042f033d0f97bc1","fixation","","","img/fixation.png","null","","","test","","","","","","","","","","","","","","","","","","","",""
"283.60000014305115","190793","SARL_v6","SARL_v61ddd848w","5f6e36c7f042f033d0f97bc1","freq","","","img/blue_2bandit_b2.png","70","","70","test","1","","48","","","","circle","square","46","6","3","0.9782608695652174","","","","","","","",""
"null","191312","SARL_v6","SARL_v61ddd848w","5f6e36c7f042f033d0f97bc1","freq_resp","","","img/blue_2bandit_b.png","70","img/blue_2bandit_b.png","70","test","","","","","","","","","","","3","","","","","","","","",""
"null","191465","SARL_v6","SARL_v61ddd848w","5f6e36c7f042f033d0f97bc1","fixation","","","img/fixation.png","null","","","test","","","","","","","","","","","","","","","","","","","",""
"294.7999999523163","191761","SARL_v6","SARL_v61ddd848w","5f6e36c7f042f033d0f97bc1","freq","","","img/blue_2bandit_b2.png","70","","70","test","1","","49","","","","circle","square","47","7","3","0.9787234042553191","","","","","","","",""
"null","192269","SARL_v6","SARL_v61ddd848w","5f6e36c7f042f033d0f97bc1","freq_resp","","","img/blue_2bandit_b.png","70","img/blue_2bandit_b.png","70","test","","","","","","","","","","","3","","","","","","","","",""
"null","192421","SARL_v6","SARL_v61ddd848w","5f6e36c7f042f033d0f97bc1","fixation","","","img/fixation.png","null","","","test","","","","","","","","","","","","","","","","","","","",""
"314.7999999523163","192737","SARL_v6","SARL_v61ddd848w","5f6e36c7f042f033d0f97bc1","freq","","","img/blue_2bandit_b2.png","70","","70","test","1","","50","","","","circle","square","48","8","3","0.9791666666666666","","","","","","","",""
"null","193225","SARL_v6","SARL_v61ddd848w","5f6e36c7f042f033d0f97bc1","freq_resp","","","img/blue_2bandit_b.png","70","img/blue_2bandit_b.png","70","test","","","","","","","","","","","3","","","","","","","","",""
"null","193376","SARL_v6","SARL_v61ddd848w","5f6e36c7f042f033d0f97bc1","fixation","","","img/fixation.png","null","","","test","","","","","","","","","","","","","","","","","","","",""
"318.90000009536743","193697","SARL_v6","SARL_v61ddd848w","5f6e36c7f042f033d0f97bc1","freq","","","img/blue_2bandit_b2.png","70","","70","test","1","","51","","","","circle","square","49","9","3","0.9795918367346939","","","","","","","",""
"null","194180","SARL_v6","SARL_v61ddd848w","5f6e36c7f042f033d0f97bc1","freq_resp","","","img/blue_2bandit_b.png","70","img/blue_2bandit_b.png","70","test","","","","","","","","","","","3","","","","","","","","",""
"null","194332","SARL_v6","SARL_v61ddd848w","5f6e36c7f042f033d0f97bc1","fixation","","","img/fixation.png","null","","","test","","","","","","","","","","","","","","","","","","","",""
"323","194657","SARL_v6","SARL_v61ddd848w","5f6e36c7f042f033d0f97bc1","freq","","","img/blue_2bandit_b2.png","70","","70","test","1","","52","","","","circle","square","50","10","3","0.98","","","","","","","",""
"null","195136","SARL_v6","SARL_v61ddd848w","5f6e36c7f042f033d0f97bc1","freq_resp","","","img/blue_2bandit_b.png","70","img/blue_2bandit_b.png","70","test","","","","","","","","","","","3","","","","","","","","",""
"null","195288","SARL_v6","SARL_v61ddd848w","5f6e36c7f042f033d0f97bc1","fixation","","","img/fixation.png","null","","","test","","","","","","","","","","","","","","","","","","","",""
"327.30000019073486","195617","SARL_v6","SARL_v61ddd848w","5f6e36c7f042f033d0f97bc1","freq","","","img/blue_2bandit_b2.png","70","","70","test","1","","53","","","","circle","square","51","11","3","0.9803921568627451","","","","","","","",""
"null","196092","SARL_v6","SARL_v61ddd848w","5f6e36c7f042f033d0f97bc1","freq_resp","","","img/blue_2bandit_b.png","70","img/blue_2bandit_b.png","70","test","","","","","","","","","","","3","","","","","","","","",""
"null","196244","SARL_v6","SARL_v61ddd848w","5f6e36c7f042f033d0f97bc1","fixation","","","img/fixation.png","null","","","test","","","","","","","","","","","","","","","","","","","",""
"315.09999990463257","196561","SARL_v6","SARL_v61ddd848w","5f6e36c7f042f033d0f97bc1","freq","","","img/blue_2bandit_b2.png","70","","70","test","1","","54","","","","circle","square","52","12","3","0.9807692307692307","","","","","","","",""
"null","197047","SARL_v6","SARL_v61ddd848w","5f6e36c7f042f033d0f97bc1","freq_resp","","","img/blue_2bandit_b.png","70","img/blue_2bandit_b.png","70","test","","","","","","","","","","","3","","","","","","","","",""
"null","197200","SARL_v6","SARL_v61ddd848w","5f6e36c7f042f033d0f97bc1","fixation","","","img/fixation.png","null","","","test","","","","","","","","","","","","","","","","","","","",""
"367.5","197569","SARL_v6","SARL_v61ddd848w","5f6e36c7f042f033d0f97bc1","freq","","","img/blue_2bandit_b2.png","70","","70","test","1","","55","","","","circle","square","53","13","3","0.9811320754716981","","","","","","","",""
"null","198003","SARL_v6","SARL_v61ddd848w","5f6e36c7f042f033d0f97bc1","freq_resp","","","img/blue_2bandit_b.png","70","img/blue_2bandit_b.png","70","test","","","","","","","","","","","3","","","","","","","","",""
"null","198156","SARL_v6","SARL_v61ddd848w","5f6e36c7f042f033d0f97bc1","fixation","","","img/fixation.png","null","","","test","","","","","","","","","","","","","","","","","","","",""
"427.40000009536743","198585","SARL_v6","SARL_v61ddd848w","5f6e36c7f042f033d0f97bc1","freq","","","img/blue_2bandit_b2.png","70","","70","test","1","","56","","","","circle","square","54","14","3","0.9814814814814815","","","","","","","",""
"null","198960","SARL_v6","SARL_v61ddd848w","5f6e36c7f042f033d0f97bc1","freq_resp","","","img/blue_2bandit_b.png","70","img/blue_2bandit_b.png","70","test","","","","","","","","","","","3","","","","","","","","",""
"null","199113","SARL_v6","SARL_v61ddd848w","5f6e36c7f042f033d0f97bc1","fixation","","","img/fixation.png","null","","","test","","","","","","","","","","","","","","","","","","","",""
"350.7000000476837","199465","SARL_v6","SARL_v61ddd848w","5f6e36c7f042f033d0f97bc1","freq","","","img/blue_2bandit_b2.png","70","","70","test","1","","57","","","","circle","square","55","15","3","0.9818181818181818","","","","","","","",""
"null","199916","SARL_v6","SARL_v61ddd848w","5f6e36c7f042f033d0f97bc1","freq_resp","","","img/blue_2bandit_b.png","70","img/blue_2bandit_b.png","70","test","","","","","","","","","","","3","","","","","","","","",""
"null","200069","SARL_v6","SARL_v61ddd848w","5f6e36c7f042f033d0f97bc1","fixation","","","img/fixation.png","null","","","test","","","","","","","","","","","","","","","","","","","",""
"354.7999999523163","200425","SARL_v6","SARL_v61ddd848w","5f6e36c7f042f033d0f97bc1","freq","","","img/blue_2bandit_b2.png","70","","70","test","1","","58","","","","circle","square","56","16","3","0.9821428571428571","","","","","","","",""
"null","200873","SARL_v6","SARL_v61ddd848w","5f6e36c7f042f033d0f97bc1","freq_resp","","","img/blue_2bandit_b.png","70","img/blue_2bandit_b.png","70","test","","","","","","","","","","","3","","","","","","","","",""
"null","201025","SARL_v6","SARL_v61ddd848w","5f6e36c7f042f033d0f97bc1","fixation","","","img/fixation.png","null","","","test","","","","","","","","","","","","","","","","","","","",""
"373.89999985694885","201401","SARL_v6","SARL_v61ddd848w","5f6e36c7f042f033d0f97bc1","freq","","","img/blue_2bandit_b2.png","70","","70","test","1","","59","","","","circle","square","57","17","3","0.9824561403508771","","","","","","","",""
"null","201830","SARL_v6","SARL_v61ddd848w","5f6e36c7f042f033d0f97bc1","freq_resp","","","img/blue_2bandit_b.png","70","img/blue_2bandit_b.png","70","test","","","","","","","","","","","3","","","","","","","","",""
"null","201982","SARL_v6","SARL_v61ddd848w","5f6e36c7f042f033d0f97bc1","fixation","","","img/fixation.png","null","","","test","","","","","","","","","","","","","","","","","","","",""
"null","202784","SARL_v6","SARL_v61ddd848w","5f6e36c7f042f033d0f97bc1","infreq","","","img/orange_2bandit_b2.png","null","","68","test","0","","60","","","","circle","square","58","18","3","0.9655172413793104","","","","","","","",""
"null","202937","SARL_v6","SARL_v61ddd848w","5f6e36c7f042f033d0f97bc1","fixation","","","img/fixation.png","null","","","test","","","","","","","","","","","","","","","","","","","",""
"566.2000000476837","203505","SARL_v6","SARL_v61ddd848w","5f6e36c7f042f033d0f97bc1","freq","","","img/blue_2bandit_b2.png","70","","70","test","1","","61","","","","circle","square","59","19","3","0.9661016949152542","","","","","","","",""
"null","203740","SARL_v6","SARL_v61ddd848w","5f6e36c7f042f033d0f97bc1","freq_resp","","","img/blue_2bandit_b.png","70","img/blue_2bandit_b.png","70","test","","","","","","","","","","","3","","","","","","","","",""
"null","203893","SARL_v6","SARL_v61ddd848w","5f6e36c7f042f033d0f97bc1","fixation","","","img/fixation.png","null","","","test","","","","","","","","","","","","","","","","","","","",""
"458.2000000476837","204353","SARL_v6","SARL_v61ddd848w","5f6e36c7f042f033d0f97bc1","infreq","","","img/orange_2bandit_b2.png","68","","68","test","1","","62","","","","circle","square","60","20","3","0.9666666666666667","","","","","","","",""
"null","204696","SARL_v6","SARL_v61ddd848w","5f6e36c7f042f033d0f97bc1","infreq_resp","","","img/orange_2bandit_b.png","68","img/orange_2bandit_b.png","68","test","","","","","","","","","","","3","","","","","","","","",""
"null","204848","SARL_v6","SARL_v61ddd848w","5f6e36c7f042f033d0f97bc1","fixation","","","img/fixation.png","null","","","test","","","","","","","","","","","","","","","","","","","",""
"407.39999985694885","205257","SARL_v6","SARL_v61ddd848w","5f6e36c7f042f033d0f97bc1","freq","","","img/blue_2bandit_b2.png","70","","70","test","1","","63","","","","circle","square","61","21","3","0.9672131147540983","","","","","","","",""
"null","205651","SARL_v6","SARL_v61ddd848w","5f6e36c7f042f033d0f97bc1","freq_resp","","","img/blue_2bandit_b.png","70","img/blue_2bandit_b.png","70","test","","","","","","","","","","","3","","","","","","","","",""
"null","205804","SARL_v6","SARL_v61ddd848w","5f6e36c7f042f033d0f97bc1","fixation","","","img/fixation.png","null","","","test","","","","","","","","","","","","","","","","","","","",""
"475.59999990463257","206281","SARL_v6","SARL_v61ddd848w","5f6e36c7f042f033d0f97bc1","freq","","","img/blue_2bandit_b2.png","70","","70","test","1","","64","","","","circle","square","62","22","3","0.967741935483871","","","","","","","",""
"null","206607","SARL_v6","SARL_v61ddd848w","5f6e36c7f042f033d0f97bc1","freq_resp","","","img/blue_2bandit_b.png","70","img/blue_2bandit_b.png","70","test","","","","","","","","","","","3","","","","","","","","",""
"null","206759","SARL_v6","SARL_v61ddd848w","5f6e36c7f042f033d0f97bc1","fixation","","","img/fixation.png","null","","","test","","","","","","","","","","","","","","","","","","","",""
"456.7000000476837","207217","SARL_v6","SARL_v61ddd848w","5f6e36c7f042f033d0f97bc1","freq","","","img/blue_2bandit_b2.png","70","","70","test","1","","65","","","","circle","square","63","23","3","0.9682539682539683","","","","","","","",""
"null","207562","SARL_v6","SARL_v61ddd848w","5f6e36c7f042f033d0f97bc1","freq_resp","","","img/blue_2bandit_b.png","70","img/blue_2bandit_b.png","70","test","","","","","","","","","","","3","","","","","","","","",""
"null","207714","SARL_v6","SARL_v61ddd848w","5f6e36c7f042f033d0f97bc1","fixation","","","img/fixation.png","null","","","test","","","","","","","","","","","","","","","","","","","",""
"341.80000019073486","208057","SARL_v6","SARL_v61ddd848w","5f6e36c7f042f033d0f97bc1","freq","","","img/blue_2bandit_b2.png","70","","70","test","1","","66","","","","circle","square","64","24","3","0.96875","","","","","","","",""
"null","208518","SARL_v6","SARL_v61ddd848w","5f6e36c7f042f033d0f97bc1","freq_resp","","","img/blue_2bandit_b.png","70","img/blue_2bandit_b.png","70","test","","","","","","","","","","","3","","","","","","","","",""
"null","208671","SARL_v6","SARL_v61ddd848w","5f6e36c7f042f033d0f97bc1","fixation","","","img/fixation.png","null","","","test","","","","","","","","","","","","","","","","","","","",""
"848.7999999523163","209521","SARL_v6","SARL_v61ddd848w","5f6e36c7f042f033d0f97bc1","rl","","","img/black_2bandit_b2.png","75","","0","test","","","67","","","-4","circle","square","","0","3","","75","-8","-4","-8","-4","square","3","0"
"null","210274","SARL_v6","SARL_v61ddd848w","5f6e36c7f042f033d0f97bc1","feedback","","","<div class=""verylowPoints_sq""> -4 </div>","null","","na","test","","","NaN","","","","","","","","3","","75","","","","","","3",""
"null","211077","SARL_v6","SARL_v61ddd848w","5f6e36c7f042f033d0f97bc1","freq","","","img/blue_2bandit_b2.png","null","","70","test","0","","68","","","","circle","square","65","1","4","0.9538461538461539","","","","","","","",""
"null","211229","SARL_v6","SARL_v61ddd848w","5f6e36c7f042f033d0f97bc1","fixation","","","img/fixation.png","null","","","test","","","","","","","","","","","","","","","","","","","",""
"593.8999998569489","211825","SARL_v6","SARL_v61ddd848w","5f6e36c7f042f033d0f97bc1","freq","","","img/blue_2bandit_b2.png","70","","70","test","1","","69","","","","circle","square","66","2","4","0.9545454545454546","","","","","","","",""
"null","212034","SARL_v6","SARL_v61ddd848w","5f6e36c7f042f033d0f97bc1","freq_resp","","","img/blue_2bandit_b.png","70","img/blue_2bandit_b.png","70","test","","","","","","","","","","","4","","","","","","","","",""
"null","212186","SARL_v6","SARL_v61ddd848w","5f6e36c7f042f033d0f97bc1","fixation","","","img/fixation.png","null","","","test","","","","","","","","","","","","","","","","","","","",""
"445","212633","SARL_v6","SARL_v61ddd848w","5f6e36c7f042f033d0f97bc1","freq","","","img/blue_2bandit_b2.png","70","","70","test","1","","70","","","","circle","square","67","3","4","0.9552238805970149","","","","","","","",""
"null","212990","SARL_v6","SARL_v61ddd848w","5f6e36c7f042f033d0f97bc1","freq_resp","","","img/blue_2bandit_b.png","70","img/blue_2bandit_b.png","70","test","","","","","","","","","","","4","","","","","","","","",""
"null","213143","SARL_v6","SARL_v61ddd848w","5f6e36c7f042f033d0f97bc1","fixation","","","img/fixation.png","null","","","test","","","","","","","","","","","","","","","","","","","",""
"319.89999985694885","213465","SARL_v6","SARL_v61ddd848w","5f6e36c7f042f033d0f97bc1","freq","","","img/blue_2bandit_b2.png","70","","70","test","1","","71","","","","circle","square","68","4","4","0.9558823529411765","","","","","","","",""
"null","213947","SARL_v6","SARL_v61ddd848w","5f6e36c7f042f033d0f97bc1","freq_resp","","","img/blue_2bandit_b.png","70","img/blue_2bandit_b.png","70","test","","","","","","","","","","","4","","","","","","","","",""
"null","214100","SARL_v6","SARL_v61ddd848w","5f6e36c7f042f033d0f97bc1","fixation","","","img/fixation.png","null","","","test","","","","","","","","","","","","","","","","","","","",""
"323.09999990463257","214425","SARL_v6","SARL_v61ddd848w","5f6e36c7f042f033d0f97bc1","freq","","","img/blue_2bandit_b2.png","70","","70","test","1","","72","","","","circle","square","69","5","4","0.9565217391304348","","","","","","","",""
"null","214903","SARL_v6","SARL_v61ddd848w","5f6e36c7f042f033d0f97bc1","freq_resp","","","img/blue_2bandit_b.png","70","img/blue_2bandit_b.png","70","test","","","","","","","","","","","4","","","","","","","","",""
"null","215056","SARL_v6","SARL_v61ddd848w","5f6e36c7f042f033d0f97bc1","fixation","","","img/fixation.png","null","","","test","","","","","","","","","","","","","","","","","","","",""
"343.2000000476837","215401","SARL_v6","SARL_v61ddd848w","5f6e36c7f042f033d0f97bc1","freq","","","img/blue_2bandit_b2.png","70","","70","test","1","","73","","","","circle","square","70","6","4","0.9571428571428572","","","","","","","",""
"null","215859","SARL_v6","SARL_v61ddd848w","5f6e36c7f042f033d0f97bc1","freq_resp","","","img/blue_2bandit_b.png","70","img/blue_2bandit_b.png","70","test","","","","","","","","","","","4","","","","","","","","",""
"null","216012","SARL_v6","SARL_v61ddd848w","5f6e36c7f042f033d0f97bc1","fixation","","","img/fixation.png","null","","","test","","","","","","","","","","","","","","","","","","","",""
"483.39999985694885","216497","SARL_v6","SARL_v61ddd848w","5f6e36c7f042f033d0f97bc1","infreq","","","img/orange_2bandit_b2.png","68","","68","test","1","","74","","","","circle","square","71","7","4","0.9577464788732394","","","","","","","",""
"null","216815","SARL_v6","SARL_v61ddd848w","5f6e36c7f042f033d0f97bc1","infreq_resp","","","img/orange_2bandit_b.png","68","img/orange_2bandit_b.png","68","test","","","","","","","","","","","4","","","","","","","","",""
"null","216968","SARL_v6","SARL_v61ddd848w","5f6e36c7f042f033d0f97bc1","fixation","","","img/fixation.png","null","","","test","","","","","","","","","","","","","","","","","","","",""
"407.59999990463257","217377","SARL_v6","SARL_v61ddd848w","5f6e36c7f042f033d0f97bc1","freq","","","img/blue_2bandit_b2.png","70","","70","test","1","","75","","","","circle","square","72","8","4","0.9583333333333334","","","","","","","",""
"null","217771","SARL_v6","SARL_v61ddd848w","5f6e36c7f042f033d0f97bc1","freq_resp","","","img/blue_2bandit_b.png","70","img/blue_2bandit_b.png","70","test","","","","","","","","","","","4","","","","","","","","",""
"null","217924","SARL_v6","SARL_v61ddd848w","5f6e36c7f042f033d0f97bc1","fixation","","","img/fixation.png","null","","","test","","","","","","","","","","","","","","","","","","","",""
"355.7000000476837","218281","SARL_v6","SARL_v61ddd848w","5f6e36c7f042f033d0f97bc1","freq","","","img/blue_2bandit_b2.png","70","","70","test","1","","76","","","","circle","square","73","9","4","0.958904109589041","","","","","","","",""
"null","218727","SARL_v6","SARL_v61ddd848w","5f6e36c7f042f033d0f97bc1","freq_resp","","","img/blue_2bandit_b.png","70","img/blue_2bandit_b.png","70","test","","","","","","","","","","","4","","","","","","","","",""
"null","218880","SARL_v6","SARL_v61ddd848w","5f6e36c7f042f033d0f97bc1","fixation","","","img/fixation.png","null","","","test","","","","","","","","","","","","","","","","","","","",""
"335.60000014305115","219217","SARL_v6","SARL_v61ddd848w","5f6e36c7f042f033d0f97bc1","freq","","","img/blue_2bandit_b2.png","70","","70","test","1","","77","","","","circle","square","74","10","4","0.9594594594594594","","","","","","","",""
"null","219683","SARL_v6","SARL_v61ddd848w","5f6e36c7f042f033d0f97bc1","freq_resp","","","img/blue_2bandit_b.png","70","img/blue_2bandit_b.png","70","test","","","","","","","","","","","4","","","","","","","","",""
"null","219835","SARL_v6","SARL_v61ddd848w","5f6e36c7f042f033d0f97bc1","fixation","","","img/fixation.png","null","","","test","","","","","","","","","","","","","","","","","","","",""
"363.89999985694885","220201","SARL_v6","SARL_v61ddd848w","5f6e36c7f042f033d0f97bc1","freq","","","img/blue_2bandit_b2.png","70","","70","test","1","","78","","","","circle","square","75","11","4","0.96","","","","","","","",""
"null","220640","SARL_v6","SARL_v61ddd848w","5f6e36c7f042f033d0f97bc1","freq_resp","","","img/blue_2bandit_b.png","70","img/blue_2bandit_b.png","70","test","","","","","","","","","","","4","","","","","","","","",""
"null","220792","SARL_v6","SARL_v61ddd848w","5f6e36c7f042f033d0f97bc1","fixation","","","img/fixation.png","null","","","test","","","","","","","","","","","","","","","","","","","",""
"350.90000009536743","221145","SARL_v6","SARL_v61ddd848w","5f6e36c7f042f033d0f97bc1","freq","","","img/blue_2bandit_b2.png","70","","70","test","1","","79","","","","circle","square","76","12","4","0.9605263157894737","","","","","","","",""
"null","221596","SARL_v6","SARL_v61ddd848w","5f6e36c7f042f033d0f97bc1","freq_resp","","","img/blue_2bandit_b.png","70","img/blue_2bandit_b.png","70","test","","","","","","","","","","","4","","","","","","","","",""
"null","221749","SARL_v6","SARL_v61ddd848w","5f6e36c7f042f033d0f97bc1","fixation","","","img/fixation.png","null","","","test","","","","","","","","","","","","","","","","","","","",""
"354","222105","SARL_v6","SARL_v61ddd848w","5f6e36c7f042f033d0f97bc1","freq","","","img/blue_2bandit_b2.png","70","","70","test","1","","80","","","","circle","square","77","13","4","0.961038961038961","","","","","","","",""
"null","222553","SARL_v6","SARL_v61ddd848w","5f6e36c7f042f033d0f97bc1","freq_resp","","","img/blue_2bandit_b.png","70","img/blue_2bandit_b.png","70","test","","","","","","","","","","","4","","","","","","","","",""
"null","222706","SARL_v6","SARL_v61ddd848w","5f6e36c7f042f033d0f97bc1","fixation","","","img/fixation.png","null","","","test","","","","","","","","","","","","","","","","","","","",""
"317.10000014305115","223025","SARL_v6","SARL_v61ddd848w","5f6e36c7f042f033d0f97bc1","freq","","","img/blue_2bandit_b2.png","70","","70","test","1","","81","","","","circle","square","78","14","4","0.9615384615384616","","","","","","","",""
"null","223509","SARL_v6","SARL_v61ddd848w","5f6e36c7f042f033d0f97bc1","freq_resp","","","img/blue_2bandit_b.png","70","img/blue_2bandit_b.png","70","test","","","","","","","","","","","4","","","","","","","","",""
"null","223661","SARL_v6","SARL_v61ddd848w","5f6e36c7f042f033d0f97bc1","fixation","","","img/fixation.png","null","","","test","","","","","","","","","","","","","","","","","","","",""
"346.2999999523163","224009","SARL_v6","SARL_v61ddd848w","5f6e36c7f042f033d0f97bc1","freq","","","img/blue_2bandit_b2.png","70","","70","test","1","","82","","","","circle","square","79","15","4","0.9620253164556962","","","","","","","",""
"null","224464","SARL_v6","SARL_v61ddd848w","5f6e36c7f042f033d0f97bc1","freq_resp","","","img/blue_2bandit_b.png","70","img/blue_2bandit_b.png","70","test","","","","","","","","","","","4","","","","","","","","",""
"null","224617","SARL_v6","SARL_v61ddd848w","5f6e36c7f042f033d0f97bc1","fixation","","","img/fixation.png","null","","","test","","","","","","","","","","","","","","","","","","","",""
"310.5","224929","SARL_v6","SARL_v61ddd848w","5f6e36c7f042f033d0f97bc1","freq","","","img/blue_2bandit_b2.png","70","","70","test","1","","83","","","","circle","square","80","16","4","0.9625","","","","","","","",""
"null","225420","SARL_v6","SARL_v61ddd848w","5f6e36c7f042f033d0f97bc1","freq_resp","","","img/blue_2bandit_b.png","70","img/blue_2bandit_b.png","70","test","","","","","","","","","","","4","","","","","","","","",""
"null","225572","SARL_v6","SARL_v61ddd848w","5f6e36c7f042f033d0f97bc1","fixation","","","img/fixation.png","null","","","test","","","","","","","","","","","","","","","","","","","",""
"315.59999990463257","225889","SARL_v6","SARL_v61ddd848w","5f6e36c7f042f033d0f97bc1","freq","","","img/blue_2bandit_b2.png","70","","70","test","1","","84","","","","circle","square","81","17","4","0.9629629629629629","","","","","","","",""
"null","226375","SARL_v6","SARL_v61ddd848w","5f6e36c7f042f033d0f97bc1","freq_resp","","","img/blue_2bandit_b.png","70","img/blue_2bandit_b.png","70","test","","","","","","","","","","","4","","","","","","","","",""
"null","226527","SARL_v6","SARL_v61ddd848w","5f6e36c7f042f033d0f97bc1","fixation","","","img/fixation.png","null","","","test","","","","","","","","","","","","","","","","","","","",""
"528.7999999523163","227057","SARL_v6","SARL_v61ddd848w","5f6e36c7f042f033d0f97bc1","infreq","","","img/orange_2bandit_b2.png","68","","68","test","1","","85","","","","circle","square","82","18","4","0.9634146341463414","","","","","","","",""
"null","227331","SARL_v6","SARL_v61ddd848w","5f6e36c7f042f033d0f97bc1","infreq_resp","","","img/orange_2bandit_b.png","68","img/orange_2bandit_b.png","68","test","","","","","","","","","","","4","","","","","","","","",""
"null","227484","SARL_v6","SARL_v61ddd848w","5f6e36c7f042f033d0f97bc1","fixation","","","img/fixation.png","null","","","test","","","","","","","","","","","","","","","","","","","",""
"459.7999999523163","227945","SARL_v6","SARL_v61ddd848w","5f6e36c7f042f033d0f97bc1","freq","","","img/blue_2bandit_b2.png","70","","70","test","1","","86","","","","circle","square","83","19","4","0.963855421686747","","","","","","","",""
"null","228288","SARL_v6","SARL_v61ddd848w","5f6e36c7f042f033d0f97bc1","freq_resp","","","img/blue_2bandit_b.png","70","img/blue_2bandit_b.png","70","test","","","","","","","","","","","4","","","","","","","","",""
"null","228439","SARL_v6","SARL_v61ddd848w","5f6e36c7f042f033d0f97bc1","fixation","","","img/fixation.png","null","","","test","","","","","","","","","","","","","","","","","","","",""
"408","228849","SARL_v6","SARL_v61ddd848w","5f6e36c7f042f033d0f97bc1","rl","","","img/black_2bandit_b2.png","75","","0","test","","","87","","","0","circle","square","","0","4","","75","-12","0","-12","0","square","4","0"
"null","229601","SARL_v6","SARL_v61ddd848w","5f6e36c7f042f033d0f97bc1","feedback","","","<div class=""verylowPoints_sq""> 0 </div>","null","","na","test","","","NaN","","","","","","","","4","","75","","","","","","4",""
"494.10000014305115","230097","SARL_v6","SARL_v61ddd848w","5f6e36c7f042f033d0f97bc1","freq","","","img/blue_2bandit_b2.png","70","","70","test","1","","88","","","","circle","square","84","1","5","0.9642857142857143","","","","","","","",""
"null","230404","SARL_v6","SARL_v61ddd848w","5f6e36c7f042f033d0f97bc1","freq_resp","","","img/blue_2bandit_b.png","70","img/blue_2bandit_b.png","70","test","","","","","","","","","","","5","","","","","","","","",""
"null","230557","SARL_v6","SARL_v61ddd848w","5f6e36c7f042f033d0f97bc1","fixation","","","img/fixation.png","null","","","test","","","","","","","","","","","","","","","","","","","",""
"379.2000000476837","230937","SARL_v6","SARL_v61ddd848w","5f6e36c7f042f033d0f97bc1","freq","","","img/blue_2bandit_b2.png","70","","70","test","1","","89","","","","circle","square","85","2","5","0.9647058823529412","","","","","","","",""
"null","231359","SARL_v6","SARL_v61ddd848w","5f6e36c7f042f033d0f97bc1","freq_resp","","","img/blue_2bandit_b.png","70","img/blue_2bandit_b.png","70","test","","","","","","","","","","","5","","","","","","","","",""
"null","231512","SARL_v6","SARL_v61ddd848w","5f6e36c7f042f033d0f97bc1","fixation","","","img/fixation.png","null","","","test","","","","","","","","","","","","","","","","","","","",""
"367.40000009536743","231881","SARL_v6","SARL_v61ddd848w","5f6e36c7f042f033d0f97bc1","freq","","","img/blue_2bandit_b2.png","70","","70","test","1","","90","","","","circle","square","86","3","5","0.9651162790697675","","","","","","","",""
"null","232315","SARL_v6","SARL_v61ddd848w","5f6e36c7f042f033d0f97bc1","freq_resp","","","img/blue_2bandit_b.png","70","img/blue_2bandit_b.png","70","test","","","","","","","","","","","5","","","","","","","","",""
"null","232468","SARL_v6","SARL_v61ddd848w","5f6e36c7f042f033d0f97bc1","fixation","","","img/fixation.png","null","","","test","","","","","","","","","","","","","","","","","","","",""
"436","232906","SARL_v6","SARL_v61ddd848w","5f6e36c7f042f033d0f97bc1","infreq","","","img/orange_2bandit_b2.png","68","","68","test","1","","91","","","","circle","square","87","4","5","0.9655172413793104","","","","","","","",""
"null","233273","SARL_v6","SARL_v61ddd848w","5f6e36c7f042f033d0f97bc1","infreq_resp","","","img/orange_2bandit_b.png","68","img/orange_2bandit_b.png","68","test","","","","","","","","","","","5","","","","","","","","",""
"null","233426","SARL_v6","SARL_v61ddd848w","5f6e36c7f042f033d0f97bc1","fixation","","","img/fixation.png","null","","","test","","","","","","","","","","","","","","","","","","","",""
"461.7999999523163","233889","SARL_v6","SARL_v61ddd848w","5f6e36c7f042f033d0f97bc1","freq","","","img/blue_2bandit_b2.png","70","","70","test","1","","92","","","","circle","square","88","5","5","0.9659090909090909","","","","","","","",""
"null","234230","SARL_v6","SARL_v61ddd848w","5f6e36c7f042f033d0f97bc1","freq_resp","","","img/blue_2bandit_b.png","70","img/blue_2bandit_b.png","70","test","","","","","","","","","","","5","","","","","","","","",""
"null","234382","SARL_v6","SARL_v61ddd848w","5f6e36c7f042f033d0f97bc1","fixation","","","img/fixation.png","null","","","test","","","","","","","","","","","","","","","","","","","",""
"690","235073","SARL_v6","SARL_v61ddd848w","5f6e36c7f042f033d0f97bc1","infreq","","","img/orange_2bandit_b2.png","68","","68","test","1","","93","","","","circle","square","89","6","5","0.9662921348314607","","","","","","","",""
"null","235186","SARL_v6","SARL_v61ddd848w","5f6e36c7f042f033d0f97bc1","infreq_resp","","","img/orange_2bandit_b.png","68","img/orange_2bandit_b.png","68","test","","","","","","","","","","","5","","","","","","","","",""
"null","235339","SARL_v6","SARL_v61ddd848w","5f6e36c7f042f033d0f97bc1","fixation","","","img/fixation.png","null","","","test","","","","","","","","","","","","","","","","","","","",""
"509","235849","SARL_v6","SARL_v61ddd848w","5f6e36c7f042f033d0f97bc1","freq","","","img/blue_2bandit_b2.png","70","","70","test","1","","94","","","","circle","square","90","7","5","0.9666666666666667","","","","","","","",""
"null","236143","SARL_v6","SARL_v61ddd848w","5f6e36c7f042f033d0f97bc1","freq_resp","","","img/blue_2bandit_b.png","70","img/blue_2bandit_b.png","70","test","","","","","","","","","","","5","","","","","","","","",""
"null","236295","SARL_v6","SARL_v61ddd848w","5f6e36c7f042f033d0f97bc1","fixation","","","img/fixation.png","null","","","test","","","","","","","","","","","","","","","","","","","",""
"385.10000014305115","236681","SARL_v6","SARL_v61ddd848w","5f6e36c7f042f033d0f97bc1","freq","","","img/blue_2bandit_b2.png","70","","70","test","1","","95","","","","circle","square","91","8","5","0.967032967032967","","","","","","","",""
"null","237098","SARL_v6","SARL_v61ddd848w","5f6e36c7f042f033d0f97bc1","freq_resp","","","img/blue_2bandit_b.png","70","img/blue_2bandit_b.png","70","test","","","","","","","","","","","5","","","","","","","","",""
"null","237250","SARL_v6","SARL_v61ddd848w","5f6e36c7f042f033d0f97bc1","fixation","","","img/fixation.png","null","","","test","","","","","","","","","","","","","","","","","","","",""
"341.2000000476837","237593","SARL_v6","SARL_v61ddd848w","5f6e36c7f042f033d0f97bc1","freq","","","img/blue_2bandit_b2.png","70","","70","test","1","","96","","","","circle","square","92","9","5","0.967391304347826","","","","","","","",""
"null","238053","SARL_v6","SARL_v61ddd848w","5f6e36c7f042f033d0f97bc1","freq_resp","","","img/blue_2bandit_b.png","70","img/blue_2bandit_b.png","70","test","","","","","","","","","","","5","","","","","","","","",""
"null","238206","SARL_v6","SARL_v61ddd848w","5f6e36c7f042f033d0f97bc1","fixation","","","img/fixation.png","null","","","test","","","","","","","","","","","","","","","","","","","",""
"313.39999985694885","238521","SARL_v6","SARL_v61ddd848w","5f6e36c7f042f033d0f97bc1","freq","","","img/blue_2bandit_b2.png","70","","70","test","1","","97","","","","circle","square","93","10","5","0.967741935483871","","","","","","","",""
"null","239009","SARL_v6","SARL_v61ddd848w","5f6e36c7f042f033d0f97bc1","freq_resp","","","img/blue_2bandit_b.png","70","img/blue_2bandit_b.png","70","test","","","","","","","","","","","5","","","","","","","","",""
"null","239161","SARL_v6","SARL_v61ddd848w","5f6e36c7f042f033d0f97bc1","fixation","","","img/fixation.png","null","","","test","","","","","","","","","","","","","","","","","","","",""
"270.5","239433","SARL_v6","SARL_v61ddd848w","5f6e36c7f042f033d0f97bc1","freq","","","img/blue_2bandit_b2.png","70","","70","test","1","","98","","","","circle","square","94","11","5","0.9680851063829787","","","","","","","",""
"null","239965","SARL_v6","SARL_v61ddd848w","5f6e36c7f042f033d0f97bc1","freq_resp","","","img/blue_2bandit_b.png","70","img/blue_2bandit_b.png","70","test","","","","","","","","","","","5","","","","","","","","",""
"null","240118","SARL_v6","SARL_v61ddd848w","5f6e36c7f042f033d0f97bc1","fixation","","","img/fixation.png","null","","","test","","","","","","","","","","","","","","","","","","","",""
"313.59999990463257","240433","SARL_v6","SARL_v61ddd848w","5f6e36c7f042f033d0f97bc1","freq","","","img/blue_2bandit_b2.png","70","","70","test","1","","99","","","","circle","square","95","12","5","0.968421052631579","","","","","","","",""
"null","240921","SARL_v6","SARL_v61ddd848w","5f6e36c7f042f033d0f97bc1","freq_resp","","","img/blue_2bandit_b.png","70","img/blue_2bandit_b.png","70","test","","","","","","","","","","","5","","","","","","","","",""
"null","241074","SARL_v6","SARL_v61ddd848w","5f6e36c7f042f033d0f97bc1","fixation","","","img/fixation.png","null","","","test","","","","","","","","","","","","","","","","","","","",""
"301.40000009536743","241377","SARL_v6","SARL_v61ddd848w","5f6e36c7f042f033d0f97bc1","freq","","","img/blue_2bandit_b2.png","70","","70","test","1","","100","","","","circle","square","96","13","5","0.96875","","","","","","","",""
"null","241877","SARL_v6","SARL_v61ddd848w","5f6e36c7f042f033d0f97bc1","freq_resp","","","img/blue_2bandit_b.png","70","img/blue_2bandit_b.png","70","test","","","","","","","","","","","5","","","","","","","","",""
"null","242030","SARL_v6","SARL_v61ddd848w","5f6e36c7f042f033d0f97bc1","fixation","","","img/fixation.png","null","","","test","","","","","","","","","","","","","","","","","","","",""
"289.7999999523163","242321","SARL_v6","SARL_v61ddd848w","5f6e36c7f042f033d0f97bc1","freq","","","img/blue_2bandit_b2.png","70","","70","test","1","","101","","","","circle","square","97","14","5","0.9690721649484536","","","","","","","",""
"null","242834","SARL_v6","SARL_v61ddd848w","5f6e36c7f042f033d0f97bc1","freq_resp","","","img/blue_2bandit_b.png","70","img/blue_2bandit_b.png","70","test","","","","","","","","","","","5","","","","","","","","",""
"null","242987","SARL_v6","SARL_v61ddd848w","5f6e36c7f042f033d0f97bc1","fixation","","","img/fixation.png","null","","","test","","","","","","","","","","","","","","","","","","","",""
"300.7999999523163","243289","SARL_v6","SARL_v61ddd848w","5f6e36c7f042f033d0f97bc1","freq","","","img/blue_2bandit_b2.png","70","","70","test","1","","102","","","","circle","square","98","15","5","0.9693877551020408","","","","","","","",""
"null","243790","SARL_v6","SARL_v61ddd848w","5f6e36c7f042f033d0f97bc1","freq_resp","","","img/blue_2bandit_b.png","70","img/blue_2bandit_b.png","70","test","","","","","","","","","","","5","","","","","","","","",""
"null","243942","SARL_v6","SARL_v61ddd848w","5f6e36c7f042f033d0f97bc1","fixation","","","img/fixation.png","null","","","test","","","","","","","","","","","","","","","","","","","",""
"425.90000009536743","244369","SARL_v6","SARL_v61ddd848w","5f6e36c7f042f033d0f97bc1","infreq","","","img/orange_2bandit_b2.png","68","","68","test","1","","103","","","","circle","square","99","16","5","0.9696969696969697","","","","","","","",""
"null","244746","SARL_v6","SARL_v61ddd848w","5f6e36c7f042f033d0f97bc1","infreq_resp","","","img/orange_2bandit_b.png","68","img/orange_2bandit_b.png","68","test","","","","","","","","","","","5","","","","","","","","",""
"null","244898","SARL_v6","SARL_v61ddd848w","5f6e36c7f042f033d0f97bc1","fixation","","","img/fixation.png","null","","","test","","","","","","","","","","","","","","","","","","","",""
"429.2999999523163","245329","SARL_v6","SARL_v61ddd848w","5f6e36c7f042f033d0f97bc1","freq","","","img/blue_2bandit_b2.png","70","","70","test","1","","104","","","","circle","square","100","17","5","0.97","","","","","","","",""
"null","245702","SARL_v6","SARL_v61ddd848w","5f6e36c7f042f033d0f97bc1","freq_resp","","","img/blue_2bandit_b.png","70","img/blue_2bandit_b.png","70","test","","","","","","","","","","","5","","","","","","","","",""
"null","245854","SARL_v6","SARL_v61ddd848w","5f6e36c7f042f033d0f97bc1","fixation","","","img/fixation.png","null","","","test","","","","","","","","","","","","","","","","","","","",""
"321.2000000476837","246177","SARL_v6","SARL_v61ddd848w","5f6e36c7f042f033d0f97bc1","freq","","","img/blue_2bandit_b2.png","70","","70","test","1","","105","","","","circle","square","101","18","5","0.9702970297029703","","","","","","","",""
"null","246657","SARL_v6","SARL_v61ddd848w","5f6e36c7f042f033d0f97bc1","freq_resp","","","img/blue_2bandit_b.png","70","img/blue_2bandit_b.png","70","test","","","","","","","","","","","5","","","","","","","","",""
"null","246809","SARL_v6","SARL_v61ddd848w","5f6e36c7f042f033d0f97bc1","fixation","","","img/fixation.png","null","","","test","","","","","","","","","","","","","","","","","","","",""
"302.2999999523163","247113","SARL_v6","SARL_v61ddd848w","5f6e36c7f042f033d0f97bc1","freq","","","img/blue_2bandit_b2.png","70","","70","test","1","","106","","","","circle","square","102","19","5","0.9705882352941176","","","","","","","",""
"null","247612","SARL_v6","SARL_v61ddd848w","5f6e36c7f042f033d0f97bc1","freq_resp","","","img/blue_2bandit_b.png","70","img/blue_2bandit_b.png","70","test","","","","","","","","","","","5","","","","","","","","",""
"null","247765","SARL_v6","SARL_v61ddd848w","5f6e36c7f042f033d0f97bc1","fixation","","","img/fixation.png","null","","","test","","","","","","","","","","","","","","","","","","","",""
"330.5","248097","SARL_v6","SARL_v61ddd848w","5f6e36c7f042f033d0f97bc1","freq","","","img/blue_2bandit_b2.png","70","","70","test","1","","107","","","","circle","square","103","20","5","0.970873786407767","","","","","","","",""
"null","248568","SARL_v6","SARL_v61ddd848w","5f6e36c7f042f033d0f97bc1","freq_resp","","","img/blue_2bandit_b.png","70","img/blue_2bandit_b.png","70","test","","","","","","","","","","","5","","","","","","","","",""
"null","248720","SARL_v6","SARL_v61ddd848w","5f6e36c7f042f033d0f97bc1","fixation","","","img/fixation.png","null","","","test","","","","","","","","","","","","","","","","","","","",""
"295.5","249017","SARL_v6","SARL_v61ddd848w","5f6e36c7f042f033d0f97bc1","freq","","","img/blue_2bandit_b2.png","70","","70","test","1","","108","","","","circle","square","104","21","5","0.9711538461538461","","","","","","","",""
"null","249524","SARL_v6","SARL_v61ddd848w","5f6e36c7f042f033d0f97bc1","freq_resp","","","img/blue_2bandit_b.png","70","img/blue_2bandit_b.png","70","test","","","","","","","","","","","5","","","","","","","","",""
"null","249677","SARL_v6","SARL_v61ddd848w","5f6e36c7f042f033d0f97bc1","fixation","","","img/fixation.png","null","","","test","","","","","","","","","","","","","","","","","","","",""
"338.7999999523163","250017","SARL_v6","SARL_v61ddd848w","5f6e36c7f042f033d0f97bc1","freq","","","img/blue_2bandit_b2.png","70","","70","test","1","","109","","","","circle","square","105","22","5","0.9714285714285714","","","","","","","",""
"null","250481","SARL_v6","SARL_v61ddd848w","5f6e36c7f042f033d0f97bc1","freq_resp","","","img/blue_2bandit_b.png","70","img/blue_2bandit_b.png","70","test","","","","","","","","","","","5","","","","","","","","",""
"null","250634","SARL_v6","SARL_v61ddd848w","5f6e36c7f042f033d0f97bc1","fixation","","","img/fixation.png","null","","","test","","","","","","","","","","","","","","","","","","","",""
"301.89999985694885","250937","SARL_v6","SARL_v61ddd848w","5f6e36c7f042f033d0f97bc1","freq","","","img/blue_2bandit_b2.png","70","","70","test","1","","110","","","","circle","square","106","23","5","0.9716981132075472","","","","","","","",""
"null","251438","SARL_v6","SARL_v61ddd848w","5f6e36c7f042f033d0f97bc1","freq_resp","","","img/blue_2bandit_b.png","70","img/blue_2bandit_b.png","70","test","","","","","","","","","","","5","","","","","","","","",""
"null","251590","SARL_v6","SARL_v61ddd848w","5f6e36c7f042f033d0f97bc1","fixation","","","img/fixation.png","null","","","test","","","","","","","","","","","","","","","","","","","",""
"322","251913","SARL_v6","SARL_v61ddd848w","5f6e36c7f042f033d0f97bc1","freq","","","img/blue_2bandit_b2.png","70","","70","test","1","","111","","","","circle","square","107","24","5","0.9719626168224299","","","","","","","",""
"null","252394","SARL_v6","SARL_v61ddd848w","5f6e36c7f042f033d0f97bc1","freq_resp","","","img/blue_2bandit_b.png","70","img/blue_2bandit_b.png","70","test","","","","","","","","","","","5","","","","","","","","",""
"null","252547","SARL_v6","SARL_v61ddd848w","5f6e36c7f042f033d0f97bc1","fixation","","","img/fixation.png","null","","","test","","","","","","","","","","","","","","","","","","","",""
"325","252873","SARL_v6","SARL_v61ddd848w","5f6e36c7f042f033d0f97bc1","freq","","","img/blue_2bandit_b2.png","70","","70","test","1","","112","","","","circle","square","108","25","5","0.9722222222222222","","","","","","","",""
"null","253351","SARL_v6","SARL_v61ddd848w","5f6e36c7f042f033d0f97bc1","freq_resp","","","img/blue_2bandit_b.png","70","img/blue_2bandit_b.png","70","test","","","","","","","","","","","5","","","","","","","","",""
"null","253503","SARL_v6","SARL_v61ddd848w","5f6e36c7f042f033d0f97bc1","fixation","","","img/fixation.png","null","","","test","","","","","","","","","","","","","","","","","","","",""
"384.2000000476837","253889","SARL_v6","SARL_v61ddd848w","5f6e36c7f042f033d0f97bc1","rl","","","img/black_2bandit_b2.png","75","","0","test","","","113","","","4","circle","square","","0","5","","75","-7","4","-7","4","square","5","0"
"null","254641","SARL_v6","SARL_v61ddd848w","5f6e36c7f042f033d0f97bc1","feedback","","","<div class=""veryhighPoints_sq""> 4 </div>","null","","na","test","","","NaN","","","","","","","","5","","75","","","","","","5",""
"430.5","255073","SARL_v6","SARL_v61ddd848w","5f6e36c7f042f033d0f97bc1","freq","","","img/blue_2bandit_b2.png","70","","70","test","1","","114","","","","circle","square","109","1","6","0.9724770642201835","","","","","","","",""
"null","255444","SARL_v6","SARL_v61ddd848w","5f6e36c7f042f033d0f97bc1","freq_resp","","","img/blue_2bandit_b.png","70","img/blue_2bandit_b.png","70","test","","","","","","","","","","","6","","","","","","","","",""
"null","255597","SARL_v6","SARL_v61ddd848w","5f6e36c7f042f033d0f97bc1","fixation","","","img/fixation.png","null","","","test","","","","","","","","","","","","","","","","","","","",""
"586.6000001430511","256185","SARL_v6","SARL_v61ddd848w","5f6e36c7f042f033d0f97bc1","infreq","","","img/orange_2bandit_b2.png","68","","68","test","1","","115","","","","circle","square","110","2","6","0.9727272727272728","","","","","","","",""
"null","256400","SARL_v6","SARL_v61ddd848w","5f6e36c7f042f033d0f97bc1","infreq_resp","","","img/orange_2bandit_b.png","68","img/orange_2bandit_b.png","68","test","","","","","","","","","","","6","","","","","","","","",""
"null","256553","SARL_v6","SARL_v61ddd848w","5f6e36c7f042f033d0f97bc1","fixation","","","img/fixation.png","null","","","test","","","","","","","","","","","","","","","","","","","",""
"478.7999999523163","257033","SARL_v6","SARL_v61ddd848w","5f6e36c7f042f033d0f97bc1","infreq","","","img/orange_2bandit_b2.png","68","","68","test","1","","116","","","","circle","square","111","3","6","0.972972972972973","","","","","","","",""
"null","257357","SARL_v6","SARL_v61ddd848w","5f6e36c7f042f033d0f97bc1","infreq_resp","","","img/orange_2bandit_b.png","68","img/orange_2bandit_b.png","68","test","","","","","","","","","","","6","","","","","","","","",""
"null","257509","SARL_v6","SARL_v61ddd848w","5f6e36c7f042f033d0f97bc1","fixation","","","img/fixation.png","null","","","test","","","","","","","","","","","","","","","","","","","",""
"458.7999999523163","257969","SARL_v6","SARL_v61ddd848w","5f6e36c7f042f033d0f97bc1","freq","","","img/blue_2bandit_b2.png","70","","70","test","1","","117","","","","circle","square","112","4","6","0.9732142857142857","","","","","","","",""
"null","258313","SARL_v6","SARL_v61ddd848w","5f6e36c7f042f033d0f97bc1","freq_resp","","","img/blue_2bandit_b.png","70","img/blue_2bandit_b.png","70","test","","","","","","","","","","","6","","","","","","","","",""
"null","258465","SARL_v6","SARL_v61ddd848w","5f6e36c7f042f033d0f97bc1","fixation","","","img/fixation.png","null","","","test","","","","","","","","","","","","","","","","","","","",""
"463","258929","SARL_v6","SARL_v61ddd848w","5f6e36c7f042f033d0f97bc1","freq","","","img/blue_2bandit_b2.png","70","","70","test","1","","118","","","","circle","square","113","5","6","0.9734513274336283","","","","","","","",""
"null","259269","SARL_v6","SARL_v61ddd848w","5f6e36c7f042f033d0f97bc1","freq_resp","","","img/blue_2bandit_b.png","70","img/blue_2bandit_b.png","70","test","","","","","","","","","","","6","","","","","","","","",""
"null","259420","SARL_v6","SARL_v61ddd848w","5f6e36c7f042f033d0f97bc1","fixation","","","img/fixation.png","null","","","test","","","","","","","","","","","","","","","","","","","",""
"459.2000000476837","259881","SARL_v6","SARL_v61ddd848w","5f6e36c7f042f033d0f97bc1","freq","","","img/blue_2bandit_b2.png","70","","70","test","1","","119","","","","circle","square","114","6","6","0.9736842105263158","","","","","","","",""
"null","260224","SARL_v6","SARL_v61ddd848w","5f6e36c7f042f033d0f97bc1","freq_resp","","","img/blue_2bandit_b.png","70","img/blue_2bandit_b.png","70","test","","","","","","","","","","","6","","","","","","","","",""
"null","260375","SARL_v6","SARL_v61ddd848w","5f6e36c7f042f033d0f97bc1","fixation","","","img/fixation.png","null","","","test","","","","","","","","","","","","","","","","","","","",""
"328.2999999523163","260705","SARL_v6","SARL_v61ddd848w","5f6e36c7f042f033d0f97bc1","freq","","","img/blue_2bandit_b2.png","70","","70","test","1","","120","","","","circle","square","115","7","6","0.9739130434782609","","","","","","","",""
"null","261178","SARL_v6","SARL_v61ddd848w","5f6e36c7f042f033d0f97bc1","freq_resp","","","img/blue_2bandit_b.png","70","img/blue_2bandit_b.png","70","test","","","","","","","","","","","6","","","","","","","","",""
"null","261330","SARL_v6","SARL_v61ddd848w","5f6e36c7f042f033d0f97bc1","fixation","","","img/fixation.png","null","","","test","","","","","","","","","","","","","","","","","","","",""
"349.2999999523163","261681","SARL_v6","SARL_v61ddd848w","5f6e36c7f042f033d0f97bc1","freq","","","img/blue_2bandit_b2.png","70","","70","test","1","","121","","","","circle","square","116","8","6","0.9741379310344828","","","","","","","",""
"null","262133","SARL_v6","SARL_v61ddd848w","5f6e36c7f042f033d0f97bc1","freq_resp","","","img/blue_2bandit_b.png","70","img/blue_2bandit_b.png","70","test","","","","","","","","","","","6","","","","","","","","",""
"null","262286","SARL_v6","SARL_v61ddd848w","5f6e36c7f042f033d0f97bc1","fixation","","","img/fixation.png","null","","","test","","","","","","","","","","","","","","","","","","","",""
"289.40000009536743","262577","SARL_v6","SARL_v61ddd848w","5f6e36c7f042f033d0f97bc1","freq","","","img/blue_2bandit_b2.png","70","","70","test","1","","122","","","","circle","square","117","9","6","0.9743589743589743","","","","","","","",""
"null","263089","SARL_v6","SARL_v61ddd848w","5f6e36c7f042f033d0f97bc1","freq_resp","","","img/blue_2bandit_b.png","70","img/blue_2bandit_b.png","70","test","","","","","","","","","","","6","","","","","","","","",""
"null","263242","SARL_v6","SARL_v61ddd848w","5f6e36c7f042f033d0f97bc1","fixation","","","img/fixation.png","null","","","test","","","","","","","","","","","","","","","","","","","",""
"309.59999990463257","263553","SARL_v6","SARL_v61ddd848w","5f6e36c7f042f033d0f97bc1","freq","","","img/blue_2bandit_b2.png","70","","70","test","1","","123","","","","circle","square","118","10","6","0.9745762711864406","","","","","","","",""
"null","264045","SARL_v6","SARL_v61ddd848w","5f6e36c7f042f033d0f97bc1","freq_resp","","","img/blue_2bandit_b.png","70","img/blue_2bandit_b.png","70","test","","","","","","","","","","","6","","","","","","","","",""
"null","264198","SARL_v6","SARL_v61ddd848w","5f6e36c7f042f033d0f97bc1","fixation","","","img/fixation.png","null","","","test","","","","","","","","","","","","","","","","","","","",""
"265.7999999523163","264465","SARL_v6","SARL_v61ddd848w","5f6e36c7f042f033d0f97bc1","freq","","","img/blue_2bandit_b2.png","70","","70","test","1","","124","","","","circle","square","119","11","6","0.9747899159663865","","","","","","","",""
"null","265002","SARL_v6","SARL_v61ddd848w","5f6e36c7f042f033d0f97bc1","freq_resp","","","img/blue_2bandit_b.png","70","img/blue_2bandit_b.png","70","test","","","","","","","","","","","6","","","","","","","","",""
"null","265155","SARL_v6","SARL_v61ddd848w","5f6e36c7f042f033d0f97bc1","fixation","","","img/fixation.png","null","","","test","","","","","","","","","","","","","","","","","","","",""
"276.7999999523163","265433","SARL_v6","SARL_v61ddd848w","5f6e36c7f042f033d0f97bc1","freq","","","img/blue_2bandit_b2.png","70","","70","test","1","","125","","","","circle","square","120","12","6","0.975","","","","","","","",""
"null","265959","SARL_v6","SARL_v61ddd848w","5f6e36c7f042f033d0f97bc1","freq_resp","","","img/blue_2bandit_b.png","70","img/blue_2bandit_b.png","70","test","","","","","","","","","","","6","","","","","","","","",""
"null","266112","SARL_v6","SARL_v61ddd848w","5f6e36c7f042f033d0f97bc1","fixation","","","img/fixation.png","null","","","test","","","","","","","","","","","","","","","","","","","",""
"264","266377","SARL_v6","SARL_v61ddd848w","5f6e36c7f042f033d0f97bc1","freq","","","img/blue_2bandit_b2.png","70","","70","test","1","","126","","","","circle","square","121","13","6","0.9752066115702479","","","","","","","",""
"null","266916","SARL_v6","SARL_v61ddd848w","5f6e36c7f042f033d0f97bc1","freq_resp","","","img/blue_2bandit_b.png","70","img/blue_2bandit_b.png","70","test","","","","","","","","","","","6","","","","","","","","",""
"null","267068","SARL_v6","SARL_v61ddd848w","5f6e36c7f042f033d0f97bc1","fixation","","","img/fixation.png","null","","","test","","","","","","","","","","","","","","","","","","","",""
"364.09999990463257","267433","SARL_v6","SARL_v61ddd848w","5f6e36c7f042f033d0f97bc1","freq","","","img/blue_2bandit_b2.png","70","","70","test","1","","127","","","","circle","square","122","14","6","0.9754098360655737","","","","","","","",""
"null","267871","SARL_v6","SARL_v61ddd848w","5f6e36c7f042f033d0f97bc1","freq_resp","","","img/blue_2bandit_b.png","70","img/blue_2bandit_b.png","70","test","","","","","","","","","","","6","","","","","","","","",""
"null","268023","SARL_v6","SARL_v61ddd848w","5f6e36c7f042f033d0f97bc1","fixation","","","img/fixation.png","null","","","test","","","","","","","","","","","","","","","","","","","",""
"328.10000014305115","268353","SARL_v6","SARL_v61ddd848w","5f6e36c7f042f033d0f97bc1","freq","","","img/blue_2bandit_b2.png","70","","70","test","1","","128","","","","circle","square","123","15","6","0.975609756097561","","","","","","","",""
"null","268827","SARL_v6","SARL_v61ddd848w","5f6e36c7f042f033d0f97bc1","freq_resp","","","img/blue_2bandit_b.png","70","img/blue_2bandit_b.png","70","test","","","","","","","","","","","6","","","","","","","","",""
"null","268979","SARL_v6","SARL_v61ddd848w","5f6e36c7f042f033d0f97bc1","fixation","","","img/fixation.png","null","","","test","","","","","","","","","","","","","","","","","","","",""
"300.39999985694885","269281","SARL_v6","SARL_v61ddd848w","5f6e36c7f042f033d0f97bc1","freq","","","img/blue_2bandit_b2.png","70","","70","test","1","","129","","","","circle","square","124","16","6","0.9758064516129032","","","","","","","",""
"null","269783","SARL_v6","SARL_v61ddd848w","5f6e36c7f042f033d0f97bc1","freq_resp","","","img/blue_2bandit_b.png","70","img/blue_2bandit_b.png","70","test","","","","","","","","","","","6","","","","","","","","",""
"null","269935","SARL_v6","SARL_v61ddd848w","5f6e36c7f042f033d0f97bc1","fixation","","","img/fixation.png","null","","","test","","","","","","","","","","","","","","","","","","","",""
"288.39999985694885","270225","SARL_v6","SARL_v61ddd848w","5f6e36c7f042f033d0f97bc1","freq","","","img/blue_2bandit_b2.png","70","","70","test","1","","130","","","","circle","square","125","17","6","0.976","","","","","","","",""
"null","270738","SARL_v6","SARL_v61ddd848w","5f6e36c7f042f033d0f97bc1","freq_resp","","","img/blue_2bandit_b.png","70","img/blue_2bandit_b.png","70","test","","","","","","","","","","","6","","","","","","","","",""
"null","270890","SARL_v6","SARL_v61ddd848w","5f6e36c7f042f033d0f97bc1","fixation","","","img/fixation.png","null","","","test","","","","","","","","","","","","","","","","","","","",""
