"rt","time_elapsed","expId","subject","prolificID","trialType","rlType","attType","stimulus","key_press","stim","corrresp","phase","corr","pracCounter","trialNum","rewardOne","rewardTwo","reward","bandOne","bandTwo","attentionNum","attentionRunNum","blockNum","performance","bandChosen","circleVal","squareVal","bandOneVal","bandTwoVal","shapeChosen","rlNum","badFlag"
"4550.6999999999825","4556","SARL_v6","SARL_v67gokvw9w","61686f8376bd6ff59ea15479","","","","","","","","","","","","","","","","","","","","","","","","","","","",""
"","7018","SARL_v6","SARL_v67gokvw9w","61686f8376bd6ff59ea15479","fullscreen","fullscreen","fullscreen","","","","","","","","","","","","","","","","","","","","","","","","",""
"67820.6","74841","SARL_v6","SARL_v67gokvw9w","61686f8376bd6ff59ea15479","","","","","","","","","","","","","","","","","","","","","","","","","","","",""
"null","75653","SARL_v6","SARL_v67gokvw9w","61686f8376bd6ff59ea15479","freqPrac","","","img/orange_2bandit_b2.png","null","img/orange_2bandit_b2.png","70","prac","0","1","","","","","","","","","","","","","","","","","",""
"null","76663","SARL_v6","SARL_v67gokvw9w","61686f8376bd6ff59ea15479","feedback","","","img/tooSlow.png","null","","na","prac","","","","","","","","","","","","","","","","","","","",""
"null","76820","SARL_v6","SARL_v67gokvw9w","61686f8376bd6ff59ea15479","fixation","","","img/fixation.png","null","","","prac","","","","","","","","","","","","","","","","","","","",""
"539.3999999999942","77362","SARL_v6","SARL_v67gokvw9w","61686f8376bd6ff59ea15479","infreqPrac","","","img/blue_2bandit_b2.png","68","img/blue_2bandit_b2.png","68","prac","1","1","","","","","","","","","","","","","","","","","",""
"539.3999999999942","77632","SARL_v6","SARL_v67gokvw9w","61686f8376bd6ff59ea15479","infreqPrac_resp","","","img/blue_2bandit_b.png","68","img/blue_2bandit_b.png","68","prac","","","","","","","","","","","","","","","","","","","",""
"null","77790","SARL_v6","SARL_v67gokvw9w","61686f8376bd6ff59ea15479","fixation","","","img/fixation.png","null","","","prac","","","","","","","","","","","","","","","","","","","",""
"478.20000000001164","78270","SARL_v6","SARL_v67gokvw9w","61686f8376bd6ff59ea15479","freqPrac","","","img/orange_2bandit_b2.png","70","img/orange_2bandit_b2.png","70","prac","1","1","","","","","","","","","","","","","","","","","",""
"478.20000000001164","78600","SARL_v6","SARL_v67gokvw9w","61686f8376bd6ff59ea15479","freqPrac_resp","","","img/orange_2bandit_b.png","70","img/orange_2bandit_b.png","70","prac","","","","","","","","","","","","","","","","","","","",""
"null","78760","SARL_v6","SARL_v67gokvw9w","61686f8376bd6ff59ea15479","fixation","","","img/fixation.png","null","","","prac","","","","","","","","","","","","","","","","","","","",""
"436.20000000001164","79198","SARL_v6","SARL_v67gokvw9w","61686f8376bd6ff59ea15479","infreqPrac","","","img/blue_2bandit_b2.png","68","img/blue_2bandit_b2.png","68","prac","1","1","","","","","","","","","","","","","","","","","",""
"436.20000000001164","79576","SARL_v6","SARL_v67gokvw9w","61686f8376bd6ff59ea15479","infreqPrac_resp","","","img/blue_2bandit_b.png","68","img/blue_2bandit_b.png","68","prac","","","","","","","","","","","","","","","","","","","",""
"null","79736","SARL_v6","SARL_v67gokvw9w","61686f8376bd6ff59ea15479","fixation","","","img/fixation.png","null","","","prac","","","","","","","","","","","","","","","","","","","",""
"561.8999999999651","80300","SARL_v6","SARL_v67gokvw9w","61686f8376bd6ff59ea15479","infreqPrac","","","img/blue_2bandit_b2.png","68","img/blue_2bandit_b2.png","68","prac","1","1","","","","","","","","","","","","","","","","","",""
"561.8999999999651","80547","SARL_v6","SARL_v67gokvw9w","61686f8376bd6ff59ea15479","infreqPrac_resp","","","img/blue_2bandit_b.png","68","img/blue_2bandit_b.png","68","prac","","","","","","","","","","","","","","","","","","","",""
"null","80712","SARL_v6","SARL_v67gokvw9w","61686f8376bd6ff59ea15479","fixation","","","img/fixation.png","null","","","prac","","","","","","","","","","","","","","","","","","","",""
"381.69999999995343","81096","SARL_v6","SARL_v67gokvw9w","61686f8376bd6ff59ea15479","infreqPrac","","","img/blue_2bandit_b2.png","68","img/blue_2bandit_b2.png","68","prac","1","1","","","","","","","","","","","","","","","","","",""
"381.69999999995343","81527","SARL_v6","SARL_v67gokvw9w","61686f8376bd6ff59ea15479","infreqPrac_resp","","","img/blue_2bandit_b.png","68","img/blue_2bandit_b.png","68","prac","","","","","","","","","","","","","","","","","","","",""
"null","81688","SARL_v6","SARL_v67gokvw9w","61686f8376bd6ff59ea15479","fixation","","","img/fixation.png","null","","","prac","","","","","","","","","","","","","","","","","","","",""
"552.6000000000349","82243","SARL_v6","SARL_v67gokvw9w","61686f8376bd6ff59ea15479","freqPrac","","","img/orange_2bandit_b2.png","70","img/orange_2bandit_b2.png","70","prac","1","1","","","","","","","","","","","","","","","","","",""
"552.6000000000349","82502","SARL_v6","SARL_v67gokvw9w","61686f8376bd6ff59ea15479","freqPrac_resp","","","img/orange_2bandit_b.png","70","img/orange_2bandit_b.png","70","prac","","","","","","","","","","","","","","","","","","","",""
"null","82662","SARL_v6","SARL_v67gokvw9w","61686f8376bd6ff59ea15479","fixation","","","img/fixation.png","null","","","prac","","","","","","","","","","","","","","","","","","","",""
"624.1999999999534","83288","SARL_v6","SARL_v67gokvw9w","61686f8376bd6ff59ea15479","infreqPrac","","","img/blue_2bandit_b2.png","68","img/blue_2bandit_b2.png","68","prac","1","1","","","","","","","","","","","","","","","","","",""
"624.1999999999534","83471","SARL_v6","SARL_v67gokvw9w","61686f8376bd6ff59ea15479","infreqPrac_resp","","","img/blue_2bandit_b.png","68","img/blue_2bandit_b.png","68","prac","","","","","","","","","","","","","","","","","","","",""
"null","83632","SARL_v6","SARL_v67gokvw9w","61686f8376bd6ff59ea15479","fixation","","","img/fixation.png","null","","","prac","","","","","","","","","","","","","","","","","","","",""
"481.70000000001164","84116","SARL_v6","SARL_v67gokvw9w","61686f8376bd6ff59ea15479","freqPrac","","","img/orange_2bandit_b2.png","70","img/orange_2bandit_b2.png","70","prac","1","1","","","","","","","","","","","","","","","","","",""
"481.70000000001164","84448","SARL_v6","SARL_v67gokvw9w","61686f8376bd6ff59ea15479","freqPrac_resp","","","img/orange_2bandit_b.png","70","img/orange_2bandit_b.png","70","prac","","","","","","","","","","","","","","","","","","","",""
"null","84604","SARL_v6","SARL_v67gokvw9w","61686f8376bd6ff59ea15479","fixation","","","img/fixation.png","null","","","prac","","","","","","","","","","","","","","","","","","","",""
"466.29999999998836","85072","SARL_v6","SARL_v67gokvw9w","61686f8376bd6ff59ea15479","freqPrac","","","img/orange_2bandit_b2.png","70","img/orange_2bandit_b2.png","70","prac","1","1","","","","","","","","","","","","","","","","","",""
"466.29999999998836","85412","SARL_v6","SARL_v67gokvw9w","61686f8376bd6ff59ea15479","freqPrac_resp","","","img/orange_2bandit_b.png","70","img/orange_2bandit_b.png","70","prac","","","","","","","","","","","","","","","","","","","",""
"null","85576","SARL_v6","SARL_v67gokvw9w","61686f8376bd6ff59ea15479","fixation","","","img/fixation.png","null","","","prac","","","","","","","","","","","","","","","","","","","",""
"34593.69999999995","120172","SARL_v6","SARL_v67gokvw9w","61686f8376bd6ff59ea15479","","","","","","","","prac","","","","","","","","","","","","","","","","","","","",""
"722.5999999999767","120897","SARL_v6","SARL_v67gokvw9w","61686f8376bd6ff59ea15479","rlPractice","","","img/black_2bandit_b2.png","74","img/black_2bandit_b2.png","","prac","","","0","","","","","","","","","","","","","","","","",""
"null","121652","SARL_v6","SARL_v67gokvw9w","61686f8376bd6ff59ea15479","feedback","","","<div class=""veryhighPoints""> 10 </div>","null","","na","prac","","","1","10","-14","10","","","","","","","","","","","","","",""
"null","121816","SARL_v6","SARL_v67gokvw9w","61686f8376bd6ff59ea15479","fixation","","","img/fixation.png","null","","","prac","","","","","","","","","","","","","","","","","","","",""
"649.8999999999651","122468","SARL_v6","SARL_v67gokvw9w","61686f8376bd6ff59ea15479","rlPractice","","","img/black_2bandit_b2.png","74","img/black_2bandit_b2.png","","prac","","","1","","","","","","","","","","","","","","","","",""
"null","123232","SARL_v6","SARL_v67gokvw9w","61686f8376bd6ff59ea15479","feedback","","","<div class=""veryhighPoints""> 5 </div>","null","","na","prac","","","2","5","-5","5","","","","","","","","","","","","","",""
"null","123392","SARL_v6","SARL_v67gokvw9w","61686f8376bd6ff59ea15479","fixation","","","img/fixation.png","null","","","prac","","","","","","","","","","","","","","","","","","","",""
"557.3999999999651","123951","SARL_v6","SARL_v67gokvw9w","61686f8376bd6ff59ea15479","rlPractice","","","img/black_2bandit_b2.png","75","img/black_2bandit_b2.png","","prac","","","2","","","","","","","","","","","","","","","","",""
"null","124711","SARL_v6","SARL_v67gokvw9w","61686f8376bd6ff59ea15479","feedback","","","<div class=""veryhighPoints_sq""> 2 </div>","null","","na","prac","","","3","30","2","30","","","","","","","","","","","","","",""
"null","124872","SARL_v6","SARL_v67gokvw9w","61686f8376bd6ff59ea15479","fixation","","","img/fixation.png","null","","","prac","","","","","","","","","","","","","","","","","","","",""
"423.19999999995343","125297","SARL_v6","SARL_v67gokvw9w","61686f8376bd6ff59ea15479","rlPractice","","","img/black_2bandit_b2.png","74","img/black_2bandit_b2.png","","prac","","","3","","","","","","","","","","","","","","","","",""
"null","126056","SARL_v6","SARL_v67gokvw9w","61686f8376bd6ff59ea15479","feedback","","","<div class=""verylowPoints""> -2 </div>","null","","na","prac","","","4","-2","20","-2","","","","","","","","","","","","","",""
"null","126214","SARL_v6","SARL_v67gokvw9w","61686f8376bd6ff59ea15479","fixation","","","img/fixation.png","null","","","prac","","","","","","","","","","","","","","","","","","","",""
"21430.70000000001","147647","SARL_v6","SARL_v67gokvw9w","61686f8376bd6ff59ea15479","","","","","","","","prac","","","","","","","","","","","","","","","","","","","",""
"598.8000000000466","148247","SARL_v6","SARL_v67gokvw9w","61686f8376bd6ff59ea15479","mixAttFreqPrac","","","img/orange_2bandit_b2.png","70","img/orange_2bandit_b2.png","70","prac","","","1","","","","","","","","","","","","","","","","",""
"598.8000000000466","148461","SARL_v6","SARL_v67gokvw9w","61686f8376bd6ff59ea15479","freqPrac_resp","","","img/orange_2bandit_b.png","70","img/orange_2bandit_b.png","70","prac","","","1","","","","","","","","","","","","","","","","",""
"null","148625","SARL_v6","SARL_v67gokvw9w","61686f8376bd6ff59ea15479","fixation","","","img/fixation.png","null","","","prac","","","","","","","","","","","","","","","","","","","",""
"601.2000000000116","149228","SARL_v6","SARL_v67gokvw9w","61686f8376bd6ff59ea15479","mixAttInfreqPrac","","","img/blue_2bandit_b2.png","68","img/blue_2bandit_b2.png","68","prac","","","2","","","","","","","","","","","","","","","","",""
"601.2000000000116","149435","SARL_v6","SARL_v67gokvw9w","61686f8376bd6ff59ea15479","infreqPrac_resp","","","img/blue_2bandit_b.png","68","img/orange_2bandit_b.png","68","prac","","","2","","","","","","","","","","","","","","","","",""
"null","149600","SARL_v6","SARL_v67gokvw9w","61686f8376bd6ff59ea15479","fixation","","","img/fixation.png","null","","","prac","","","","","","","","","","","","","","","","","","","",""
"693.3999999999651","150296","SARL_v6","SARL_v67gokvw9w","61686f8376bd6ff59ea15479","mixAttInfreqPrac","","","img/blue_2bandit_b2.png","68","img/blue_2bandit_b2.png","68","prac","","","3","","","","","","","","","","","","","","","","",""
"693.3999999999651","150405","SARL_v6","SARL_v67gokvw9w","61686f8376bd6ff59ea15479","infreqPrac_resp","","","img/blue_2bandit_b.png","68","img/orange_2bandit_b.png","68","prac","","","3","","","","","","","","","","","","","","","","",""
"null","150567","SARL_v6","SARL_v67gokvw9w","61686f8376bd6ff59ea15479","fixation","","","img/fixation.png","null","","","prac","","","","","","","","","","","","","","","","","","","",""
"751","151320","SARL_v6","SARL_v67gokvw9w","61686f8376bd6ff59ea15479","mixAttInfreqPrac","","","img/blue_2bandit_b2.png","68","img/blue_2bandit_b2.png","68","prac","","","4","","","","","","","","","","","","","","","","",""
"751","151379","SARL_v6","SARL_v67gokvw9w","61686f8376bd6ff59ea15479","infreqPrac_resp","","","img/blue_2bandit_b.png","68","img/orange_2bandit_b.png","68","prac","","","4","","","","","","","","","","","","","","","","",""
"null","151544","SARL_v6","SARL_v67gokvw9w","61686f8376bd6ff59ea15479","fixation","","","img/fixation.png","null","","","prac","","","","","","","","","","","","","","","","","","","",""
"563.7999999999884","152110","SARL_v6","SARL_v67gokvw9w","61686f8376bd6ff59ea15479","mixAttFreqPrac","","","img/orange_2bandit_b2.png","70","img/orange_2bandit_b2.png","70","prac","","","5","","","","","","","","","","","","","","","","",""
"563.7999999999884","152359","SARL_v6","SARL_v67gokvw9w","61686f8376bd6ff59ea15479","freqPrac_resp","","","img/orange_2bandit_b.png","70","img/orange_2bandit_b.png","70","prac","","","5","","","","","","","","","","","","","","","","",""
"null","152520","SARL_v6","SARL_v67gokvw9w","61686f8376bd6ff59ea15479","fixation","","","img/fixation.png","null","","","prac","","","","","","","","","","","","","","","","","","","",""
"821","153343","SARL_v6","SARL_v67gokvw9w","61686f8376bd6ff59ea15479","mixRLPractice","","","img/black_2bandit_b2.png","74","img/black_2bandit_b2.png","","prac","","","5","","","","","","","","","","","","","","","","",""
"null","154101","SARL_v6","SARL_v67gokvw9w","61686f8376bd6ff59ea15479","feedback","","","<div class=""verylowPoints""> -14 </div>","null","","na","prac","","","6","-14","10","-14","","","","","","","","","","","","","",""
"null","154265","SARL_v6","SARL_v67gokvw9w","61686f8376bd6ff59ea15479","fixation","","","img/fixation.png","null","","","prac","","","","","","","","","","","","","","","","","","","",""
"null","155078","SARL_v6","SARL_v67gokvw9w","61686f8376bd6ff59ea15479","mixAttFreqPrac","","","img/orange_2bandit_b2.png","null","img/orange_2bandit_b2.png","70","prac","","","7","","","","","","","","","","","","","","","","",""
"null","155240","SARL_v6","SARL_v67gokvw9w","61686f8376bd6ff59ea15479","fixation","","","img/fixation.png","null","","","prac","","","","","","","","","","","","","","","","","","","",""
"595.2999999999884","155838","SARL_v6","SARL_v67gokvw9w","61686f8376bd6ff59ea15479","mixAttInfreqPrac","","","img/blue_2bandit_b2.png","68","img/blue_2bandit_b2.png","68","prac","","","8","","","","","","","","","","","","","","","","",""
"595.2999999999884","156056","SARL_v6","SARL_v67gokvw9w","61686f8376bd6ff59ea15479","infreqPrac_resp","","","img/blue_2bandit_b.png","68","img/orange_2bandit_b.png","68","prac","","","8","","","","","","","","","","","","","","","","",""
"null","156216","SARL_v6","SARL_v67gokvw9w","61686f8376bd6ff59ea15479","fixation","","","img/fixation.png","null","","","prac","","","","","","","","","","","","","","","","","","","",""
"500.6000000000349","156719","SARL_v6","SARL_v67gokvw9w","61686f8376bd6ff59ea15479","mixAttFreqPrac","","","img/orange_2bandit_b2.png","70","img/orange_2bandit_b2.png","70","prac","","","9","","","","","","","","","","","","","","","","",""
"500.6000000000349","157033","SARL_v6","SARL_v67gokvw9w","61686f8376bd6ff59ea15479","freqPrac_resp","","","img/orange_2bandit_b.png","70","img/orange_2bandit_b.png","70","prac","","","9","","","","","","","","","","","","","","","","",""
"null","157192","SARL_v6","SARL_v67gokvw9w","61686f8376bd6ff59ea15479","fixation","","","img/fixation.png","null","","","prac","","","","","","","","","","","","","","","","","","","",""
"684","157878","SARL_v6","SARL_v67gokvw9w","61686f8376bd6ff59ea15479","mixAttFreqPrac","","","img/orange_2bandit_b2.png","70","img/orange_2bandit_b2.png","70","prac","","","10","","","","","","","","","","","","","","","","",""
"684","158004","SARL_v6","SARL_v67gokvw9w","61686f8376bd6ff59ea15479","freqPrac_resp","","","img/orange_2bandit_b.png","70","img/orange_2bandit_b.png","70","prac","","","10","","","","","","","","","","","","","","","","",""
"null","158168","SARL_v6","SARL_v67gokvw9w","61686f8376bd6ff59ea15479","fixation","","","img/fixation.png","null","","","prac","","","","","","","","","","","","","","","","","","","",""
"669.9000000000233","158840","SARL_v6","SARL_v67gokvw9w","61686f8376bd6ff59ea15479","mixAttInfreqPrac","","","img/blue_2bandit_b2.png","68","img/blue_2bandit_b2.png","68","prac","","","11","","","","","","","","","","","","","","","","",""
"669.9000000000233","158985","SARL_v6","SARL_v67gokvw9w","61686f8376bd6ff59ea15479","infreqPrac_resp","","","img/blue_2bandit_b.png","68","img/orange_2bandit_b.png","68","prac","","","11","","","","","","","","","","","","","","","","",""
"null","159139","SARL_v6","SARL_v67gokvw9w","61686f8376bd6ff59ea15479","fixation","","","img/fixation.png","null","","","prac","","","","","","","","","","","","","","","","","","","",""
"643.5999999999767","159785","SARL_v6","SARL_v67gokvw9w","61686f8376bd6ff59ea15479","mixRLPractice","","","img/black_2bandit_b2.png","75","img/black_2bandit_b2.png","","prac","","","11","","","","","","","","","","","","","","","","",""
"null","160545","SARL_v6","SARL_v67gokvw9w","61686f8376bd6ff59ea15479","feedback","","","<div class=""verylowPoints_sq""> -5 </div>","null","","na","prac","","","12","5","-5","5","","","","","","","","","","","","","",""
"null","160700","SARL_v6","SARL_v67gokvw9w","61686f8376bd6ff59ea15479","fixation","","","img/fixation.png","null","","","prac","","","","","","","","","","","","","","","","","","","",""
"14172.299999999988","174874","SARL_v6","SARL_v67gokvw9w","61686f8376bd6ff59ea15479","","","","","","","","prac","","","","","","","","","","","","","","","","","","","",""
"655","175531","SARL_v6","SARL_v67gokvw9w","61686f8376bd6ff59ea15479","freq","","","img/orange_2bandit_b2.png","68","","70","test","0","","1","","","","circle","square","1","1","1","0","","","","","","","",""
"null","175685","SARL_v6","SARL_v67gokvw9w","61686f8376bd6ff59ea15479","freq_resp","","","img/orange_2bandit_b.png","68","img/orange_2bandit_b.png","70","test","","","","","","","","","","","1","","","","","","","","",""
"null","175849","SARL_v6","SARL_v67gokvw9w","61686f8376bd6ff59ea15479","fixation","","","img/fixation.png","null","","","test","","","","","","","","","","","","","","","","","","","",""
"469.70000000001164","176321","SARL_v6","SARL_v67gokvw9w","61686f8376bd6ff59ea15479","freq","","","img/orange_2bandit_b2.png","68","","70","test","0","","2","","","","circle","square","2","2","1","0","","","","","","","",""
"null","176662","SARL_v6","SARL_v67gokvw9w","61686f8376bd6ff59ea15479","freq_resp","","","img/orange_2bandit_b.png","68","img/orange_2bandit_b.png","70","test","","","","","","","","","","","1","","","","","","","","",""
"null","176825","SARL_v6","SARL_v67gokvw9w","61686f8376bd6ff59ea15479","fixation","","","img/fixation.png","null","","","test","","","","","","","","","","","","","","","","","","","",""
"516.2000000000116","177343","SARL_v6","SARL_v67gokvw9w","61686f8376bd6ff59ea15479","freq","","","img/orange_2bandit_b2.png","68","","70","test","0","","3","","","","circle","square","3","3","1","0","","","","","","","",""
"null","177640","SARL_v6","SARL_v67gokvw9w","61686f8376bd6ff59ea15479","freq_resp","","","img/orange_2bandit_b.png","68","img/orange_2bandit_b.png","70","test","","","","","","","","","","","1","","","","","","","","",""
"null","177797","SARL_v6","SARL_v67gokvw9w","61686f8376bd6ff59ea15479","fixation","","","img/fixation.png","null","","","test","","","","","","","","","","","","","","","","","","","",""
"681.7999999999884","178481","SARL_v6","SARL_v67gokvw9w","61686f8376bd6ff59ea15479","freq","","","img/orange_2bandit_b2.png","68","","70","test","0","","4","","","","circle","square","4","4","1","0","","","","","","","",""
"null","178605","SARL_v6","SARL_v67gokvw9w","61686f8376bd6ff59ea15479","freq_resp","","","img/orange_2bandit_b.png","68","img/orange_2bandit_b.png","70","test","","","","","","","","","","","1","","","","","","","","",""
"null","178767","SARL_v6","SARL_v67gokvw9w","61686f8376bd6ff59ea15479","fixation","","","img/fixation.png","null","","","test","","","","","","","","","","","","","","","","","","","",""
"471.19999999995343","179240","SARL_v6","SARL_v67gokvw9w","61686f8376bd6ff59ea15479","freq","","","img/orange_2bandit_b2.png","70","","70","test","1","","5","","","","circle","square","5","5","1","0.2","","","","","","","",""
"null","179578","SARL_v6","SARL_v67gokvw9w","61686f8376bd6ff59ea15479","freq_resp","","","img/orange_2bandit_b.png","70","img/orange_2bandit_b.png","70","test","","","","","","","","","","","1","","","","","","","","",""
"null","179731","SARL_v6","SARL_v67gokvw9w","61686f8376bd6ff59ea15479","fixation","","","img/fixation.png","null","","","test","","","","","","","","","","","","","","","","","","","",""
"702.8999999999651","180436","SARL_v6","SARL_v67gokvw9w","61686f8376bd6ff59ea15479","freq","","","img/orange_2bandit_b2.png","70","","70","test","1","","6","","","","circle","square","6","6","1","0.3333333333333333","","","","","","","",""
"null","180543","SARL_v6","SARL_v67gokvw9w","61686f8376bd6ff59ea15479","freq_resp","","","img/orange_2bandit_b.png","70","img/orange_2bandit_b.png","70","test","","","","","","","","","","","1","","","","","","","","",""
"null","180698","SARL_v6","SARL_v67gokvw9w","61686f8376bd6ff59ea15479","fixation","","","img/fixation.png","null","","","test","","","","","","","","","","","","","","","","","","","",""
"null","181506","SARL_v6","SARL_v67gokvw9w","61686f8376bd6ff59ea15479","freq","","","img/orange_2bandit_b2.png","null","","70","test","0","","7","","","","circle","square","7","7","1","0.2857142857142857","","","","","","","",""
"null","181667","SARL_v6","SARL_v67gokvw9w","61686f8376bd6ff59ea15479","fixation","","","img/fixation.png","null","","","test","","","","","","","","","","","","","","","","","","","",""
"792.3999999999651","182461","SARL_v6","SARL_v67gokvw9w","61686f8376bd6ff59ea15479","freq","","","img/orange_2bandit_b2.png","70","","70","test","1","","8","","","","circle","square","8","8","1","0.375","","","","","","","",""
"null","182474","SARL_v6","SARL_v67gokvw9w","61686f8376bd6ff59ea15479","freq_resp","","","img/orange_2bandit_b.png","70","img/orange_2bandit_b.png","70","test","","","","","","","","","","","1","","","","","","","","",""
"null","182634","SARL_v6","SARL_v67gokvw9w","61686f8376bd6ff59ea15479","fixation","","","img/fixation.png","null","","","test","","","","","","","","","","","","","","","","","","","",""
"null","183449","SARL_v6","SARL_v67gokvw9w","61686f8376bd6ff59ea15479","freq","","","img/orange_2bandit_b2.png","null","","70","test","0","","9","","","","circle","square","9","9","1","0.3333333333333333","","","","","","","",""
"null","183608","SARL_v6","SARL_v67gokvw9w","61686f8376bd6ff59ea15479","fixation","","","img/fixation.png","null","","","test","","","","","","","","","","","","","","","","","","","",""
"545.3999999999651","184156","SARL_v6","SARL_v67gokvw9w","61686f8376bd6ff59ea15479","infreq","","","img/blue_2bandit_b2.png","68","","68","test","1","","10","","","","circle","square","10","10","1","0.4","","","","","","","",""
"null","184422","SARL_v6","SARL_v67gokvw9w","61686f8376bd6ff59ea15479","infreq_resp","","","img/blue_2bandit_b.png","68","img/blue_2bandit_b.png","68","test","","","","","","","","","","","1","","","","","","","","",""
"null","184584","SARL_v6","SARL_v67gokvw9w","61686f8376bd6ff59ea15479","fixation","","","img/fixation.png","null","","","test","","","","","","","","","","","","","","","","","","","",""
"630.7000000000116","185217","SARL_v6","SARL_v67gokvw9w","61686f8376bd6ff59ea15479","freq","","","img/orange_2bandit_b2.png","70","","70","test","1","","11","","","","circle","square","11","11","1","0.45454545454545453","","","","","","","",""
"null","185401","SARL_v6","SARL_v67gokvw9w","61686f8376bd6ff59ea15479","freq_resp","","","img/orange_2bandit_b.png","70","img/orange_2bandit_b.png","70","test","","","","","","","","","","","1","","","","","","","","",""
"null","185558","SARL_v6","SARL_v67gokvw9w","61686f8376bd6ff59ea15479","fixation","","","img/fixation.png","null","","","test","","","","","","","","","","","","","","","","","","","",""
"719.7000000000116","186280","SARL_v6","SARL_v67gokvw9w","61686f8376bd6ff59ea15479","freq","","","img/orange_2bandit_b2.png","70","","70","test","1","","12","","","","circle","square","12","12","1","0.5","","","","","","","",""
"null","186372","SARL_v6","SARL_v67gokvw9w","61686f8376bd6ff59ea15479","freq_resp","","","img/orange_2bandit_b.png","70","img/orange_2bandit_b.png","70","test","","","","","","","","","","","1","","","","","","","","",""
"null","186537","SARL_v6","SARL_v67gokvw9w","61686f8376bd6ff59ea15479","fixation","","","img/fixation.png","null","","","test","","","","","","","","","","","","","","","","","","","",""
"745","187284","SARL_v6","SARL_v67gokvw9w","61686f8376bd6ff59ea15479","freq","","","img/orange_2bandit_b2.png","70","","70","test","1","","13","","","","circle","square","13","13","1","0.5384615384615384","","","","","","","",""
"null","187353","SARL_v6","SARL_v67gokvw9w","61686f8376bd6ff59ea15479","freq_resp","","","img/orange_2bandit_b.png","70","img/orange_2bandit_b.png","70","test","","","","","","","","","","","1","","","","","","","","",""
"null","187512","SARL_v6","SARL_v67gokvw9w","61686f8376bd6ff59ea15479","fixation","","","img/fixation.png","null","","","test","","","","","","","","","","","","","","","","","","","",""
"523.5","188038","SARL_v6","SARL_v67gokvw9w","61686f8376bd6ff59ea15479","infreq","","","img/blue_2bandit_b2.png","68","","68","test","1","","14","","","","circle","square","14","14","1","0.5714285714285714","","","","","","","",""
"null","188320","SARL_v6","SARL_v67gokvw9w","61686f8376bd6ff59ea15479","infreq_resp","","","img/blue_2bandit_b.png","68","img/blue_2bandit_b.png","68","test","","","","","","","","","","","1","","","","","","","","",""
"null","188480","SARL_v6","SARL_v67gokvw9w","61686f8376bd6ff59ea15479","fixation","","","img/fixation.png","null","","","test","","","","","","","","","","","","","","","","","","","",""
"662.1000000000349","189144","SARL_v6","SARL_v67gokvw9w","61686f8376bd6ff59ea15479","freq","","","img/orange_2bandit_b2.png","70","","70","test","1","","15","","","","circle","square","15","15","1","0.6","","","","","","","",""
"null","189293","SARL_v6","SARL_v67gokvw9w","61686f8376bd6ff59ea15479","freq_resp","","","img/orange_2bandit_b.png","70","img/orange_2bandit_b.png","70","test","","","","","","","","","","","1","","","","","","","","",""
"null","189456","SARL_v6","SARL_v67gokvw9w","61686f8376bd6ff59ea15479","fixation","","","img/fixation.png","null","","","test","","","","","","","","","","","","","","","","","","","",""
"678.1000000000349","190136","SARL_v6","SARL_v67gokvw9w","61686f8376bd6ff59ea15479","freq","","","img/orange_2bandit_b2.png","70","","70","test","1","","16","","","","circle","square","16","16","1","0.625","","","","","","","",""
"null","190272","SARL_v6","SARL_v67gokvw9w","61686f8376bd6ff59ea15479","freq_resp","","","img/orange_2bandit_b.png","70","img/orange_2bandit_b.png","70","test","","","","","","","","","","","1","","","","","","","","",""
"null","190431","SARL_v6","SARL_v67gokvw9w","61686f8376bd6ff59ea15479","fixation","","","img/fixation.png","null","","","test","","","","","","","","","","","","","","","","","","","",""
"737.1000000000349","191171","SARL_v6","SARL_v67gokvw9w","61686f8376bd6ff59ea15479","freq","","","img/orange_2bandit_b2.png","70","","70","test","1","","17","","","","circle","square","17","17","1","0.6470588235294118","","","","","","","",""
"null","191248","SARL_v6","SARL_v67gokvw9w","61686f8376bd6ff59ea15479","freq_resp","","","img/orange_2bandit_b.png","70","img/orange_2bandit_b.png","70","test","","","","","","","","","","","1","","","","","","","","",""
"null","191408","SARL_v6","SARL_v67gokvw9w","61686f8376bd6ff59ea15479","fixation","","","img/fixation.png","null","","","test","","","","","","","","","","","","","","","","","","","",""
"695","192105","SARL_v6","SARL_v67gokvw9w","61686f8376bd6ff59ea15479","freq","","","img/orange_2bandit_b2.png","70","","70","test","1","","18","","","","circle","square","18","18","1","0.6666666666666666","","","","","","","",""
"null","192214","SARL_v6","SARL_v67gokvw9w","61686f8376bd6ff59ea15479","freq_resp","","","img/orange_2bandit_b.png","70","img/orange_2bandit_b.png","70","test","","","","","","","","","","","1","","","","","","","","",""
"null","192376","SARL_v6","SARL_v67gokvw9w","61686f8376bd6ff59ea15479","fixation","","","img/fixation.png","null","","","test","","","","","","","","","","","","","","","","","","","",""
"634.4000000000233","193013","SARL_v6","SARL_v67gokvw9w","61686f8376bd6ff59ea15479","freq","","","img/orange_2bandit_b2.png","70","","70","test","1","","19","","","","circle","square","19","19","1","0.6842105263157895","","","","","","","",""
"null","193185","SARL_v6","SARL_v67gokvw9w","61686f8376bd6ff59ea15479","freq_resp","","","img/orange_2bandit_b.png","70","img/orange_2bandit_b.png","70","test","","","","","","","","","","","1","","","","","","","","",""
"null","193344","SARL_v6","SARL_v67gokvw9w","61686f8376bd6ff59ea15479","fixation","","","img/fixation.png","null","","","test","","","","","","","","","","","","","","","","","","","",""
"633.2999999999884","193980","SARL_v6","SARL_v67gokvw9w","61686f8376bd6ff59ea15479","freq","","","img/orange_2bandit_b2.png","70","","70","test","1","","20","","","","circle","square","20","20","1","0.7","","","","","","","",""
"null","194159","SARL_v6","SARL_v67gokvw9w","61686f8376bd6ff59ea15479","freq_resp","","","img/orange_2bandit_b.png","70","img/orange_2bandit_b.png","70","test","","","","","","","","","","","1","","","","","","","","",""
"null","194320","SARL_v6","SARL_v67gokvw9w","61686f8376bd6ff59ea15479","fixation","","","img/fixation.png","null","","","test","","","","","","","","","","","","","","","","","","","",""
"711.5","195033","SARL_v6","SARL_v67gokvw9w","61686f8376bd6ff59ea15479","freq","","","img/orange_2bandit_b2.png","70","","70","test","1","","21","","","","circle","square","21","21","1","0.7142857142857143","","","","","","","",""
"null","195135","SARL_v6","SARL_v67gokvw9w","61686f8376bd6ff59ea15479","freq_resp","","","img/orange_2bandit_b.png","70","img/orange_2bandit_b.png","70","test","","","","","","","","","","","1","","","","","","","","",""
"null","195292","SARL_v6","SARL_v67gokvw9w","61686f8376bd6ff59ea15479","fixation","","","img/fixation.png","null","","","test","","","","","","","","","","","","","","","","","","","",""
"696","195990","SARL_v6","SARL_v67gokvw9w","61686f8376bd6ff59ea15479","freq","","","img/orange_2bandit_b2.png","70","","70","test","1","","22","","","","circle","square","22","22","1","0.7272727272727273","","","","","","","",""
"null","196099","SARL_v6","SARL_v67gokvw9w","61686f8376bd6ff59ea15479","freq_resp","","","img/orange_2bandit_b.png","70","img/orange_2bandit_b.png","70","test","","","","","","","","","","","1","","","","","","","","",""
"null","196264","SARL_v6","SARL_v67gokvw9w","61686f8376bd6ff59ea15479","fixation","","","img/fixation.png","null","","","test","","","","","","","","","","","","","","","","","","","",""
"759.5","197025","SARL_v6","SARL_v67gokvw9w","61686f8376bd6ff59ea15479","rl","","","img/black_2bandit_b2.png","75","","0","test","","","23","","","-3","circle","square","","0","1","","75","-3","-3","-3","-3","square","1","0"
"null","197787","SARL_v6","SARL_v67gokvw9w","61686f8376bd6ff59ea15479","feedback","","","<div class=""verylowPoints_sq""> -3 </div>","null","","na","test","","","NaN","","","","","","","","1","","75","","","","","","1",""
"740.5","198530","SARL_v6","SARL_v67gokvw9w","61686f8376bd6ff59ea15479","freq","","","img/orange_2bandit_b2.png","70","","70","test","1","","24","","","","circle","square","23","1","2","0.7391304347826086","","","","","","","",""
"null","198594","SARL_v6","SARL_v67gokvw9w","61686f8376bd6ff59ea15479","freq_resp","","","img/orange_2bandit_b.png","70","img/orange_2bandit_b.png","70","test","","","","","","","","","","","2","","","","","","","","",""
"null","198759","SARL_v6","SARL_v67gokvw9w","61686f8376bd6ff59ea15479","fixation","","","img/fixation.png","null","","","test","","","","","","","","","","","","","","","","","","","",""
"653.7000000000116","199415","SARL_v6","SARL_v67gokvw9w","61686f8376bd6ff59ea15479","freq","","","img/orange_2bandit_b2.png","70","","70","test","1","","25","","","","circle","square","24","2","2","0.75","","","","","","","",""
"null","199576","SARL_v6","SARL_v67gokvw9w","61686f8376bd6ff59ea15479","freq_resp","","","img/orange_2bandit_b.png","70","img/orange_2bandit_b.png","70","test","","","","","","","","","","","2","","","","","","","","",""
"null","199737","SARL_v6","SARL_v67gokvw9w","61686f8376bd6ff59ea15479","fixation","","","img/fixation.png","null","","","test","","","","","","","","","","","","","","","","","","","",""
"573.4000000000233","200312","SARL_v6","SARL_v67gokvw9w","61686f8376bd6ff59ea15479","infreq","","","img/blue_2bandit_b2.png","68","","68","test","1","","26","","","","circle","square","25","3","2","0.76","","","","","","","",""
"null","200548","SARL_v6","SARL_v67gokvw9w","61686f8376bd6ff59ea15479","infreq_resp","","","img/blue_2bandit_b.png","68","img/blue_2bandit_b.png","68","test","","","","","","","","","","","2","","","","","","","","",""
"null","200713","SARL_v6","SARL_v67gokvw9w","61686f8376bd6ff59ea15479","fixation","","","img/fixation.png","null","","","test","","","","","","","","","","","","","","","","","","","",""
"613.2999999999884","201328","SARL_v6","SARL_v67gokvw9w","61686f8376bd6ff59ea15479","freq","","","img/orange_2bandit_b2.png","70","","70","test","1","","27","","","","circle","square","26","4","2","0.7692307692307693","","","","","","","",""
"null","201528","SARL_v6","SARL_v67gokvw9w","61686f8376bd6ff59ea15479","freq_resp","","","img/orange_2bandit_b.png","70","img/orange_2bandit_b.png","70","test","","","","","","","","","","","2","","","","","","","","",""
"null","201688","SARL_v6","SARL_v67gokvw9w","61686f8376bd6ff59ea15479","fixation","","","img/fixation.png","null","","","test","","","","","","","","","","","","","","","","","","","",""
"596.7999999999884","202287","SARL_v6","SARL_v67gokvw9w","61686f8376bd6ff59ea15479","freq","","","img/orange_2bandit_b2.png","70","","70","test","1","","28","","","","circle","square","27","5","2","0.7777777777777778","","","","","","","",""
"null","202504","SARL_v6","SARL_v67gokvw9w","61686f8376bd6ff59ea15479","freq_resp","","","img/orange_2bandit_b.png","70","img/orange_2bandit_b.png","70","test","","","","","","","","","","","2","","","","","","","","",""
"null","202664","SARL_v6","SARL_v67gokvw9w","61686f8376bd6ff59ea15479","fixation","","","img/fixation.png","null","","","test","","","","","","","","","","","","","","","","","","","",""
"643.7999999999884","203310","SARL_v6","SARL_v67gokvw9w","61686f8376bd6ff59ea15479","freq","","","img/orange_2bandit_b2.png","70","","70","test","1","","29","","","","circle","square","28","6","2","0.7857142857142857","","","","","","","",""
"null","203481","SARL_v6","SARL_v67gokvw9w","61686f8376bd6ff59ea15479","freq_resp","","","img/orange_2bandit_b.png","70","img/orange_2bandit_b.png","70","test","","","","","","","","","","","2","","","","","","","","",""
"null","203639","SARL_v6","SARL_v67gokvw9w","61686f8376bd6ff59ea15479","fixation","","","img/fixation.png","null","","","test","","","","","","","","","","","","","","","","","","","",""
"663.8000000000466","204306","SARL_v6","SARL_v67gokvw9w","61686f8376bd6ff59ea15479","freq","","","img/orange_2bandit_b2.png","70","","70","test","1","","30","","","","circle","square","29","7","2","0.7931034482758621","","","","","","","",""
"null","204455","SARL_v6","SARL_v67gokvw9w","61686f8376bd6ff59ea15479","freq_resp","","","img/orange_2bandit_b.png","70","img/orange_2bandit_b.png","70","test","","","","","","","","","","","2","","","","","","","","",""
"null","204617","SARL_v6","SARL_v67gokvw9w","61686f8376bd6ff59ea15479","fixation","","","img/fixation.png","null","","","test","","","","","","","","","","","","","","","","","","","",""
"597.7000000000116","205217","SARL_v6","SARL_v67gokvw9w","61686f8376bd6ff59ea15479","infreq","","","img/blue_2bandit_b2.png","68","","68","test","1","","31","","","","circle","square","30","8","2","0.8","","","","","","","",""
"null","205428","SARL_v6","SARL_v67gokvw9w","61686f8376bd6ff59ea15479","infreq_resp","","","img/blue_2bandit_b.png","68","img/blue_2bandit_b.png","68","test","","","","","","","","","","","2","","","","","","","","",""
"null","205586","SARL_v6","SARL_v67gokvw9w","61686f8376bd6ff59ea15479","fixation","","","img/fixation.png","null","","","test","","","","","","","","","","","","","","","","","","","",""
"768.6999999999534","206357","SARL_v6","SARL_v67gokvw9w","61686f8376bd6ff59ea15479","freq","","","img/orange_2bandit_b2.png","70","","70","test","1","","32","","","","circle","square","31","9","2","0.8064516129032258","","","","","","","",""
"null","206399","SARL_v6","SARL_v67gokvw9w","61686f8376bd6ff59ea15479","freq_resp","","","img/orange_2bandit_b.png","70","img/orange_2bandit_b.png","70","test","","","","","","","","","","","2","","","","","","","","",""
"null","206561","SARL_v6","SARL_v67gokvw9w","61686f8376bd6ff59ea15479","fixation","","","img/fixation.png","null","","","test","","","","","","","","","","","","","","","","","","","",""
"760.2000000000116","207323","SARL_v6","SARL_v67gokvw9w","61686f8376bd6ff59ea15479","freq","","","img/orange_2bandit_b2.png","70","","70","test","1","","33","","","","circle","square","32","10","2","0.8125","","","","","","","",""
"null","207376","SARL_v6","SARL_v67gokvw9w","61686f8376bd6ff59ea15479","freq_resp","","","img/orange_2bandit_b.png","70","img/orange_2bandit_b.png","70","test","","","","","","","","","","","2","","","","","","","","",""
"null","207536","SARL_v6","SARL_v67gokvw9w","61686f8376bd6ff59ea15479","fixation","","","img/fixation.png","null","","","test","","","","","","","","","","","","","","","","","","","",""
"778.5","208317","SARL_v6","SARL_v67gokvw9w","61686f8376bd6ff59ea15479","freq","","","img/orange_2bandit_b2.png","70","","70","test","1","","34","","","","circle","square","33","11","2","0.8181818181818182","","","","","","","",""
"null","208348","SARL_v6","SARL_v67gokvw9w","61686f8376bd6ff59ea15479","freq_resp","","","img/orange_2bandit_b.png","70","img/orange_2bandit_b.png","70","test","","","","","","","","","","","2","","","","","","","","",""
"null","208510","SARL_v6","SARL_v67gokvw9w","61686f8376bd6ff59ea15479","fixation","","","img/fixation.png","null","","","test","","","","","","","","","","","","","","","","","","","",""
"778.0999999999767","209290","SARL_v6","SARL_v67gokvw9w","61686f8376bd6ff59ea15479","freq","","","img/orange_2bandit_b2.png","70","","70","test","1","","35","","","","circle","square","34","12","2","0.8235294117647058","","","","","","","",""
"null","209316","SARL_v6","SARL_v67gokvw9w","61686f8376bd6ff59ea15479","freq_resp","","","img/orange_2bandit_b.png","70","img/orange_2bandit_b.png","70","test","","","","","","","","","","","2","","","","","","","","",""
"null","209480","SARL_v6","SARL_v67gokvw9w","61686f8376bd6ff59ea15479","fixation","","","img/fixation.png","null","","","test","","","","","","","","","","","","","","","","","","","",""
"777.2999999999884","210260","SARL_v6","SARL_v67gokvw9w","61686f8376bd6ff59ea15479","freq","","","img/orange_2bandit_b2.png","70","","70","test","1","","36","","","","circle","square","35","13","2","0.8285714285714286","","","","","","","",""
"null","210294","SARL_v6","SARL_v67gokvw9w","61686f8376bd6ff59ea15479","freq_resp","","","img/orange_2bandit_b.png","70","img/orange_2bandit_b.png","70","test","","","","","","","","","","","2","","","","","","","","",""
"null","210456","SARL_v6","SARL_v67gokvw9w","61686f8376bd6ff59ea15479","fixation","","","img/fixation.png","null","","","test","","","","","","","","","","","","","","","","","","","",""
"755.0999999999767","211213","SARL_v6","SARL_v67gokvw9w","61686f8376bd6ff59ea15479","freq","","","img/orange_2bandit_b2.png","70","","70","test","1","","37","","","","circle","square","36","14","2","0.8333333333333334","","","","","","","",""
"null","211272","SARL_v6","SARL_v67gokvw9w","61686f8376bd6ff59ea15479","freq_resp","","","img/orange_2bandit_b.png","70","img/orange_2bandit_b.png","70","test","","","","","","","","","","","2","","","","","","","","",""
"null","211432","SARL_v6","SARL_v67gokvw9w","61686f8376bd6ff59ea15479","fixation","","","img/fixation.png","null","","","test","","","","","","","","","","","","","","","","","","","",""
"798.2999999999884","212233","SARL_v6","SARL_v67gokvw9w","61686f8376bd6ff59ea15479","freq","","","img/orange_2bandit_b2.png","70","","70","test","1","","38","","","","circle","square","37","15","2","0.8378378378378378","","","","","","","",""
"null","212238","SARL_v6","SARL_v67gokvw9w","61686f8376bd6ff59ea15479","freq_resp","","","img/orange_2bandit_b.png","70","img/orange_2bandit_b.png","70","test","","","","","","","","","","","2","","","","","","","","",""
"null","212400","SARL_v6","SARL_v67gokvw9w","61686f8376bd6ff59ea15479","fixation","","","img/fixation.png","null","","","test","","","","","","","","","","","","","","","","","","","",""
"737.2000000000116","213139","SARL_v6","SARL_v67gokvw9w","61686f8376bd6ff59ea15479","freq","","","img/orange_2bandit_b2.png","70","","70","test","1","","39","","","","circle","square","38","16","2","0.8421052631578947","","","","","","","",""
"null","213216","SARL_v6","SARL_v67gokvw9w","61686f8376bd6ff59ea15479","freq_resp","","","img/orange_2bandit_b.png","70","img/orange_2bandit_b.png","70","test","","","","","","","","","","","2","","","","","","","","",""
"null","213376","SARL_v6","SARL_v67gokvw9w","61686f8376bd6ff59ea15479","fixation","","","img/fixation.png","null","","","test","","","","","","","","","","","","","","","","","","","",""
"483.29999999998836","213861","SARL_v6","SARL_v67gokvw9w","61686f8376bd6ff59ea15479","freq","","","img/orange_2bandit_b2.png","70","","70","test","1","","40","","","","circle","square","39","17","2","0.8461538461538461","","","","","","","",""
"null","214189","SARL_v6","SARL_v67gokvw9w","61686f8376bd6ff59ea15479","freq_resp","","","img/orange_2bandit_b.png","70","img/orange_2bandit_b.png","70","test","","","","","","","","","","","2","","","","","","","","",""
"null","214349","SARL_v6","SARL_v67gokvw9w","61686f8376bd6ff59ea15479","fixation","","","img/fixation.png","null","","","test","","","","","","","","","","","","","","","","","","","",""
"484.4000000000233","214835","SARL_v6","SARL_v67gokvw9w","61686f8376bd6ff59ea15479","freq","","","img/orange_2bandit_b2.png","70","","70","test","1","","41","","","","circle","square","40","18","2","0.85","","","","","","","",""
"null","215156","SARL_v6","SARL_v67gokvw9w","61686f8376bd6ff59ea15479","freq_resp","","","img/orange_2bandit_b.png","70","img/orange_2bandit_b.png","70","test","","","","","","","","","","","2","","","","","","","","",""
"null","215315","SARL_v6","SARL_v67gokvw9w","61686f8376bd6ff59ea15479","fixation","","","img/fixation.png","null","","","test","","","","","","","","","","","","","","","","","","","",""
"462.9000000000233","215780","SARL_v6","SARL_v67gokvw9w","61686f8376bd6ff59ea15479","freq","","","img/orange_2bandit_b2.png","70","","70","test","1","","42","","","","circle","square","41","19","2","0.8536585365853658","","","","","","","",""
"null","216129","SARL_v6","SARL_v67gokvw9w","61686f8376bd6ff59ea15479","freq_resp","","","img/orange_2bandit_b.png","70","img/orange_2bandit_b.png","70","test","","","","","","","","","","","2","","","","","","","","",""
"null","216287","SARL_v6","SARL_v67gokvw9w","61686f8376bd6ff59ea15479","fixation","","","img/fixation.png","null","","","test","","","","","","","","","","","","","","","","","","","",""
"581.2000000000116","216871","SARL_v6","SARL_v67gokvw9w","61686f8376bd6ff59ea15479","freq","","","img/orange_2bandit_b2.png","70","","70","test","1","","43","","","","circle","square","42","20","2","0.8571428571428571","","","","","","","",""
"null","217104","SARL_v6","SARL_v67gokvw9w","61686f8376bd6ff59ea15479","freq_resp","","","img/orange_2bandit_b.png","70","img/orange_2bandit_b.png","70","test","","","","","","","","","","","2","","","","","","","","",""
"null","217263","SARL_v6","SARL_v67gokvw9w","61686f8376bd6ff59ea15479","fixation","","","img/fixation.png","null","","","test","","","","","","","","","","","","","","","","","","","",""
"594.5","217859","SARL_v6","SARL_v67gokvw9w","61686f8376bd6ff59ea15479","freq","","","img/orange_2bandit_b2.png","70","","70","test","1","","44","","","","circle","square","43","21","2","0.8604651162790697","","","","","","","",""
"null","218080","SARL_v6","SARL_v67gokvw9w","61686f8376bd6ff59ea15479","freq_resp","","","img/orange_2bandit_b.png","70","img/orange_2bandit_b.png","70","test","","","","","","","","","","","2","","","","","","","","",""
"null","218241","SARL_v6","SARL_v67gokvw9w","61686f8376bd6ff59ea15479","fixation","","","img/fixation.png","null","","","test","","","","","","","","","","","","","","","","","","","",""
"790.3000000000466","219033","SARL_v6","SARL_v67gokvw9w","61686f8376bd6ff59ea15479","rl","","","img/black_2bandit_b2.png","75","","0","test","","","45","","","-8","circle","square","","0","2","","75","-5","-8","-5","-8","square","2","0"
"null","219787","SARL_v6","SARL_v67gokvw9w","61686f8376bd6ff59ea15479","feedback","","","<div class=""verylowPoints_sq""> -8 </div>","null","","na","test","","","NaN","","","","","","","","2","","75","","","","","","2",""
"690","220480","SARL_v6","SARL_v67gokvw9w","61686f8376bd6ff59ea15479","freq","","","img/orange_2bandit_b2.png","70","","70","test","1","","46","","","","circle","square","44","1","3","0.8636363636363636","","","","","","","",""
"null","220596","SARL_v6","SARL_v67gokvw9w","61686f8376bd6ff59ea15479","freq_resp","","","img/orange_2bandit_b.png","70","img/orange_2bandit_b.png","70","test","","","","","","","","","","","3","","","","","","","","",""
"null","220760","SARL_v6","SARL_v67gokvw9w","61686f8376bd6ff59ea15479","fixation","","","img/fixation.png","null","","","test","","","","","","","","","","","","","","","","","","","",""
"673.5999999999767","221436","SARL_v6","SARL_v67gokvw9w","61686f8376bd6ff59ea15479","freq","","","img/orange_2bandit_b2.png","70","","70","test","1","","47","","","","circle","square","45","2","3","0.8666666666666667","","","","","","","",""
"null","221573","SARL_v6","SARL_v67gokvw9w","61686f8376bd6ff59ea15479","freq_resp","","","img/orange_2bandit_b.png","70","img/orange_2bandit_b.png","70","test","","","","","","","","","","","3","","","","","","","","",""
"null","221736","SARL_v6","SARL_v67gokvw9w","61686f8376bd6ff59ea15479","fixation","","","img/fixation.png","null","","","test","","","","","","","","","","","","","","","","","","","",""
"721.2000000000116","222459","SARL_v6","SARL_v67gokvw9w","61686f8376bd6ff59ea15479","freq","","","img/orange_2bandit_b2.png","70","","70","test","1","","48","","","","circle","square","46","3","3","0.8695652173913043","","","","","","","",""
"null","222552","SARL_v6","SARL_v67gokvw9w","61686f8376bd6ff59ea15479","freq_resp","","","img/orange_2bandit_b.png","70","img/orange_2bandit_b.png","70","test","","","","","","","","","","","3","","","","","","","","",""
"null","222711","SARL_v6","SARL_v67gokvw9w","61686f8376bd6ff59ea15479","fixation","","","img/fixation.png","null","","","test","","","","","","","","","","","","","","","","","","","",""
"700.6000000000349","223414","SARL_v6","SARL_v67gokvw9w","61686f8376bd6ff59ea15479","freq","","","img/orange_2bandit_b2.png","70","","70","test","1","","49","","","","circle","square","47","4","3","0.8723404255319149","","","","","","","",""
"null","223528","SARL_v6","SARL_v67gokvw9w","61686f8376bd6ff59ea15479","freq_resp","","","img/orange_2bandit_b.png","70","img/orange_2bandit_b.png","70","test","","","","","","","","","","","3","","","","","","","","",""
"null","223687","SARL_v6","SARL_v67gokvw9w","61686f8376bd6ff59ea15479","fixation","","","img/fixation.png","null","","","test","","","","","","","","","","","","","","","","","","","",""
"710.0999999999767","224399","SARL_v6","SARL_v67gokvw9w","61686f8376bd6ff59ea15479","freq","","","img/orange_2bandit_b2.png","70","","70","test","1","","50","","","","circle","square","48","5","3","0.875","","","","","","","",""
"null","224501","SARL_v6","SARL_v67gokvw9w","61686f8376bd6ff59ea15479","freq_resp","","","img/orange_2bandit_b.png","70","img/orange_2bandit_b.png","70","test","","","","","","","","","","","3","","","","","","","","",""
"null","224662","SARL_v6","SARL_v67gokvw9w","61686f8376bd6ff59ea15479","fixation","","","img/fixation.png","null","","","test","","","","","","","","","","","","","","","","","","","",""
"601.5","225266","SARL_v6","SARL_v67gokvw9w","61686f8376bd6ff59ea15479","freq","","","img/orange_2bandit_b2.png","70","","70","test","1","","51","","","","circle","square","49","6","3","0.8775510204081632","","","","","","","",""
"null","225476","SARL_v6","SARL_v67gokvw9w","61686f8376bd6ff59ea15479","freq_resp","","","img/orange_2bandit_b.png","70","img/orange_2bandit_b.png","70","test","","","","","","","","","","","3","","","","","","","","",""
"null","225638","SARL_v6","SARL_v67gokvw9w","61686f8376bd6ff59ea15479","fixation","","","img/fixation.png","null","","","test","","","","","","","","","","","","","","","","","","","",""
"626.7999999999884","226267","SARL_v6","SARL_v67gokvw9w","61686f8376bd6ff59ea15479","freq","","","img/orange_2bandit_b2.png","70","","70","test","1","","52","","","","circle","square","50","7","3","0.88","","","","","","","",""
"null","226456","SARL_v6","SARL_v67gokvw9w","61686f8376bd6ff59ea15479","freq_resp","","","img/orange_2bandit_b.png","70","img/orange_2bandit_b.png","70","test","","","","","","","","","","","3","","","","","","","","",""
"null","226617","SARL_v6","SARL_v67gokvw9w","61686f8376bd6ff59ea15479","fixation","","","img/fixation.png","null","","","test","","","","","","","","","","","","","","","","","","","",""
"610.2999999999884","227229","SARL_v6","SARL_v67gokvw9w","61686f8376bd6ff59ea15479","freq","","","img/orange_2bandit_b2.png","70","","70","test","1","","53","","","","circle","square","51","8","3","0.8823529411764706","","","","","","","",""
"null","227433","SARL_v6","SARL_v67gokvw9w","61686f8376bd6ff59ea15479","freq_resp","","","img/orange_2bandit_b.png","70","img/orange_2bandit_b.png","70","test","","","","","","","","","","","3","","","","","","","","",""
"null","227588","SARL_v6","SARL_v67gokvw9w","61686f8376bd6ff59ea15479","fixation","","","img/fixation.png","null","","","test","","","","","","","","","","","","","","","","","","","",""
"662.7999999999884","228253","SARL_v6","SARL_v67gokvw9w","61686f8376bd6ff59ea15479","freq","","","img/orange_2bandit_b2.png","70","","70","test","1","","54","","","","circle","square","52","9","3","0.8846153846153846","","","","","","","",""
"null","228400","SARL_v6","SARL_v67gokvw9w","61686f8376bd6ff59ea15479","freq_resp","","","img/orange_2bandit_b.png","70","img/orange_2bandit_b.png","70","test","","","","","","","","","","","3","","","","","","","","",""
"null","228560","SARL_v6","SARL_v67gokvw9w","61686f8376bd6ff59ea15479","fixation","","","img/fixation.png","null","","","test","","","","","","","","","","","","","","","","","","","",""
"674.5","229237","SARL_v6","SARL_v67gokvw9w","61686f8376bd6ff59ea15479","freq","","","img/orange_2bandit_b2.png","70","","70","test","1","","55","","","","circle","square","53","10","3","0.8867924528301887","","","","","","","",""
"null","229376","SARL_v6","SARL_v67gokvw9w","61686f8376bd6ff59ea15479","freq_resp","","","img/orange_2bandit_b.png","70","img/orange_2bandit_b.png","70","test","","","","","","","","","","","3","","","","","","","","",""
"null","229536","SARL_v6","SARL_v67gokvw9w","61686f8376bd6ff59ea15479","fixation","","","img/fixation.png","null","","","test","","","","","","","","","","","","","","","","","","","",""
"656.2000000000116","230195","SARL_v6","SARL_v67gokvw9w","61686f8376bd6ff59ea15479","freq","","","img/orange_2bandit_b2.png","70","","70","test","1","","56","","","","circle","square","54","11","3","0.8888888888888888","","","","","","","",""
"null","230352","SARL_v6","SARL_v67gokvw9w","61686f8376bd6ff59ea15479","freq_resp","","","img/orange_2bandit_b.png","70","img/orange_2bandit_b.png","70","test","","","","","","","","","","","3","","","","","","","","",""
"null","230508","SARL_v6","SARL_v67gokvw9w","61686f8376bd6ff59ea15479","fixation","","","img/fixation.png","null","","","test","","","","","","","","","","","","","","","","","","","",""
"679.4000000000233","231189","SARL_v6","SARL_v67gokvw9w","61686f8376bd6ff59ea15479","freq","","","img/orange_2bandit_b2.png","70","","70","test","1","","57","","","","circle","square","55","12","3","0.8909090909090909","","","","","","","",""
"null","231320","SARL_v6","SARL_v67gokvw9w","61686f8376bd6ff59ea15479","freq_resp","","","img/orange_2bandit_b.png","70","img/orange_2bandit_b.png","70","test","","","","","","","","","","","3","","","","","","","","",""
"null","231477","SARL_v6","SARL_v67gokvw9w","61686f8376bd6ff59ea15479","fixation","","","img/fixation.png","null","","","test","","","","","","","","","","","","","","","","","","","",""
"682.6000000000349","232162","SARL_v6","SARL_v67gokvw9w","61686f8376bd6ff59ea15479","freq","","","img/orange_2bandit_b2.png","70","","70","test","1","","58","","","","circle","square","56","13","3","0.8928571428571429","","","","","","","",""
"null","232287","SARL_v6","SARL_v67gokvw9w","61686f8376bd6ff59ea15479","freq_resp","","","img/orange_2bandit_b.png","70","img/orange_2bandit_b.png","70","test","","","","","","","","","","","3","","","","","","","","",""
"null","232448","SARL_v6","SARL_v67gokvw9w","61686f8376bd6ff59ea15479","fixation","","","img/fixation.png","null","","","test","","","","","","","","","","","","","","","","","","","",""
"562.3999999999651","233013","SARL_v6","SARL_v67gokvw9w","61686f8376bd6ff59ea15479","infreq","","","img/blue_2bandit_b2.png","68","","68","test","1","","59","","","","circle","square","57","14","3","0.8947368421052632","","","","","","","",""
"null","233264","SARL_v6","SARL_v67gokvw9w","61686f8376bd6ff59ea15479","infreq_resp","","","img/blue_2bandit_b.png","68","img/blue_2bandit_b.png","68","test","","","","","","","","","","","3","","","","","","","","",""
"null","233425","SARL_v6","SARL_v67gokvw9w","61686f8376bd6ff59ea15479","fixation","","","img/fixation.png","null","","","test","","","","","","","","","","","","","","","","","","","",""
"612.2999999999884","234040","SARL_v6","SARL_v67gokvw9w","61686f8376bd6ff59ea15479","freq","","","img/orange_2bandit_b2.png","70","","70","test","1","","60","","","","circle","square","58","15","3","0.896551724137931","","","","","","","",""
"null","234237","SARL_v6","SARL_v67gokvw9w","61686f8376bd6ff59ea15479","freq_resp","","","img/orange_2bandit_b.png","70","img/orange_2bandit_b.png","70","test","","","","","","","","","","","3","","","","","","","","",""
"null","234400","SARL_v6","SARL_v67gokvw9w","61686f8376bd6ff59ea15479","fixation","","","img/fixation.png","null","","","test","","","","","","","","","","","","","","","","","","","",""
"564","234966","SARL_v6","SARL_v67gokvw9w","61686f8376bd6ff59ea15479","freq","","","img/orange_2bandit_b2.png","70","","70","test","1","","61","","","","circle","square","59","16","3","0.8983050847457628","","","","","","","",""
"null","235213","SARL_v6","SARL_v67gokvw9w","61686f8376bd6ff59ea15479","freq_resp","","","img/orange_2bandit_b.png","70","img/orange_2bandit_b.png","70","test","","","","","","","","","","","3","","","","","","","","",""
"null","235376","SARL_v6","SARL_v67gokvw9w","61686f8376bd6ff59ea15479","fixation","","","img/fixation.png","null","","","test","","","","","","","","","","","","","","","","","","","",""
"657.7999999999884","236036","SARL_v6","SARL_v67gokvw9w","61686f8376bd6ff59ea15479","freq","","","img/orange_2bandit_b2.png","70","","70","test","1","","62","","","","circle","square","60","17","3","0.9","","","","","","","",""
"null","236180","SARL_v6","SARL_v67gokvw9w","61686f8376bd6ff59ea15479","freq_resp","","","img/orange_2bandit_b.png","70","img/orange_2bandit_b.png","70","test","","","","","","","","","","","3","","","","","","","","",""
"null","236345","SARL_v6","SARL_v67gokvw9w","61686f8376bd6ff59ea15479","fixation","","","img/fixation.png","null","","","test","","","","","","","","","","","","","","","","","","","",""
"757.7999999999884","237105","SARL_v6","SARL_v67gokvw9w","61686f8376bd6ff59ea15479","freq","","","img/orange_2bandit_b2.png","70","","70","test","1","","63","","","","circle","square","61","18","3","0.9016393442622951","","","","","","","",""
"null","237159","SARL_v6","SARL_v67gokvw9w","61686f8376bd6ff59ea15479","freq_resp","","","img/orange_2bandit_b.png","70","img/orange_2bandit_b.png","70","test","","","","","","","","","","","3","","","","","","","","",""
"null","237321","SARL_v6","SARL_v67gokvw9w","61686f8376bd6ff59ea15479","fixation","","","img/fixation.png","null","","","test","","","","","","","","","","","","","","","","","","","",""
"656.8999999999651","237980","SARL_v6","SARL_v67gokvw9w","61686f8376bd6ff59ea15479","freq","","","img/orange_2bandit_b2.png","70","","70","test","1","","64","","","","circle","square","62","19","3","0.9032258064516129","","","","","","","",""
"null","238131","SARL_v6","SARL_v67gokvw9w","61686f8376bd6ff59ea15479","freq_resp","","","img/orange_2bandit_b.png","70","img/orange_2bandit_b.png","70","test","","","","","","","","","","","3","","","","","","","","",""
"null","238295","SARL_v6","SARL_v67gokvw9w","61686f8376bd6ff59ea15479","fixation","","","img/fixation.png","null","","","test","","","","","","","","","","","","","","","","","","","",""
"634.7000000000116","238932","SARL_v6","SARL_v67gokvw9w","61686f8376bd6ff59ea15479","freq","","","img/orange_2bandit_b2.png","70","","70","test","1","","65","","","","circle","square","63","20","3","0.9047619047619048","","","","","","","",""
"null","239111","SARL_v6","SARL_v67gokvw9w","61686f8376bd6ff59ea15479","freq_resp","","","img/orange_2bandit_b.png","70","img/orange_2bandit_b.png","70","test","","","","","","","","","","","3","","","","","","","","",""
"null","239272","SARL_v6","SARL_v67gokvw9w","61686f8376bd6ff59ea15479","fixation","","","img/fixation.png","null","","","test","","","","","","","","","","","","","","","","","","","",""
"598.9000000000233","239873","SARL_v6","SARL_v67gokvw9w","61686f8376bd6ff59ea15479","infreq","","","img/blue_2bandit_b2.png","68","","68","test","1","","66","","","","circle","square","64","21","3","0.90625","","","","","","","",""
"null","240083","SARL_v6","SARL_v67gokvw9w","61686f8376bd6ff59ea15479","infreq_resp","","","img/blue_2bandit_b.png","68","img/blue_2bandit_b.png","68","test","","","","","","","","","","","3","","","","","","","","",""
"null","240243","SARL_v6","SARL_v67gokvw9w","61686f8376bd6ff59ea15479","fixation","","","img/fixation.png","null","","","test","","","","","","","","","","","","","","","","","","","",""
"603.4000000000233","240849","SARL_v6","SARL_v67gokvw9w","61686f8376bd6ff59ea15479","freq","","","img/orange_2bandit_b2.png","70","","70","test","1","","67","","","","circle","square","65","22","3","0.9076923076923077","","","","","","","",""
"null","241055","SARL_v6","SARL_v67gokvw9w","61686f8376bd6ff59ea15479","freq_resp","","","img/orange_2bandit_b.png","70","img/orange_2bandit_b.png","70","test","","","","","","","","","","","3","","","","","","","","",""
"null","241211","SARL_v6","SARL_v67gokvw9w","61686f8376bd6ff59ea15479","fixation","","","img/fixation.png","null","","","test","","","","","","","","","","","","","","","","","","","",""
"635.7000000000116","241849","SARL_v6","SARL_v67gokvw9w","61686f8376bd6ff59ea15479","rl","","","img/black_2bandit_b2.png","74","","0","test","","","68","","","-4","circle","square","","0","3","","74","-4","-8","-4","-8","circle","3","0"
"null","242606","SARL_v6","SARL_v67gokvw9w","61686f8376bd6ff59ea15479","feedback","","","<div class=""verylowPoints""> -4 </div>","null","","na","test","","","NaN","","","","","","","","3","","74","","","","","","3",""
"734.7000000000116","243344","SARL_v6","SARL_v67gokvw9w","61686f8376bd6ff59ea15479","freq","","","img/orange_2bandit_b2.png","70","","70","test","1","","69","","","","circle","square","66","1","4","0.9090909090909091","","","","","","","",""
"null","243419","SARL_v6","SARL_v67gokvw9w","61686f8376bd6ff59ea15479","freq_resp","","","img/orange_2bandit_b.png","70","img/orange_2bandit_b.png","70","test","","","","","","","","","","","4","","","","","","","","",""
"null","243579","SARL_v6","SARL_v67gokvw9w","61686f8376bd6ff59ea15479","fixation","","","img/fixation.png","null","","","test","","","","","","","","","","","","","","","","","","","",""
"562.5","244144","SARL_v6","SARL_v67gokvw9w","61686f8376bd6ff59ea15479","freq","","","img/orange_2bandit_b2.png","70","","70","test","1","","70","","","","circle","square","67","2","4","0.9104477611940298","","","","","","","",""
"null","244392","SARL_v6","SARL_v67gokvw9w","61686f8376bd6ff59ea15479","freq_resp","","","img/orange_2bandit_b.png","70","img/orange_2bandit_b.png","70","test","","","","","","","","","","","4","","","","","","","","",""
"null","244552","SARL_v6","SARL_v67gokvw9w","61686f8376bd6ff59ea15479","fixation","","","img/fixation.png","null","","","test","","","","","","","","","","","","","","","","","","","",""
"397.70000000001164","244952","SARL_v6","SARL_v67gokvw9w","61686f8376bd6ff59ea15479","freq","","","img/orange_2bandit_b2.png","70","","70","test","1","","71","","","","circle","square","68","3","4","0.9117647058823529","","","","","","","",""
"null","245361","SARL_v6","SARL_v67gokvw9w","61686f8376bd6ff59ea15479","freq_resp","","","img/orange_2bandit_b.png","70","img/orange_2bandit_b.png","70","test","","","","","","","","","","","4","","","","","","","","",""
"null","245519","SARL_v6","SARL_v67gokvw9w","61686f8376bd6ff59ea15479","fixation","","","img/fixation.png","null","","","test","","","","","","","","","","","","","","","","","","","",""
"448.5","245970","SARL_v6","SARL_v67gokvw9w","61686f8376bd6ff59ea15479","freq","","","img/orange_2bandit_b2.png","70","","70","test","1","","72","","","","circle","square","69","4","4","0.9130434782608695","","","","","","","",""
"null","246337","SARL_v6","SARL_v67gokvw9w","61686f8376bd6ff59ea15479","freq_resp","","","img/orange_2bandit_b.png","70","img/orange_2bandit_b.png","70","test","","","","","","","","","","","4","","","","","","","","",""
"null","246493","SARL_v6","SARL_v67gokvw9w","61686f8376bd6ff59ea15479","fixation","","","img/fixation.png","null","","","test","","","","","","","","","","","","","","","","","","","",""
"425.5999999999767","246921","SARL_v6","SARL_v67gokvw9w","61686f8376bd6ff59ea15479","freq","","","img/orange_2bandit_b2.png","70","","70","test","1","","73","","","","circle","square","70","5","4","0.9142857142857143","","","","","","","",""
"null","247305","SARL_v6","SARL_v67gokvw9w","61686f8376bd6ff59ea15479","freq_resp","","","img/orange_2bandit_b.png","70","img/orange_2bandit_b.png","70","test","","","","","","","","","","","4","","","","","","","","",""
"null","247464","SARL_v6","SARL_v67gokvw9w","61686f8376bd6ff59ea15479","fixation","","","img/fixation.png","null","","","test","","","","","","","","","","","","","","","","","","","",""
"373.79999999998836","247840","SARL_v6","SARL_v67gokvw9w","61686f8376bd6ff59ea15479","freq","","","img/orange_2bandit_b2.png","70","","70","test","1","","74","","","","circle","square","71","6","4","0.9154929577464789","","","","","","","",""
"null","248281","SARL_v6","SARL_v67gokvw9w","61686f8376bd6ff59ea15479","freq_resp","","","img/orange_2bandit_b.png","70","img/orange_2bandit_b.png","70","test","","","","","","","","","","","4","","","","","","","","",""
"null","248441","SARL_v6","SARL_v67gokvw9w","61686f8376bd6ff59ea15479","fixation","","","img/fixation.png","null","","","test","","","","","","","","","","","","","","","","","","","",""
"411.3999999999651","248854","SARL_v6","SARL_v67gokvw9w","61686f8376bd6ff59ea15479","freq","","","img/orange_2bandit_b2.png","70","","70","test","1","","75","","","","circle","square","72","7","4","0.9166666666666666","","","","","","","",""
"null","249257","SARL_v6","SARL_v67gokvw9w","61686f8376bd6ff59ea15479","freq_resp","","","img/orange_2bandit_b.png","70","img/orange_2bandit_b.png","70","test","","","","","","","","","","","4","","","","","","","","",""
"null","249412","SARL_v6","SARL_v67gokvw9w","61686f8376bd6ff59ea15479","fixation","","","img/fixation.png","null","","","test","","","","","","","","","","","","","","","","","","","",""
"370.5999999999767","249785","SARL_v6","SARL_v67gokvw9w","61686f8376bd6ff59ea15479","freq","","","img/orange_2bandit_b2.png","70","","70","test","1","","76","","","","circle","square","73","8","4","0.9178082191780822","","","","","","","",""
"null","250224","SARL_v6","SARL_v67gokvw9w","61686f8376bd6ff59ea15479","freq_resp","","","img/orange_2bandit_b.png","70","img/orange_2bandit_b.png","70","test","","","","","","","","","","","4","","","","","","","","",""
"null","250385","SARL_v6","SARL_v67gokvw9w","61686f8376bd6ff59ea15479","fixation","","","img/fixation.png","null","","","test","","","","","","","","","","","","","","","","","","","",""
"356.79999999998836","250745","SARL_v6","SARL_v67gokvw9w","61686f8376bd6ff59ea15479","freq","","","img/orange_2bandit_b2.png","70","","70","test","1","","77","","","","circle","square","74","9","4","0.918918918918919","","","","","","","",""
"null","251195","SARL_v6","SARL_v67gokvw9w","61686f8376bd6ff59ea15479","freq_resp","","","img/orange_2bandit_b.png","70","img/orange_2bandit_b.png","70","test","","","","","","","","","","","4","","","","","","","","",""
"null","251360","SARL_v6","SARL_v67gokvw9w","61686f8376bd6ff59ea15479","fixation","","","img/fixation.png","null","","","test","","","","","","","","","","","","","","","","","","","",""
"360.29999999998836","251723","SARL_v6","SARL_v67gokvw9w","61686f8376bd6ff59ea15479","freq","","","img/orange_2bandit_b2.png","70","","70","test","1","","78","","","","circle","square","75","10","4","0.92","","","","","","","",""
"null","252177","SARL_v6","SARL_v67gokvw9w","61686f8376bd6ff59ea15479","freq_resp","","","img/orange_2bandit_b.png","70","img/orange_2bandit_b.png","70","test","","","","","","","","","","","4","","","","","","","","",""
"null","252337","SARL_v6","SARL_v67gokvw9w","61686f8376bd6ff59ea15479","fixation","","","img/fixation.png","null","","","test","","","","","","","","","","","","","","","","","","","",""
"343.5999999999767","252683","SARL_v6","SARL_v67gokvw9w","61686f8376bd6ff59ea15479","freq","","","img/orange_2bandit_b2.png","70","","70","test","1","","79","","","","circle","square","76","11","4","0.9210526315789473","","","","","","","",""
"null","253152","SARL_v6","SARL_v67gokvw9w","61686f8376bd6ff59ea15479","freq_resp","","","img/orange_2bandit_b.png","70","img/orange_2bandit_b.png","70","test","","","","","","","","","","","4","","","","","","","","",""
"null","253312","SARL_v6","SARL_v67gokvw9w","61686f8376bd6ff59ea15479","fixation","","","img/fixation.png","null","","","test","","","","","","","","","","","","","","","","","","","",""
"361.70000000001164","253675","SARL_v6","SARL_v67gokvw9w","61686f8376bd6ff59ea15479","freq","","","img/orange_2bandit_b2.png","70","","70","test","1","","80","","","","circle","square","77","12","4","0.922077922077922","","","","","","","",""
"null","254128","SARL_v6","SARL_v67gokvw9w","61686f8376bd6ff59ea15479","freq_resp","","","img/orange_2bandit_b.png","70","img/orange_2bandit_b.png","70","test","","","","","","","","","","","4","","","","","","","","",""
"null","254287","SARL_v6","SARL_v67gokvw9w","61686f8376bd6ff59ea15479","fixation","","","img/fixation.png","null","","","test","","","","","","","","","","","","","","","","","","","",""
"364.5999999999767","254654","SARL_v6","SARL_v67gokvw9w","61686f8376bd6ff59ea15479","freq","","","img/orange_2bandit_b2.png","70","","70","test","1","","81","","","","circle","square","78","13","4","0.9230769230769231","","","","","","","",""
"null","255099","SARL_v6","SARL_v67gokvw9w","61686f8376bd6ff59ea15479","freq_resp","","","img/orange_2bandit_b.png","70","img/orange_2bandit_b.png","70","test","","","","","","","","","","","4","","","","","","","","",""
"null","255261","SARL_v6","SARL_v67gokvw9w","61686f8376bd6ff59ea15479","fixation","","","img/fixation.png","null","","","test","","","","","","","","","","","","","","","","","","","",""
"322.5999999999767","255585","SARL_v6","SARL_v67gokvw9w","61686f8376bd6ff59ea15479","freq","","","img/orange_2bandit_b2.png","70","","70","test","1","","82","","","","circle","square","79","14","4","0.9240506329113924","","","","","","","",""
"null","256070","SARL_v6","SARL_v67gokvw9w","61686f8376bd6ff59ea15479","freq_resp","","","img/orange_2bandit_b.png","70","img/orange_2bandit_b.png","70","test","","","","","","","","","","","4","","","","","","","","",""
"null","256232","SARL_v6","SARL_v67gokvw9w","61686f8376bd6ff59ea15479","fixation","","","img/fixation.png","null","","","test","","","","","","","","","","","","","","","","","","","",""
"340.4000000000233","256575","SARL_v6","SARL_v67gokvw9w","61686f8376bd6ff59ea15479","freq","","","img/orange_2bandit_b2.png","70","","70","test","1","","83","","","","circle","square","80","15","4","0.925","","","","","","","",""
"null","257048","SARL_v6","SARL_v67gokvw9w","61686f8376bd6ff59ea15479","freq_resp","","","img/orange_2bandit_b.png","70","img/orange_2bandit_b.png","70","test","","","","","","","","","","","4","","","","","","","","",""
"null","257203","SARL_v6","SARL_v67gokvw9w","61686f8376bd6ff59ea15479","fixation","","","img/fixation.png","null","","","test","","","","","","","","","","","","","","","","","","","",""
"356.29999999998836","257561","SARL_v6","SARL_v67gokvw9w","61686f8376bd6ff59ea15479","freq","","","img/orange_2bandit_b2.png","70","","70","test","1","","84","","","","circle","square","81","16","4","0.9259259259259259","","","","","","","",""
"null","258016","SARL_v6","SARL_v67gokvw9w","61686f8376bd6ff59ea15479","freq_resp","","","img/orange_2bandit_b.png","70","img/orange_2bandit_b.png","70","test","","","","","","","","","","","4","","","","","","","","",""
"null","258177","SARL_v6","SARL_v67gokvw9w","61686f8376bd6ff59ea15479","fixation","","","img/fixation.png","null","","","test","","","","","","","","","","","","","","","","","","","",""
"358.0999999999767","258537","SARL_v6","SARL_v67gokvw9w","61686f8376bd6ff59ea15479","freq","","","img/orange_2bandit_b2.png","70","","70","test","1","","85","","","","circle","square","82","17","4","0.926829268292683","","","","","","","",""
"null","258992","SARL_v6","SARL_v67gokvw9w","61686f8376bd6ff59ea15479","freq_resp","","","img/orange_2bandit_b.png","70","img/orange_2bandit_b.png","70","test","","","","","","","","","","","4","","","","","","","","",""
"null","259152","SARL_v6","SARL_v67gokvw9w","61686f8376bd6ff59ea15479","fixation","","","img/fixation.png","null","","","test","","","","","","","","","","","","","","","","","","","",""
"331.70000000001164","259486","SARL_v6","SARL_v67gokvw9w","61686f8376bd6ff59ea15479","freq","","","img/orange_2bandit_b2.png","70","","70","test","1","","86","","","","circle","square","83","18","4","0.927710843373494","","","","","","","",""
"null","259969","SARL_v6","SARL_v67gokvw9w","61686f8376bd6ff59ea15479","freq_resp","","","img/orange_2bandit_b.png","70","img/orange_2bandit_b.png","70","test","","","","","","","","","","","4","","","","","","","","",""
"null","260123","SARL_v6","SARL_v67gokvw9w","61686f8376bd6ff59ea15479","fixation","","","img/fixation.png","null","","","test","","","","","","","","","","","","","","","","","","","",""
"353.30000000004657","260479","SARL_v6","SARL_v67gokvw9w","61686f8376bd6ff59ea15479","freq","","","img/orange_2bandit_b2.png","70","","70","test","1","","87","","","","circle","square","84","19","4","0.9285714285714286","","","","","","","",""
"null","260936","SARL_v6","SARL_v67gokvw9w","61686f8376bd6ff59ea15479","freq_resp","","","img/orange_2bandit_b.png","70","img/orange_2bandit_b.png","70","test","","","","","","","","","","","4","","","","","","","","",""
"null","261097","SARL_v6","SARL_v67gokvw9w","61686f8376bd6ff59ea15479","fixation","","","img/fixation.png","null","","","test","","","","","","","","","","","","","","","","","","","",""
"343.20000000001164","261443","SARL_v6","SARL_v67gokvw9w","61686f8376bd6ff59ea15479","freq","","","img/orange_2bandit_b2.png","70","","70","test","1","","88","","","","circle","square","85","20","4","0.9294117647058824","","","","","","","",""
"null","261912","SARL_v6","SARL_v67gokvw9w","61686f8376bd6ff59ea15479","freq_resp","","","img/orange_2bandit_b.png","70","img/orange_2bandit_b.png","70","test","","","","","","","","","","","4","","","","","","","","",""
"null","262072","SARL_v6","SARL_v67gokvw9w","61686f8376bd6ff59ea15479","fixation","","","img/fixation.png","null","","","test","","","","","","","","","","","","","","","","","","","",""
"477.5999999999767","262552","SARL_v6","SARL_v67gokvw9w","61686f8376bd6ff59ea15479","infreq","","","img/blue_2bandit_b2.png","68","","68","test","1","","89","","","","circle","square","86","21","4","0.9302325581395349","","","","","","","",""
"null","262886","SARL_v6","SARL_v67gokvw9w","61686f8376bd6ff59ea15479","infreq_resp","","","img/blue_2bandit_b.png","68","img/blue_2bandit_b.png","68","test","","","","","","","","","","","4","","","","","","","","",""
"null","263047","SARL_v6","SARL_v67gokvw9w","61686f8376bd6ff59ea15479","fixation","","","img/fixation.png","null","","","test","","","","","","","","","","","","","","","","","","","",""
"610.2000000000116","263660","SARL_v6","SARL_v67gokvw9w","61686f8376bd6ff59ea15479","freq","","","img/orange_2bandit_b2.png","70","","70","test","1","","90","","","","circle","square","87","22","4","0.9310344827586207","","","","","","","",""
"null","263865","SARL_v6","SARL_v67gokvw9w","61686f8376bd6ff59ea15479","freq_resp","","","img/orange_2bandit_b.png","70","img/orange_2bandit_b.png","70","test","","","","","","","","","","","4","","","","","","","","",""
"null","264023","SARL_v6","SARL_v67gokvw9w","61686f8376bd6ff59ea15479","fixation","","","img/fixation.png","null","","","test","","","","","","","","","","","","","","","","","","","",""
"626.3000000000466","264652","SARL_v6","SARL_v67gokvw9w","61686f8376bd6ff59ea15479","infreq","","","img/blue_2bandit_b2.png","68","","68","test","1","","91","","","","circle","square","88","23","4","0.9318181818181818","","","","","","","",""
"null","264838","SARL_v6","SARL_v67gokvw9w","61686f8376bd6ff59ea15479","infreq_resp","","","img/blue_2bandit_b.png","68","img/blue_2bandit_b.png","68","test","","","","","","","","","","","4","","","","","","","","",""
"null","265000","SARL_v6","SARL_v67gokvw9w","61686f8376bd6ff59ea15479","fixation","","","img/fixation.png","null","","","test","","","","","","","","","","","","","","","","","","","",""
"460.79999999998836","265463","SARL_v6","SARL_v67gokvw9w","61686f8376bd6ff59ea15479","freq","","","img/orange_2bandit_b2.png","70","","70","test","1","","92","","","","circle","square","89","24","4","0.9325842696629213","","","","","","","",""
"null","265817","SARL_v6","SARL_v67gokvw9w","61686f8376bd6ff59ea15479","freq_resp","","","img/orange_2bandit_b.png","70","img/orange_2bandit_b.png","70","test","","","","","","","","","","","4","","","","","","","","",""
"null","265976","SARL_v6","SARL_v67gokvw9w","61686f8376bd6ff59ea15479","fixation","","","img/fixation.png","null","","","test","","","","","","","","","","","","","","","","","","","",""
"497.5","266476","SARL_v6","SARL_v67gokvw9w","61686f8376bd6ff59ea15479","freq","","","img/orange_2bandit_b2.png","70","","70","test","1","","93","","","","circle","square","90","25","4","0.9333333333333333","","","","","","","",""
"null","266787","SARL_v6","SARL_v67gokvw9w","61686f8376bd6ff59ea15479","freq_resp","","","img/orange_2bandit_b.png","70","img/orange_2bandit_b.png","70","test","","","","","","","","","","","4","","","","","","","","",""
"null","266952","SARL_v6","SARL_v67gokvw9w","61686f8376bd6ff59ea15479","fixation","","","img/fixation.png","null","","","test","","","","","","","","","","","","","","","","","","","",""
"733.4000000000233","267688","SARL_v6","SARL_v67gokvw9w","61686f8376bd6ff59ea15479","rl","","","img/black_2bandit_b2.png","75","","0","test","","","94","","","-12","circle","square","","0","4","","75","0","-12","0","-12","square","4","0"
"null","268449","SARL_v6","SARL_v67gokvw9w","61686f8376bd6ff59ea15479","feedback","","","<div class=""verylowPoints_sq""> -12 </div>","null","","na","test","","","NaN","","","","","","","","4","","75","","","","","","4",""
"null","269263","SARL_v6","SARL_v67gokvw9w","61686f8376bd6ff59ea15479","freq","","","img/orange_2bandit_b2.png","null","","70","test","0","","95","","","","circle","square","91","1","5","0.9230769230769231","","","","","","","",""
"null","269423","SARL_v6","SARL_v67gokvw9w","61686f8376bd6ff59ea15479","fixation","","","img/fixation.png","null","","","test","","","","","","","","","","","","","","","","","","","",""
"null","270227","SARL_v6","SARL_v67gokvw9w","61686f8376bd6ff59ea15479","freq","","","img/orange_2bandit_b2.png","null","","70","test","0","","96","","","","circle","square","92","2","5","0.9130434782608695","","","","","","","",""
"null","270393","SARL_v6","SARL_v67gokvw9w","61686f8376bd6ff59ea15479","fixation","","","img/fixation.png","null","","","test","","","","","","","","","","","","","","","","","","","",""
"799.7999999999884","271195","SARL_v6","SARL_v67gokvw9w","61686f8376bd6ff59ea15479","freq","","","img/orange_2bandit_b2.png","70","","70","test","1","","97","","","","circle","square","93","3","5","0.9139784946236559","","","","","","","",""
"null","271198","SARL_v6","SARL_v67gokvw9w","61686f8376bd6ff59ea15479","freq_resp","","","img/orange_2bandit_b.png","70","img/orange_2bandit_b.png","70","test","","","","","","","","","","","5","","","","","","","","",""
"null","271351","SARL_v6","SARL_v67gokvw9w","61686f8376bd6ff59ea15479","fixation","","","img/fixation.png","null","","","test","","","","","","","","","","","","","","","","","","","",""
"785.4000000000233","272138","SARL_v6","SARL_v67gokvw9w","61686f8376bd6ff59ea15479","freq","","","img/orange_2bandit_b2.png","70","","70","test","1","","98","","","","circle","square","94","4","5","0.9148936170212766","","","","","","","",""
"null","272166","SARL_v6","SARL_v67gokvw9w","61686f8376bd6ff59ea15479","freq_resp","","","img/orange_2bandit_b.png","70","img/orange_2bandit_b.png","70","test","","","","","","","","","","","5","","","","","","","","",""
"null","272327","SARL_v6","SARL_v67gokvw9w","61686f8376bd6ff59ea15479","fixation","","","img/fixation.png","null","","","test","","","","","","","","","","","","","","","","","","","",""
"null","273134","SARL_v6","SARL_v67gokvw9w","61686f8376bd6ff59ea15479","freq","","","img/orange_2bandit_b2.png","null","","70","test","0","","99","","","","circle","square","95","5","5","0.9052631578947369","","","","","","","",""
"null","273291","SARL_v6","SARL_v67gokvw9w","61686f8376bd6ff59ea15479","fixation","","","img/fixation.png","null","","","test","","","","","","","","","","","","","","","","","","","",""
"634.4000000000233","273927","SARL_v6","SARL_v67gokvw9w","61686f8376bd6ff59ea15479","freq","","","img/orange_2bandit_b2.png","70","","70","test","1","","100","","","","circle","square","96","6","5","0.90625","","","","","","","",""
"null","274104","SARL_v6","SARL_v67gokvw9w","61686f8376bd6ff59ea15479","freq_resp","","","img/orange_2bandit_b.png","70","img/orange_2bandit_b.png","70","test","","","","","","","","","","","5","","","","","","","","",""
"null","274264","SARL_v6","SARL_v67gokvw9w","61686f8376bd6ff59ea15479","fixation","","","img/fixation.png","null","","","test","","","","","","","","","","","","","","","","","","","",""
"583.2999999999884","274850","SARL_v6","SARL_v67gokvw9w","61686f8376bd6ff59ea15479","freq","","","img/orange_2bandit_b2.png","70","","70","test","1","","101","","","","circle","square","97","7","5","0.9072164948453608","","","","","","","",""
"null","275080","SARL_v6","SARL_v67gokvw9w","61686f8376bd6ff59ea15479","freq_resp","","","img/orange_2bandit_b.png","70","img/orange_2bandit_b.png","70","test","","","","","","","","","","","5","","","","","","","","",""
"null","275241","SARL_v6","SARL_v67gokvw9w","61686f8376bd6ff59ea15479","fixation","","","img/fixation.png","null","","","test","","","","","","","","","","","","","","","","","","","",""
"616.8999999999651","275860","SARL_v6","SARL_v67gokvw9w","61686f8376bd6ff59ea15479","freq","","","img/orange_2bandit_b2.png","70","","70","test","1","","102","","","","circle","square","98","8","5","0.9081632653061225","","","","","","","",""
"null","276051","SARL_v6","SARL_v67gokvw9w","61686f8376bd6ff59ea15479","freq_resp","","","img/orange_2bandit_b.png","70","img/orange_2bandit_b.png","70","test","","","","","","","","","","","5","","","","","","","","",""
"null","276216","SARL_v6","SARL_v67gokvw9w","61686f8376bd6ff59ea15479","fixation","","","img/fixation.png","null","","","test","","","","","","","","","","","","","","","","","","","",""
"604.2999999999884","276823","SARL_v6","SARL_v67gokvw9w","61686f8376bd6ff59ea15479","freq","","","img/orange_2bandit_b2.png","70","","70","test","1","","103","","","","circle","square","99","9","5","0.9090909090909091","","","","","","","",""
"null","277032","SARL_v6","SARL_v67gokvw9w","61686f8376bd6ff59ea15479","freq_resp","","","img/orange_2bandit_b.png","70","img/orange_2bandit_b.png","70","test","","","","","","","","","","","5","","","","","","","","",""
"null","277192","SARL_v6","SARL_v67gokvw9w","61686f8376bd6ff59ea15479","fixation","","","img/fixation.png","null","","","test","","","","","","","","","","","","","","","","","","","",""
"559.5999999999767","277754","SARL_v6","SARL_v67gokvw9w","61686f8376bd6ff59ea15479","freq","","","img/orange_2bandit_b2.png","70","","70","test","1","","104","","","","circle","square","100","10","5","0.91","","","","","","","",""
"null","278009","SARL_v6","SARL_v67gokvw9w","61686f8376bd6ff59ea15479","freq_resp","","","img/orange_2bandit_b.png","70","img/orange_2bandit_b.png","70","test","","","","","","","","","","","5","","","","","","","","",""
"null","278168","SARL_v6","SARL_v67gokvw9w","61686f8376bd6ff59ea15479","fixation","","","img/fixation.png","null","","","test","","","","","","","","","","","","","","","","","","","",""
"445.5999999999767","278615","SARL_v6","SARL_v67gokvw9w","61686f8376bd6ff59ea15479","freq","","","img/orange_2bandit_b2.png","70","","70","test","1","","105","","","","circle","square","101","11","5","0.9108910891089109","","","","","","","",""
"null","278985","SARL_v6","SARL_v67gokvw9w","61686f8376bd6ff59ea15479","freq_resp","","","img/orange_2bandit_b.png","70","img/orange_2bandit_b.png","70","test","","","","","","","","","","","5","","","","","","","","",""
"null","279143","SARL_v6","SARL_v67gokvw9w","61686f8376bd6ff59ea15479","fixation","","","img/fixation.png","null","","","test","","","","","","","","","","","","","","","","","","","",""
"412.5","279557","SARL_v6","SARL_v67gokvw9w","61686f8376bd6ff59ea15479","freq","","","img/orange_2bandit_b2.png","70","","70","test","1","","106","","","","circle","square","102","12","5","0.9117647058823529","","","","","","","",""
"null","279961","SARL_v6","SARL_v67gokvw9w","61686f8376bd6ff59ea15479","freq_resp","","","img/orange_2bandit_b.png","70","img/orange_2bandit_b.png","70","test","","","","","","","","","","","5","","","","","","","","",""
"null","280120","SARL_v6","SARL_v67gokvw9w","61686f8376bd6ff59ea15479","fixation","","","img/fixation.png","null","","","test","","","","","","","","","","","","","","","","","","","",""
"351","280473","SARL_v6","SARL_v67gokvw9w","61686f8376bd6ff59ea15479","freq","","","img/orange_2bandit_b2.png","70","","70","test","1","","107","","","","circle","square","103","13","5","0.912621359223301","","","","","","","",""
"null","280937","SARL_v6","SARL_v67gokvw9w","61686f8376bd6ff59ea15479","freq_resp","","","img/orange_2bandit_b.png","70","img/orange_2bandit_b.png","70","test","","","","","","","","","","","5","","","","","","","","",""
"null","281096","SARL_v6","SARL_v67gokvw9w","61686f8376bd6ff59ea15479","fixation","","","img/fixation.png","null","","","test","","","","","","","","","","","","","","","","","","","",""
"398.70000000001164","281497","SARL_v6","SARL_v67gokvw9w","61686f8376bd6ff59ea15479","freq","","","img/orange_2bandit_b2.png","70","","70","test","1","","108","","","","circle","square","104","14","5","0.9134615384615384","","","","","","","",""
"null","281911","SARL_v6","SARL_v67gokvw9w","61686f8376bd6ff59ea15479","freq_resp","","","img/orange_2bandit_b.png","70","img/orange_2bandit_b.png","70","test","","","","","","","","","","","5","","","","","","","","",""
"null","282072","SARL_v6","SARL_v67gokvw9w","61686f8376bd6ff59ea15479","fixation","","","img/fixation.png","null","","","test","","","","","","","","","","","","","","","","","","","",""
"345.70000000001164","282420","SARL_v6","SARL_v67gokvw9w","61686f8376bd6ff59ea15479","freq","","","img/orange_2bandit_b2.png","70","","70","test","1","","109","","","","circle","square","105","15","5","0.9142857142857143","","","","","","","",""
"null","282888","SARL_v6","SARL_v67gokvw9w","61686f8376bd6ff59ea15479","freq_resp","","","img/orange_2bandit_b.png","70","img/orange_2bandit_b.png","70","test","","","","","","","","","","","5","","","","","","","","",""
"null","283048","SARL_v6","SARL_v67gokvw9w","61686f8376bd6ff59ea15479","fixation","","","img/fixation.png","null","","","test","","","","","","","","","","","","","","","","","","","",""
"330.80000000004657","283382","SARL_v6","SARL_v67gokvw9w","61686f8376bd6ff59ea15479","freq","","","img/orange_2bandit_b2.png","70","","70","test","1","","110","","","","circle","square","106","16","5","0.9150943396226415","","","","","","","",""
"null","283864","SARL_v6","SARL_v67gokvw9w","61686f8376bd6ff59ea15479","freq_resp","","","img/orange_2bandit_b.png","70","img/orange_2bandit_b.png","70","test","","","","","","","","","","","5","","","","","","","","",""
"null","284024","SARL_v6","SARL_v67gokvw9w","61686f8376bd6ff59ea15479","fixation","","","img/fixation.png","null","","","test","","","","","","","","","","","","","","","","","","","",""
"349.9000000000233","284376","SARL_v6","SARL_v67gokvw9w","61686f8376bd6ff59ea15479","freq","","","img/orange_2bandit_b2.png","70","","70","test","1","","111","","","","circle","square","107","17","5","0.9158878504672897","","","","","","","",""
"null","284840","SARL_v6","SARL_v67gokvw9w","61686f8376bd6ff59ea15479","freq_resp","","","img/orange_2bandit_b.png","70","img/orange_2bandit_b.png","70","test","","","","","","","","","","","5","","","","","","","","",""
"null","284996","SARL_v6","SARL_v67gokvw9w","61686f8376bd6ff59ea15479","fixation","","","img/fixation.png","null","","","test","","","","","","","","","","","","","","","","","","","",""
"388.79999999998836","285387","SARL_v6","SARL_v67gokvw9w","61686f8376bd6ff59ea15479","freq","","","img/orange_2bandit_b2.png","70","","70","test","1","","112","","","","circle","square","108","18","5","0.9166666666666666","","","","","","","",""
"null","285808","SARL_v6","SARL_v67gokvw9w","61686f8376bd6ff59ea15479","freq_resp","","","img/orange_2bandit_b.png","70","img/orange_2bandit_b.png","70","test","","","","","","","","","","","5","","","","","","","","",""
"null","285968","SARL_v6","SARL_v67gokvw9w","61686f8376bd6ff59ea15479","fixation","","","img/fixation.png","null","","","test","","","","","","","","","","","","","","","","","","","",""
"362.5","286333","SARL_v6","SARL_v67gokvw9w","61686f8376bd6ff59ea15479","freq","","","img/orange_2bandit_b2.png","70","","70","test","1","","113","","","","circle","square","109","19","5","0.9174311926605505","","","","","","","",""
"null","286783","SARL_v6","SARL_v67gokvw9w","61686f8376bd6ff59ea15479","freq_resp","","","img/orange_2bandit_b.png","70","img/orange_2bandit_b.png","70","test","","","","","","","","","","","5","","","","","","","","",""
"null","286945","SARL_v6","SARL_v67gokvw9w","61686f8376bd6ff59ea15479","fixation","","","img/fixation.png","null","","","test","","","","","","","","","","","","","","","","","","","",""
"376.5999999999767","287324","SARL_v6","SARL_v67gokvw9w","61686f8376bd6ff59ea15479","freq","","","img/orange_2bandit_b2.png","70","","70","test","1","","114","","","","circle","square","110","20","5","0.9181818181818182","","","","","","","",""
"null","287761","SARL_v6","SARL_v67gokvw9w","61686f8376bd6ff59ea15479","freq_resp","","","img/orange_2bandit_b.png","70","img/orange_2bandit_b.png","70","test","","","","","","","","","","","5","","","","","","","","",""
"null","287921","SARL_v6","SARL_v67gokvw9w","61686f8376bd6ff59ea15479","fixation","","","img/fixation.png","null","","","test","","","","","","","","","","","","","","","","","","","",""
"486.70000000001164","288410","SARL_v6","SARL_v67gokvw9w","61686f8376bd6ff59ea15479","infreq","","","img/blue_2bandit_b2.png","68","","68","test","1","","115","","","","circle","square","111","21","5","0.918918918918919","","","","","","","",""
"null","288737","SARL_v6","SARL_v67gokvw9w","61686f8376bd6ff59ea15479","infreq_resp","","","img/blue_2bandit_b.png","68","img/blue_2bandit_b.png","68","test","","","","","","","","","","","5","","","","","","","","",""
"null","288895","SARL_v6","SARL_v67gokvw9w","61686f8376bd6ff59ea15479","fixation","","","img/fixation.png","null","","","test","","","","","","","","","","","","","","","","","","","",""
"580.3999999999651","289478","SARL_v6","SARL_v67gokvw9w","61686f8376bd6ff59ea15479","infreq","","","img/blue_2bandit_b2.png","68","","68","test","1","","116","","","","circle","square","112","22","5","0.9196428571428571","","","","","","","",""
"null","289711","SARL_v6","SARL_v67gokvw9w","61686f8376bd6ff59ea15479","infreq_resp","","","img/blue_2bandit_b.png","68","img/blue_2bandit_b.png","68","test","","","","","","","","","","","5","","","","","","","","",""
"null","289871","SARL_v6","SARL_v67gokvw9w","61686f8376bd6ff59ea15479","fixation","","","img/fixation.png","null","","","test","","","","","","","","","","","","","","","","","","","",""
"505.0999999999767","290379","SARL_v6","SARL_v67gokvw9w","61686f8376bd6ff59ea15479","freq","","","img/orange_2bandit_b2.png","70","","70","test","1","","117","","","","circle","square","113","23","5","0.9203539823008849","","","","","","","",""
"null","290688","SARL_v6","SARL_v67gokvw9w","61686f8376bd6ff59ea15479","freq_resp","","","img/orange_2bandit_b.png","70","img/orange_2bandit_b.png","70","test","","","","","","","","","","","5","","","","","","","","",""
"null","290848","SARL_v6","SARL_v67gokvw9w","61686f8376bd6ff59ea15479","fixation","","","img/fixation.png","null","","","test","","","","","","","","","","","","","","","","","","","",""
"458.5999999999767","291309","SARL_v6","SARL_v67gokvw9w","61686f8376bd6ff59ea15479","freq","","","img/orange_2bandit_b2.png","70","","70","test","1","","118","","","","circle","square","114","24","5","0.9210526315789473","","","","","","","",""
"null","291662","SARL_v6","SARL_v67gokvw9w","61686f8376bd6ff59ea15479","freq_resp","","","img/orange_2bandit_b.png","70","img/orange_2bandit_b.png","70","test","","","","","","","","","","","5","","","","","","","","",""
"null","291817","SARL_v6","SARL_v67gokvw9w","61686f8376bd6ff59ea15479","fixation","","","img/fixation.png","null","","","test","","","","","","","","","","","","","","","","","","","",""
"603.9000000000233","292423","SARL_v6","SARL_v67gokvw9w","61686f8376bd6ff59ea15479","rl","","","img/black_2bandit_b2.png","74","","0","test","","","119","","","4","circle","square","","0","5","","74","4","-7","4","-7","circle","5","0"
"null","293184","SARL_v6","SARL_v67gokvw9w","61686f8376bd6ff59ea15479","feedback","","","<div class=""veryhighPoints""> 4 </div>","null","","na","test","","","NaN","","","","","","","","5","","74","","","","","","5",""
"620.2999999999884","293807","SARL_v6","SARL_v67gokvw9w","61686f8376bd6ff59ea15479","freq","","","img/orange_2bandit_b2.png","70","","70","test","1","","120","","","","circle","square","115","1","6","0.9217391304347826","","","","","","","",""
"null","293999","SARL_v6","SARL_v67gokvw9w","61686f8376bd6ff59ea15479","freq_resp","","","img/orange_2bandit_b.png","70","img/orange_2bandit_b.png","70","test","","","","","","","","","","","6","","","","","","","","",""
"null","294160","SARL_v6","SARL_v67gokvw9w","61686f8376bd6ff59ea15479","fixation","","","img/fixation.png","null","","","test","","","","","","","","","","","","","","","","","","","",""
"613.5999999999767","294776","SARL_v6","SARL_v67gokvw9w","61686f8376bd6ff59ea15479","freq","","","img/orange_2bandit_b2.png","70","","70","test","1","","121","","","","circle","square","116","2","6","0.9224137931034483","","","","","","","",""
"null","294976","SARL_v6","SARL_v67gokvw9w","61686f8376bd6ff59ea15479","freq_resp","","","img/orange_2bandit_b.png","70","img/orange_2bandit_b.png","70","test","","","","","","","","","","","6","","","","","","","","",""
"null","295136","SARL_v6","SARL_v67gokvw9w","61686f8376bd6ff59ea15479","fixation","","","img/fixation.png","null","","","test","","","","","","","","","","","","","","","","","","","",""
"553.1000000000349","295691","SARL_v6","SARL_v67gokvw9w","61686f8376bd6ff59ea15479","freq","","","img/orange_2bandit_b2.png","70","","70","test","1","","122","","","","circle","square","117","3","6","0.9230769230769231","","","","","","","",""
"null","295953","SARL_v6","SARL_v67gokvw9w","61686f8376bd6ff59ea15479","freq_resp","","","img/orange_2bandit_b.png","70","img/orange_2bandit_b.png","70","test","","","","","","","","","","","6","","","","","","","","",""
"null","296112","SARL_v6","SARL_v67gokvw9w","61686f8376bd6ff59ea15479","fixation","","","img/fixation.png","null","","","test","","","","","","","","","","","","","","","","","","","",""
"null","296928","SARL_v6","SARL_v67gokvw9w","61686f8376bd6ff59ea15479","infreq","","","img/blue_2bandit_b2.png","null","","68","test","0","","123","","","","circle","square","118","4","6","0.9152542372881356","","","","","","","",""
"null","297087","SARL_v6","SARL_v67gokvw9w","61686f8376bd6ff59ea15479","fixation","","","img/fixation.png","null","","","test","","","","","","","","","","","","","","","","","","","",""
"563.5999999999767","297653","SARL_v6","SARL_v67gokvw9w","61686f8376bd6ff59ea15479","freq","","","img/orange_2bandit_b2.png","70","","70","test","1","","124","","","","circle","square","119","5","6","0.9159663865546218","","","","","","","",""
"null","297901","SARL_v6","SARL_v67gokvw9w","61686f8376bd6ff59ea15479","freq_resp","","","img/orange_2bandit_b.png","70","img/orange_2bandit_b.png","70","test","","","","","","","","","","","6","","","","","","","","",""
"null","298065","SARL_v6","SARL_v67gokvw9w","61686f8376bd6ff59ea15479","fixation","","","img/fixation.png","null","","","test","","","","","","","","","","","","","","","","","","","",""
"522.2000000000116","298589","SARL_v6","SARL_v67gokvw9w","61686f8376bd6ff59ea15479","freq","","","img/orange_2bandit_b2.png","70","","70","test","1","","125","","","","circle","square","120","6","6","0.9166666666666666","","","","","","","",""
"null","298880","SARL_v6","SARL_v67gokvw9w","61686f8376bd6ff59ea15479","freq_resp","","","img/orange_2bandit_b.png","70","img/orange_2bandit_b.png","70","test","","","","","","","","","","","6","","","","","","","","",""
"null","299039","SARL_v6","SARL_v67gokvw9w","61686f8376bd6ff59ea15479","fixation","","","img/fixation.png","null","","","test","","","","","","","","","","","","","","","","","","","",""
"null","299848","SARL_v6","SARL_v67gokvw9w","61686f8376bd6ff59ea15479","freq","","","img/orange_2bandit_b2.png","null","","70","test","0","","126","","","","circle","square","121","7","6","0.9090909090909091","","","","","","","",""
"null","300006","SARL_v6","SARL_v67gokvw9w","61686f8376bd6ff59ea15479","fixation","","","img/fixation.png","null","","","test","","","","","","","","","","","","","","","","","","","",""
"710.3999999999651","300718","SARL_v6","SARL_v67gokvw9w","61686f8376bd6ff59ea15479","freq","","","img/orange_2bandit_b2.png","70","","70","test","1","","127","","","","circle","square","122","8","6","0.9098360655737705","","","","","","","",""
"null","300812","SARL_v6","SARL_v67gokvw9w","61686f8376bd6ff59ea15479","freq_resp","","","img/orange_2bandit_b.png","70","img/orange_2bandit_b.png","70","test","","","","","","","","","","","6","","","","","","","","",""
"null","300977","SARL_v6","SARL_v67gokvw9w","61686f8376bd6ff59ea15479","fixation","","","img/fixation.png","null","","","test","","","","","","","","","","","","","","","","","","","",""
"523.0999999999767","301502","SARL_v6","SARL_v67gokvw9w","61686f8376bd6ff59ea15479","infreq","","","img/blue_2bandit_b2.png","68","","68","test","1","","128","","","","circle","square","123","9","6","0.9105691056910569","","","","","","","",""
"null","301790","SARL_v6","SARL_v67gokvw9w","61686f8376bd6ff59ea15479","infreq_resp","","","img/blue_2bandit_b.png","68","img/blue_2bandit_b.png","68","test","","","","","","","","","","","6","","","","","","","","",""
"null","301948","SARL_v6","SARL_v67gokvw9w","61686f8376bd6ff59ea15479","fixation","","","img/fixation.png","null","","","test","","","","","","","","","","","","","","","","","","","",""
"528","302478","SARL_v6","SARL_v67gokvw9w","61686f8376bd6ff59ea15479","freq","","","img/orange_2bandit_b2.png","70","","70","test","1","","129","","","","circle","square","124","10","6","0.9112903225806451","","","","","","","",""
"null","302761","SARL_v6","SARL_v67gokvw9w","61686f8376bd6ff59ea15479","freq_resp","","","img/orange_2bandit_b.png","70","img/orange_2bandit_b.png","70","test","","","","","","","","","","","6","","","","","","","","",""
"null","302921","SARL_v6","SARL_v67gokvw9w","61686f8376bd6ff59ea15479","fixation","","","img/fixation.png","null","","","test","","","","","","","","","","","","","","","","","","","",""
"488.29999999998836","303411","SARL_v6","SARL_v67gokvw9w","61686f8376bd6ff59ea15479","freq","","","img/orange_2bandit_b2.png","70","","70","test","1","","130","","","","circle","square","125","11","6","0.912","","","","","","","",""
"null","303736","SARL_v6","SARL_v67gokvw9w","61686f8376bd6ff59ea15479","freq_resp","","","img/orange_2bandit_b.png","70","img/orange_2bandit_b.png","70","test","","","","","","","","","","","6","","","","","","","","",""
"null","303896","SARL_v6","SARL_v67gokvw9w","61686f8376bd6ff59ea15479","fixation","","","img/fixation.png","null","","","test","","","","","","","","","","","","","","","","","","","",""
"394.5999999999767","304294","SARL_v6","SARL_v67gokvw9w","61686f8376bd6ff59ea15479","freq","","","img/orange_2bandit_b2.png","70","","70","test","1","","131","","","","circle","square","126","12","6","0.9126984126984127","","","","","","","",""
"null","304709","SARL_v6","SARL_v67gokvw9w","61686f8376bd6ff59ea15479","freq_resp","","","img/orange_2bandit_b.png","70","img/orange_2bandit_b.png","70","test","","","","","","","","","","","6","","","","","","","","",""
