"rt","time_elapsed","expId","subject","prolificID","trialType","rlType","attType","stimulus","key_press","stim","corrresp","phase","corr","pracCounter","trialNum","rewardOne","rewardTwo","reward","bandOne","bandTwo","attentionNum","attentionRunNum","blockNum","performance","bandChosen","circleVal","squareVal","bandOneVal","bandTwoVal","shapeChosen","rlNum","badFlag"
"145259.69999999925","145264","SARL_v6","SARL_v69zqdxsxs","59528796a186be000114dc32","","","","","","","","","","","","","","","","","","","","","","","","","","","",""
"","147462","SARL_v6","SARL_v69zqdxsxs","59528796a186be000114dc32","fullscreen","fullscreen","fullscreen","","","","","","","","","","","","","","","","","","","","","","","","",""
"125326.5","272791","SARL_v6","SARL_v69zqdxsxs","59528796a186be000114dc32","","","","","","","","","","","","","","","","","","","","","","","","","","","",""
"null","273607","SARL_v6","SARL_v69zqdxsxs","59528796a186be000114dc32","freqPrac","","","img/orange_2bandit_a2.png","null","img/orange_2bandit_a2.png","70","prac","0","1","","","","","","","","","","","","","","","","","",""
"null","274612","SARL_v6","SARL_v69zqdxsxs","59528796a186be000114dc32","feedback","","","img/tooSlow.png","null","","na","prac","","","","","","","","","","","","","","","","","","","",""
"null","274768","SARL_v6","SARL_v69zqdxsxs","59528796a186be000114dc32","fixation","","","img/fixation.png","null","","","prac","","","","","","","","","","","","","","","","","","","",""
"null","275571","SARL_v6","SARL_v69zqdxsxs","59528796a186be000114dc32","infreqPrac","","","img/blue_2bandit_a2.png","null","img/blue_2bandit_a2.png","68","prac","0","2","","","","","","","","","","","","","","","","","",""
"null","276587","SARL_v6","SARL_v69zqdxsxs","59528796a186be000114dc32","feedback","","","img/tooSlow.png","null","","na","prac","","","","","","","","","","","","","","","","","","","",""
"null","276740","SARL_v6","SARL_v69zqdxsxs","59528796a186be000114dc32","fixation","","","img/fixation.png","null","","","prac","","","","","","","","","","","","","","","","","","","",""
"322.30000000074506","277065","SARL_v6","SARL_v69zqdxsxs","59528796a186be000114dc32","freqPrac","","","img/orange_2bandit_a2.png","70","img/orange_2bandit_a2.png","70","prac","1","2","","","","","","","","","","","","","","","","","",""
"322.30000000074506","277546","SARL_v6","SARL_v69zqdxsxs","59528796a186be000114dc32","freqPrac_resp","","","img/orange_2bandit_a.png","70","img/orange_2bandit_a.png","70","prac","","","","","","","","","","","","","","","","","","","",""
"null","277701","SARL_v6","SARL_v69zqdxsxs","59528796a186be000114dc32","fixation","","","img/fixation.png","null","","","prac","","","","","","","","","","","","","","","","","","","",""
"442.1000000014901","278146","SARL_v6","SARL_v69zqdxsxs","59528796a186be000114dc32","infreqPrac","","","img/blue_2bandit_a2.png","68","img/blue_2bandit_a2.png","68","prac","1","2","","","","","","","","","","","","","","","","","",""
"442.1000000014901","278520","SARL_v6","SARL_v69zqdxsxs","59528796a186be000114dc32","infreqPrac_resp","","","img/blue_2bandit_a.png","68","img/blue_2bandit_a.png","68","prac","","","","","","","","","","","","","","","","","","","",""
"null","278675","SARL_v6","SARL_v69zqdxsxs","59528796a186be000114dc32","fixation","","","img/fixation.png","null","","","prac","","","","","","","","","","","","","","","","","","","",""
"408.19999999925494","279085","SARL_v6","SARL_v69zqdxsxs","59528796a186be000114dc32","infreqPrac","","","img/blue_2bandit_a2.png","68","img/blue_2bandit_a2.png","68","prac","1","2","","","","","","","","","","","","","","","","","",""
"408.19999999925494","279480","SARL_v6","SARL_v69zqdxsxs","59528796a186be000114dc32","infreqPrac_resp","","","img/blue_2bandit_a.png","68","img/blue_2bandit_a.png","68","prac","","","","","","","","","","","","","","","","","","","",""
"null","279636","SARL_v6","SARL_v69zqdxsxs","59528796a186be000114dc32","fixation","","","img/fixation.png","null","","","prac","","","","","","","","","","","","","","","","","","","",""
"330.6000000014901","279969","SARL_v6","SARL_v69zqdxsxs","59528796a186be000114dc32","infreqPrac","","","img/blue_2bandit_a2.png","68","img/blue_2bandit_a2.png","68","prac","1","2","","","","","","","","","","","","","","","","","",""
"330.6000000014901","280457","SARL_v6","SARL_v69zqdxsxs","59528796a186be000114dc32","infreqPrac_resp","","","img/blue_2bandit_a.png","68","img/blue_2bandit_a.png","68","prac","","","","","","","","","","","","","","","","","","","",""
"null","280610","SARL_v6","SARL_v69zqdxsxs","59528796a186be000114dc32","fixation","","","img/fixation.png","null","","","prac","","","","","","","","","","","","","","","","","","","",""
"376.69999999925494","280990","SARL_v6","SARL_v69zqdxsxs","59528796a186be000114dc32","freqPrac","","","img/orange_2bandit_a2.png","70","img/orange_2bandit_a2.png","70","prac","1","2","","","","","","","","","","","","","","","","","",""
"376.69999999925494","281417","SARL_v6","SARL_v69zqdxsxs","59528796a186be000114dc32","freqPrac_resp","","","img/orange_2bandit_a.png","70","img/orange_2bandit_a.png","70","prac","","","","","","","","","","","","","","","","","","","",""
"null","281574","SARL_v6","SARL_v69zqdxsxs","59528796a186be000114dc32","fixation","","","img/fixation.png","null","","","prac","","","","","","","","","","","","","","","","","","","",""
"463.19999999925494","282039","SARL_v6","SARL_v69zqdxsxs","59528796a186be000114dc32","infreqPrac","","","img/blue_2bandit_a2.png","68","img/blue_2bandit_a2.png","68","prac","1","2","","","","","","","","","","","","","","","","","",""
"463.19999999925494","282379","SARL_v6","SARL_v69zqdxsxs","59528796a186be000114dc32","infreqPrac_resp","","","img/blue_2bandit_a.png","68","img/blue_2bandit_a.png","68","prac","","","","","","","","","","","","","","","","","","","",""
"null","282534","SARL_v6","SARL_v69zqdxsxs","59528796a186be000114dc32","fixation","","","img/fixation.png","null","","","prac","","","","","","","","","","","","","","","","","","","",""
"417.19999999925494","282954","SARL_v6","SARL_v69zqdxsxs","59528796a186be000114dc32","freqPrac","","","img/orange_2bandit_a2.png","70","img/orange_2bandit_a2.png","70","prac","1","2","","","","","","","","","","","","","","","","","",""
"417.19999999925494","283352","SARL_v6","SARL_v69zqdxsxs","59528796a186be000114dc32","freqPrac_resp","","","img/orange_2bandit_a.png","70","img/orange_2bandit_a.png","70","prac","","","","","","","","","","","","","","","","","","","",""
"null","283508","SARL_v6","SARL_v69zqdxsxs","59528796a186be000114dc32","fixation","","","img/fixation.png","null","","","prac","","","","","","","","","","","","","","","","","","","",""
"292.8999999985099","283803","SARL_v6","SARL_v69zqdxsxs","59528796a186be000114dc32","freqPrac","","","img/orange_2bandit_a2.png","70","img/orange_2bandit_a2.png","70","prac","1","2","","","","","","","","","","","","","","","","","",""
"292.8999999985099","284314","SARL_v6","SARL_v69zqdxsxs","59528796a186be000114dc32","freqPrac_resp","","","img/orange_2bandit_a.png","70","img/orange_2bandit_a.png","70","prac","","","","","","","","","","","","","","","","","","","",""
"null","284469","SARL_v6","SARL_v69zqdxsxs","59528796a186be000114dc32","fixation","","","img/fixation.png","null","","","prac","","","","","","","","","","","","","","","","","","","",""
"18948.39999999851","303419","SARL_v6","SARL_v69zqdxsxs","59528796a186be000114dc32","","","","","","","","prac","","","","","","","","","","","","","","","","","","","",""
"590.1999999992549","304013","SARL_v6","SARL_v69zqdxsxs","59528796a186be000114dc32","rlPractice","","","img/black_2bandit_a2.png","74","img/black_2bandit_a2.png","","prac","","","0","","","","","","","","","","","","","","","","",""
"null","304774","SARL_v6","SARL_v69zqdxsxs","59528796a186be000114dc32","feedback","","","<div class=""verylowPoints_sq""> -14 </div>","null","","na","prac","","","1","10","-14","10","","","","","","","","","","","","","",""
"null","304927","SARL_v6","SARL_v69zqdxsxs","59528796a186be000114dc32","fixation","","","img/fixation.png","null","","","prac","","","","","","","","","","","","","","","","","","","",""
"436.3999999985099","305366","SARL_v6","SARL_v69zqdxsxs","59528796a186be000114dc32","rlPractice","","","img/black_2bandit_a2.png","75","img/black_2bandit_a2.png","","prac","","","1","","","","","","","","","","","","","","","","",""
"null","306120","SARL_v6","SARL_v69zqdxsxs","59528796a186be000114dc32","feedback","","","<div class=""veryhighPoints""> 5 </div>","null","","na","prac","","","2","5","-5","5","","","","","","","","","","","","","",""
"null","306274","SARL_v6","SARL_v69zqdxsxs","59528796a186be000114dc32","fixation","","","img/fixation.png","null","","","prac","","","","","","","","","","","","","","","","","","","",""
"420.0999999977648","306697","SARL_v6","SARL_v69zqdxsxs","59528796a186be000114dc32","rlPractice","","","img/black_2bandit_a2.png","75","img/black_2bandit_a2.png","","prac","","","2","","","","","","","","","","","","","","","","",""
"null","307453","SARL_v6","SARL_v69zqdxsxs","59528796a186be000114dc32","feedback","","","<div class=""veryhighPoints""> 30 </div>","null","","na","prac","","","3","30","2","30","","","","","","","","","","","","","",""
"null","307608","SARL_v6","SARL_v69zqdxsxs","59528796a186be000114dc32","fixation","","","img/fixation.png","null","","","prac","","","","","","","","","","","","","","","","","","","",""
"338.6000000014901","307949","SARL_v6","SARL_v69zqdxsxs","59528796a186be000114dc32","rlPractice","","","img/black_2bandit_a2.png","75","img/black_2bandit_a2.png","","prac","","","3","","","","","","","","","","","","","","","","",""
"null","308711","SARL_v6","SARL_v69zqdxsxs","59528796a186be000114dc32","feedback","","","<div class=""verylowPoints""> -2 </div>","null","","na","prac","","","4","-2","20","-2","","","","","","","","","","","","","",""
"null","308866","SARL_v6","SARL_v69zqdxsxs","59528796a186be000114dc32","fixation","","","img/fixation.png","null","","","prac","","","","","","","","","","","","","","","","","","","",""
"16579.099999997765","325447","SARL_v6","SARL_v69zqdxsxs","59528796a186be000114dc32","","","","","","","","prac","","","","","","","","","","","","","","","","","","","",""
"452.1000000014901","325902","SARL_v6","SARL_v69zqdxsxs","59528796a186be000114dc32","mixAttFreqPrac","","","img/orange_2bandit_a2.png","70","img/orange_2bandit_a2.png","70","prac","","","1","","","","","","","","","","","","","","","","",""
"452.1000000014901","326264","SARL_v6","SARL_v69zqdxsxs","59528796a186be000114dc32","freqPrac_resp","","","img/orange_2bandit_a.png","70","img/orange_2bandit_a.png","70","prac","","","1","","","","","","","","","","","","","","","","",""
"null","326421","SARL_v6","SARL_v69zqdxsxs","59528796a186be000114dc32","fixation","","","img/fixation.png","null","","","prac","","","","","","","","","","","","","","","","","","","",""
"505.80000000074506","326929","SARL_v6","SARL_v69zqdxsxs","59528796a186be000114dc32","mixAttInfreqPrac","","","img/blue_2bandit_a2.png","68","img/blue_2bandit_a2.png","68","prac","","","2","","","","","","","","","","","","","","","","",""
"505.80000000074506","327241","SARL_v6","SARL_v69zqdxsxs","59528796a186be000114dc32","infreqPrac_resp","","","img/blue_2bandit_a.png","68","img/orange_2bandit_a.png","68","prac","","","2","","","","","","","","","","","","","","","","",""
"null","327394","SARL_v6","SARL_v69zqdxsxs","59528796a186be000114dc32","fixation","","","img/fixation.png","null","","","prac","","","","","","","","","","","","","","","","","","","",""
"387.3999999985099","327784","SARL_v6","SARL_v69zqdxsxs","59528796a186be000114dc32","mixAttInfreqPrac","","","img/blue_2bandit_a2.png","70","img/blue_2bandit_a2.png","68","prac","","","3","","","","","","","","","","","","","","","","",""
"387.3999999985099","328203","SARL_v6","SARL_v69zqdxsxs","59528796a186be000114dc32","infreqPrac_resp","","","img/blue_2bandit_a.png","70","img/orange_2bandit_a.png","68","prac","","","3","","","","","","","","","","","","","","","","",""
"null","328358","SARL_v6","SARL_v69zqdxsxs","59528796a186be000114dc32","fixation","","","img/fixation.png","null","","","prac","","","","","","","","","","","","","","","","","","","",""
"556.2999999970198","328916","SARL_v6","SARL_v69zqdxsxs","59528796a186be000114dc32","mixAttInfreqPrac","","","img/blue_2bandit_a2.png","68","img/blue_2bandit_a2.png","68","prac","","","4","","","","","","","","","","","","","","","","",""
"556.2999999970198","329165","SARL_v6","SARL_v69zqdxsxs","59528796a186be000114dc32","infreqPrac_resp","","","img/blue_2bandit_a.png","68","img/orange_2bandit_a.png","68","prac","","","4","","","","","","","","","","","","","","","","",""
"null","329320","SARL_v6","SARL_v69zqdxsxs","59528796a186be000114dc32","fixation","","","img/fixation.png","null","","","prac","","","","","","","","","","","","","","","","","","","",""
"377","329699","SARL_v6","SARL_v69zqdxsxs","59528796a186be000114dc32","mixAttFreqPrac","","","img/orange_2bandit_a2.png","70","img/orange_2bandit_a2.png","70","prac","","","5","","","","","","","","","","","","","","","","",""
"377","330127","SARL_v6","SARL_v69zqdxsxs","59528796a186be000114dc32","freqPrac_resp","","","img/orange_2bandit_a.png","70","img/orange_2bandit_a.png","70","prac","","","5","","","","","","","","","","","","","","","","",""
"null","330283","SARL_v6","SARL_v69zqdxsxs","59528796a186be000114dc32","fixation","","","img/fixation.png","null","","","prac","","","","","","","","","","","","","","","","","","","",""
"474.0999999977648","330759","SARL_v6","SARL_v69zqdxsxs","59528796a186be000114dc32","mixRLPractice","","","img/black_2bandit_a2.png","75","img/black_2bandit_a2.png","","prac","","","5","","","","","","","","","","","","","","","","",""
"null","331522","SARL_v6","SARL_v69zqdxsxs","59528796a186be000114dc32","feedback","","","<div class=""verylowPoints""> -14 </div>","null","","na","prac","","","6","-14","10","-14","","","","","","","","","","","","","",""
"null","331677","SARL_v6","SARL_v69zqdxsxs","59528796a186be000114dc32","fixation","","","img/fixation.png","null","","","prac","","","","","","","","","","","","","","","","","","","",""
"784.3000000007451","332464","SARL_v6","SARL_v69zqdxsxs","59528796a186be000114dc32","mixAttFreqPrac","","","img/orange_2bandit_a2.png","70","img/orange_2bandit_a2.png","70","prac","","","7","","","","","","","","","","","","","","","","",""
"784.3000000007451","332482","SARL_v6","SARL_v69zqdxsxs","59528796a186be000114dc32","freqPrac_resp","","","img/orange_2bandit_a.png","70","img/orange_2bandit_a.png","70","prac","","","7","","","","","","","","","","","","","","","","",""
"null","332637","SARL_v6","SARL_v69zqdxsxs","59528796a186be000114dc32","fixation","","","img/fixation.png","null","","","prac","","","","","","","","","","","","","","","","","","","",""
"689.5","333329","SARL_v6","SARL_v69zqdxsxs","59528796a186be000114dc32","mixAttInfreqPrac","","","img/blue_2bandit_a2.png","68","img/blue_2bandit_a2.png","68","prac","","","8","","","","","","","","","","","","","","","","",""
"689.5","333456","SARL_v6","SARL_v69zqdxsxs","59528796a186be000114dc32","infreqPrac_resp","","","img/blue_2bandit_a.png","68","img/orange_2bandit_a.png","68","prac","","","8","","","","","","","","","","","","","","","","",""
"null","333611","SARL_v6","SARL_v69zqdxsxs","59528796a186be000114dc32","fixation","","","img/fixation.png","null","","","prac","","","","","","","","","","","","","","","","","","","",""
"631.1999999992549","334245","SARL_v6","SARL_v69zqdxsxs","59528796a186be000114dc32","mixAttFreqPrac","","","img/orange_2bandit_a2.png","70","img/orange_2bandit_a2.png","70","prac","","","9","","","","","","","","","","","","","","","","",""
"631.1999999992549","334419","SARL_v6","SARL_v69zqdxsxs","59528796a186be000114dc32","freqPrac_resp","","","img/orange_2bandit_a.png","70","img/orange_2bandit_a.png","70","prac","","","9","","","","","","","","","","","","","","","","",""
"null","334573","SARL_v6","SARL_v69zqdxsxs","59528796a186be000114dc32","fixation","","","img/fixation.png","null","","","prac","","","","","","","","","","","","","","","","","","","",""
"333.6000000014901","334910","SARL_v6","SARL_v69zqdxsxs","59528796a186be000114dc32","mixAttFreqPrac","","","img/orange_2bandit_a2.png","70","img/orange_2bandit_a2.png","70","prac","","","10","","","","","","","","","","","","","","","","",""
"333.6000000014901","335391","SARL_v6","SARL_v69zqdxsxs","59528796a186be000114dc32","freqPrac_resp","","","img/orange_2bandit_a.png","70","img/orange_2bandit_a.png","70","prac","","","10","","","","","","","","","","","","","","","","",""
"null","335547","SARL_v6","SARL_v69zqdxsxs","59528796a186be000114dc32","fixation","","","img/fixation.png","null","","","prac","","","","","","","","","","","","","","","","","","","",""
"462.3999999985099","336012","SARL_v6","SARL_v69zqdxsxs","59528796a186be000114dc32","mixAttInfreqPrac","","","img/blue_2bandit_a2.png","68","img/blue_2bandit_a2.png","68","prac","","","11","","","","","","","","","","","","","","","","",""
"462.3999999985099","336366","SARL_v6","SARL_v69zqdxsxs","59528796a186be000114dc32","infreqPrac_resp","","","img/blue_2bandit_a.png","68","img/orange_2bandit_a.png","68","prac","","","11","","","","","","","","","","","","","","","","",""
"null","336521","SARL_v6","SARL_v69zqdxsxs","59528796a186be000114dc32","fixation","","","img/fixation.png","null","","","prac","","","","","","","","","","","","","","","","","","","",""
"586.6000000014901","337110","SARL_v6","SARL_v69zqdxsxs","59528796a186be000114dc32","mixRLPractice","","","img/black_2bandit_a2.png","75","img/black_2bandit_a2.png","","prac","","","11","","","","","","","","","","","","","","","","",""
"null","337867","SARL_v6","SARL_v69zqdxsxs","59528796a186be000114dc32","feedback","","","<div class=""veryhighPoints""> 5 </div>","null","","na","prac","","","12","5","-5","5","","","","","","","","","","","","","",""
"null","338021","SARL_v6","SARL_v69zqdxsxs","59528796a186be000114dc32","fixation","","","img/fixation.png","null","","","prac","","","","","","","","","","","","","","","","","","","",""
"116484.80000000075","454508","SARL_v6","SARL_v69zqdxsxs","59528796a186be000114dc32","","","","","","","","prac","","","","","","","","","","","","","","","","","","","",""
"726.6000000014901","455238","SARL_v6","SARL_v69zqdxsxs","59528796a186be000114dc32","freq","","","img/orange_2bandit_a2.png","70","","70","test","1","","1","","","","square","circle","1","1","1","1","","","","","","","",""
"null","455323","SARL_v6","SARL_v69zqdxsxs","59528796a186be000114dc32","freq_resp","","","img/orange_2bandit_a.png","70","img/orange_2bandit_a.png","70","test","","","","","","","","","","","1","","","","","","","","",""
"null","455478","SARL_v6","SARL_v69zqdxsxs","59528796a186be000114dc32","fixation","","","img/fixation.png","null","","","test","","","","","","","","","","","","","","","","","","","",""
"296.9000000022352","455777","SARL_v6","SARL_v69zqdxsxs","59528796a186be000114dc32","freq","","","img/orange_2bandit_a2.png","70","","70","test","1","","2","","","","square","circle","2","2","1","1","","","","","","","",""
"null","456284","SARL_v6","SARL_v69zqdxsxs","59528796a186be000114dc32","freq_resp","","","img/orange_2bandit_a.png","70","img/orange_2bandit_a.png","70","test","","","","","","","","","","","1","","","","","","","","",""
"null","456439","SARL_v6","SARL_v69zqdxsxs","59528796a186be000114dc32","fixation","","","img/fixation.png","null","","","test","","","","","","","","","","","","","","","","","","","",""
"304.69999999925494","456746","SARL_v6","SARL_v69zqdxsxs","59528796a186be000114dc32","freq","","","img/orange_2bandit_a2.png","70","","70","test","1","","3","","","","square","circle","3","3","1","1","","","","","","","",""
"null","457246","SARL_v6","SARL_v69zqdxsxs","59528796a186be000114dc32","freq_resp","","","img/orange_2bandit_a.png","70","img/orange_2bandit_a.png","70","test","","","","","","","","","","","1","","","","","","","","",""
"null","457399","SARL_v6","SARL_v69zqdxsxs","59528796a186be000114dc32","fixation","","","img/fixation.png","null","","","test","","","","","","","","","","","","","","","","","","","",""
"315.19999999925494","457716","SARL_v6","SARL_v69zqdxsxs","59528796a186be000114dc32","freq","","","img/orange_2bandit_a2.png","70","","70","test","1","","4","","","","square","circle","4","4","1","1","","","","","","","",""
"null","458209","SARL_v6","SARL_v69zqdxsxs","59528796a186be000114dc32","freq_resp","","","img/orange_2bandit_a.png","70","img/orange_2bandit_a.png","70","test","","","","","","","","","","","1","","","","","","","","",""
"null","458362","SARL_v6","SARL_v69zqdxsxs","59528796a186be000114dc32","fixation","","","img/fixation.png","null","","","test","","","","","","","","","","","","","","","","","","","",""
"302.5","458667","SARL_v6","SARL_v69zqdxsxs","59528796a186be000114dc32","freq","","","img/orange_2bandit_a2.png","70","","70","test","1","","5","","","","square","circle","5","5","1","1","","","","","","","",""
"null","459170","SARL_v6","SARL_v69zqdxsxs","59528796a186be000114dc32","freq_resp","","","img/orange_2bandit_a.png","70","img/orange_2bandit_a.png","70","test","","","","","","","","","","","1","","","","","","","","",""
"null","459324","SARL_v6","SARL_v69zqdxsxs","59528796a186be000114dc32","fixation","","","img/fixation.png","null","","","test","","","","","","","","","","","","","","","","","","","",""
"356.5","459684","SARL_v6","SARL_v69zqdxsxs","59528796a186be000114dc32","infreq","","","img/blue_2bandit_a2.png","70","","68","test","0","","6","","","","square","circle","6","6","1","0.8333333333333334","","","","","","","",""
"null","460145","SARL_v6","SARL_v69zqdxsxs","59528796a186be000114dc32","infreq_resp","","","img/blue_2bandit_a.png","70","img/blue_2bandit_a.png","68","test","","","","","","","","","","","1","","","","","","","","",""
"null","460298","SARL_v6","SARL_v69zqdxsxs","59528796a186be000114dc32","fixation","","","img/fixation.png","null","","","test","","","","","","","","","","","","","","","","","","","",""
"405.69999999925494","460707","SARL_v6","SARL_v69zqdxsxs","59528796a186be000114dc32","freq","","","img/orange_2bandit_a2.png","70","","70","test","1","","7","","","","square","circle","7","7","1","0.8571428571428571","","","","","","","",""
"null","461106","SARL_v6","SARL_v69zqdxsxs","59528796a186be000114dc32","freq_resp","","","img/orange_2bandit_a.png","70","img/orange_2bandit_a.png","70","test","","","","","","","","","","","1","","","","","","","","",""
"null","461263","SARL_v6","SARL_v69zqdxsxs","59528796a186be000114dc32","fixation","","","img/fixation.png","null","","","test","","","","","","","","","","","","","","","","","","","",""
"380.5","461645","SARL_v6","SARL_v69zqdxsxs","59528796a186be000114dc32","freq","","","img/orange_2bandit_a2.png","70","","70","test","1","","8","","","","square","circle","8","8","1","0.875","","","","","","","",""
"null","462070","SARL_v6","SARL_v69zqdxsxs","59528796a186be000114dc32","freq_resp","","","img/orange_2bandit_a.png","70","img/orange_2bandit_a.png","70","test","","","","","","","","","","","1","","","","","","","","",""
"null","462225","SARL_v6","SARL_v69zqdxsxs","59528796a186be000114dc32","fixation","","","img/fixation.png","null","","","test","","","","","","","","","","","","","","","","","","","",""
"438.8999999985099","462666","SARL_v6","SARL_v69zqdxsxs","59528796a186be000114dc32","freq","","","img/orange_2bandit_a2.png","70","","70","test","1","","9","","","","square","circle","9","9","1","0.8888888888888888","","","","","","","",""
"null","463045","SARL_v6","SARL_v69zqdxsxs","59528796a186be000114dc32","freq_resp","","","img/orange_2bandit_a.png","70","img/orange_2bandit_a.png","70","test","","","","","","","","","","","1","","","","","","","","",""
"null","463202","SARL_v6","SARL_v69zqdxsxs","59528796a186be000114dc32","fixation","","","img/fixation.png","null","","","test","","","","","","","","","","","","","","","","","","","",""
"362.1000000014901","463566","SARL_v6","SARL_v69zqdxsxs","59528796a186be000114dc32","freq","","","img/orange_2bandit_a2.png","70","","70","test","1","","10","","","","square","circle","10","10","1","0.9","","","","","","","",""
"null","464021","SARL_v6","SARL_v69zqdxsxs","59528796a186be000114dc32","freq_resp","","","img/orange_2bandit_a.png","70","img/orange_2bandit_a.png","70","test","","","","","","","","","","","1","","","","","","","","",""
"null","464177","SARL_v6","SARL_v69zqdxsxs","59528796a186be000114dc32","fixation","","","img/fixation.png","null","","","test","","","","","","","","","","","","","","","","","","","",""
"374.5999999977648","464554","SARL_v6","SARL_v69zqdxsxs","59528796a186be000114dc32","freq","","","img/orange_2bandit_a2.png","70","","70","test","1","","11","","","","square","circle","11","11","1","0.9090909090909091","","","","","","","",""
"null","464985","SARL_v6","SARL_v69zqdxsxs","59528796a186be000114dc32","freq_resp","","","img/orange_2bandit_a.png","70","img/orange_2bandit_a.png","70","test","","","","","","","","","","","1","","","","","","","","",""
"null","465139","SARL_v6","SARL_v69zqdxsxs","59528796a186be000114dc32","fixation","","","img/fixation.png","null","","","test","","","","","","","","","","","","","","","","","","","",""
"357","465499","SARL_v6","SARL_v69zqdxsxs","59528796a186be000114dc32","freq","","","img/orange_2bandit_a2.png","70","","70","test","1","","12","","","","square","circle","12","12","1","0.9166666666666666","","","","","","","",""
"null","465959","SARL_v6","SARL_v69zqdxsxs","59528796a186be000114dc32","freq_resp","","","img/orange_2bandit_a.png","70","img/orange_2bandit_a.png","70","test","","","","","","","","","","","1","","","","","","","","",""
"null","466115","SARL_v6","SARL_v69zqdxsxs","59528796a186be000114dc32","fixation","","","img/fixation.png","null","","","test","","","","","","","","","","","","","","","","","","","",""
"323.4000000022352","466441","SARL_v6","SARL_v69zqdxsxs","59528796a186be000114dc32","freq","","","img/orange_2bandit_a2.png","70","","70","test","1","","13","","","","square","circle","13","13","1","0.9230769230769231","","","","","","","",""
"null","466922","SARL_v6","SARL_v69zqdxsxs","59528796a186be000114dc32","freq_resp","","","img/orange_2bandit_a.png","70","img/orange_2bandit_a.png","70","test","","","","","","","","","","","1","","","","","","","","",""
"null","467076","SARL_v6","SARL_v69zqdxsxs","59528796a186be000114dc32","fixation","","","img/fixation.png","null","","","test","","","","","","","","","","","","","","","","","","","",""
"370.9000000022352","467450","SARL_v6","SARL_v69zqdxsxs","59528796a186be000114dc32","freq","","","img/orange_2bandit_a2.png","70","","70","test","1","","14","","","","square","circle","14","14","1","0.9285714285714286","","","","","","","",""
"null","467886","SARL_v6","SARL_v69zqdxsxs","59528796a186be000114dc32","freq_resp","","","img/orange_2bandit_a.png","70","img/orange_2bandit_a.png","70","test","","","","","","","","","","","1","","","","","","","","",""
"null","468041","SARL_v6","SARL_v69zqdxsxs","59528796a186be000114dc32","fixation","","","img/fixation.png","null","","","test","","","","","","","","","","","","","","","","","","","",""
"333.0999999977648","468375","SARL_v6","SARL_v69zqdxsxs","59528796a186be000114dc32","freq","","","img/orange_2bandit_a2.png","70","","70","test","1","","15","","","","square","circle","15","15","1","0.9333333333333333","","","","","","","",""
"null","468849","SARL_v6","SARL_v69zqdxsxs","59528796a186be000114dc32","freq_resp","","","img/orange_2bandit_a.png","70","img/orange_2bandit_a.png","70","test","","","","","","","","","","","1","","","","","","","","",""
"null","469003","SARL_v6","SARL_v69zqdxsxs","59528796a186be000114dc32","fixation","","","img/fixation.png","null","","","test","","","","","","","","","","","","","","","","","","","",""
"345.5","469352","SARL_v6","SARL_v69zqdxsxs","59528796a186be000114dc32","freq","","","img/orange_2bandit_a2.png","70","","70","test","1","","16","","","","square","circle","16","16","1","0.9375","","","","","","","",""
"null","469822","SARL_v6","SARL_v69zqdxsxs","59528796a186be000114dc32","freq_resp","","","img/orange_2bandit_a.png","70","img/orange_2bandit_a.png","70","test","","","","","","","","","","","1","","","","","","","","",""
"null","469977","SARL_v6","SARL_v69zqdxsxs","59528796a186be000114dc32","fixation","","","img/fixation.png","null","","","test","","","","","","","","","","","","","","","","","","","",""
"437","470416","SARL_v6","SARL_v69zqdxsxs","59528796a186be000114dc32","freq","","","img/orange_2bandit_a2.png","70","","70","test","1","","17","","","","square","circle","17","17","1","0.9411764705882353","","","","","","","",""
"null","470797","SARL_v6","SARL_v69zqdxsxs","59528796a186be000114dc32","freq_resp","","","img/orange_2bandit_a.png","70","img/orange_2bandit_a.png","70","test","","","","","","","","","","","1","","","","","","","","",""
"null","470952","SARL_v6","SARL_v69zqdxsxs","59528796a186be000114dc32","fixation","","","img/fixation.png","null","","","test","","","","","","","","","","","","","","","","","","","",""
"382","471336","SARL_v6","SARL_v69zqdxsxs","59528796a186be000114dc32","freq","","","img/orange_2bandit_a2.png","70","","70","test","1","","18","","","","square","circle","18","18","1","0.9444444444444444","","","","","","","",""
"null","471759","SARL_v6","SARL_v69zqdxsxs","59528796a186be000114dc32","freq_resp","","","img/orange_2bandit_a.png","70","img/orange_2bandit_a.png","70","test","","","","","","","","","","","1","","","","","","","","",""
"null","471913","SARL_v6","SARL_v69zqdxsxs","59528796a186be000114dc32","fixation","","","img/fixation.png","null","","","test","","","","","","","","","","","","","","","","","","","",""
"455.9000000022352","472372","SARL_v6","SARL_v69zqdxsxs","59528796a186be000114dc32","infreq","","","img/blue_2bandit_a2.png","68","","68","test","1","","19","","","","square","circle","19","19","1","0.9473684210526315","","","","","","","",""
"null","472719","SARL_v6","SARL_v69zqdxsxs","59528796a186be000114dc32","infreq_resp","","","img/blue_2bandit_a.png","68","img/blue_2bandit_a.png","68","test","","","","","","","","","","","1","","","","","","","","",""
"null","472874","SARL_v6","SARL_v69zqdxsxs","59528796a186be000114dc32","fixation","","","img/fixation.png","null","","","test","","","","","","","","","","","","","","","","","","","",""
"402.69999999925494","473279","SARL_v6","SARL_v69zqdxsxs","59528796a186be000114dc32","freq","","","img/orange_2bandit_a2.png","70","","70","test","1","","20","","","","square","circle","20","20","1","0.95","","","","","","","",""
"null","473694","SARL_v6","SARL_v69zqdxsxs","59528796a186be000114dc32","freq_resp","","","img/orange_2bandit_a.png","70","img/orange_2bandit_a.png","70","test","","","","","","","","","","","1","","","","","","","","",""
"null","473849","SARL_v6","SARL_v69zqdxsxs","59528796a186be000114dc32","fixation","","","img/fixation.png","null","","","test","","","","","","","","","","","","","","","","","","","",""
"368.8999999985099","474221","SARL_v6","SARL_v69zqdxsxs","59528796a186be000114dc32","freq","","","img/orange_2bandit_a2.png","70","","70","test","1","","21","","","","square","circle","21","21","1","0.9523809523809523","","","","","","","",""
"null","474656","SARL_v6","SARL_v69zqdxsxs","59528796a186be000114dc32","freq_resp","","","img/orange_2bandit_a.png","70","img/orange_2bandit_a.png","70","test","","","","","","","","","","","1","","","","","","","","",""
"null","474811","SARL_v6","SARL_v69zqdxsxs","59528796a186be000114dc32","fixation","","","img/fixation.png","null","","","test","","","","","","","","","","","","","","","","","","","",""
"352.8999999985099","475166","SARL_v6","SARL_v69zqdxsxs","59528796a186be000114dc32","freq","","","img/orange_2bandit_a2.png","70","","70","test","1","","22","","","","square","circle","22","22","1","0.9545454545454546","","","","","","","",""
"null","475620","SARL_v6","SARL_v69zqdxsxs","59528796a186be000114dc32","freq_resp","","","img/orange_2bandit_a.png","70","img/orange_2bandit_a.png","70","test","","","","","","","","","","","1","","","","","","","","",""
"null","475775","SARL_v6","SARL_v69zqdxsxs","59528796a186be000114dc32","fixation","","","img/fixation.png","null","","","test","","","","","","","","","","","","","","","","","","","",""
"524.9000000022352","476302","SARL_v6","SARL_v69zqdxsxs","59528796a186be000114dc32","freq","","","img/orange_2bandit_a2.png","70","","70","test","1","","23","","","","square","circle","23","23","1","0.9565217391304348","","","","","","","",""
"null","476582","SARL_v6","SARL_v69zqdxsxs","59528796a186be000114dc32","freq_resp","","","img/orange_2bandit_a.png","70","img/orange_2bandit_a.png","70","test","","","","","","","","","","","1","","","","","","","","",""
"null","476737","SARL_v6","SARL_v69zqdxsxs","59528796a186be000114dc32","fixation","","","img/fixation.png","null","","","test","","","","","","","","","","","","","","","","","","","",""
"513.5999999977648","477254","SARL_v6","SARL_v69zqdxsxs","59528796a186be000114dc32","freq","","","img/orange_2bandit_a2.png","70","","70","test","1","","24","","","","square","circle","24","24","1","0.9583333333333334","","","","","","","",""
"null","477543","SARL_v6","SARL_v69zqdxsxs","59528796a186be000114dc32","freq_resp","","","img/orange_2bandit_a.png","70","img/orange_2bandit_a.png","70","test","","","","","","","","","","","1","","","","","","","","",""
"null","477698","SARL_v6","SARL_v69zqdxsxs","59528796a186be000114dc32","fixation","","","img/fixation.png","null","","","test","","","","","","","","","","","","","","","","","","","",""
"485.5","478186","SARL_v6","SARL_v69zqdxsxs","59528796a186be000114dc32","freq","","","img/orange_2bandit_a2.png","70","","70","test","1","","25","","","","square","circle","25","25","1","0.96","","","","","","","",""
"null","478505","SARL_v6","SARL_v69zqdxsxs","59528796a186be000114dc32","freq_resp","","","img/orange_2bandit_a.png","70","img/orange_2bandit_a.png","70","test","","","","","","","","","","","1","","","","","","","","",""
"null","478659","SARL_v6","SARL_v69zqdxsxs","59528796a186be000114dc32","fixation","","","img/fixation.png","null","","","test","","","","","","","","","","","","","","","","","","","",""
"324.79999999701977","478987","SARL_v6","SARL_v69zqdxsxs","59528796a186be000114dc32","freq","","","img/orange_2bandit_a2.png","70","","70","test","1","","26","","","","square","circle","26","26","1","0.9615384615384616","","","","","","","",""
"null","479465","SARL_v6","SARL_v69zqdxsxs","59528796a186be000114dc32","freq_resp","","","img/orange_2bandit_a.png","70","img/orange_2bandit_a.png","70","test","","","","","","","","","","","1","","","","","","","","",""
"null","479618","SARL_v6","SARL_v69zqdxsxs","59528796a186be000114dc32","fixation","","","img/fixation.png","null","","","test","","","","","","","","","","","","","","","","","","","",""
"788.1999999992549","480409","SARL_v6","SARL_v69zqdxsxs","59528796a186be000114dc32","rl","","","img/black_2bandit_a2.png","75","","0","test","","","27","","","-3","square","circle","","0","1","","75","-3","-3","-3","-3","circle","1","0"
"null","481170","SARL_v6","SARL_v69zqdxsxs","59528796a186be000114dc32","feedback","","","<div class=""verylowPoints""> -3 </div>","null","","na","test","","","NaN","","","","","","","","1","","75","","","","","","1",""
"761.1000000014901","481934","SARL_v6","SARL_v69zqdxsxs","59528796a186be000114dc32","freq","","","img/orange_2bandit_a2.png","70","","70","test","1","","28","","","","square","circle","27","1","2","0.9629629629629629","","","","","","","",""
"null","481988","SARL_v6","SARL_v69zqdxsxs","59528796a186be000114dc32","freq_resp","","","img/orange_2bandit_a.png","70","img/orange_2bandit_a.png","70","test","","","","","","","","","","","2","","","","","","","","",""
"null","482142","SARL_v6","SARL_v69zqdxsxs","59528796a186be000114dc32","fixation","","","img/fixation.png","null","","","test","","","","","","","","","","","","","","","","","","","",""
"775.1999999992549","482920","SARL_v6","SARL_v69zqdxsxs","59528796a186be000114dc32","freq","","","img/orange_2bandit_a2.png","70","","70","test","1","","29","","","","square","circle","28","2","2","0.9642857142857143","","","","","","","",""
"null","482948","SARL_v6","SARL_v69zqdxsxs","59528796a186be000114dc32","freq_resp","","","img/orange_2bandit_a.png","70","img/orange_2bandit_a.png","70","test","","","","","","","","","","","2","","","","","","","","",""
"null","483114","SARL_v6","SARL_v69zqdxsxs","59528796a186be000114dc32","fixation","","","img/fixation.png","null","","","test","","","","","","","","","","","","","","","","","","","",""
"715.6999999992549","483832","SARL_v6","SARL_v69zqdxsxs","59528796a186be000114dc32","freq","","","img/orange_2bandit_a2.png","70","","70","test","1","","30","","","","square","circle","29","3","2","0.9655172413793104","","","","","","","",""
"null","483921","SARL_v6","SARL_v69zqdxsxs","59528796a186be000114dc32","freq_resp","","","img/orange_2bandit_a.png","70","img/orange_2bandit_a.png","70","test","","","","","","","","","","","2","","","","","","","","",""
"null","484075","SARL_v6","SARL_v69zqdxsxs","59528796a186be000114dc32","fixation","","","img/fixation.png","null","","","test","","","","","","","","","","","","","","","","","","","",""
"423.4000000022352","484501","SARL_v6","SARL_v69zqdxsxs","59528796a186be000114dc32","freq","","","img/orange_2bandit_a2.png","70","","70","test","1","","31","","","","square","circle","30","4","2","0.9666666666666667","","","","","","","",""
"null","484883","SARL_v6","SARL_v69zqdxsxs","59528796a186be000114dc32","freq_resp","","","img/orange_2bandit_a.png","70","img/orange_2bandit_a.png","70","test","","","","","","","","","","","2","","","","","","","","",""
"null","485039","SARL_v6","SARL_v69zqdxsxs","59528796a186be000114dc32","fixation","","","img/fixation.png","null","","","test","","","","","","","","","","","","","","","","","","","",""
"376.5999999977648","485418","SARL_v6","SARL_v69zqdxsxs","59528796a186be000114dc32","freq","","","img/orange_2bandit_a2.png","70","","70","test","1","","32","","","","square","circle","31","5","2","0.967741935483871","","","","","","","",""
"null","485859","SARL_v6","SARL_v69zqdxsxs","59528796a186be000114dc32","freq_resp","","","img/orange_2bandit_a.png","70","img/orange_2bandit_a.png","70","test","","","","","","","","","","","2","","","","","","","","",""
"null","486015","SARL_v6","SARL_v69zqdxsxs","59528796a186be000114dc32","fixation","","","img/fixation.png","null","","","test","","","","","","","","","","","","","","","","","","","",""
"344.29999999701977","486361","SARL_v6","SARL_v69zqdxsxs","59528796a186be000114dc32","freq","","","img/orange_2bandit_a2.png","70","","70","test","1","","33","","","","square","circle","32","6","2","0.96875","","","","","","","",""
"null","486821","SARL_v6","SARL_v69zqdxsxs","59528796a186be000114dc32","freq_resp","","","img/orange_2bandit_a.png","70","img/orange_2bandit_a.png","70","test","","","","","","","","","","","2","","","","","","","","",""
"null","486976","SARL_v6","SARL_v69zqdxsxs","59528796a186be000114dc32","fixation","","","img/fixation.png","null","","","test","","","","","","","","","","","","","","","","","","","",""
"342.5","487321","SARL_v6","SARL_v69zqdxsxs","59528796a186be000114dc32","freq","","","img/orange_2bandit_a2.png","70","","70","test","1","","34","","","","square","circle","33","7","2","0.9696969696969697","","","","","","","",""
"null","487797","SARL_v6","SARL_v69zqdxsxs","59528796a186be000114dc32","freq_resp","","","img/orange_2bandit_a.png","70","img/orange_2bandit_a.png","70","test","","","","","","","","","","","2","","","","","","","","",""
"null","487953","SARL_v6","SARL_v69zqdxsxs","59528796a186be000114dc32","fixation","","","img/fixation.png","null","","","test","","","","","","","","","","","","","","","","","","","",""
"342.20000000298023","488298","SARL_v6","SARL_v69zqdxsxs","59528796a186be000114dc32","freq","","","img/orange_2bandit_a2.png","70","","70","test","1","","35","","","","square","circle","34","8","2","0.9705882352941176","","","","","","","",""
"null","488761","SARL_v6","SARL_v69zqdxsxs","59528796a186be000114dc32","freq_resp","","","img/orange_2bandit_a.png","70","img/orange_2bandit_a.png","70","test","","","","","","","","","","","2","","","","","","","","",""
"null","488916","SARL_v6","SARL_v69zqdxsxs","59528796a186be000114dc32","fixation","","","img/fixation.png","null","","","test","","","","","","","","","","","","","","","","","","","",""
"673","489592","SARL_v6","SARL_v69zqdxsxs","59528796a186be000114dc32","infreq","","","img/blue_2bandit_a2.png","68","","68","test","1","","36","","","","square","circle","35","9","2","0.9714285714285714","","","","","","","",""
"null","489735","SARL_v6","SARL_v69zqdxsxs","59528796a186be000114dc32","infreq_resp","","","img/blue_2bandit_a.png","68","img/blue_2bandit_a.png","68","test","","","","","","","","","","","2","","","","","","","","",""
"null","489890","SARL_v6","SARL_v69zqdxsxs","59528796a186be000114dc32","fixation","","","img/fixation.png","null","","","test","","","","","","","","","","","","","","","","","","","",""
"584","490477","SARL_v6","SARL_v69zqdxsxs","59528796a186be000114dc32","freq","","","img/orange_2bandit_a2.png","70","","70","test","1","","37","","","","square","circle","36","10","2","0.9722222222222222","","","","","","","",""
"null","490697","SARL_v6","SARL_v69zqdxsxs","59528796a186be000114dc32","freq_resp","","","img/orange_2bandit_a.png","70","img/orange_2bandit_a.png","70","test","","","","","","","","","","","2","","","","","","","","",""
"null","490852","SARL_v6","SARL_v69zqdxsxs","59528796a186be000114dc32","fixation","","","img/fixation.png","null","","","test","","","","","","","","","","","","","","","","","","","",""
"413.79999999701977","491268","SARL_v6","SARL_v69zqdxsxs","59528796a186be000114dc32","freq","","","img/orange_2bandit_a2.png","70","","70","test","1","","38","","","","square","circle","37","11","2","0.972972972972973","","","","","","","",""
"null","491661","SARL_v6","SARL_v69zqdxsxs","59528796a186be000114dc32","freq_resp","","","img/orange_2bandit_a.png","70","img/orange_2bandit_a.png","70","test","","","","","","","","","","","2","","","","","","","","",""
"null","491816","SARL_v6","SARL_v69zqdxsxs","59528796a186be000114dc32","fixation","","","img/fixation.png","null","","","test","","","","","","","","","","","","","","","","","","","",""
"318.70000000298023","492137","SARL_v6","SARL_v69zqdxsxs","59528796a186be000114dc32","freq","","","img/orange_2bandit_a2.png","70","","70","test","1","","39","","","","square","circle","38","12","2","0.9736842105263158","","","","","","","",""
"null","492623","SARL_v6","SARL_v69zqdxsxs","59528796a186be000114dc32","freq_resp","","","img/orange_2bandit_a.png","70","img/orange_2bandit_a.png","70","test","","","","","","","","","","","2","","","","","","","","",""
"null","492777","SARL_v6","SARL_v69zqdxsxs","59528796a186be000114dc32","fixation","","","img/fixation.png","null","","","test","","","","","","","","","","","","","","","","","","","",""
"359.8999999985099","493139","SARL_v6","SARL_v69zqdxsxs","59528796a186be000114dc32","freq","","","img/orange_2bandit_a2.png","70","","70","test","1","","40","","","","square","circle","39","13","2","0.9743589743589743","","","","","","","",""
"null","493586","SARL_v6","SARL_v69zqdxsxs","59528796a186be000114dc32","freq_resp","","","img/orange_2bandit_a.png","70","img/orange_2bandit_a.png","70","test","","","","","","","","","","","2","","","","","","","","",""
"null","493739","SARL_v6","SARL_v69zqdxsxs","59528796a186be000114dc32","fixation","","","img/fixation.png","null","","","test","","","","","","","","","","","","","","","","","","","",""
"383.5","494125","SARL_v6","SARL_v69zqdxsxs","59528796a186be000114dc32","freq","","","img/orange_2bandit_a2.png","70","","70","test","1","","41","","","","square","circle","40","14","2","0.975","","","","","","","",""
"null","494559","SARL_v6","SARL_v69zqdxsxs","59528796a186be000114dc32","freq_resp","","","img/orange_2bandit_a.png","70","img/orange_2bandit_a.png","70","test","","","","","","","","","","","2","","","","","","","","",""
"null","494713","SARL_v6","SARL_v69zqdxsxs","59528796a186be000114dc32","fixation","","","img/fixation.png","null","","","test","","","","","","","","","","","","","","","","","","","",""
"338.69999999925494","495055","SARL_v6","SARL_v69zqdxsxs","59528796a186be000114dc32","freq","","","img/orange_2bandit_a2.png","70","","70","test","1","","42","","","","square","circle","41","15","2","0.975609756097561","","","","","","","",""
"null","495533","SARL_v6","SARL_v69zqdxsxs","59528796a186be000114dc32","freq_resp","","","img/orange_2bandit_a.png","70","img/orange_2bandit_a.png","70","test","","","","","","","","","","","2","","","","","","","","",""
"null","495686","SARL_v6","SARL_v69zqdxsxs","59528796a186be000114dc32","fixation","","","img/fixation.png","null","","","test","","","","","","","","","","","","","","","","","","","",""
"358.3999999985099","496047","SARL_v6","SARL_v69zqdxsxs","59528796a186be000114dc32","freq","","","img/orange_2bandit_a2.png","70","","70","test","1","","43","","","","square","circle","42","16","2","0.9761904761904762","","","","","","","",""
"null","496494","SARL_v6","SARL_v69zqdxsxs","59528796a186be000114dc32","freq_resp","","","img/orange_2bandit_a.png","70","img/orange_2bandit_a.png","70","test","","","","","","","","","","","2","","","","","","","","",""
"null","496648","SARL_v6","SARL_v69zqdxsxs","59528796a186be000114dc32","fixation","","","img/fixation.png","null","","","test","","","","","","","","","","","","","","","","","","","",""
"451.5","497103","SARL_v6","SARL_v69zqdxsxs","59528796a186be000114dc32","infreq","","","img/blue_2bandit_a2.png","68","","68","test","1","","44","","","","square","circle","43","17","2","0.9767441860465116","","","","","","","",""
"null","497454","SARL_v6","SARL_v69zqdxsxs","59528796a186be000114dc32","infreq_resp","","","img/blue_2bandit_a.png","68","img/blue_2bandit_a.png","68","test","","","","","","","","","","","2","","","","","","","","",""
"null","497610","SARL_v6","SARL_v69zqdxsxs","59528796a186be000114dc32","fixation","","","img/fixation.png","null","","","test","","","","","","","","","","","","","","","","","","","",""
"427.80000000074506","498040","SARL_v6","SARL_v69zqdxsxs","59528796a186be000114dc32","infreq","","","img/blue_2bandit_a2.png","68","","68","test","1","","45","","","","square","circle","44","18","2","0.9772727272727273","","","","","","","",""
"null","498418","SARL_v6","SARL_v69zqdxsxs","59528796a186be000114dc32","infreq_resp","","","img/blue_2bandit_a.png","68","img/blue_2bandit_a.png","68","test","","","","","","","","","","","2","","","","","","","","",""
"null","498573","SARL_v6","SARL_v69zqdxsxs","59528796a186be000114dc32","fixation","","","img/fixation.png","null","","","test","","","","","","","","","","","","","","","","","","","",""
"501.19999999925494","499077","SARL_v6","SARL_v69zqdxsxs","59528796a186be000114dc32","freq","","","img/orange_2bandit_a2.png","70","","70","test","1","","46","","","","square","circle","45","19","2","0.9777777777777777","","","","","","","",""
"null","499379","SARL_v6","SARL_v69zqdxsxs","59528796a186be000114dc32","freq_resp","","","img/orange_2bandit_a.png","70","img/orange_2bandit_a.png","70","test","","","","","","","","","","","2","","","","","","","","",""
"null","499532","SARL_v6","SARL_v69zqdxsxs","59528796a186be000114dc32","fixation","","","img/fixation.png","null","","","test","","","","","","","","","","","","","","","","","","","",""
"400.69999999925494","499936","SARL_v6","SARL_v69zqdxsxs","59528796a186be000114dc32","freq","","","img/orange_2bandit_a2.png","70","","70","test","1","","47","","","","square","circle","46","20","2","0.9782608695652174","","","","","","","",""
"null","500339","SARL_v6","SARL_v69zqdxsxs","59528796a186be000114dc32","freq_resp","","","img/orange_2bandit_a.png","70","img/orange_2bandit_a.png","70","test","","","","","","","","","","","2","","","","","","","","",""
"null","500494","SARL_v6","SARL_v69zqdxsxs","59528796a186be000114dc32","fixation","","","img/fixation.png","null","","","test","","","","","","","","","","","","","","","","","","","",""
"309.30000000074506","500806","SARL_v6","SARL_v69zqdxsxs","59528796a186be000114dc32","freq","","","img/orange_2bandit_a2.png","70","","70","test","1","","48","","","","square","circle","47","21","2","0.9787234042553191","","","","","","","",""
"null","501299","SARL_v6","SARL_v69zqdxsxs","59528796a186be000114dc32","freq_resp","","","img/orange_2bandit_a.png","70","img/orange_2bandit_a.png","70","test","","","","","","","","","","","2","","","","","","","","",""
"null","501453","SARL_v6","SARL_v69zqdxsxs","59528796a186be000114dc32","fixation","","","img/fixation.png","null","","","test","","","","","","","","","","","","","","","","","","","",""
"534.6000000014901","501990","SARL_v6","SARL_v69zqdxsxs","59528796a186be000114dc32","rl","","","img/black_2bandit_a2.png","75","","0","test","","","49","","","-8","square","circle","","0","2","","75","-8","-5","-5","-8","circle","2","0"
"null","502745","SARL_v6","SARL_v69zqdxsxs","59528796a186be000114dc32","feedback","","","<div class=""verylowPoints""> -8 </div>","null","","na","test","","","NaN","","","","","","","","2","","75","","","","","","2",""
"567.9000000022352","503316","SARL_v6","SARL_v69zqdxsxs","59528796a186be000114dc32","freq","","","img/orange_2bandit_a2.png","70","","70","test","1","","50","","","","square","circle","48","1","3","0.9791666666666666","","","","","","","",""
"null","503552","SARL_v6","SARL_v69zqdxsxs","59528796a186be000114dc32","freq_resp","","","img/orange_2bandit_a.png","70","img/orange_2bandit_a.png","70","test","","","","","","","","","","","3","","","","","","","","",""
"null","503708","SARL_v6","SARL_v69zqdxsxs","59528796a186be000114dc32","fixation","","","img/fixation.png","null","","","test","","","","","","","","","","","","","","","","","","","",""
"360.1000000014901","504071","SARL_v6","SARL_v69zqdxsxs","59528796a186be000114dc32","freq","","","img/orange_2bandit_a2.png","70","","70","test","1","","51","","","","square","circle","49","2","3","0.9795918367346939","","","","","","","",""
"null","504514","SARL_v6","SARL_v69zqdxsxs","59528796a186be000114dc32","freq_resp","","","img/orange_2bandit_a.png","70","img/orange_2bandit_a.png","70","test","","","","","","","","","","","3","","","","","","","","",""
"null","504669","SARL_v6","SARL_v69zqdxsxs","59528796a186be000114dc32","fixation","","","img/fixation.png","null","","","test","","","","","","","","","","","","","","","","","","","",""
"395.8999999985099","505067","SARL_v6","SARL_v69zqdxsxs","59528796a186be000114dc32","freq","","","img/orange_2bandit_a2.png","70","","70","test","1","","52","","","","square","circle","50","3","3","0.98","","","","","","","",""
"null","505489","SARL_v6","SARL_v69zqdxsxs","59528796a186be000114dc32","freq_resp","","","img/orange_2bandit_a.png","70","img/orange_2bandit_a.png","70","test","","","","","","","","","","","3","","","","","","","","",""
"null","505643","SARL_v6","SARL_v69zqdxsxs","59528796a186be000114dc32","fixation","","","img/fixation.png","null","","","test","","","","","","","","","","","","","","","","","","","",""
"388.20000000298023","506034","SARL_v6","SARL_v69zqdxsxs","59528796a186be000114dc32","freq","","","img/orange_2bandit_a2.png","70","","70","test","1","","53","","","","square","circle","51","4","3","0.9803921568627451","","","","","","","",""
"null","506449","SARL_v6","SARL_v69zqdxsxs","59528796a186be000114dc32","freq_resp","","","img/orange_2bandit_a.png","70","img/orange_2bandit_a.png","70","test","","","","","","","","","","","3","","","","","","","","",""
"null","506604","SARL_v6","SARL_v69zqdxsxs","59528796a186be000114dc32","fixation","","","img/fixation.png","null","","","test","","","","","","","","","","","","","","","","","","","",""
"319.69999999925494","506927","SARL_v6","SARL_v69zqdxsxs","59528796a186be000114dc32","freq","","","img/orange_2bandit_a2.png","70","","70","test","1","","54","","","","square","circle","52","5","3","0.9807692307692307","","","","","","","",""
"null","507411","SARL_v6","SARL_v69zqdxsxs","59528796a186be000114dc32","freq_resp","","","img/orange_2bandit_a.png","70","img/orange_2bandit_a.png","70","test","","","","","","","","","","","3","","","","","","","","",""
"null","507566","SARL_v6","SARL_v69zqdxsxs","59528796a186be000114dc32","fixation","","","img/fixation.png","null","","","test","","","","","","","","","","","","","","","","","","","",""
"333.1000000014901","507902","SARL_v6","SARL_v69zqdxsxs","59528796a186be000114dc32","freq","","","img/orange_2bandit_a2.png","70","","70","test","1","","55","","","","square","circle","53","6","3","0.9811320754716981","","","","","","","",""
"null","508374","SARL_v6","SARL_v69zqdxsxs","59528796a186be000114dc32","freq_resp","","","img/orange_2bandit_a.png","70","img/orange_2bandit_a.png","70","test","","","","","","","","","","","3","","","","","","","","",""
"null","508530","SARL_v6","SARL_v69zqdxsxs","59528796a186be000114dc32","fixation","","","img/fixation.png","null","","","test","","","","","","","","","","","","","","","","","","","",""
"342.9000000022352","508875","SARL_v6","SARL_v69zqdxsxs","59528796a186be000114dc32","freq","","","img/orange_2bandit_a2.png","70","","70","test","1","","56","","","","square","circle","54","7","3","0.9814814814814815","","","","","","","",""
"null","509336","SARL_v6","SARL_v69zqdxsxs","59528796a186be000114dc32","freq_resp","","","img/orange_2bandit_a.png","70","img/orange_2bandit_a.png","70","test","","","","","","","","","","","3","","","","","","","","",""
"null","509491","SARL_v6","SARL_v69zqdxsxs","59528796a186be000114dc32","fixation","","","img/fixation.png","null","","","test","","","","","","","","","","","","","","","","","","","",""
"371","509864","SARL_v6","SARL_v69zqdxsxs","59528796a186be000114dc32","freq","","","img/orange_2bandit_a2.png","70","","70","test","1","","57","","","","square","circle","55","8","3","0.9818181818181818","","","","","","","",""
"null","510311","SARL_v6","SARL_v69zqdxsxs","59528796a186be000114dc32","freq_resp","","","img/orange_2bandit_a.png","70","img/orange_2bandit_a.png","70","test","","","","","","","","","","","3","","","","","","","","",""
"null","510466","SARL_v6","SARL_v69zqdxsxs","59528796a186be000114dc32","fixation","","","img/fixation.png","null","","","test","","","","","","","","","","","","","","","","","","","",""
"291.6000000014901","510760","SARL_v6","SARL_v69zqdxsxs","59528796a186be000114dc32","freq","","","img/orange_2bandit_a2.png","70","","70","test","1","","58","","","","square","circle","56","9","3","0.9821428571428571","","","","","","","",""
"null","511271","SARL_v6","SARL_v69zqdxsxs","59528796a186be000114dc32","freq_resp","","","img/orange_2bandit_a.png","70","img/orange_2bandit_a.png","70","test","","","","","","","","","","","3","","","","","","","","",""
"null","511427","SARL_v6","SARL_v69zqdxsxs","59528796a186be000114dc32","fixation","","","img/fixation.png","null","","","test","","","","","","","","","","","","","","","","","","","",""
"471","511901","SARL_v6","SARL_v69zqdxsxs","59528796a186be000114dc32","infreq","","","img/blue_2bandit_a2.png","68","","68","test","1","","59","","","","square","circle","57","10","3","0.9824561403508771","","","","","","","",""
"null","512237","SARL_v6","SARL_v69zqdxsxs","59528796a186be000114dc32","infreq_resp","","","img/blue_2bandit_a.png","68","img/blue_2bandit_a.png","68","test","","","","","","","","","","","3","","","","","","","","",""
"null","512390","SARL_v6","SARL_v69zqdxsxs","59528796a186be000114dc32","fixation","","","img/fixation.png","null","","","test","","","","","","","","","","","","","","","","","","","",""
"446.30000000074506","512838","SARL_v6","SARL_v69zqdxsxs","59528796a186be000114dc32","infreq","","","img/blue_2bandit_a2.png","68","","68","test","1","","60","","","","square","circle","58","11","3","0.9827586206896551","","","","","","","",""
"null","513197","SARL_v6","SARL_v69zqdxsxs","59528796a186be000114dc32","infreq_resp","","","img/blue_2bandit_a.png","68","img/blue_2bandit_a.png","68","test","","","","","","","","","","","3","","","","","","","","",""
"null","513353","SARL_v6","SARL_v69zqdxsxs","59528796a186be000114dc32","fixation","","","img/fixation.png","null","","","test","","","","","","","","","","","","","","","","","","","",""
"458.30000000074506","513814","SARL_v6","SARL_v69zqdxsxs","59528796a186be000114dc32","freq","","","img/orange_2bandit_a2.png","70","","70","test","1","","61","","","","square","circle","59","12","3","0.9830508474576272","","","","","","","",""
"null","514159","SARL_v6","SARL_v69zqdxsxs","59528796a186be000114dc32","freq_resp","","","img/orange_2bandit_a.png","70","img/orange_2bandit_a.png","70","test","","","","","","","","","","","3","","","","","","","","",""
"null","514313","SARL_v6","SARL_v69zqdxsxs","59528796a186be000114dc32","fixation","","","img/fixation.png","null","","","test","","","","","","","","","","","","","","","","","","","",""
"296.6000000014901","514612","SARL_v6","SARL_v69zqdxsxs","59528796a186be000114dc32","freq","","","img/orange_2bandit_a2.png","70","","70","test","1","","62","","","","square","circle","60","13","3","0.9833333333333333","","","","","","","",""
"null","515133","SARL_v6","SARL_v69zqdxsxs","59528796a186be000114dc32","freq_resp","","","img/orange_2bandit_a.png","70","img/orange_2bandit_a.png","70","test","","","","","","","","","","","3","","","","","","","","",""
"null","515289","SARL_v6","SARL_v69zqdxsxs","59528796a186be000114dc32","fixation","","","img/fixation.png","null","","","test","","","","","","","","","","","","","","","","","","","",""
"271.80000000074506","515564","SARL_v6","SARL_v69zqdxsxs","59528796a186be000114dc32","freq","","","img/orange_2bandit_a2.png","70","","70","test","1","","63","","","","square","circle","61","14","3","0.9836065573770492","","","","","","","",""
"null","516097","SARL_v6","SARL_v69zqdxsxs","59528796a186be000114dc32","freq_resp","","","img/orange_2bandit_a.png","70","img/orange_2bandit_a.png","70","test","","","","","","","","","","","3","","","","","","","","",""
"null","516250","SARL_v6","SARL_v69zqdxsxs","59528796a186be000114dc32","fixation","","","img/fixation.png","null","","","test","","","","","","","","","","","","","","","","","","","",""
"295.20000000298023","516548","SARL_v6","SARL_v69zqdxsxs","59528796a186be000114dc32","freq","","","img/orange_2bandit_a2.png","70","","70","test","1","","64","","","","square","circle","62","15","3","0.9838709677419355","","","","","","","",""
"null","517056","SARL_v6","SARL_v69zqdxsxs","59528796a186be000114dc32","freq_resp","","","img/orange_2bandit_a.png","70","img/orange_2bandit_a.png","70","test","","","","","","","","","","","3","","","","","","","","",""
"null","517210","SARL_v6","SARL_v69zqdxsxs","59528796a186be000114dc32","fixation","","","img/fixation.png","null","","","test","","","","","","","","","","","","","","","","","","","",""
"205.5","517418","SARL_v6","SARL_v69zqdxsxs","59528796a186be000114dc32","freq","","","img/orange_2bandit_a2.png","70","","70","test","1","","65","","","","square","circle","63","16","3","0.9841269841269841","","","","","","","",""
"null","518015","SARL_v6","SARL_v69zqdxsxs","59528796a186be000114dc32","freq_resp","","","img/orange_2bandit_a.png","70","img/orange_2bandit_a.png","70","test","","","","","","","","","","","3","","","","","","","","",""
"null","518171","SARL_v6","SARL_v69zqdxsxs","59528796a186be000114dc32","fixation","","","img/fixation.png","null","","","test","","","","","","","","","","","","","","","","","","","",""
"316.19999999925494","518489","SARL_v6","SARL_v69zqdxsxs","59528796a186be000114dc32","freq","","","img/orange_2bandit_a2.png","70","","70","test","1","","66","","","","square","circle","64","17","3","0.984375","","","","","","","",""
"null","518976","SARL_v6","SARL_v69zqdxsxs","59528796a186be000114dc32","freq_resp","","","img/orange_2bandit_a.png","70","img/orange_2bandit_a.png","70","test","","","","","","","","","","","3","","","","","","","","",""
"null","519130","SARL_v6","SARL_v69zqdxsxs","59528796a186be000114dc32","fixation","","","img/fixation.png","null","","","test","","","","","","","","","","","","","","","","","","","",""
"230.60000000149012","519363","SARL_v6","SARL_v69zqdxsxs","59528796a186be000114dc32","freq","","","img/orange_2bandit_a2.png","70","","70","test","1","","67","","","","square","circle","65","18","3","0.9846153846153847","","","","","","","",""
"null","519936","SARL_v6","SARL_v69zqdxsxs","59528796a186be000114dc32","freq_resp","","","img/orange_2bandit_a.png","70","img/orange_2bandit_a.png","70","test","","","","","","","","","","","3","","","","","","","","",""
"null","520090","SARL_v6","SARL_v69zqdxsxs","59528796a186be000114dc32","fixation","","","img/fixation.png","null","","","test","","","","","","","","","","","","","","","","","","","",""
"319.8999999985099","520413","SARL_v6","SARL_v69zqdxsxs","59528796a186be000114dc32","freq","","","img/orange_2bandit_a2.png","70","","70","test","1","","68","","","","square","circle","66","19","3","0.9848484848484849","","","","","","","",""
"null","520896","SARL_v6","SARL_v69zqdxsxs","59528796a186be000114dc32","freq_resp","","","img/orange_2bandit_a.png","70","img/orange_2bandit_a.png","70","test","","","","","","","","","","","3","","","","","","","","",""
"null","521049","SARL_v6","SARL_v69zqdxsxs","59528796a186be000114dc32","fixation","","","img/fixation.png","null","","","test","","","","","","","","","","","","","","","","","","","",""
"315.80000000074506","521367","SARL_v6","SARL_v69zqdxsxs","59528796a186be000114dc32","freq","","","img/orange_2bandit_a2.png","70","","70","test","1","","69","","","","square","circle","67","20","3","0.9850746268656716","","","","","","","",""
"null","521870","SARL_v6","SARL_v69zqdxsxs","59528796a186be000114dc32","freq_resp","","","img/orange_2bandit_a.png","70","img/orange_2bandit_a.png","70","test","","","","","","","","","","","3","","","","","","","","",""
"null","522025","SARL_v6","SARL_v69zqdxsxs","59528796a186be000114dc32","fixation","","","img/fixation.png","null","","","test","","","","","","","","","","","","","","","","","","","",""
"317.70000000298023","522345","SARL_v6","SARL_v69zqdxsxs","59528796a186be000114dc32","freq","","","img/orange_2bandit_a2.png","70","","70","test","1","","70","","","","square","circle","68","21","3","0.9852941176470589","","","","","","","",""
"null","522845","SARL_v6","SARL_v69zqdxsxs","59528796a186be000114dc32","freq_resp","","","img/orange_2bandit_a.png","70","img/orange_2bandit_a.png","70","test","","","","","","","","","","","3","","","","","","","","",""
"null","523000","SARL_v6","SARL_v69zqdxsxs","59528796a186be000114dc32","fixation","","","img/fixation.png","null","","","test","","","","","","","","","","","","","","","","","","","",""
"594.5","523597","SARL_v6","SARL_v69zqdxsxs","59528796a186be000114dc32","rl","","","img/black_2bandit_a2.png","75","","0","test","","","71","","","-8","square","circle","","0","3","","75","-8","-4","-4","-8","circle","3","0"
"null","524351","SARL_v6","SARL_v69zqdxsxs","59528796a186be000114dc32","feedback","","","<div class=""verylowPoints""> -8 </div>","null","","na","test","","","NaN","","","","","","","","3","","75","","","","","","3",""
"307.30000000074506","524660","SARL_v6","SARL_v69zqdxsxs","59528796a186be000114dc32","freq","","","img/orange_2bandit_a2.png","70","","70","test","1","","72","","","","square","circle","69","1","4","0.9855072463768116","","","","","","","",""
"null","525157","SARL_v6","SARL_v69zqdxsxs","59528796a186be000114dc32","freq_resp","","","img/orange_2bandit_a.png","70","img/orange_2bandit_a.png","70","test","","","","","","","","","","","4","","","","","","","","",""
"null","525312","SARL_v6","SARL_v69zqdxsxs","59528796a186be000114dc32","fixation","","","img/fixation.png","null","","","test","","","","","","","","","","","","","","","","","","","",""
"765.3000000007451","526080","SARL_v6","SARL_v69zqdxsxs","59528796a186be000114dc32","freq","","","img/orange_2bandit_a2.png","70","","70","test","1","","73","","","","square","circle","70","2","4","0.9857142857142858","","","","","","","",""
"null","526121","SARL_v6","SARL_v69zqdxsxs","59528796a186be000114dc32","freq_resp","","","img/orange_2bandit_a.png","70","img/orange_2bandit_a.png","70","test","","","","","","","","","","","4","","","","","","","","",""
"null","526276","SARL_v6","SARL_v69zqdxsxs","59528796a186be000114dc32","fixation","","","img/fixation.png","null","","","test","","","","","","","","","","","","","","","","","","","",""
"416.6000000014901","526695","SARL_v6","SARL_v69zqdxsxs","59528796a186be000114dc32","freq","","","img/orange_2bandit_a2.png","70","","70","test","1","","74","","","","square","circle","71","3","4","0.9859154929577465","","","","","","","",""
"null","527096","SARL_v6","SARL_v69zqdxsxs","59528796a186be000114dc32","freq_resp","","","img/orange_2bandit_a.png","70","img/orange_2bandit_a.png","70","test","","","","","","","","","","","4","","","","","","","","",""
"null","527250","SARL_v6","SARL_v69zqdxsxs","59528796a186be000114dc32","fixation","","","img/fixation.png","null","","","test","","","","","","","","","","","","","","","","","","","",""
"380.20000000298023","527633","SARL_v6","SARL_v69zqdxsxs","59528796a186be000114dc32","freq","","","img/orange_2bandit_a2.png","70","","70","test","1","","75","","","","square","circle","72","4","4","0.9861111111111112","","","","","","","",""
"null","528058","SARL_v6","SARL_v69zqdxsxs","59528796a186be000114dc32","freq_resp","","","img/orange_2bandit_a.png","70","img/orange_2bandit_a.png","70","test","","","","","","","","","","","4","","","","","","","","",""
"null","528215","SARL_v6","SARL_v69zqdxsxs","59528796a186be000114dc32","fixation","","","img/fixation.png","null","","","test","","","","","","","","","","","","","","","","","","","",""
"337.1000000014901","528554","SARL_v6","SARL_v69zqdxsxs","59528796a186be000114dc32","freq","","","img/orange_2bandit_a2.png","70","","70","test","1","","76","","","","square","circle","73","5","4","0.9863013698630136","","","","","","","",""
"null","529022","SARL_v6","SARL_v69zqdxsxs","59528796a186be000114dc32","freq_resp","","","img/orange_2bandit_a.png","70","img/orange_2bandit_a.png","70","test","","","","","","","","","","","4","","","","","","","","",""
"null","529178","SARL_v6","SARL_v69zqdxsxs","59528796a186be000114dc32","fixation","","","img/fixation.png","null","","","test","","","","","","","","","","","","","","","","","","","",""
"336.30000000074506","529517","SARL_v6","SARL_v69zqdxsxs","59528796a186be000114dc32","freq","","","img/orange_2bandit_a2.png","70","","70","test","1","","77","","","","square","circle","74","6","4","0.9864864864864865","","","","","","","",""
"null","529998","SARL_v6","SARL_v69zqdxsxs","59528796a186be000114dc32","freq_resp","","","img/orange_2bandit_a.png","70","img/orange_2bandit_a.png","70","test","","","","","","","","","","","4","","","","","","","","",""
"null","530152","SARL_v6","SARL_v69zqdxsxs","59528796a186be000114dc32","fixation","","","img/fixation.png","null","","","test","","","","","","","","","","","","","","","","","","","",""
"450.0999999977648","530604","SARL_v6","SARL_v69zqdxsxs","59528796a186be000114dc32","infreq","","","img/blue_2bandit_a2.png","68","","68","test","1","","78","","","","square","circle","75","7","4","0.9866666666666667","","","","","","","",""
"null","530958","SARL_v6","SARL_v69zqdxsxs","59528796a186be000114dc32","infreq_resp","","","img/blue_2bandit_a.png","68","img/blue_2bandit_a.png","68","test","","","","","","","","","","","4","","","","","","","","",""
"null","531112","SARL_v6","SARL_v69zqdxsxs","59528796a186be000114dc32","fixation","","","img/fixation.png","null","","","test","","","","","","","","","","","","","","","","","","","",""
"496.19999999925494","531611","SARL_v6","SARL_v69zqdxsxs","59528796a186be000114dc32","freq","","","img/orange_2bandit_a2.png","70","","70","test","1","","79","","","","square","circle","76","8","4","0.9868421052631579","","","","","","","",""
"null","531930","SARL_v6","SARL_v69zqdxsxs","59528796a186be000114dc32","freq_resp","","","img/orange_2bandit_a.png","70","img/orange_2bandit_a.png","70","test","","","","","","","","","","","4","","","","","","","","",""
"null","532084","SARL_v6","SARL_v69zqdxsxs","59528796a186be000114dc32","fixation","","","img/fixation.png","null","","","test","","","","","","","","","","","","","","","","","","","",""
"517.9000000022352","532604","SARL_v6","SARL_v69zqdxsxs","59528796a186be000114dc32","freq","","","img/orange_2bandit_a2.png","70","","70","test","1","","80","","","","square","circle","77","9","4","0.987012987012987","","","","","","","",""
"null","532892","SARL_v6","SARL_v69zqdxsxs","59528796a186be000114dc32","freq_resp","","","img/orange_2bandit_a.png","70","img/orange_2bandit_a.png","70","test","","","","","","","","","","","4","","","","","","","","",""
"null","533046","SARL_v6","SARL_v69zqdxsxs","59528796a186be000114dc32","fixation","","","img/fixation.png","null","","","test","","","","","","","","","","","","","","","","","","","",""
"332.69999999925494","533381","SARL_v6","SARL_v69zqdxsxs","59528796a186be000114dc32","freq","","","img/orange_2bandit_a2.png","70","","70","test","1","","81","","","","square","circle","78","10","4","0.9871794871794872","","","","","","","",""
"null","533867","SARL_v6","SARL_v69zqdxsxs","59528796a186be000114dc32","freq_resp","","","img/orange_2bandit_a.png","70","img/orange_2bandit_a.png","70","test","","","","","","","","","","","4","","","","","","","","",""
"null","534022","SARL_v6","SARL_v69zqdxsxs","59528796a186be000114dc32","fixation","","","img/fixation.png","null","","","test","","","","","","","","","","","","","","","","","","","",""
"794.6999999992549","534819","SARL_v6","SARL_v69zqdxsxs","59528796a186be000114dc32","freq","","","img/orange_2bandit_a2.png","70","","70","test","1","","82","","","","square","circle","79","11","4","0.9873417721518988","","","","","","","",""
"null","534827","SARL_v6","SARL_v69zqdxsxs","59528796a186be000114dc32","freq_resp","","","img/orange_2bandit_a.png","70","img/orange_2bandit_a.png","70","test","","","","","","","","","","","4","","","","","","","","",""
"null","534981","SARL_v6","SARL_v69zqdxsxs","59528796a186be000114dc32","fixation","","","img/fixation.png","null","","","test","","","","","","","","","","","","","","","","","","","",""
"432.30000000074506","535416","SARL_v6","SARL_v69zqdxsxs","59528796a186be000114dc32","freq","","","img/orange_2bandit_a2.png","70","","70","test","1","","83","","","","square","circle","80","12","4","0.9875","","","","","","","",""
"null","535787","SARL_v6","SARL_v69zqdxsxs","59528796a186be000114dc32","freq_resp","","","img/orange_2bandit_a.png","70","img/orange_2bandit_a.png","70","test","","","","","","","","","","","4","","","","","","","","",""
"null","535943","SARL_v6","SARL_v69zqdxsxs","59528796a186be000114dc32","fixation","","","img/fixation.png","null","","","test","","","","","","","","","","","","","","","","","","","",""
"309.30000000074506","536255","SARL_v6","SARL_v69zqdxsxs","59528796a186be000114dc32","freq","","","img/orange_2bandit_a2.png","70","","70","test","1","","84","","","","square","circle","81","13","4","0.9876543209876543","","","","","","","",""
"null","536763","SARL_v6","SARL_v69zqdxsxs","59528796a186be000114dc32","freq_resp","","","img/orange_2bandit_a.png","70","img/orange_2bandit_a.png","70","test","","","","","","","","","","","4","","","","","","","","",""
"null","536919","SARL_v6","SARL_v69zqdxsxs","59528796a186be000114dc32","fixation","","","img/fixation.png","null","","","test","","","","","","","","","","","","","","","","","","","",""
"339","537261","SARL_v6","SARL_v69zqdxsxs","59528796a186be000114dc32","infreq","","","img/blue_2bandit_a2.png","68","","68","test","1","","85","","","","square","circle","82","14","4","0.9878048780487805","","","","","","","",""
"null","537740","SARL_v6","SARL_v69zqdxsxs","59528796a186be000114dc32","infreq_resp","","","img/blue_2bandit_a.png","68","img/blue_2bandit_a.png","68","test","","","","","","","","","","","4","","","","","","","","",""
"null","537896","SARL_v6","SARL_v69zqdxsxs","59528796a186be000114dc32","fixation","","","img/fixation.png","null","","","test","","","","","","","","","","","","","","","","","","","",""
"410.80000000074506","538310","SARL_v6","SARL_v69zqdxsxs","59528796a186be000114dc32","freq","","","img/orange_2bandit_a2.png","70","","70","test","1","","86","","","","square","circle","83","15","4","0.9879518072289156","","","","","","","",""
"null","538717","SARL_v6","SARL_v69zqdxsxs","59528796a186be000114dc32","freq_resp","","","img/orange_2bandit_a.png","70","img/orange_2bandit_a.png","70","test","","","","","","","","","","","4","","","","","","","","",""
"null","538872","SARL_v6","SARL_v69zqdxsxs","59528796a186be000114dc32","fixation","","","img/fixation.png","null","","","test","","","","","","","","","","","","","","","","","","","",""
"383","539258","SARL_v6","SARL_v69zqdxsxs","59528796a186be000114dc32","freq","","","img/orange_2bandit_a2.png","70","","70","test","1","","87","","","","square","circle","84","16","4","0.9880952380952381","","","","","","","",""
"null","539679","SARL_v6","SARL_v69zqdxsxs","59528796a186be000114dc32","freq_resp","","","img/orange_2bandit_a.png","70","img/orange_2bandit_a.png","70","test","","","","","","","","","","","4","","","","","","","","",""
"null","539832","SARL_v6","SARL_v69zqdxsxs","59528796a186be000114dc32","fixation","","","img/fixation.png","null","","","test","","","","","","","","","","","","","","","","","","","",""
"280.80000000074506","540116","SARL_v6","SARL_v69zqdxsxs","59528796a186be000114dc32","freq","","","img/orange_2bandit_a2.png","70","","70","test","1","","88","","","","square","circle","85","17","4","0.9882352941176471","","","","","","","",""
"null","540653","SARL_v6","SARL_v69zqdxsxs","59528796a186be000114dc32","freq_resp","","","img/orange_2bandit_a.png","70","img/orange_2bandit_a.png","70","test","","","","","","","","","","","4","","","","","","","","",""
"null","540806","SARL_v6","SARL_v69zqdxsxs","59528796a186be000114dc32","fixation","","","img/fixation.png","null","","","test","","","","","","","","","","","","","","","","","","","",""
"323.30000000074506","541132","SARL_v6","SARL_v69zqdxsxs","59528796a186be000114dc32","freq","","","img/orange_2bandit_a2.png","70","","70","test","1","","89","","","","square","circle","86","18","4","0.9883720930232558","","","","","","","",""
"null","541616","SARL_v6","SARL_v69zqdxsxs","59528796a186be000114dc32","freq_resp","","","img/orange_2bandit_a.png","70","img/orange_2bandit_a.png","70","test","","","","","","","","","","","4","","","","","","","","",""
"null","541768","SARL_v6","SARL_v69zqdxsxs","59528796a186be000114dc32","fixation","","","img/fixation.png","null","","","test","","","","","","","","","","","","","","","","","","","",""
"298.70000000298023","542070","SARL_v6","SARL_v69zqdxsxs","59528796a186be000114dc32","freq","","","img/orange_2bandit_a2.png","70","","70","test","1","","90","","","","square","circle","87","19","4","0.9885057471264368","","","","","","","",""
"null","542579","SARL_v6","SARL_v69zqdxsxs","59528796a186be000114dc32","freq_resp","","","img/orange_2bandit_a.png","70","img/orange_2bandit_a.png","70","test","","","","","","","","","","","4","","","","","","","","",""
"null","542732","SARL_v6","SARL_v69zqdxsxs","59528796a186be000114dc32","fixation","","","img/fixation.png","null","","","test","","","","","","","","","","","","","","","","","","","",""
"304.6000000014901","543039","SARL_v6","SARL_v69zqdxsxs","59528796a186be000114dc32","freq","","","img/orange_2bandit_a2.png","70","","70","test","1","","91","","","","square","circle","88","20","4","0.9886363636363636","","","","","","","",""
"null","543543","SARL_v6","SARL_v69zqdxsxs","59528796a186be000114dc32","freq_resp","","","img/orange_2bandit_a.png","70","img/orange_2bandit_a.png","70","test","","","","","","","","","","","4","","","","","","","","",""
"null","543696","SARL_v6","SARL_v69zqdxsxs","59528796a186be000114dc32","fixation","","","img/fixation.png","null","","","test","","","","","","","","","","","","","","","","","","","",""
"353.5","544052","SARL_v6","SARL_v69zqdxsxs","59528796a186be000114dc32","freq","","","img/orange_2bandit_a2.png","70","","70","test","1","","92","","","","square","circle","89","21","4","0.9887640449438202","","","","","","","",""
"null","544503","SARL_v6","SARL_v69zqdxsxs","59528796a186be000114dc32","freq_resp","","","img/orange_2bandit_a.png","70","img/orange_2bandit_a.png","70","test","","","","","","","","","","","4","","","","","","","","",""
"null","544658","SARL_v6","SARL_v69zqdxsxs","59528796a186be000114dc32","fixation","","","img/fixation.png","null","","","test","","","","","","","","","","","","","","","","","","","",""
"630.5","545291","SARL_v6","SARL_v69zqdxsxs","59528796a186be000114dc32","rl","","","img/black_2bandit_a2.png","75","","0","test","","","93","","","-12","square","circle","","0","4","","75","-12","0","0","-12","circle","4","0"
"null","546054","SARL_v6","SARL_v69zqdxsxs","59528796a186be000114dc32","feedback","","","<div class=""verylowPoints""> -12 </div>","null","","na","test","","","NaN","","","","","","","","4","","75","","","","","","4",""
"516","546573","SARL_v6","SARL_v69zqdxsxs","59528796a186be000114dc32","freq","","","img/orange_2bandit_a2.png","70","","70","test","1","","94","","","","square","circle","90","1","5","0.9888888888888889","","","","","","","",""
"null","546874","SARL_v6","SARL_v69zqdxsxs","59528796a186be000114dc32","freq_resp","","","img/orange_2bandit_a.png","70","img/orange_2bandit_a.png","70","test","","","","","","","","","","","5","","","","","","","","",""
"null","547029","SARL_v6","SARL_v69zqdxsxs","59528796a186be000114dc32","fixation","","","img/fixation.png","null","","","test","","","","","","","","","","","","","","","","","","","",""
"349.19999999925494","547381","SARL_v6","SARL_v69zqdxsxs","59528796a186be000114dc32","freq","","","img/orange_2bandit_a2.png","70","","70","test","1","","95","","","","square","circle","91","2","5","0.989010989010989","","","","","","","",""
"null","547835","SARL_v6","SARL_v69zqdxsxs","59528796a186be000114dc32","freq_resp","","","img/orange_2bandit_a.png","70","img/orange_2bandit_a.png","70","test","","","","","","","","","","","5","","","","","","","","",""
"null","547990","SARL_v6","SARL_v69zqdxsxs","59528796a186be000114dc32","fixation","","","img/fixation.png","null","","","test","","","","","","","","","","","","","","","","","","","",""
"382.1000000014901","548375","SARL_v6","SARL_v69zqdxsxs","59528796a186be000114dc32","freq","","","img/orange_2bandit_a2.png","70","","70","test","1","","96","","","","square","circle","92","3","5","0.9891304347826086","","","","","","","",""
"null","548797","SARL_v6","SARL_v69zqdxsxs","59528796a186be000114dc32","freq_resp","","","img/orange_2bandit_a.png","70","img/orange_2bandit_a.png","70","test","","","","","","","","","","","5","","","","","","","","",""
"null","548952","SARL_v6","SARL_v69zqdxsxs","59528796a186be000114dc32","fixation","","","img/fixation.png","null","","","test","","","","","","","","","","","","","","","","","","","",""
"351","549305","SARL_v6","SARL_v69zqdxsxs","59528796a186be000114dc32","freq","","","img/orange_2bandit_a2.png","70","","70","test","1","","97","","","","square","circle","93","4","5","0.989247311827957","","","","","","","",""
"null","549760","SARL_v6","SARL_v69zqdxsxs","59528796a186be000114dc32","freq_resp","","","img/orange_2bandit_a.png","70","img/orange_2bandit_a.png","70","test","","","","","","","","","","","5","","","","","","","","",""
"null","549915","SARL_v6","SARL_v69zqdxsxs","59528796a186be000114dc32","fixation","","","img/fixation.png","null","","","test","","","","","","","","","","","","","","","","","","","",""
"491.19999999925494","550408","SARL_v6","SARL_v69zqdxsxs","59528796a186be000114dc32","infreq","","","img/blue_2bandit_a2.png","68","","68","test","1","","98","","","","square","circle","94","5","5","0.9893617021276596","","","","","","","",""
"null","550721","SARL_v6","SARL_v69zqdxsxs","59528796a186be000114dc32","infreq_resp","","","img/blue_2bandit_a.png","68","img/blue_2bandit_a.png","68","test","","","","","","","","","","","5","","","","","","","","",""
"null","550875","SARL_v6","SARL_v69zqdxsxs","59528796a186be000114dc32","fixation","","","img/fixation.png","null","","","test","","","","","","","","","","","","","","","","","","","",""
"454","551331","SARL_v6","SARL_v69zqdxsxs","59528796a186be000114dc32","infreq","","","img/blue_2bandit_a2.png","68","","68","test","1","","99","","","","square","circle","95","6","5","0.9894736842105263","","","","","","","",""
"null","551681","SARL_v6","SARL_v69zqdxsxs","59528796a186be000114dc32","infreq_resp","","","img/blue_2bandit_a.png","68","img/blue_2bandit_a.png","68","test","","","","","","","","","","","5","","","","","","","","",""
"null","551836","SARL_v6","SARL_v69zqdxsxs","59528796a186be000114dc32","fixation","","","img/fixation.png","null","","","test","","","","","","","","","","","","","","","","","","","",""
"418.8999999985099","552257","SARL_v6","SARL_v69zqdxsxs","59528796a186be000114dc32","freq","","","img/orange_2bandit_a2.png","70","","70","test","1","","100","","","","square","circle","96","7","5","0.9895833333333334","","","","","","","",""
"null","552656","SARL_v6","SARL_v69zqdxsxs","59528796a186be000114dc32","freq_resp","","","img/orange_2bandit_a.png","70","img/orange_2bandit_a.png","70","test","","","","","","","","","","","5","","","","","","","","",""
"null","552825","SARL_v6","SARL_v69zqdxsxs","59528796a186be000114dc32","fixation","","","img/fixation.png","null","","","test","","","","","","","","","","","","","","","","","","","",""
"456.1000000014901","553283","SARL_v6","SARL_v69zqdxsxs","59528796a186be000114dc32","freq","","","img/orange_2bandit_a2.png","70","","70","test","1","","101","","","","square","circle","97","8","5","0.9896907216494846","","","","","","","",""
"null","553630","SARL_v6","SARL_v69zqdxsxs","59528796a186be000114dc32","freq_resp","","","img/orange_2bandit_a.png","70","img/orange_2bandit_a.png","70","test","","","","","","","","","","","5","","","","","","","","",""
"null","553783","SARL_v6","SARL_v69zqdxsxs","59528796a186be000114dc32","fixation","","","img/fixation.png","null","","","test","","","","","","","","","","","","","","","","","","","",""
"365.5999999977648","554151","SARL_v6","SARL_v69zqdxsxs","59528796a186be000114dc32","freq","","","img/orange_2bandit_a2.png","70","","70","test","1","","102","","","","square","circle","98","9","5","0.9897959183673469","","","","","","","",""
"null","554591","SARL_v6","SARL_v69zqdxsxs","59528796a186be000114dc32","freq_resp","","","img/orange_2bandit_a.png","70","img/orange_2bandit_a.png","70","test","","","","","","","","","","","5","","","","","","","","",""
"null","554746","SARL_v6","SARL_v69zqdxsxs","59528796a186be000114dc32","fixation","","","img/fixation.png","null","","","test","","","","","","","","","","","","","","","","","","","",""
"259","555008","SARL_v6","SARL_v69zqdxsxs","59528796a186be000114dc32","freq","","","img/orange_2bandit_a2.png","70","","70","test","1","","103","","","","square","circle","99","10","5","0.98989898989899","","","","","","","",""
"null","555565","SARL_v6","SARL_v69zqdxsxs","59528796a186be000114dc32","freq_resp","","","img/orange_2bandit_a.png","70","img/orange_2bandit_a.png","70","test","","","","","","","","","","","5","","","","","","","","",""
"null","555719","SARL_v6","SARL_v69zqdxsxs","59528796a186be000114dc32","fixation","","","img/fixation.png","null","","","test","","","","","","","","","","","","","","","","","","","",""
"277.1000000014901","555999","SARL_v6","SARL_v69zqdxsxs","59528796a186be000114dc32","freq","","","img/orange_2bandit_a2.png","70","","70","test","1","","104","","","","square","circle","100","11","5","0.99","","","","","","","",""
"null","556524","SARL_v6","SARL_v69zqdxsxs","59528796a186be000114dc32","freq_resp","","","img/orange_2bandit_a.png","70","img/orange_2bandit_a.png","70","test","","","","","","","","","","","5","","","","","","","","",""
"null","556680","SARL_v6","SARL_v69zqdxsxs","59528796a186be000114dc32","fixation","","","img/fixation.png","null","","","test","","","","","","","","","","","","","","","","","","","",""
"333","557015","SARL_v6","SARL_v69zqdxsxs","59528796a186be000114dc32","freq","","","img/orange_2bandit_a2.png","70","","70","test","1","","105","","","","square","circle","101","12","5","0.9900990099009901","","","","","","","",""
"null","557500","SARL_v6","SARL_v69zqdxsxs","59528796a186be000114dc32","freq_resp","","","img/orange_2bandit_a.png","70","img/orange_2bandit_a.png","70","test","","","","","","","","","","","5","","","","","","","","",""
"null","557656","SARL_v6","SARL_v69zqdxsxs","59528796a186be000114dc32","fixation","","","img/fixation.png","null","","","test","","","","","","","","","","","","","","","","","","","",""
"346.5","558005","SARL_v6","SARL_v69zqdxsxs","59528796a186be000114dc32","freq","","","img/orange_2bandit_a2.png","70","","70","test","1","","106","","","","square","circle","102","13","5","0.9901960784313726","","","","","","","",""
"null","558463","SARL_v6","SARL_v69zqdxsxs","59528796a186be000114dc32","freq_resp","","","img/orange_2bandit_a.png","70","img/orange_2bandit_a.png","70","test","","","","","","","","","","","5","","","","","","","","",""
"null","558619","SARL_v6","SARL_v69zqdxsxs","59528796a186be000114dc32","fixation","","","img/fixation.png","null","","","test","","","","","","","","","","","","","","","","","","","",""
"282.80000000074506","558904","SARL_v6","SARL_v69zqdxsxs","59528796a186be000114dc32","freq","","","img/orange_2bandit_a2.png","70","","70","test","1","","107","","","","square","circle","103","14","5","0.9902912621359223","","","","","","","",""
"null","559439","SARL_v6","SARL_v69zqdxsxs","59528796a186be000114dc32","freq_resp","","","img/orange_2bandit_a.png","70","img/orange_2bandit_a.png","70","test","","","","","","","","","","","5","","","","","","","","",""
"null","559595","SARL_v6","SARL_v69zqdxsxs","59528796a186be000114dc32","fixation","","","img/fixation.png","null","","","test","","","","","","","","","","","","","","","","","","","",""
"371","559968","SARL_v6","SARL_v69zqdxsxs","59528796a186be000114dc32","freq","","","img/orange_2bandit_a2.png","70","","70","test","1","","108","","","","square","circle","104","15","5","0.9903846153846154","","","","","","","",""
"null","560402","SARL_v6","SARL_v69zqdxsxs","59528796a186be000114dc32","freq_resp","","","img/orange_2bandit_a.png","70","img/orange_2bandit_a.png","70","test","","","","","","","","","","","5","","","","","","","","",""
"null","560557","SARL_v6","SARL_v69zqdxsxs","59528796a186be000114dc32","fixation","","","img/fixation.png","null","","","test","","","","","","","","","","","","","","","","","","","",""
"683.7999999970198","561244","SARL_v6","SARL_v69zqdxsxs","59528796a186be000114dc32","freq","","","img/orange_2bandit_a2.png","70","","70","test","1","","109","","","","square","circle","105","16","5","0.9904761904761905","","","","","","","",""
"null","561377","SARL_v6","SARL_v69zqdxsxs","59528796a186be000114dc32","freq_resp","","","img/orange_2bandit_a.png","70","img/orange_2bandit_a.png","70","test","","","","","","","","","","","5","","","","","","","","",""
"null","561532","SARL_v6","SARL_v69zqdxsxs","59528796a186be000114dc32","fixation","","","img/fixation.png","null","","","test","","","","","","","","","","","","","","","","","","","",""
"699.1999999992549","562234","SARL_v6","SARL_v69zqdxsxs","59528796a186be000114dc32","freq","","","img/orange_2bandit_a2.png","70","","70","test","1","","110","","","","square","circle","106","17","5","0.9905660377358491","","","","","","","",""
"null","562350","SARL_v6","SARL_v69zqdxsxs","59528796a186be000114dc32","freq_resp","","","img/orange_2bandit_a.png","70","img/orange_2bandit_a.png","70","test","","","","","","","","","","","5","","","","","","","","",""
"null","562504","SARL_v6","SARL_v69zqdxsxs","59528796a186be000114dc32","fixation","","","img/fixation.png","null","","","test","","","","","","","","","","","","","","","","","","","",""
"424.5","562931","SARL_v6","SARL_v69zqdxsxs","59528796a186be000114dc32","freq","","","img/orange_2bandit_a2.png","70","","70","test","1","","111","","","","square","circle","107","18","5","0.9906542056074766","","","","","","","",""
"null","563311","SARL_v6","SARL_v69zqdxsxs","59528796a186be000114dc32","freq_resp","","","img/orange_2bandit_a.png","70","img/orange_2bandit_a.png","70","test","","","","","","","","","","","5","","","","","","","","",""
"null","563467","SARL_v6","SARL_v69zqdxsxs","59528796a186be000114dc32","fixation","","","img/fixation.png","null","","","test","","","","","","","","","","","","","","","","","","","",""
"260.8999999985099","563730","SARL_v6","SARL_v69zqdxsxs","59528796a186be000114dc32","freq","","","img/orange_2bandit_a2.png","70","","70","test","1","","112","","","","square","circle","108","19","5","0.9907407407407407","","","","","","","",""
"null","564274","SARL_v6","SARL_v69zqdxsxs","59528796a186be000114dc32","freq_resp","","","img/orange_2bandit_a.png","70","img/orange_2bandit_a.png","70","test","","","","","","","","","","","5","","","","","","","","",""
"null","564428","SARL_v6","SARL_v69zqdxsxs","59528796a186be000114dc32","fixation","","","img/fixation.png","null","","","test","","","","","","","","","","","","","","","","","","","",""
"312.19999999925494","564743","SARL_v6","SARL_v69zqdxsxs","59528796a186be000114dc32","freq","","","img/orange_2bandit_a2.png","70","","70","test","1","","113","","","","square","circle","109","20","5","0.9908256880733946","","","","","","","",""
"null","565248","SARL_v6","SARL_v69zqdxsxs","59528796a186be000114dc32","freq_resp","","","img/orange_2bandit_a.png","70","img/orange_2bandit_a.png","70","test","","","","","","","","","","","5","","","","","","","","",""
"null","565402","SARL_v6","SARL_v69zqdxsxs","59528796a186be000114dc32","fixation","","","img/fixation.png","null","","","test","","","","","","","","","","","","","","","","","","","",""
"348","565753","SARL_v6","SARL_v69zqdxsxs","59528796a186be000114dc32","freq","","","img/orange_2bandit_a2.png","70","","70","test","1","","114","","","","square","circle","110","21","5","0.990909090909091","","","","","","","",""
"null","566222","SARL_v6","SARL_v69zqdxsxs","59528796a186be000114dc32","freq_resp","","","img/orange_2bandit_a.png","70","img/orange_2bandit_a.png","70","test","","","","","","","","","","","5","","","","","","","","",""
"null","566377","SARL_v6","SARL_v69zqdxsxs","59528796a186be000114dc32","fixation","","","img/fixation.png","null","","","test","","","","","","","","","","","","","","","","","","","",""
"285","566665","SARL_v6","SARL_v69zqdxsxs","59528796a186be000114dc32","freq","","","img/orange_2bandit_a2.png","70","","70","test","1","","115","","","","square","circle","111","22","5","0.990990990990991","","","","","","","",""
"null","567198","SARL_v6","SARL_v69zqdxsxs","59528796a186be000114dc32","freq_resp","","","img/orange_2bandit_a.png","70","img/orange_2bandit_a.png","70","test","","","","","","","","","","","5","","","","","","","","",""
"null","567351","SARL_v6","SARL_v69zqdxsxs","59528796a186be000114dc32","fixation","","","img/fixation.png","null","","","test","","","","","","","","","","","","","","","","","","","",""
"265","567619","SARL_v6","SARL_v69zqdxsxs","59528796a186be000114dc32","freq","","","img/orange_2bandit_a2.png","70","","70","test","1","","116","","","","square","circle","112","23","5","0.9910714285714286","","","","","","","",""
"null","568163","SARL_v6","SARL_v69zqdxsxs","59528796a186be000114dc32","freq_resp","","","img/orange_2bandit_a.png","70","img/orange_2bandit_a.png","70","test","","","","","","","","","","","5","","","","","","","","",""
"null","568318","SARL_v6","SARL_v69zqdxsxs","59528796a186be000114dc32","fixation","","","img/fixation.png","null","","","test","","","","","","","","","","","","","","","","","","","",""
"534.1999999992549","568855","SARL_v6","SARL_v69zqdxsxs","59528796a186be000114dc32","infreq","","","img/blue_2bandit_a2.png","68","","68","test","1","","117","","","","square","circle","113","24","5","0.9911504424778761","","","","","","","",""
"null","569127","SARL_v6","SARL_v69zqdxsxs","59528796a186be000114dc32","infreq_resp","","","img/blue_2bandit_a.png","68","img/blue_2bandit_a.png","68","test","","","","","","","","","","","5","","","","","","","","",""
"null","569281","SARL_v6","SARL_v69zqdxsxs","59528796a186be000114dc32","fixation","","","img/fixation.png","null","","","test","","","","","","","","","","","","","","","","","","","",""
"448.30000000074506","569732","SARL_v6","SARL_v69zqdxsxs","59528796a186be000114dc32","freq","","","img/orange_2bandit_a2.png","70","","70","test","1","","118","","","","square","circle","114","25","5","0.9912280701754386","","","","","","","",""
"null","570092","SARL_v6","SARL_v69zqdxsxs","59528796a186be000114dc32","freq_resp","","","img/orange_2bandit_a.png","70","img/orange_2bandit_a.png","70","test","","","","","","","","","","","5","","","","","","","","",""
"null","570245","SARL_v6","SARL_v69zqdxsxs","59528796a186be000114dc32","fixation","","","img/fixation.png","null","","","test","","","","","","","","","","","","","","","","","","","",""
"594.8000000007451","570843","SARL_v6","SARL_v69zqdxsxs","59528796a186be000114dc32","rl","","","img/black_2bandit_a2.png","74","","0","test","","","119","","","4","square","circle","","0","5","","74","-7","4","4","-7","square","5","0"
"null","571597","SARL_v6","SARL_v69zqdxsxs","59528796a186be000114dc32","feedback","","","<div class=""veryhighPoints_sq""> 4 </div>","null","","na","test","","","NaN","","","","","","","","5","","74","","","","","","5",""
"599.3000000007451","572198","SARL_v6","SARL_v69zqdxsxs","59528796a186be000114dc32","freq","","","img/orange_2bandit_a2.png","70","","70","test","1","","120","","","","square","circle","115","1","6","0.991304347826087","","","","","","","",""
"null","572402","SARL_v6","SARL_v69zqdxsxs","59528796a186be000114dc32","freq_resp","","","img/orange_2bandit_a.png","70","img/orange_2bandit_a.png","70","test","","","","","","","","","","","6","","","","","","","","",""
"null","572558","SARL_v6","SARL_v69zqdxsxs","59528796a186be000114dc32","fixation","","","img/fixation.png","null","","","test","","","","","","","","","","","","","","","","","","","",""
"261.30000000074506","572822","SARL_v6","SARL_v69zqdxsxs","59528796a186be000114dc32","freq","","","img/orange_2bandit_a2.png","70","","70","test","1","","121","","","","square","circle","116","2","6","0.9913793103448276","","","","","","","",""
"null","573365","SARL_v6","SARL_v69zqdxsxs","59528796a186be000114dc32","freq_resp","","","img/orange_2bandit_a.png","70","img/orange_2bandit_a.png","70","test","","","","","","","","","","","6","","","","","","","","",""
"null","573518","SARL_v6","SARL_v69zqdxsxs","59528796a186be000114dc32","fixation","","","img/fixation.png","null","","","test","","","","","","","","","","","","","","","","","","","",""
"304.0999999977648","573825","SARL_v6","SARL_v69zqdxsxs","59528796a186be000114dc32","freq","","","img/orange_2bandit_a2.png","70","","70","test","1","","122","","","","square","circle","117","3","6","0.9914529914529915","","","","","","","",""
"null","574328","SARL_v6","SARL_v69zqdxsxs","59528796a186be000114dc32","freq_resp","","","img/orange_2bandit_a.png","70","img/orange_2bandit_a.png","70","test","","","","","","","","","","","6","","","","","","","","",""
"null","574482","SARL_v6","SARL_v69zqdxsxs","59528796a186be000114dc32","fixation","","","img/fixation.png","null","","","test","","","","","","","","","","","","","","","","","","","",""
"313.6000000014901","574798","SARL_v6","SARL_v69zqdxsxs","59528796a186be000114dc32","freq","","","img/orange_2bandit_a2.png","70","","70","test","1","","123","","","","square","circle","118","4","6","0.9915254237288136","","","","","","","",""
"null","575289","SARL_v6","SARL_v69zqdxsxs","59528796a186be000114dc32","freq_resp","","","img/orange_2bandit_a.png","70","img/orange_2bandit_a.png","70","test","","","","","","","","","","","6","","","","","","","","",""
"null","575444","SARL_v6","SARL_v69zqdxsxs","59528796a186be000114dc32","fixation","","","img/fixation.png","null","","","test","","","","","","","","","","","","","","","","","","","",""
"309.3999999985099","575756","SARL_v6","SARL_v69zqdxsxs","59528796a186be000114dc32","freq","","","img/orange_2bandit_a2.png","70","","70","test","1","","124","","","","square","circle","119","5","6","0.9915966386554622","","","","","","","",""
"null","576264","SARL_v6","SARL_v69zqdxsxs","59528796a186be000114dc32","freq_resp","","","img/orange_2bandit_a.png","70","img/orange_2bandit_a.png","70","test","","","","","","","","","","","6","","","","","","","","",""
"null","576419","SARL_v6","SARL_v69zqdxsxs","59528796a186be000114dc32","fixation","","","img/fixation.png","null","","","test","","","","","","","","","","","","","","","","","","","",""
"325.5","576747","SARL_v6","SARL_v69zqdxsxs","59528796a186be000114dc32","freq","","","img/orange_2bandit_a2.png","70","","70","test","1","","125","","","","square","circle","120","6","6","0.9916666666666667","","","","","","","",""
"null","577224","SARL_v6","SARL_v69zqdxsxs","59528796a186be000114dc32","freq_resp","","","img/orange_2bandit_a.png","70","img/orange_2bandit_a.png","70","test","","","","","","","","","","","6","","","","","","","","",""
"null","577379","SARL_v6","SARL_v69zqdxsxs","59528796a186be000114dc32","fixation","","","img/fixation.png","null","","","test","","","","","","","","","","","","","","","","","","","",""
"318.9000000022352","577701","SARL_v6","SARL_v69zqdxsxs","59528796a186be000114dc32","freq","","","img/orange_2bandit_a2.png","70","","70","test","1","","126","","","","square","circle","121","7","6","0.9917355371900827","","","","","","","",""
"null","578186","SARL_v6","SARL_v69zqdxsxs","59528796a186be000114dc32","freq_resp","","","img/orange_2bandit_a.png","70","img/orange_2bandit_a.png","70","test","","","","","","","","","","","6","","","","","","","","",""
"null","578340","SARL_v6","SARL_v69zqdxsxs","59528796a186be000114dc32","fixation","","","img/fixation.png","null","","","test","","","","","","","","","","","","","","","","","","","",""
"308","578651","SARL_v6","SARL_v69zqdxsxs","59528796a186be000114dc32","freq","","","img/orange_2bandit_a2.png","70","","70","test","1","","127","","","","square","circle","122","8","6","0.9918032786885246","","","","","","","",""
"null","579147","SARL_v6","SARL_v69zqdxsxs","59528796a186be000114dc32","freq_resp","","","img/orange_2bandit_a.png","70","img/orange_2bandit_a.png","70","test","","","","","","","","","","","6","","","","","","","","",""
"null","579301","SARL_v6","SARL_v69zqdxsxs","59528796a186be000114dc32","fixation","","","img/fixation.png","null","","","test","","","","","","","","","","","","","","","","","","","",""
"469.69999999925494","579774","SARL_v6","SARL_v69zqdxsxs","59528796a186be000114dc32","infreq","","","img/blue_2bandit_a2.png","68","","68","test","1","","128","","","","square","circle","123","9","6","0.991869918699187","","","","","","","",""
"null","580120","SARL_v6","SARL_v69zqdxsxs","59528796a186be000114dc32","infreq_resp","","","img/blue_2bandit_a.png","68","img/blue_2bandit_a.png","68","test","","","","","","","","","","","6","","","","","","","","",""
"null","580274","SARL_v6","SARL_v69zqdxsxs","59528796a186be000114dc32","fixation","","","img/fixation.png","null","","","test","","","","","","","","","","","","","","","","","","","",""
