"rt","time_elapsed","expId","subject","prolificID","trialType","rlType","attType","stimulus","key_press","stim","corrresp","phase","corr","pracCounter","trialNum","rewardOne","rewardTwo","reward","bandOne","bandTwo","attentionNum","attentionRunNum","blockNum","performance","bandChosen","circleVal","squareVal","bandOneVal","bandTwoVal","shapeChosen","rlNum","badFlag"
"2734.0999999940395","2740","SARL_v6","SARL_v6rm4gzjlb","63403b47287756c1978d2985","","","","","","","","","","","","","","","","","","","","","","","","","","","",""
"","198041","SARL_v6","SARL_v6rm4gzjlb","63403b47287756c1978d2985","fullscreen","fullscreen","fullscreen","","","","","","","","","","","","","","","","","","","","","","","","",""
"35927.70000001788","233971","SARL_v6","SARL_v6rm4gzjlb","63403b47287756c1978d2985","","","","","","","","","","","","","","","","","","","","","","","","","","","",""
"null","234775","SARL_v6","SARL_v6rm4gzjlb","63403b47287756c1978d2985","freqPrac","","","img/orange_2bandit_a2.png","null","img/orange_2bandit_a2.png","70","prac","0","1","","","","","","","","","","","","","","","","","",""
"null","235783","SARL_v6","SARL_v6rm4gzjlb","63403b47287756c1978d2985","feedback","","","img/tooSlow.png","null","","na","prac","","","","","","","","","","","","","","","","","","","",""
"null","235938","SARL_v6","SARL_v6rm4gzjlb","63403b47287756c1978d2985","fixation","","","img/fixation.png","null","","","prac","","","","","","","","","","","","","","","","","","","",""
"null","236742","SARL_v6","SARL_v6rm4gzjlb","63403b47287756c1978d2985","infreqPrac","","","img/blue_2bandit_a2.png","null","img/blue_2bandit_a2.png","68","prac","0","2","","","","","","","","","","","","","","","","","",""
"null","237750","SARL_v6","SARL_v6rm4gzjlb","63403b47287756c1978d2985","feedback","","","img/tooSlow.png","null","","na","prac","","","","","","","","","","","","","","","","","","","",""
"null","237906","SARL_v6","SARL_v6rm4gzjlb","63403b47287756c1978d2985","fixation","","","img/fixation.png","null","","","prac","","","","","","","","","","","","","","","","","","","",""
"650.9000000059605","238559","SARL_v6","SARL_v6rm4gzjlb","63403b47287756c1978d2985","freqPrac","","","img/orange_2bandit_a2.png","70","img/orange_2bandit_a2.png","70","prac","1","2","","","","","","","","","","","","","","","","","",""
"650.9000000059605","238712","SARL_v6","SARL_v6rm4gzjlb","63403b47287756c1978d2985","freqPrac_resp","","","img/orange_2bandit_a.png","70","img/orange_2bandit_a.png","70","prac","","","","","","","","","","","","","","","","","","","",""
"null","238868","SARL_v6","SARL_v6rm4gzjlb","63403b47287756c1978d2985","fixation","","","img/fixation.png","null","","","prac","","","","","","","","","","","","","","","","","","","",""
"null","239680","SARL_v6","SARL_v6rm4gzjlb","63403b47287756c1978d2985","infreqPrac","","","img/blue_2bandit_a2.png","null","img/blue_2bandit_a2.png","68","prac","0","3","","","","","","","","","","","","","","","","","",""
"null","240692","SARL_v6","SARL_v6rm4gzjlb","63403b47287756c1978d2985","feedback","","","img/tooSlow.png","null","","na","prac","","","","","","","","","","","","","","","","","","","",""
"null","240844","SARL_v6","SARL_v6rm4gzjlb","63403b47287756c1978d2985","fixation","","","img/fixation.png","null","","","prac","","","","","","","","","","","","","","","","","","","",""
"302.30000001192093","241148","SARL_v6","SARL_v6rm4gzjlb","63403b47287756c1978d2985","infreqPrac","","","img/blue_2bandit_a2.png","70","img/blue_2bandit_a2.png","68","prac","0","4","","","","","","","","","","","","","","","","","",""
"302.30000001192093","241650","SARL_v6","SARL_v6rm4gzjlb","63403b47287756c1978d2985","infreqPrac_resp","","","img/blue_2bandit_a.png","70","img/blue_2bandit_a.png","68","prac","","","","","","","","","","","","","","","","","","","",""
"null","242658","SARL_v6","SARL_v6rm4gzjlb","63403b47287756c1978d2985","feedback","","","img/wrongKey.png","null","","na","prac","","","","","","","","","","","","","","","","","","","",""
"null","242813","SARL_v6","SARL_v6rm4gzjlb","63403b47287756c1978d2985","fixation","","","img/fixation.png","null","","","prac","","","","","","","","","","","","","","","","","","","",""
"465.09999999403954","243280","SARL_v6","SARL_v6rm4gzjlb","63403b47287756c1978d2985","infreqPrac","","","img/blue_2bandit_a2.png","68","img/blue_2bandit_a2.png","68","prac","1","4","","","","","","","","","","","","","","","","","",""
"465.09999999403954","243623","SARL_v6","SARL_v6rm4gzjlb","63403b47287756c1978d2985","infreqPrac_resp","","","img/blue_2bandit_a.png","68","img/blue_2bandit_a.png","68","prac","","","","","","","","","","","","","","","","","","","",""
"null","243789","SARL_v6","SARL_v6rm4gzjlb","63403b47287756c1978d2985","fixation","","","img/fixation.png","null","","","prac","","","","","","","","","","","","","","","","","","","",""
"672.0999999940395","244463","SARL_v6","SARL_v6rm4gzjlb","63403b47287756c1978d2985","freqPrac","","","img/orange_2bandit_a2.png","68","img/orange_2bandit_a2.png","70","prac","0","5","","","","","","","","","","","","","","","","","",""
"672.0999999940395","244596","SARL_v6","SARL_v6rm4gzjlb","63403b47287756c1978d2985","freqPrac_resp","","","img/orange_2bandit_a.png","68","img/orange_2bandit_a.png","70","prac","","","","","","","","","","","","","","","","","","","",""
"null","245604","SARL_v6","SARL_v6rm4gzjlb","63403b47287756c1978d2985","feedback","","","img/wrongKey.png","null","","na","prac","","","","","","","","","","","","","","","","","","","",""
"null","245757","SARL_v6","SARL_v6rm4gzjlb","63403b47287756c1978d2985","fixation","","","img/fixation.png","null","","","prac","","","","","","","","","","","","","","","","","","","",""
"366.40000000596046","246125","SARL_v6","SARL_v6rm4gzjlb","63403b47287756c1978d2985","infreqPrac","","","img/blue_2bandit_a2.png","68","img/blue_2bandit_a2.png","68","prac","1","5","","","","","","","","","","","","","","","","","",""
"366.40000000596046","246561","SARL_v6","SARL_v6rm4gzjlb","63403b47287756c1978d2985","infreqPrac_resp","","","img/blue_2bandit_a.png","68","img/blue_2bandit_a.png","68","prac","","","","","","","","","","","","","","","","","","","",""
"null","246715","SARL_v6","SARL_v6rm4gzjlb","63403b47287756c1978d2985","fixation","","","img/fixation.png","null","","","prac","","","","","","","","","","","","","","","","","","","",""
"456.19999998807907","247173","SARL_v6","SARL_v6rm4gzjlb","63403b47287756c1978d2985","freqPrac","","","img/orange_2bandit_a2.png","68","img/orange_2bandit_a2.png","70","prac","0","6","","","","","","","","","","","","","","","","","",""
"456.19999998807907","247524","SARL_v6","SARL_v6rm4gzjlb","63403b47287756c1978d2985","freqPrac_resp","","","img/orange_2bandit_a.png","68","img/orange_2bandit_a.png","70","prac","","","","","","","","","","","","","","","","","","","",""
"null","248531","SARL_v6","SARL_v6rm4gzjlb","63403b47287756c1978d2985","feedback","","","img/wrongKey.png","null","","na","prac","","","","","","","","","","","","","","","","","","","",""
"null","248686","SARL_v6","SARL_v6rm4gzjlb","63403b47287756c1978d2985","fixation","","","img/fixation.png","null","","","prac","","","","","","","","","","","","","","","","","","","",""
"595.5","249283","SARL_v6","SARL_v6rm4gzjlb","63403b47287756c1978d2985","freqPrac","","","img/orange_2bandit_a2.png","70","img/orange_2bandit_a2.png","70","prac","1","6","","","","","","","","","","","","","","","","","",""
"595.5","249489","SARL_v6","SARL_v6rm4gzjlb","63403b47287756c1978d2985","freqPrac_resp","","","img/orange_2bandit_a.png","70","img/orange_2bandit_a.png","70","prac","","","","","","","","","","","","","","","","","","","",""
"null","249642","SARL_v6","SARL_v6rm4gzjlb","63403b47287756c1978d2985","fixation","","","img/fixation.png","null","","","prac","","","","","","","","","","","","","","","","","","","",""
"6775.199999988079","256419","SARL_v6","SARL_v6rm4gzjlb","63403b47287756c1978d2985","","","","","","","","prac","","","","","","","","","","","","","","","","","","","",""
"null","257928","SARL_v6","SARL_v6rm4gzjlb","63403b47287756c1978d2985","rlPractice","","","img/black_2bandit_a2.png","null","img/black_2bandit_a2.png","","prac","","","0","","","","","","","","","","","","","","","","",""
"null","258687","SARL_v6","SARL_v6rm4gzjlb","63403b47287756c1978d2985","feedback","","","<div font size = 80> TOO SLOW  </div>","null","","na","prac","","","1","10","-14","10","","","","","","","","","","","","","",""
"null","258842","SARL_v6","SARL_v6rm4gzjlb","63403b47287756c1978d2985","fixation","","","img/fixation.png","null","","","prac","","","","","","","","","","","","","","","","","","","",""
"null","260351","SARL_v6","SARL_v6rm4gzjlb","63403b47287756c1978d2985","rlPractice","","","img/black_2bandit_a2.png","null","img/black_2bandit_a2.png","","prac","","","1","","","","","","","","","","","","","","","","",""
"null","261104","SARL_v6","SARL_v6rm4gzjlb","63403b47287756c1978d2985","feedback","","","<div font size = 80> TOO SLOW  </div>","null","","na","prac","","","2","5","-5","5","","","","","","","","","","","","","",""
"null","261268","SARL_v6","SARL_v6rm4gzjlb","63403b47287756c1978d2985","fixation","","","img/fixation.png","null","","","prac","","","","","","","","","","","","","","","","","","","",""
"null","262777","SARL_v6","SARL_v6rm4gzjlb","63403b47287756c1978d2985","rlPractice","","","img/black_2bandit_a2.png","null","img/black_2bandit_a2.png","","prac","","","2","","","","","","","","","","","","","","","","",""
"null","263537","SARL_v6","SARL_v6rm4gzjlb","63403b47287756c1978d2985","feedback","","","<div font size = 80> TOO SLOW  </div>","null","","na","prac","","","3","30","2","30","","","","","","","","","","","","","",""
"null","263693","SARL_v6","SARL_v6rm4gzjlb","63403b47287756c1978d2985","fixation","","","img/fixation.png","null","","","prac","","","","","","","","","","","","","","","","","","","",""
"null","265210","SARL_v6","SARL_v6rm4gzjlb","63403b47287756c1978d2985","rlPractice","","","img/black_2bandit_a2.png","null","img/black_2bandit_a2.png","","prac","","","3","","","","","","","","","","","","","","","","",""
"null","265964","SARL_v6","SARL_v6rm4gzjlb","63403b47287756c1978d2985","feedback","","","<div font size = 80> TOO SLOW  </div>","null","","na","prac","","","4","-2","20","-2","","","","","","","","","","","","","",""
"145.7999999821186","266121","SARL_v6","SARL_v6rm4gzjlb","63403b47287756c1978d2985","fixation","","","img/fixation.png","70","","","prac","","","","","","","","","","","","","","","","","","","",""
"2680.5","268803","SARL_v6","SARL_v6rm4gzjlb","63403b47287756c1978d2985","","","","","","","","prac","","","","","","","","","","","","","","","","","","","",""
"564.5999999940395","269370","SARL_v6","SARL_v6rm4gzjlb","63403b47287756c1978d2985","mixAttFreqPrac","","","img/orange_2bandit_a2.png","68","img/orange_2bandit_a2.png","70","prac","","","1","","","","","","","","","","","","","","","","",""
"564.5999999940395","269616","SARL_v6","SARL_v6rm4gzjlb","63403b47287756c1978d2985","freqPrac_resp","","","img/orange_2bandit_a.png","68","img/orange_2bandit_a.png","70","prac","","","1","","","","","","","","","","","","","","","","",""
"null","269773","SARL_v6","SARL_v6rm4gzjlb","63403b47287756c1978d2985","fixation","","","img/fixation.png","null","","","prac","","","","","","","","","","","","","","","","","","","",""
"369.7000000178814","270145","SARL_v6","SARL_v6rm4gzjlb","63403b47287756c1978d2985","mixAttInfreqPrac","","","img/blue_2bandit_a2.png","68","img/blue_2bandit_a2.png","68","prac","","","2","","","","","","","","","","","","","","","","",""
"369.7000000178814","270581","SARL_v6","SARL_v6rm4gzjlb","63403b47287756c1978d2985","infreqPrac_resp","","","img/blue_2bandit_a.png","68","img/orange_2bandit_a.png","68","prac","","","2","","","","","","","","","","","","","","","","",""
"null","270738","SARL_v6","SARL_v6rm4gzjlb","63403b47287756c1978d2985","fixation","","","img/fixation.png","null","","","prac","","","","","","","","","","","","","","","","","","","",""
"622.4000000059605","271362","SARL_v6","SARL_v6rm4gzjlb","63403b47287756c1978d2985","mixAttInfreqPrac","","","img/blue_2bandit_a2.png","70","img/blue_2bandit_a2.png","68","prac","","","3","","","","","","","","","","","","","","","","",""
"622.4000000059605","271546","SARL_v6","SARL_v6rm4gzjlb","63403b47287756c1978d2985","infreqPrac_resp","","","img/blue_2bandit_a.png","70","img/orange_2bandit_a.png","68","prac","","","3","","","","","","","","","","","","","","","","",""
"null","271701","SARL_v6","SARL_v6rm4gzjlb","63403b47287756c1978d2985","fixation","","","img/fixation.png","null","","","prac","","","","","","","","","","","","","","","","","","","",""
"644.6999999880791","272347","SARL_v6","SARL_v6rm4gzjlb","63403b47287756c1978d2985","mixAttInfreqPrac","","","img/blue_2bandit_a2.png","70","img/blue_2bandit_a2.png","68","prac","","","4","","","","","","","","","","","","","","","","",""
"644.6999999880791","272509","SARL_v6","SARL_v6rm4gzjlb","63403b47287756c1978d2985","infreqPrac_resp","","","img/blue_2bandit_a.png","70","img/orange_2bandit_a.png","68","prac","","","4","","","","","","","","","","","","","","","","",""
"null","272664","SARL_v6","SARL_v6rm4gzjlb","63403b47287756c1978d2985","fixation","","","img/fixation.png","null","","","prac","","","","","","","","","","","","","","","","","","","",""
"469.5","273135","SARL_v6","SARL_v6rm4gzjlb","63403b47287756c1978d2985","mixAttFreqPrac","","","img/orange_2bandit_a2.png","70","img/orange_2bandit_a2.png","70","prac","","","5","","","","","","","","","","","","","","","","",""
"469.5","273468","SARL_v6","SARL_v6rm4gzjlb","63403b47287756c1978d2985","freqPrac_resp","","","img/orange_2bandit_a.png","70","img/orange_2bandit_a.png","70","prac","","","5","","","","","","","","","","","","","","","","",""
"null","273620","SARL_v6","SARL_v6rm4gzjlb","63403b47287756c1978d2985","fixation","","","img/fixation.png","null","","","prac","","","","","","","","","","","","","","","","","","","",""
"null","275130","SARL_v6","SARL_v6rm4gzjlb","63403b47287756c1978d2985","mixRLPractice","","","img/black_2bandit_a2.png","null","img/black_2bandit_a2.png","","prac","","","5","","","","","","","","","","","","","","","","",""
"null","275892","SARL_v6","SARL_v6rm4gzjlb","63403b47287756c1978d2985","feedback","","","<div font size = 80> TOO SLOW  </div>","null","","na","prac","","","6","-14","10","-14","","","","","","","","","","","","","",""
"null","276045","SARL_v6","SARL_v6rm4gzjlb","63403b47287756c1978d2985","fixation","","","img/fixation.png","null","","","prac","","","","","","","","","","","","","","","","","","","",""
"426.2000000178814","276473","SARL_v6","SARL_v6rm4gzjlb","63403b47287756c1978d2985","mixAttFreqPrac","","","img/orange_2bandit_a2.png","70","img/orange_2bandit_a2.png","70","prac","","","7","","","","","","","","","","","","","","","","",""
"426.2000000178814","276849","SARL_v6","SARL_v6rm4gzjlb","63403b47287756c1978d2985","freqPrac_resp","","","img/orange_2bandit_a.png","70","img/orange_2bandit_a.png","70","prac","","","7","","","","","","","","","","","","","","","","",""
"131","277008","SARL_v6","SARL_v6rm4gzjlb","63403b47287756c1978d2985","fixation","","","img/fixation.png","70","","","prac","","","","","","","","","","","","","","","","","","","",""
"390.59999999403954","277401","SARL_v6","SARL_v6rm4gzjlb","63403b47287756c1978d2985","mixAttInfreqPrac","","","img/blue_2bandit_a2.png","70","img/blue_2bandit_a2.png","68","prac","","","8","","","","","","","","","","","","","","","","",""
"390.59999999403954","277812","SARL_v6","SARL_v6rm4gzjlb","63403b47287756c1978d2985","infreqPrac_resp","","","img/blue_2bandit_a.png","70","img/orange_2bandit_a.png","68","prac","","","8","","","","","","","","","","","","","","","","",""
"91","277971","SARL_v6","SARL_v6rm4gzjlb","63403b47287756c1978d2985","fixation","","","img/fixation.png","70","","","prac","","","","","","","","","","","","","","","","","","","",""
"137.19999998807907","278111","SARL_v6","SARL_v6rm4gzjlb","63403b47287756c1978d2985","mixAttFreqPrac","","","img/orange_2bandit_a2.png","70","img/orange_2bandit_a2.png","70","prac","","","9","","","","","","","","","","","","","","","","",""
"137.19999998807907","278781","SARL_v6","SARL_v6rm4gzjlb","63403b47287756c1978d2985","freqPrac_resp","","","img/orange_2bandit_a.png","70","img/orange_2bandit_a.png","70","prac","","","9","","","","","","","","","","","","","","","","",""
"50.30000001192093","278933","SARL_v6","SARL_v6rm4gzjlb","63403b47287756c1978d2985","fixation","","","img/fixation.png","70","","","prac","","","","","","","","","","","","","","","","","","","",""
"271.09999999403954","279206","SARL_v6","SARL_v6rm4gzjlb","63403b47287756c1978d2985","mixAttFreqPrac","","","img/orange_2bandit_a2.png","68","img/orange_2bandit_a2.png","70","prac","","","10","","","","","","","","","","","","","","","","",""
"271.09999999403954","279743","SARL_v6","SARL_v6rm4gzjlb","63403b47287756c1978d2985","freqPrac_resp","","","img/orange_2bandit_a.png","68","img/orange_2bandit_a.png","70","prac","","","10","","","","","","","","","","","","","","","","",""
"146.2000000178814","279897","SARL_v6","SARL_v6rm4gzjlb","63403b47287756c1978d2985","fixation","","","img/fixation.png","68","","","prac","","","","","","","","","","","","","","","","","","","",""
"378.09999999403954","280277","SARL_v6","SARL_v6rm4gzjlb","63403b47287756c1978d2985","mixAttInfreqPrac","","","img/blue_2bandit_a2.png","68","img/blue_2bandit_a2.png","68","prac","","","11","","","","","","","","","","","","","","","","",""
"378.09999999403954","280704","SARL_v6","SARL_v6rm4gzjlb","63403b47287756c1978d2985","infreqPrac_resp","","","img/blue_2bandit_a.png","68","img/orange_2bandit_a.png","68","prac","","","11","","","","","","","","","","","","","","","","",""
"null","280857","SARL_v6","SARL_v6rm4gzjlb","63403b47287756c1978d2985","fixation","","","img/fixation.png","null","","","prac","","","","","","","","","","","","","","","","","","","",""
"null","282364","SARL_v6","SARL_v6rm4gzjlb","63403b47287756c1978d2985","mixRLPractice","","","img/black_2bandit_a2.png","null","img/black_2bandit_a2.png","","prac","","","11","","","","","","","","","","","","","","","","",""
"null","283123","SARL_v6","SARL_v6rm4gzjlb","63403b47287756c1978d2985","feedback","","","<div font size = 80> TOO SLOW  </div>","null","","na","prac","","","12","5","-5","5","","","","","","","","","","","","","",""
"null","283279","SARL_v6","SARL_v6rm4gzjlb","63403b47287756c1978d2985","fixation","","","img/fixation.png","null","","","prac","","","","","","","","","","","","","","","","","","","",""
"11498.799999982119","294780","SARL_v6","SARL_v6rm4gzjlb","63403b47287756c1978d2985","","","","","","","","prac","","","","","","","","","","","","","","","","","","","",""
"null","295590","SARL_v6","SARL_v6rm4gzjlb","63403b47287756c1978d2985","freq","","","img/orange_2bandit_a2.png","null","","70","test","0","","1","","","","square","circle","1","1","1","0","","","","","","","",""
"null","295745","SARL_v6","SARL_v6rm4gzjlb","63403b47287756c1978d2985","fixation","","","img/fixation.png","null","","","test","","","","","","","","","","","","","","","","","","","",""
"356","296102","SARL_v6","SARL_v6rm4gzjlb","63403b47287756c1978d2985","freq","","","img/orange_2bandit_a2.png","70","","70","test","1","","2","","","","square","circle","2","2","1","0.5","","","","","","","",""
"null","296549","SARL_v6","SARL_v6rm4gzjlb","63403b47287756c1978d2985","freq_resp","","","img/orange_2bandit_a.png","70","img/orange_2bandit_a.png","70","test","","","","","","","","","","","1","","","","","","","","",""
"null","296702","SARL_v6","SARL_v6rm4gzjlb","63403b47287756c1978d2985","fixation","","","img/fixation.png","null","","","test","","","","","","","","","","","","","","","","","","","",""
"63","296767","SARL_v6","SARL_v6rm4gzjlb","63403b47287756c1978d2985","infreq","","","img/blue_2bandit_a2.png","70","","68","test","0","","3","","","","square","circle","3","3","1","0.3333333333333333","","","","","","","",""
"null","297506","SARL_v6","SARL_v6rm4gzjlb","63403b47287756c1978d2985","infreq_resp","","","img/blue_2bandit_a.png","70","img/blue_2bandit_a.png","68","test","","","","","","","","","","","1","","","","","","","","",""
"null","297672","SARL_v6","SARL_v6rm4gzjlb","63403b47287756c1978d2985","fixation","","","img/fixation.png","null","","","test","","","","","","","","","","","","","","","","","","","",""
"184.30000001192093","297858","SARL_v6","SARL_v6rm4gzjlb","63403b47287756c1978d2985","freq","","","img/orange_2bandit_a2.png","68","","70","test","0","","4","","","","square","circle","4","4","1","0.25","","","","","","","",""
"null","298476","SARL_v6","SARL_v6rm4gzjlb","63403b47287756c1978d2985","freq_resp","","","img/orange_2bandit_a.png","68","img/orange_2bandit_a.png","70","test","","","","","","","","","","","1","","","","","","","","",""
"null","298636","SARL_v6","SARL_v6rm4gzjlb","63403b47287756c1978d2985","fixation","","","img/fixation.png","null","","","test","","","","","","","","","","","","","","","","","","","",""
"356","298994","SARL_v6","SARL_v6rm4gzjlb","63403b47287756c1978d2985","freq","","","img/orange_2bandit_a2.png","70","","70","test","1","","5","","","","square","circle","5","5","1","0.4","","","","","","","",""
"null","299445","SARL_v6","SARL_v6rm4gzjlb","63403b47287756c1978d2985","freq_resp","","","img/orange_2bandit_a.png","70","img/orange_2bandit_a.png","70","test","","","","","","","","","","","1","","","","","","","","",""
"null","299598","SARL_v6","SARL_v6rm4gzjlb","63403b47287756c1978d2985","fixation","","","img/fixation.png","null","","","test","","","","","","","","","","","","","","","","","","","",""
"108","299708","SARL_v6","SARL_v6rm4gzjlb","63403b47287756c1978d2985","freq","","","img/orange_2bandit_a2.png","68","","70","test","0","","6","","","","square","circle","6","6","1","0.3333333333333333","","","","","","","",""
"null","300411","SARL_v6","SARL_v6rm4gzjlb","63403b47287756c1978d2985","freq_resp","","","img/orange_2bandit_a.png","68","img/orange_2bandit_a.png","70","test","","","","","","","","","","","1","","","","","","","","",""
"null","300566","SARL_v6","SARL_v6rm4gzjlb","63403b47287756c1978d2985","fixation","","","img/fixation.png","null","","","test","","","","","","","","","","","","","","","","","","","",""
"192","300760","SARL_v6","SARL_v6rm4gzjlb","63403b47287756c1978d2985","freq","","","img/orange_2bandit_a2.png","70","","70","test","1","","7","","","","square","circle","7","7","1","0.42857142857142855","","","","","","","",""
"null","301371","SARL_v6","SARL_v6rm4gzjlb","63403b47287756c1978d2985","freq_resp","","","img/orange_2bandit_a.png","70","img/orange_2bandit_a.png","70","test","","","","","","","","","","","1","","","","","","","","",""
"null","301523","SARL_v6","SARL_v6rm4gzjlb","63403b47287756c1978d2985","fixation","","","img/fixation.png","null","","","test","","","","","","","","","","","","","","","","","","","",""
"65.59999999403954","301591","SARL_v6","SARL_v6rm4gzjlb","63403b47287756c1978d2985","freq","","","img/orange_2bandit_a2.png","70","","70","test","1","","8","","","","square","circle","8","8","1","0.5","","","","","","","",""
"null","302336","SARL_v6","SARL_v6rm4gzjlb","63403b47287756c1978d2985","freq_resp","","","img/orange_2bandit_a.png","70","img/orange_2bandit_a.png","70","test","","","","","","","","","","","1","","","","","","","","",""
"null","302492","SARL_v6","SARL_v6rm4gzjlb","63403b47287756c1978d2985","fixation","","","img/fixation.png","null","","","test","","","","","","","","","","","","","","","","","","","",""
"284.19999998807907","302777","SARL_v6","SARL_v6rm4gzjlb","63403b47287756c1978d2985","freq","","","img/orange_2bandit_a2.png","68","","70","test","0","","9","","","","square","circle","9","9","1","0.4444444444444444","","","","","","","",""
"null","303295","SARL_v6","SARL_v6rm4gzjlb","63403b47287756c1978d2985","freq_resp","","","img/orange_2bandit_a.png","68","img/orange_2bandit_a.png","70","test","","","","","","","","","","","1","","","","","","","","",""
"null","303448","SARL_v6","SARL_v6rm4gzjlb","63403b47287756c1978d2985","fixation","","","img/fixation.png","null","","","test","","","","","","","","","","","","","","","","","","","",""
"138.7999999821186","303589","SARL_v6","SARL_v6rm4gzjlb","63403b47287756c1978d2985","infreq","","","img/blue_2bandit_a2.png","68","","68","test","1","","10","","","","square","circle","10","10","1","0.5","","","","","","","",""
"null","304258","SARL_v6","SARL_v6rm4gzjlb","63403b47287756c1978d2985","infreq_resp","","","img/blue_2bandit_a.png","68","img/blue_2bandit_a.png","68","test","","","","","","","","","","","1","","","","","","","","",""
"null","304411","SARL_v6","SARL_v6rm4gzjlb","63403b47287756c1978d2985","fixation","","","img/fixation.png","null","","","test","","","","","","","","","","","","","","","","","","","",""
"225.90000000596046","304639","SARL_v6","SARL_v6rm4gzjlb","63403b47287756c1978d2985","freq","","","img/orange_2bandit_a2.png","70","","70","test","1","","11","","","","square","circle","11","11","1","0.5454545454545454","","","","","","","",""
"null","305218","SARL_v6","SARL_v6rm4gzjlb","63403b47287756c1978d2985","freq_resp","","","img/orange_2bandit_a.png","70","img/orange_2bandit_a.png","70","test","","","","","","","","","","","1","","","","","","","","",""
"null","305374","SARL_v6","SARL_v6rm4gzjlb","63403b47287756c1978d2985","fixation","","","img/fixation.png","null","","","test","","","","","","","","","","","","","","","","","","","",""
"150.69999998807907","305526","SARL_v6","SARL_v6rm4gzjlb","63403b47287756c1978d2985","freq","","","img/orange_2bandit_a2.png","70","","70","test","1","","12","","","","square","circle","12","12","1","0.5833333333333334","","","","","","","",""
"null","306180","SARL_v6","SARL_v6rm4gzjlb","63403b47287756c1978d2985","freq_resp","","","img/orange_2bandit_a.png","70","img/orange_2bandit_a.png","70","test","","","","","","","","","","","1","","","","","","","","",""
"null","306333","SARL_v6","SARL_v6rm4gzjlb","63403b47287756c1978d2985","fixation","","","img/fixation.png","null","","","test","","","","","","","","","","","","","","","","","","","",""
"235.7000000178814","306571","SARL_v6","SARL_v6rm4gzjlb","63403b47287756c1978d2985","freq","","","img/orange_2bandit_a2.png","68","","70","test","0","","13","","","","square","circle","13","13","1","0.5384615384615384","","","","","","","",""
"null","307152","SARL_v6","SARL_v6rm4gzjlb","63403b47287756c1978d2985","freq_resp","","","img/orange_2bandit_a.png","68","img/orange_2bandit_a.png","70","test","","","","","","","","","","","1","","","","","","","","",""
"null","307308","SARL_v6","SARL_v6rm4gzjlb","63403b47287756c1978d2985","fixation","","","img/fixation.png","null","","","test","","","","","","","","","","","","","","","","","","","",""
"257.59999999403954","307567","SARL_v6","SARL_v6rm4gzjlb","63403b47287756c1978d2985","infreq","","","img/blue_2bandit_a2.png","68","","68","test","1","","14","","","","square","circle","14","14","1","0.5714285714285714","","","","","","","",""
"null","308112","SARL_v6","SARL_v6rm4gzjlb","63403b47287756c1978d2985","infreq_resp","","","img/blue_2bandit_a.png","68","img/blue_2bandit_a.png","68","test","","","","","","","","","","","1","","","","","","","","",""
"null","308264","SARL_v6","SARL_v6rm4gzjlb","63403b47287756c1978d2985","fixation","","","img/fixation.png","null","","","test","","","","","","","","","","","","","","","","","","","",""
"346.80000001192093","308612","SARL_v6","SARL_v6rm4gzjlb","63403b47287756c1978d2985","freq","","","img/orange_2bandit_a2.png","68","","70","test","0","","15","","","","square","circle","15","15","1","0.5333333333333333","","","","","","","",""
"null","309068","SARL_v6","SARL_v6rm4gzjlb","63403b47287756c1978d2985","freq_resp","","","img/orange_2bandit_a.png","68","img/orange_2bandit_a.png","70","test","","","","","","","","","","","1","","","","","","","","",""
"null","309222","SARL_v6","SARL_v6rm4gzjlb","63403b47287756c1978d2985","fixation","","","img/fixation.png","null","","","test","","","","","","","","","","","","","","","","","","","",""
"22.599999994039536","309246","SARL_v6","SARL_v6rm4gzjlb","63403b47287756c1978d2985","freq","","","img/orange_2bandit_a2.png","68","","70","test","0","","16","","","","square","circle","16","16","1","0.5","","","","","","","",""
"null","310026","SARL_v6","SARL_v6rm4gzjlb","63403b47287756c1978d2985","freq_resp","","","img/orange_2bandit_a.png","68","img/orange_2bandit_a.png","70","test","","","","","","","","","","","1","","","","","","","","",""
"null","310179","SARL_v6","SARL_v6rm4gzjlb","63403b47287756c1978d2985","fixation","","","img/fixation.png","null","","","test","","","","","","","","","","","","","","","","","","","",""
"126.09999999403954","310307","SARL_v6","SARL_v6rm4gzjlb","63403b47287756c1978d2985","freq","","","img/orange_2bandit_a2.png","70","","70","test","1","","17","","","","square","circle","17","17","1","0.5294117647058824","","","","","","","",""
"null","310983","SARL_v6","SARL_v6rm4gzjlb","63403b47287756c1978d2985","freq_resp","","","img/orange_2bandit_a.png","70","img/orange_2bandit_a.png","70","test","","","","","","","","","","","1","","","","","","","","",""
"null","311138","SARL_v6","SARL_v6rm4gzjlb","63403b47287756c1978d2985","fixation","","","img/fixation.png","null","","","test","","","","","","","","","","","","","","","","","","","",""
"290.60000002384186","311430","SARL_v6","SARL_v6rm4gzjlb","63403b47287756c1978d2985","freq","","","img/orange_2bandit_a2.png","70","","70","test","1","","18","","","","square","circle","18","18","1","0.5555555555555556","","","","","","","",""
"null","311943","SARL_v6","SARL_v6rm4gzjlb","63403b47287756c1978d2985","freq_resp","","","img/orange_2bandit_a.png","70","img/orange_2bandit_a.png","70","test","","","","","","","","","","","1","","","","","","","","",""
"null","312097","SARL_v6","SARL_v6rm4gzjlb","63403b47287756c1978d2985","fixation","","","img/fixation.png","null","","","test","","","","","","","","","","","","","","","","","","","",""
"117.89999997615814","312217","SARL_v6","SARL_v6rm4gzjlb","63403b47287756c1978d2985","freq","","","img/orange_2bandit_a2.png","70","","70","test","1","","19","","","","square","circle","19","19","1","0.5789473684210527","","","","","","","",""
"null","312901","SARL_v6","SARL_v6rm4gzjlb","63403b47287756c1978d2985","freq_resp","","","img/orange_2bandit_a.png","70","img/orange_2bandit_a.png","70","test","","","","","","","","","","","1","","","","","","","","",""
"null","313060","SARL_v6","SARL_v6rm4gzjlb","63403b47287756c1978d2985","fixation","","","img/fixation.png","null","","","test","","","","","","","","","","","","","","","","","","","",""
"61.29999998211861","313123","SARL_v6","SARL_v6rm4gzjlb","63403b47287756c1978d2985","freq","","","img/orange_2bandit_a2.png","68","","70","test","0","","20","","","","square","circle","20","20","1","0.55","","","","","","","",""
"null","313865","SARL_v6","SARL_v6rm4gzjlb","63403b47287756c1978d2985","freq_resp","","","img/orange_2bandit_a.png","68","img/orange_2bandit_a.png","70","test","","","","","","","","","","","1","","","","","","","","",""
"null","314019","SARL_v6","SARL_v6rm4gzjlb","63403b47287756c1978d2985","fixation","","","img/fixation.png","null","","","test","","","","","","","","","","","","","","","","","","","",""
"13.700000017881393","314035","SARL_v6","SARL_v6rm4gzjlb","63403b47287756c1978d2985","freq","","","img/orange_2bandit_a2.png","68","","70","test","0","","21","","","","square","circle","21","21","1","0.5238095238095238","","","","","","","",""
"null","314823","SARL_v6","SARL_v6rm4gzjlb","63403b47287756c1978d2985","freq_resp","","","img/orange_2bandit_a.png","68","img/orange_2bandit_a.png","70","test","","","","","","","","","","","1","","","","","","","","",""
"null","314983","SARL_v6","SARL_v6rm4gzjlb","63403b47287756c1978d2985","fixation","","","img/fixation.png","null","","","test","","","","","","","","","","","","","","","","","","","",""
"158.90000000596046","315144","SARL_v6","SARL_v6rm4gzjlb","63403b47287756c1978d2985","freq","","","img/orange_2bandit_a2.png","70","","70","test","1","","22","","","","square","circle","22","22","1","0.5454545454545454","","","","","","","",""
"null","315788","SARL_v6","SARL_v6rm4gzjlb","63403b47287756c1978d2985","freq_resp","","","img/orange_2bandit_a.png","70","img/orange_2bandit_a.png","70","test","","","","","","","","","","","1","","","","","","","","",""
"null","315940","SARL_v6","SARL_v6rm4gzjlb","63403b47287756c1978d2985","fixation","","","img/fixation.png","null","","","test","","","","","","","","","","","","","","","","","","","",""
"164.80000001192093","316107","SARL_v6","SARL_v6rm4gzjlb","63403b47287756c1978d2985","freq","","","img/orange_2bandit_a2.png","70","","70","test","1","","23","","","","square","circle","23","23","1","0.5652173913043478","","","","","","","",""
"null","316745","SARL_v6","SARL_v6rm4gzjlb","63403b47287756c1978d2985","freq_resp","","","img/orange_2bandit_a.png","70","img/orange_2bandit_a.png","70","test","","","","","","","","","","","1","","","","","","","","",""
"null","316898","SARL_v6","SARL_v6rm4gzjlb","63403b47287756c1978d2985","fixation","","","img/fixation.png","null","","","test","","","","","","","","","","","","","","","","","","","",""
"null","318411","SARL_v6","SARL_v6rm4gzjlb","63403b47287756c1978d2985","rl","","","img/black_2bandit_a2.png","null","","0","test","","","24","","","0","square","circle","","0","1","","null","-3","-3","-3","-3","too slow","1","0"
"null","319167","SARL_v6","SARL_v6rm4gzjlb","63403b47287756c1978d2985","feedback","","","<div font size = 80> TOO SLOW  </div>","null","","na","test","","","NaN","","","","","","","","1","","null","","","","","","1",""
"136.69999998807907","319306","SARL_v6","SARL_v6rm4gzjlb","63403b47287756c1978d2985","freq","","","img/orange_2bandit_a2.png","68","","70","test","0","","25","","","","square","circle","24","1","2","0.5416666666666666","","","","","","","",""
"null","319986","SARL_v6","SARL_v6rm4gzjlb","63403b47287756c1978d2985","freq_resp","","","img/orange_2bandit_a.png","68","img/orange_2bandit_a.png","70","test","","","","","","","","","","","2","","","","","","","","",""
"null","320141","SARL_v6","SARL_v6rm4gzjlb","63403b47287756c1978d2985","fixation","","","img/fixation.png","null","","","test","","","","","","","","","","","","","","","","","","","",""
"231.5","320375","SARL_v6","SARL_v6rm4gzjlb","63403b47287756c1978d2985","freq","","","img/orange_2bandit_a2.png","70","","70","test","1","","26","","","","square","circle","25","2","2","0.56","","","","","","","",""
"null","320945","SARL_v6","SARL_v6rm4gzjlb","63403b47287756c1978d2985","freq_resp","","","img/orange_2bandit_a.png","70","img/orange_2bandit_a.png","70","test","","","","","","","","","","","2","","","","","","","","",""
"null","321098","SARL_v6","SARL_v6rm4gzjlb","63403b47287756c1978d2985","fixation","","","img/fixation.png","null","","","test","","","","","","","","","","","","","","","","","","","",""
"214.60000002384186","321315","SARL_v6","SARL_v6rm4gzjlb","63403b47287756c1978d2985","infreq","","","img/blue_2bandit_a2.png","70","","68","test","0","","27","","","","square","circle","26","3","2","0.5384615384615384","","","","","","","",""
"null","321912","SARL_v6","SARL_v6rm4gzjlb","63403b47287756c1978d2985","infreq_resp","","","img/blue_2bandit_a.png","70","img/blue_2bandit_a.png","68","test","","","","","","","","","","","2","","","","","","","","",""
"null","322065","SARL_v6","SARL_v6rm4gzjlb","63403b47287756c1978d2985","fixation","","","img/fixation.png","null","","","test","","","","","","","","","","","","","","","","","","","",""
"19.299999982118607","322086","SARL_v6","SARL_v6rm4gzjlb","63403b47287756c1978d2985","freq","","","img/orange_2bandit_a2.png","70","","70","test","1","","28","","","","square","circle","27","4","2","0.5555555555555556","","","","","","","",""
"null","322875","SARL_v6","SARL_v6rm4gzjlb","63403b47287756c1978d2985","freq_resp","","","img/orange_2bandit_a.png","70","img/orange_2bandit_a.png","70","test","","","","","","","","","","","2","","","","","","","","",""
"null","323027","SARL_v6","SARL_v6rm4gzjlb","63403b47287756c1978d2985","fixation","","","img/fixation.png","null","","","test","","","","","","","","","","","","","","","","","","","",""
"118","323148","SARL_v6","SARL_v6rm4gzjlb","63403b47287756c1978d2985","freq","","","img/orange_2bandit_a2.png","70","","70","test","1","","29","","","","square","circle","28","5","2","0.5714285714285714","","","","","","","",""
"null","323833","SARL_v6","SARL_v6rm4gzjlb","63403b47287756c1978d2985","freq_resp","","","img/orange_2bandit_a.png","70","img/orange_2bandit_a.png","70","test","","","","","","","","","","","2","","","","","","","","",""
"null","323986","SARL_v6","SARL_v6rm4gzjlb","63403b47287756c1978d2985","fixation","","","img/fixation.png","null","","","test","","","","","","","","","","","","","","","","","","","",""
"217.40000000596046","324206","SARL_v6","SARL_v6rm4gzjlb","63403b47287756c1978d2985","freq","","","img/orange_2bandit_a2.png","68","","70","test","0","","30","","","","square","circle","29","6","2","0.5517241379310345","","","","","","","",""
"null","324804","SARL_v6","SARL_v6rm4gzjlb","63403b47287756c1978d2985","freq_resp","","","img/orange_2bandit_a.png","68","img/orange_2bandit_a.png","70","test","","","","","","","","","","","2","","","","","","","","",""
"null","324959","SARL_v6","SARL_v6rm4gzjlb","63403b47287756c1978d2985","fixation","","","img/fixation.png","null","","","test","","","","","","","","","","","","","","","","","","","",""
"34.30000001192093","324995","SARL_v6","SARL_v6rm4gzjlb","63403b47287756c1978d2985","freq","","","img/orange_2bandit_a2.png","68","","70","test","0","","31","","","","square","circle","30","7","2","0.5333333333333333","","","","","","","",""
"null","325769","SARL_v6","SARL_v6rm4gzjlb","63403b47287756c1978d2985","freq_resp","","","img/orange_2bandit_a.png","68","img/orange_2bandit_a.png","70","test","","","","","","","","","","","2","","","","","","","","",""
"null","325925","SARL_v6","SARL_v6rm4gzjlb","63403b47287756c1978d2985","fixation","","","img/fixation.png","null","","","test","","","","","","","","","","","","","","","","","","","",""
"245.7000000178814","326173","SARL_v6","SARL_v6rm4gzjlb","63403b47287756c1978d2985","freq","","","img/orange_2bandit_a2.png","70","","70","test","1","","32","","","","square","circle","31","8","2","0.5483870967741935","","","","","","","",""
"null","326729","SARL_v6","SARL_v6rm4gzjlb","63403b47287756c1978d2985","freq_resp","","","img/orange_2bandit_a.png","70","img/orange_2bandit_a.png","70","test","","","","","","","","","","","2","","","","","","","","",""
"null","326888","SARL_v6","SARL_v6rm4gzjlb","63403b47287756c1978d2985","fixation","","","img/fixation.png","null","","","test","","","","","","","","","","","","","","","","","","","",""
"388.80000001192093","327278","SARL_v6","SARL_v6rm4gzjlb","63403b47287756c1978d2985","freq","","","img/orange_2bandit_a2.png","70","","70","test","1","","33","","","","square","circle","32","9","2","0.5625","","","","","","","",""
"null","327692","SARL_v6","SARL_v6rm4gzjlb","63403b47287756c1978d2985","freq_resp","","","img/orange_2bandit_a.png","70","img/orange_2bandit_a.png","70","test","","","","","","","","","","","2","","","","","","","","",""
"null","327848","SARL_v6","SARL_v6rm4gzjlb","63403b47287756c1978d2985","fixation","","","img/fixation.png","null","","","test","","","","","","","","","","","","","","","","","","","",""
"103.5","327953","SARL_v6","SARL_v6rm4gzjlb","63403b47287756c1978d2985","freq","","","img/orange_2bandit_a2.png","70","","70","test","1","","34","","","","square","circle","33","10","2","0.5757575757575758","","","","","","","",""
"null","328652","SARL_v6","SARL_v6rm4gzjlb","63403b47287756c1978d2985","freq_resp","","","img/orange_2bandit_a.png","70","img/orange_2bandit_a.png","70","test","","","","","","","","","","","2","","","","","","","","",""
"null","328805","SARL_v6","SARL_v6rm4gzjlb","63403b47287756c1978d2985","fixation","","","img/fixation.png","null","","","test","","","","","","","","","","","","","","","","","","","",""
"264.7000000178814","329072","SARL_v6","SARL_v6rm4gzjlb","63403b47287756c1978d2985","freq","","","img/orange_2bandit_a2.png","68","","70","test","0","","35","","","","square","circle","34","11","2","0.5588235294117647","","","","","","","",""
"null","329619","SARL_v6","SARL_v6rm4gzjlb","63403b47287756c1978d2985","freq_resp","","","img/orange_2bandit_a.png","68","img/orange_2bandit_a.png","70","test","","","","","","","","","","","2","","","","","","","","",""
"null","329771","SARL_v6","SARL_v6rm4gzjlb","63403b47287756c1978d2985","fixation","","","img/fixation.png","null","","","test","","","","","","","","","","","","","","","","","","","",""
"255.5","330028","SARL_v6","SARL_v6rm4gzjlb","63403b47287756c1978d2985","freq","","","img/orange_2bandit_a2.png","68","","70","test","0","","36","","","","square","circle","35","12","2","0.5428571428571428","","","","","","","",""
"null","330577","SARL_v6","SARL_v6rm4gzjlb","63403b47287756c1978d2985","freq_resp","","","img/orange_2bandit_a.png","68","img/orange_2bandit_a.png","70","test","","","","","","","","","","","2","","","","","","","","",""
"null","330731","SARL_v6","SARL_v6rm4gzjlb","63403b47287756c1978d2985","fixation","","","img/fixation.png","null","","","test","","","","","","","","","","","","","","","","","","","",""
"15.399999976158142","330748","SARL_v6","SARL_v6rm4gzjlb","63403b47287756c1978d2985","freq","","","img/orange_2bandit_a2.png","68","","70","test","0","","37","","","","square","circle","36","13","2","0.5277777777777778","","","","","","","",""
"null","331536","SARL_v6","SARL_v6rm4gzjlb","63403b47287756c1978d2985","freq_resp","","","img/orange_2bandit_a.png","68","img/orange_2bandit_a.png","70","test","","","","","","","","","","","2","","","","","","","","",""
"null","331689","SARL_v6","SARL_v6rm4gzjlb","63403b47287756c1978d2985","fixation","","","img/fixation.png","null","","","test","","","","","","","","","","","","","","","","","","","",""
"155.40000000596046","331846","SARL_v6","SARL_v6rm4gzjlb","63403b47287756c1978d2985","freq","","","img/orange_2bandit_a2.png","68","","70","test","0","","38","","","","square","circle","37","14","2","0.5135135135135135","","","","","","","",""
"null","332498","SARL_v6","SARL_v6rm4gzjlb","63403b47287756c1978d2985","freq_resp","","","img/orange_2bandit_a.png","68","img/orange_2bandit_a.png","70","test","","","","","","","","","","","2","","","","","","","","",""
"null","332652","SARL_v6","SARL_v6rm4gzjlb","63403b47287756c1978d2985","fixation","","","img/fixation.png","null","","","test","","","","","","","","","","","","","","","","","","","",""
"337.40000000596046","332992","SARL_v6","SARL_v6rm4gzjlb","63403b47287756c1978d2985","freq","","","img/orange_2bandit_a2.png","68","","70","test","0","","39","","","","square","circle","38","15","2","0.5","","","","","","","",""
"null","333457","SARL_v6","SARL_v6rm4gzjlb","63403b47287756c1978d2985","freq_resp","","","img/orange_2bandit_a.png","68","img/orange_2bandit_a.png","70","test","","","","","","","","","","","2","","","","","","","","",""
"null","333609","SARL_v6","SARL_v6rm4gzjlb","63403b47287756c1978d2985","fixation","","","img/fixation.png","null","","","test","","","","","","","","","","","","","","","","","","","",""
"199.2000000178814","333810","SARL_v6","SARL_v6rm4gzjlb","63403b47287756c1978d2985","freq","","","img/orange_2bandit_a2.png","68","","70","test","0","","40","","","","square","circle","39","16","2","0.48717948717948717","","","","","","","",""
"null","334417","SARL_v6","SARL_v6rm4gzjlb","63403b47287756c1978d2985","freq_resp","","","img/orange_2bandit_a.png","68","img/orange_2bandit_a.png","70","test","","","","","","","","","","","2","","","","","","","","",""
"null","334570","SARL_v6","SARL_v6rm4gzjlb","63403b47287756c1978d2985","fixation","","","img/fixation.png","null","","","test","","","","","","","","","","","","","","","","","","","",""
"2.0999999940395355","334575","SARL_v6","SARL_v6rm4gzjlb","63403b47287756c1978d2985","freq","","","img/orange_2bandit_a2.png","70","","70","test","1","","41","","","","square","circle","40","17","2","0.5","","","","","","","",""
"null","335374","SARL_v6","SARL_v6rm4gzjlb","63403b47287756c1978d2985","freq_resp","","","img/orange_2bandit_a.png","70","img/orange_2bandit_a.png","70","test","","","","","","","","","","","2","","","","","","","","",""
"null","335527","SARL_v6","SARL_v6rm4gzjlb","63403b47287756c1978d2985","fixation","","","img/fixation.png","null","","","test","","","","","","","","","","","","","","","","","","","",""
"66.7999999821186","335596","SARL_v6","SARL_v6rm4gzjlb","63403b47287756c1978d2985","freq","","","img/orange_2bandit_a2.png","70","","70","test","1","","42","","","","square","circle","41","18","2","0.5121951219512195","","","","","","","",""
"null","336346","SARL_v6","SARL_v6rm4gzjlb","63403b47287756c1978d2985","freq_resp","","","img/orange_2bandit_a.png","70","img/orange_2bandit_a.png","70","test","","","","","","","","","","","2","","","","","","","","",""
"null","336498","SARL_v6","SARL_v6rm4gzjlb","63403b47287756c1978d2985","fixation","","","img/fixation.png","null","","","test","","","","","","","","","","","","","","","","","","","",""
"255.10000002384186","336755","SARL_v6","SARL_v6rm4gzjlb","63403b47287756c1978d2985","infreq","","","img/blue_2bandit_a2.png","70","","68","test","0","","43","","","","square","circle","42","19","2","0.5","","","","","","","",""
"null","337302","SARL_v6","SARL_v6rm4gzjlb","63403b47287756c1978d2985","infreq_resp","","","img/blue_2bandit_a.png","70","img/blue_2bandit_a.png","68","test","","","","","","","","","","","2","","","","","","","","",""
"null","337465","SARL_v6","SARL_v6rm4gzjlb","63403b47287756c1978d2985","fixation","","","img/fixation.png","null","","","test","","","","","","","","","","","","","","","","","","","",""
"null","338280","SARL_v6","SARL_v6rm4gzjlb","63403b47287756c1978d2985","freq","","","img/orange_2bandit_a2.png","null","","70","test","0","","44","","","","square","circle","43","20","2","0.4883720930232558","","","","","","","",""
"null","338432","SARL_v6","SARL_v6rm4gzjlb","63403b47287756c1978d2985","fixation","","","img/fixation.png","null","","","test","","","","","","","","","","","","","","","","","","","",""
"null","339946","SARL_v6","SARL_v6rm4gzjlb","63403b47287756c1978d2985","rl","","","img/black_2bandit_a2.png","null","","0","test","","","45","","","0","square","circle","","0","2","","null","-5","-8","-8","-5","too slow","2","1"
"null","340700","SARL_v6","SARL_v6rm4gzjlb","63403b47287756c1978d2985","feedback","","","<div font size = 80> TOO SLOW  </div>","null","","na","test","","","NaN","","","","","","","","2","","null","","","","","","2",""
"40.400000005960464","340743","SARL_v6","SARL_v6rm4gzjlb","63403b47287756c1978d2985","freq","","","img/orange_2bandit_a2.png","70","","70","test","1","","46","","","","square","circle","44","1","3","0.5","","","","","","","",""
"null","341514","SARL_v6","SARL_v6rm4gzjlb","63403b47287756c1978d2985","freq_resp","","","img/orange_2bandit_a.png","70","img/orange_2bandit_a.png","70","test","","","","","","","","","","","3","","","","","","","","",""
"null","341666","SARL_v6","SARL_v6rm4gzjlb","63403b47287756c1978d2985","fixation","","","img/fixation.png","null","","","test","","","","","","","","","","","","","","","","","","","",""
"216","341884","SARL_v6","SARL_v6rm4gzjlb","63403b47287756c1978d2985","freq","","","img/orange_2bandit_a2.png","70","","70","test","1","","47","","","","square","circle","45","2","3","0.5111111111111111","","","","","","","",""
"null","342474","SARL_v6","SARL_v6rm4gzjlb","63403b47287756c1978d2985","freq_resp","","","img/orange_2bandit_a.png","70","img/orange_2bandit_a.png","70","test","","","","","","","","","","","3","","","","","","","","",""
"null","342630","SARL_v6","SARL_v6rm4gzjlb","63403b47287756c1978d2985","fixation","","","img/fixation.png","null","","","test","","","","","","","","","","","","","","","","","","","",""
"5.899999976158142","342638","SARL_v6","SARL_v6rm4gzjlb","63403b47287756c1978d2985","freq","","","img/orange_2bandit_a2.png","70","","70","test","1","","48","","","","square","circle","46","3","3","0.5217391304347826","","","","","","","",""
"null","343435","SARL_v6","SARL_v6rm4gzjlb","63403b47287756c1978d2985","freq_resp","","","img/orange_2bandit_a.png","70","img/orange_2bandit_a.png","70","test","","","","","","","","","","","3","","","","","","","","",""
"null","343591","SARL_v6","SARL_v6rm4gzjlb","63403b47287756c1978d2985","fixation","","","img/fixation.png","null","","","test","","","","","","","","","","","","","","","","","","","",""
"198.80000001192093","343792","SARL_v6","SARL_v6rm4gzjlb","63403b47287756c1978d2985","infreq","","","img/blue_2bandit_a2.png","70","","68","test","0","","49","","","","square","circle","47","4","3","0.5106382978723404","","","","","","","",""
"null","344403","SARL_v6","SARL_v6rm4gzjlb","63403b47287756c1978d2985","infreq_resp","","","img/blue_2bandit_a.png","70","img/blue_2bandit_a.png","68","test","","","","","","","","","","","3","","","","","","","","",""
"null","344558","SARL_v6","SARL_v6rm4gzjlb","63403b47287756c1978d2985","fixation","","","img/fixation.png","null","","","test","","","","","","","","","","","","","","","","","","","",""
"135.69999998807907","344696","SARL_v6","SARL_v6rm4gzjlb","63403b47287756c1978d2985","freq","","","img/orange_2bandit_a2.png","70","","70","test","1","","50","","","","square","circle","48","5","3","0.5208333333333334","","","","","","","",""
"null","345374","SARL_v6","SARL_v6rm4gzjlb","63403b47287756c1978d2985","freq_resp","","","img/orange_2bandit_a.png","70","img/orange_2bandit_a.png","70","test","","","","","","","","","","","3","","","","","","","","",""
"null","345528","SARL_v6","SARL_v6rm4gzjlb","63403b47287756c1978d2985","fixation","","","img/fixation.png","null","","","test","","","","","","","","","","","","","","","","","","","",""
"95.80000001192093","345626","SARL_v6","SARL_v6rm4gzjlb","63403b47287756c1978d2985","freq","","","img/orange_2bandit_a2.png","70","","70","test","1","","51","","","","square","circle","49","6","3","0.5306122448979592","","","","","","","",""
"null","346332","SARL_v6","SARL_v6rm4gzjlb","63403b47287756c1978d2985","freq_resp","","","img/orange_2bandit_a.png","70","img/orange_2bandit_a.png","70","test","","","","","","","","","","","3","","","","","","","","",""
"null","346487","SARL_v6","SARL_v6rm4gzjlb","63403b47287756c1978d2985","fixation","","","img/fixation.png","null","","","test","","","","","","","","","","","","","","","","","","","",""
"127.5","346616","SARL_v6","SARL_v6rm4gzjlb","63403b47287756c1978d2985","freq","","","img/orange_2bandit_a2.png","70","","70","test","1","","52","","","","square","circle","50","7","3","0.54","","","","","","","",""
"null","347291","SARL_v6","SARL_v6rm4gzjlb","63403b47287756c1978d2985","freq_resp","","","img/orange_2bandit_a.png","70","img/orange_2bandit_a.png","70","test","","","","","","","","","","","3","","","","","","","","",""
"null","347448","SARL_v6","SARL_v6rm4gzjlb","63403b47287756c1978d2985","fixation","","","img/fixation.png","null","","","test","","","","","","","","","","","","","","","","","","","",""
"null","348256","SARL_v6","SARL_v6rm4gzjlb","63403b47287756c1978d2985","freq","","","img/orange_2bandit_a2.png","null","","70","test","0","","53","","","","square","circle","51","8","3","0.5294117647058824","","","","","","","",""
"null","348414","SARL_v6","SARL_v6rm4gzjlb","63403b47287756c1978d2985","fixation","","","img/fixation.png","null","","","test","","","","","","","","","","","","","","","","","","","",""
"174.09999999403954","348590","SARL_v6","SARL_v6rm4gzjlb","63403b47287756c1978d2985","freq","","","img/orange_2bandit_a2.png","70","","70","test","1","","54","","","","square","circle","52","9","3","0.5384615384615384","","","","","","","",""
"null","349219","SARL_v6","SARL_v6rm4gzjlb","63403b47287756c1978d2985","freq_resp","","","img/orange_2bandit_a.png","70","img/orange_2bandit_a.png","70","test","","","","","","","","","","","3","","","","","","","","",""
"null","349375","SARL_v6","SARL_v6rm4gzjlb","63403b47287756c1978d2985","fixation","","","img/fixation.png","null","","","test","","","","","","","","","","","","","","","","","","","",""
"null","350180","SARL_v6","SARL_v6rm4gzjlb","63403b47287756c1978d2985","freq","","","img/orange_2bandit_a2.png","null","","70","test","0","","55","","","","square","circle","53","10","3","0.5283018867924528","","","","","","","",""
"null","350335","SARL_v6","SARL_v6rm4gzjlb","63403b47287756c1978d2985","fixation","","","img/fixation.png","null","","","test","","","","","","","","","","","","","","","","","","","",""
"68.90000000596046","350406","SARL_v6","SARL_v6rm4gzjlb","63403b47287756c1978d2985","freq","","","img/orange_2bandit_a2.png","68","","70","test","0","","56","","","","square","circle","54","11","3","0.5185185185185185","","","","","","","",""
"null","351144","SARL_v6","SARL_v6rm4gzjlb","63403b47287756c1978d2985","freq_resp","","","img/orange_2bandit_a.png","68","img/orange_2bandit_a.png","70","test","","","","","","","","","","","3","","","","","","","","",""
"null","351300","SARL_v6","SARL_v6rm4gzjlb","63403b47287756c1978d2985","fixation","","","img/fixation.png","null","","","test","","","","","","","","","","","","","","","","","","","",""
"39.5","351342","SARL_v6","SARL_v6rm4gzjlb","63403b47287756c1978d2985","freq","","","img/orange_2bandit_a2.png","70","","70","test","1","","57","","","","square","circle","55","12","3","0.5272727272727272","","","","","","","",""
"null","352107","SARL_v6","SARL_v6rm4gzjlb","63403b47287756c1978d2985","freq_resp","","","img/orange_2bandit_a.png","70","img/orange_2bandit_a.png","70","test","","","","","","","","","","","3","","","","","","","","",""
"null","352261","SARL_v6","SARL_v6rm4gzjlb","63403b47287756c1978d2985","fixation","","","img/fixation.png","null","","","test","","","","","","","","","","","","","","","","","","","",""
"111","352374","SARL_v6","SARL_v6rm4gzjlb","63403b47287756c1978d2985","freq","","","img/orange_2bandit_a2.png","68","","70","test","0","","58","","","","square","circle","56","13","3","0.5178571428571429","","","","","","","",""
"null","353069","SARL_v6","SARL_v6rm4gzjlb","63403b47287756c1978d2985","freq_resp","","","img/orange_2bandit_a.png","68","img/orange_2bandit_a.png","70","test","","","","","","","","","","","3","","","","","","","","",""
"null","353224","SARL_v6","SARL_v6rm4gzjlb","63403b47287756c1978d2985","fixation","","","img/fixation.png","null","","","test","","","","","","","","","","","","","","","","","","","",""
"11.200000017881393","353237","SARL_v6","SARL_v6rm4gzjlb","63403b47287756c1978d2985","freq","","","img/orange_2bandit_a2.png","68","","70","test","0","","59","","","","square","circle","57","14","3","0.5087719298245614","","","","","","","",""
"null","354029","SARL_v6","SARL_v6rm4gzjlb","63403b47287756c1978d2985","freq_resp","","","img/orange_2bandit_a.png","68","img/orange_2bandit_a.png","70","test","","","","","","","","","","","3","","","","","","","","",""
"null","354183","SARL_v6","SARL_v6rm4gzjlb","63403b47287756c1978d2985","fixation","","","img/fixation.png","null","","","test","","","","","","","","","","","","","","","","","","","",""
"106.89999997615814","354292","SARL_v6","SARL_v6rm4gzjlb","63403b47287756c1978d2985","freq","","","img/orange_2bandit_a2.png","70","","70","test","1","","60","","","","square","circle","58","15","3","0.5172413793103449","","","","","","","",""
"null","354988","SARL_v6","SARL_v6rm4gzjlb","63403b47287756c1978d2985","freq_resp","","","img/orange_2bandit_a.png","70","img/orange_2bandit_a.png","70","test","","","","","","","","","","","3","","","","","","","","",""
"null","355143","SARL_v6","SARL_v6rm4gzjlb","63403b47287756c1978d2985","fixation","","","img/fixation.png","null","","","test","","","","","","","","","","","","","","","","","","","",""
"235.60000002384186","355381","SARL_v6","SARL_v6rm4gzjlb","63403b47287756c1978d2985","freq","","","img/orange_2bandit_a2.png","70","","70","test","1","","61","","","","square","circle","59","16","3","0.5254237288135594","","","","","","","",""
"null","355954","SARL_v6","SARL_v6rm4gzjlb","63403b47287756c1978d2985","freq_resp","","","img/orange_2bandit_a.png","70","img/orange_2bandit_a.png","70","test","","","","","","","","","","","3","","","","","","","","",""
"null","356108","SARL_v6","SARL_v6rm4gzjlb","63403b47287756c1978d2985","fixation","","","img/fixation.png","null","","","test","","","","","","","","","","","","","","","","","","","",""
"77.59999999403954","356188","SARL_v6","SARL_v6rm4gzjlb","63403b47287756c1978d2985","freq","","","img/orange_2bandit_a2.png","70","","70","test","1","","62","","","","square","circle","60","17","3","0.5333333333333333","","","","","","","",""
"null","356918","SARL_v6","SARL_v6rm4gzjlb","63403b47287756c1978d2985","freq_resp","","","img/orange_2bandit_a.png","70","img/orange_2bandit_a.png","70","test","","","","","","","","","","","3","","","","","","","","",""
"null","357072","SARL_v6","SARL_v6rm4gzjlb","63403b47287756c1978d2985","fixation","","","img/fixation.png","null","","","test","","","","","","","","","","","","","","","","","","","",""
"5.699999988079071","357080","SARL_v6","SARL_v6rm4gzjlb","63403b47287756c1978d2985","freq","","","img/orange_2bandit_a2.png","68","","70","test","0","","63","","","","square","circle","61","18","3","0.5245901639344263","","","","","","","",""
"null","357879","SARL_v6","SARL_v6rm4gzjlb","63403b47287756c1978d2985","freq_resp","","","img/orange_2bandit_a.png","68","img/orange_2bandit_a.png","70","test","","","","","","","","","","","3","","","","","","","","",""
"null","358034","SARL_v6","SARL_v6rm4gzjlb","63403b47287756c1978d2985","fixation","","","img/fixation.png","null","","","test","","","","","","","","","","","","","","","","","","","",""
"30.700000017881393","358067","SARL_v6","SARL_v6rm4gzjlb","63403b47287756c1978d2985","freq","","","img/orange_2bandit_a2.png","68","","70","test","0","","64","","","","square","circle","62","19","3","0.5161290322580645","","","","","","","",""
"null","358843","SARL_v6","SARL_v6rm4gzjlb","63403b47287756c1978d2985","freq_resp","","","img/orange_2bandit_a.png","68","img/orange_2bandit_a.png","70","test","","","","","","","","","","","3","","","","","","","","",""
"null","358998","SARL_v6","SARL_v6rm4gzjlb","63403b47287756c1978d2985","fixation","","","img/fixation.png","null","","","test","","","","","","","","","","","","","","","","","","","",""
"67.5","359068","SARL_v6","SARL_v6rm4gzjlb","63403b47287756c1978d2985","freq","","","img/orange_2bandit_a2.png","68","","70","test","0","","65","","","","square","circle","63","20","3","0.5079365079365079","","","","","","","",""
"null","359803","SARL_v6","SARL_v6rm4gzjlb","63403b47287756c1978d2985","freq_resp","","","img/orange_2bandit_a.png","68","img/orange_2bandit_a.png","70","test","","","","","","","","","","","3","","","","","","","","",""
"null","359958","SARL_v6","SARL_v6rm4gzjlb","63403b47287756c1978d2985","fixation","","","img/fixation.png","null","","","test","","","","","","","","","","","","","","","","","","","",""
"44.19999998807907","360006","SARL_v6","SARL_v6rm4gzjlb","63403b47287756c1978d2985","freq","","","img/orange_2bandit_a2.png","70","","70","test","1","","66","","","","square","circle","64","21","3","0.515625","","","","","","","",""
"null","360765","SARL_v6","SARL_v6rm4gzjlb","63403b47287756c1978d2985","freq_resp","","","img/orange_2bandit_a.png","70","img/orange_2bandit_a.png","70","test","","","","","","","","","","","3","","","","","","","","",""
"null","360920","SARL_v6","SARL_v6rm4gzjlb","63403b47287756c1978d2985","fixation","","","img/fixation.png","null","","","test","","","","","","","","","","","","","","","","","","","",""
"57","360979","SARL_v6","SARL_v6rm4gzjlb","63403b47287756c1978d2985","freq","","","img/orange_2bandit_a2.png","70","","70","test","1","","67","","","","square","circle","65","22","3","0.5230769230769231","","","","","","","",""
"null","361725","SARL_v6","SARL_v6rm4gzjlb","63403b47287756c1978d2985","freq_resp","","","img/orange_2bandit_a.png","70","img/orange_2bandit_a.png","70","test","","","","","","","","","","","3","","","","","","","","",""
"null","361877","SARL_v6","SARL_v6rm4gzjlb","63403b47287756c1978d2985","fixation","","","img/fixation.png","null","","","test","","","","","","","","","","","","","","","","","","","",""
"40.5","361920","SARL_v6","SARL_v6rm4gzjlb","63403b47287756c1978d2985","freq","","","img/orange_2bandit_a2.png","70","","70","test","1","","68","","","","square","circle","66","23","3","0.5303030303030303","","","","","","","",""
"null","362691","SARL_v6","SARL_v6rm4gzjlb","63403b47287756c1978d2985","freq_resp","","","img/orange_2bandit_a.png","70","img/orange_2bandit_a.png","70","test","","","","","","","","","","","3","","","","","","","","",""
"null","362846","SARL_v6","SARL_v6rm4gzjlb","63403b47287756c1978d2985","fixation","","","img/fixation.png","null","","","test","","","","","","","","","","","","","","","","","","","",""
"null","363656","SARL_v6","SARL_v6rm4gzjlb","63403b47287756c1978d2985","infreq","","","img/blue_2bandit_a2.png","null","","68","test","0","","69","","","","square","circle","67","24","3","0.5223880597014925","","","","","","","",""
"null","363808","SARL_v6","SARL_v6rm4gzjlb","63403b47287756c1978d2985","fixation","","","img/fixation.png","null","","","test","","","","","","","","","","","","","","","","","","","",""
"null","364615","SARL_v6","SARL_v6rm4gzjlb","63403b47287756c1978d2985","freq","","","img/orange_2bandit_a2.png","null","","70","test","0","","70","","","","square","circle","68","25","3","0.5147058823529411","","","","","","","",""
"null","364770","SARL_v6","SARL_v6rm4gzjlb","63403b47287756c1978d2985","fixation","","","img/fixation.png","null","","","test","","","","","","","","","","","","","","","","","","","",""
"null","365579","SARL_v6","SARL_v6rm4gzjlb","63403b47287756c1978d2985","freq","","","img/orange_2bandit_a2.png","null","","70","test","0","","71","","","","square","circle","69","26","3","0.5072463768115942","","","","","","","",""
"null","365734","SARL_v6","SARL_v6rm4gzjlb","63403b47287756c1978d2985","fixation","","","img/fixation.png","null","","","test","","","","","","","","","","","","","","","","","","","",""
"null","367243","SARL_v6","SARL_v6rm4gzjlb","63403b47287756c1978d2985","rl","","","img/black_2bandit_a2.png","null","","0","test","","","72","","","0","square","circle","","0","3","","null","-4","-8","-8","-4","too slow","3","1"
"null","368005","SARL_v6","SARL_v6rm4gzjlb","63403b47287756c1978d2985","feedback","","","<div font size = 80> TOO SLOW  </div>","null","","na","test","","","NaN","","","","","","","","3","","null","","","","","","3",""
"null","368809","SARL_v6","SARL_v6rm4gzjlb","63403b47287756c1978d2985","freq","","","img/orange_2bandit_a2.png","null","","70","test","0","","73","","","","square","circle","70","1","4","0.5","","","","","","","",""
"null","368962","SARL_v6","SARL_v6rm4gzjlb","63403b47287756c1978d2985","fixation","","","img/fixation.png","null","","","test","","","","","","","","","","","","","","","","","","","",""
"null","369775","SARL_v6","SARL_v6rm4gzjlb","63403b47287756c1978d2985","infreq","","","img/blue_2bandit_a2.png","null","","68","test","0","","74","","","","square","circle","71","2","4","0.49295774647887325","","","","","","","",""
"null","369928","SARL_v6","SARL_v6rm4gzjlb","63403b47287756c1978d2985","fixation","","","img/fixation.png","null","","","test","","","","","","","","","","","","","","","","","","","",""
"null","370738","SARL_v6","SARL_v6rm4gzjlb","63403b47287756c1978d2985","freq","","","img/orange_2bandit_a2.png","null","","70","test","0","","75","","","","square","circle","72","3","4","0.4861111111111111","","","","","","","",""
"null","370891","SARL_v6","SARL_v6rm4gzjlb","63403b47287756c1978d2985","fixation","","","img/fixation.png","null","","","test","","","","","","","","","","","","","","","","","","","",""
"null","371702","SARL_v6","SARL_v6rm4gzjlb","63403b47287756c1978d2985","freq","","","img/orange_2bandit_a2.png","null","","70","test","0","","76","","","","square","circle","73","4","4","0.4794520547945205","","","","","","","",""
"null","371855","SARL_v6","SARL_v6rm4gzjlb","63403b47287756c1978d2985","fixation","","","img/fixation.png","null","","","test","","","","","","","","","","","","","","","","","","","",""
"null","372659","SARL_v6","SARL_v6rm4gzjlb","63403b47287756c1978d2985","freq","","","img/orange_2bandit_a2.png","null","","70","test","0","","77","","","","square","circle","74","5","4","0.47297297297297297","","","","","","","",""
"null","372814","SARL_v6","SARL_v6rm4gzjlb","63403b47287756c1978d2985","fixation","","","img/fixation.png","null","","","test","","","","","","","","","","","","","","","","","","","",""
"null","373631","SARL_v6","SARL_v6rm4gzjlb","63403b47287756c1978d2985","freq","","","img/orange_2bandit_a2.png","null","","70","test","0","","78","","","","square","circle","75","6","4","0.4666666666666667","","","","","","","",""
"null","373784","SARL_v6","SARL_v6rm4gzjlb","63403b47287756c1978d2985","fixation","","","img/fixation.png","null","","","test","","","","","","","","","","","","","","","","","","","",""
"null","374594","SARL_v6","SARL_v6rm4gzjlb","63403b47287756c1978d2985","freq","","","img/orange_2bandit_a2.png","null","","70","test","0","","79","","","","square","circle","76","7","4","0.4605263157894737","","","","","","","",""
"null","374747","SARL_v6","SARL_v6rm4gzjlb","63403b47287756c1978d2985","fixation","","","img/fixation.png","null","","","test","","","","","","","","","","","","","","","","","","","",""
"null","375557","SARL_v6","SARL_v6rm4gzjlb","63403b47287756c1978d2985","freq","","","img/orange_2bandit_a2.png","null","","70","test","0","","80","","","","square","circle","77","8","4","0.45454545454545453","","","","","","","",""
"null","375712","SARL_v6","SARL_v6rm4gzjlb","63403b47287756c1978d2985","fixation","","","img/fixation.png","null","","","test","","","","","","","","","","","","","","","","","","","",""
"null","376529","SARL_v6","SARL_v6rm4gzjlb","63403b47287756c1978d2985","freq","","","img/orange_2bandit_a2.png","null","","70","test","0","","81","","","","square","circle","78","9","4","0.44871794871794873","","","","","","","",""
"null","376681","SARL_v6","SARL_v6rm4gzjlb","63403b47287756c1978d2985","fixation","","","img/fixation.png","null","","","test","","","","","","","","","","","","","","","","","","","",""
"null","377485","SARL_v6","SARL_v6rm4gzjlb","63403b47287756c1978d2985","freq","","","img/orange_2bandit_a2.png","null","","70","test","0","","82","","","","square","circle","79","10","4","0.4430379746835443","","","","","","","",""
"null","377640","SARL_v6","SARL_v6rm4gzjlb","63403b47287756c1978d2985","fixation","","","img/fixation.png","null","","","test","","","","","","","","","","","","","","","","","","","",""
"null","378450","SARL_v6","SARL_v6rm4gzjlb","63403b47287756c1978d2985","freq","","","img/orange_2bandit_a2.png","null","","70","test","0","","83","","","","square","circle","80","11","4","0.4375","","","","","","","",""
"null","378602","SARL_v6","SARL_v6rm4gzjlb","63403b47287756c1978d2985","fixation","","","img/fixation.png","null","","","test","","","","","","","","","","","","","","","","","","","",""
"null","379414","SARL_v6","SARL_v6rm4gzjlb","63403b47287756c1978d2985","freq","","","img/orange_2bandit_a2.png","null","","70","test","0","","84","","","","square","circle","81","12","4","0.43209876543209874","","","","","","","",""
"null","379567","SARL_v6","SARL_v6rm4gzjlb","63403b47287756c1978d2985","fixation","","","img/fixation.png","null","","","test","","","","","","","","","","","","","","","","","","","",""
"null","380379","SARL_v6","SARL_v6rm4gzjlb","63403b47287756c1978d2985","freq","","","img/orange_2bandit_a2.png","null","","70","test","0","","85","","","","square","circle","82","13","4","0.4268292682926829","","","","","","","",""
"null","380531","SARL_v6","SARL_v6rm4gzjlb","63403b47287756c1978d2985","fixation","","","img/fixation.png","null","","","test","","","","","","","","","","","","","","","","","","","",""
"null","381336","SARL_v6","SARL_v6rm4gzjlb","63403b47287756c1978d2985","infreq","","","img/blue_2bandit_a2.png","null","","68","test","0","","86","","","","square","circle","83","14","4","0.42168674698795183","","","","","","","",""
"null","381489","SARL_v6","SARL_v6rm4gzjlb","63403b47287756c1978d2985","fixation","","","img/fixation.png","null","","","test","","","","","","","","","","","","","","","","","","","",""
"null","382291","SARL_v6","SARL_v6rm4gzjlb","63403b47287756c1978d2985","freq","","","img/orange_2bandit_a2.png","null","","70","test","0","","87","","","","square","circle","84","15","4","0.4166666666666667","","","","","","","",""
"null","382456","SARL_v6","SARL_v6rm4gzjlb","63403b47287756c1978d2985","fixation","","","img/fixation.png","null","","","test","","","","","","","","","","","","","","","","","","","",""
"null","383264","SARL_v6","SARL_v6rm4gzjlb","63403b47287756c1978d2985","freq","","","img/orange_2bandit_a2.png","null","","70","test","0","","88","","","","square","circle","85","16","4","0.4117647058823529","","","","","","","",""
"null","383417","SARL_v6","SARL_v6rm4gzjlb","63403b47287756c1978d2985","fixation","","","img/fixation.png","null","","","test","","","","","","","","","","","","","","","","","","","",""
"null","384222","SARL_v6","SARL_v6rm4gzjlb","63403b47287756c1978d2985","freq","","","img/orange_2bandit_a2.png","null","","70","test","0","","89","","","","square","circle","86","17","4","0.4069767441860465","","","","","","","",""
"null","384377","SARL_v6","SARL_v6rm4gzjlb","63403b47287756c1978d2985","fixation","","","img/fixation.png","null","","","test","","","","","","","","","","","","","","","","","","","",""
"null","385195","SARL_v6","SARL_v6rm4gzjlb","63403b47287756c1978d2985","freq","","","img/orange_2bandit_a2.png","null","","70","test","0","","90","","","","square","circle","87","18","4","0.40229885057471265","","","","","","","",""
"null","385350","SARL_v6","SARL_v6rm4gzjlb","63403b47287756c1978d2985","fixation","","","img/fixation.png","null","","","test","","","","","","","","","","","","","","","","","","","",""
"336.30000001192093","385688","SARL_v6","SARL_v6rm4gzjlb","63403b47287756c1978d2985","freq","","","img/orange_2bandit_a2.png","68","","70","test","0","","91","","","","square","circle","88","19","4","0.3977272727272727","","","","","","","",""
"null","386156","SARL_v6","SARL_v6rm4gzjlb","63403b47287756c1978d2985","freq_resp","","","img/orange_2bandit_a.png","68","img/orange_2bandit_a.png","70","test","","","","","","","","","","","4","","","","","","","","",""
"null","386311","SARL_v6","SARL_v6rm4gzjlb","63403b47287756c1978d2985","fixation","","","img/fixation.png","null","","","test","","","","","","","","","","","","","","","","","","","",""
"null","387121","SARL_v6","SARL_v6rm4gzjlb","63403b47287756c1978d2985","freq","","","img/orange_2bandit_a2.png","null","","70","test","0","","92","","","","square","circle","89","20","4","0.39325842696629215","","","","","","","",""
"null","387273","SARL_v6","SARL_v6rm4gzjlb","63403b47287756c1978d2985","fixation","","","img/fixation.png","null","","","test","","","","","","","","","","","","","","","","","","","",""
"null","388786","SARL_v6","SARL_v6rm4gzjlb","63403b47287756c1978d2985","rl","","","img/black_2bandit_a2.png","null","","0","test","","","93","","","0","square","circle","","0","4","","null","0","-12","-12","0","too slow","4","1"
"null","389550","SARL_v6","SARL_v6rm4gzjlb","63403b47287756c1978d2985","feedback","","","<div font size = 80> TOO SLOW  </div>","null","","na","test","","","NaN","","","","","","","","4","","null","","","","","","4",""
"61.30000001192093","389614","SARL_v6","SARL_v6rm4gzjlb","63403b47287756c1978d2985","freq","","","img/orange_2bandit_a2.png","70","","70","test","1","","94","","","","square","circle","90","1","5","0.4","","","","","","","",""
"null","390355","SARL_v6","SARL_v6rm4gzjlb","63403b47287756c1978d2985","freq_resp","","","img/orange_2bandit_a.png","70","img/orange_2bandit_a.png","70","test","","","","","","","","","","","5","","","","","","","","",""
"null","390509","SARL_v6","SARL_v6rm4gzjlb","63403b47287756c1978d2985","fixation","","","img/fixation.png","null","","","test","","","","","","","","","","","","","","","","","","","",""
"99.69999998807907","390611","SARL_v6","SARL_v6rm4gzjlb","63403b47287756c1978d2985","freq","","","img/orange_2bandit_a2.png","70","","70","test","1","","95","","","","square","circle","91","2","5","0.4065934065934066","","","","","","","",""
"null","391314","SARL_v6","SARL_v6rm4gzjlb","63403b47287756c1978d2985","freq_resp","","","img/orange_2bandit_a.png","70","img/orange_2bandit_a.png","70","test","","","","","","","","","","","5","","","","","","","","",""
"null","391472","SARL_v6","SARL_v6rm4gzjlb","63403b47287756c1978d2985","fixation","","","img/fixation.png","null","","","test","","","","","","","","","","","","","","","","","","","",""
"151.90000000596046","391626","SARL_v6","SARL_v6rm4gzjlb","63403b47287756c1978d2985","freq","","","img/orange_2bandit_a2.png","70","","70","test","1","","96","","","","square","circle","92","3","5","0.41304347826086957","","","","","","","",""
"null","392278","SARL_v6","SARL_v6rm4gzjlb","63403b47287756c1978d2985","freq_resp","","","img/orange_2bandit_a.png","70","img/orange_2bandit_a.png","70","test","","","","","","","","","","","5","","","","","","","","",""
"null","392433","SARL_v6","SARL_v6rm4gzjlb","63403b47287756c1978d2985","fixation","","","img/fixation.png","null","","","test","","","","","","","","","","","","","","","","","","","",""
"34.29999998211861","392469","SARL_v6","SARL_v6rm4gzjlb","63403b47287756c1978d2985","freq","","","img/orange_2bandit_a2.png","70","","70","test","1","","97","","","","square","circle","93","4","5","0.41935483870967744","","","","","","","",""
"null","393240","SARL_v6","SARL_v6rm4gzjlb","63403b47287756c1978d2985","freq_resp","","","img/orange_2bandit_a.png","70","img/orange_2bandit_a.png","70","test","","","","","","","","","","","5","","","","","","","","",""
"null","393395","SARL_v6","SARL_v6rm4gzjlb","63403b47287756c1978d2985","fixation","","","img/fixation.png","null","","","test","","","","","","","","","","","","","","","","","","","",""
"486.59999999403954","393884","SARL_v6","SARL_v6rm4gzjlb","63403b47287756c1978d2985","freq","","","img/orange_2bandit_a2.png","70","","70","test","1","","98","","","","square","circle","94","5","5","0.425531914893617","","","","","","","",""
"null","394202","SARL_v6","SARL_v6rm4gzjlb","63403b47287756c1978d2985","freq_resp","","","img/orange_2bandit_a.png","70","img/orange_2bandit_a.png","70","test","","","","","","","","","","","5","","","","","","","","",""
"null","394357","SARL_v6","SARL_v6rm4gzjlb","63403b47287756c1978d2985","fixation","","","img/fixation.png","null","","","test","","","","","","","","","","","","","","","","","","","",""
"44.599999994039536","394405","SARL_v6","SARL_v6rm4gzjlb","63403b47287756c1978d2985","infreq","","","img/blue_2bandit_a2.png","70","","68","test","0","","99","","","","square","circle","95","6","5","0.42105263157894735","","","","","","","",""
"null","395164","SARL_v6","SARL_v6rm4gzjlb","63403b47287756c1978d2985","infreq_resp","","","img/blue_2bandit_a.png","70","img/blue_2bandit_a.png","68","test","","","","","","","","","","","5","","","","","","","","",""
"null","395317","SARL_v6","SARL_v6rm4gzjlb","63403b47287756c1978d2985","fixation","","","img/fixation.png","null","","","test","","","","","","","","","","","","","","","","","","","",""
"120.89999997615814","395439","SARL_v6","SARL_v6rm4gzjlb","63403b47287756c1978d2985","freq","","","img/orange_2bandit_a2.png","70","","70","test","1","","100","","","","square","circle","96","7","5","0.4270833333333333","","","","","","","",""
"null","396127","SARL_v6","SARL_v6rm4gzjlb","63403b47287756c1978d2985","freq_resp","","","img/orange_2bandit_a.png","70","img/orange_2bandit_a.png","70","test","","","","","","","","","","","5","","","","","","","","",""
"null","396294","SARL_v6","SARL_v6rm4gzjlb","63403b47287756c1978d2985","fixation","","","img/fixation.png","null","","","test","","","","","","","","","","","","","","","","","","","",""
"278.39999997615814","396574","SARL_v6","SARL_v6rm4gzjlb","63403b47287756c1978d2985","freq","","","img/orange_2bandit_a2.png","68","","70","test","0","","101","","","","square","circle","97","8","5","0.422680412371134","","","","","","","",""
"null","397099","SARL_v6","SARL_v6rm4gzjlb","63403b47287756c1978d2985","freq_resp","","","img/orange_2bandit_a.png","68","img/orange_2bandit_a.png","70","test","","","","","","","","","","","5","","","","","","","","",""
"null","397256","SARL_v6","SARL_v6rm4gzjlb","63403b47287756c1978d2985","fixation","","","img/fixation.png","null","","","test","","","","","","","","","","","","","","","","","","","",""
"4.800000011920929","397262","SARL_v6","SARL_v6rm4gzjlb","63403b47287756c1978d2985","freq","","","img/orange_2bandit_a2.png","70","","70","test","1","","102","","","","square","circle","98","9","5","0.42857142857142855","","","","","","","",""
"null","398067","SARL_v6","SARL_v6rm4gzjlb","63403b47287756c1978d2985","freq_resp","","","img/orange_2bandit_a.png","70","img/orange_2bandit_a.png","70","test","","","","","","","","","","","5","","","","","","","","",""
"null","398219","SARL_v6","SARL_v6rm4gzjlb","63403b47287756c1978d2985","fixation","","","img/fixation.png","null","","","test","","","","","","","","","","","","","","","","","","","",""
"360.40000000596046","398582","SARL_v6","SARL_v6rm4gzjlb","63403b47287756c1978d2985","infreq","","","img/blue_2bandit_a2.png","70","","68","test","0","","103","","","","square","circle","99","10","5","0.42424242424242425","","","","","","","",""
"null","399028","SARL_v6","SARL_v6rm4gzjlb","63403b47287756c1978d2985","infreq_resp","","","img/blue_2bandit_a.png","70","img/blue_2bandit_a.png","68","test","","","","","","","","","","","5","","","","","","","","",""
"null","399183","SARL_v6","SARL_v6rm4gzjlb","63403b47287756c1978d2985","fixation","","","img/fixation.png","null","","","test","","","","","","","","","","","","","","","","","","","",""
"561.7999999821186","399747","SARL_v6","SARL_v6rm4gzjlb","63403b47287756c1978d2985","freq","","","img/orange_2bandit_a2.png","70","","70","test","1","","104","","","","square","circle","100","11","5","0.43","","","","","","","",""
"null","400001","SARL_v6","SARL_v6rm4gzjlb","63403b47287756c1978d2985","freq_resp","","","img/orange_2bandit_a.png","70","img/orange_2bandit_a.png","70","test","","","","","","","","","","","5","","","","","","","","",""
"null","400154","SARL_v6","SARL_v6rm4gzjlb","63403b47287756c1978d2985","fixation","","","img/fixation.png","null","","","test","","","","","","","","","","","","","","","","","","","",""
"null","400956","SARL_v6","SARL_v6rm4gzjlb","63403b47287756c1978d2985","freq","","","img/orange_2bandit_a2.png","null","","70","test","0","","105","","","","square","circle","101","12","5","0.42574257425742573","","","","","","","",""
"null","401109","SARL_v6","SARL_v6rm4gzjlb","63403b47287756c1978d2985","fixation","","","img/fixation.png","null","","","test","","","","","","","","","","","","","","","","","","","",""
"133.80000001192093","401245","SARL_v6","SARL_v6rm4gzjlb","63403b47287756c1978d2985","freq","","","img/orange_2bandit_a2.png","70","","70","test","1","","106","","","","square","circle","102","13","5","0.43137254901960786","","","","","","","",""
"null","401923","SARL_v6","SARL_v6rm4gzjlb","63403b47287756c1978d2985","freq_resp","","","img/orange_2bandit_a.png","70","img/orange_2bandit_a.png","70","test","","","","","","","","","","","5","","","","","","","","",""
"null","402075","SARL_v6","SARL_v6rm4gzjlb","63403b47287756c1978d2985","fixation","","","img/fixation.png","null","","","test","","","","","","","","","","","","","","","","","","","",""
"151.40000000596046","402229","SARL_v6","SARL_v6rm4gzjlb","63403b47287756c1978d2985","freq","","","img/orange_2bandit_a2.png","70","","70","test","1","","107","","","","square","circle","103","14","5","0.4368932038834951","","","","","","","",""
"null","402887","SARL_v6","SARL_v6rm4gzjlb","63403b47287756c1978d2985","freq_resp","","","img/orange_2bandit_a.png","70","img/orange_2bandit_a.png","70","test","","","","","","","","","","","5","","","","","","","","",""
"null","403040","SARL_v6","SARL_v6rm4gzjlb","63403b47287756c1978d2985","fixation","","","img/fixation.png","null","","","test","","","","","","","","","","","","","","","","","","","",""
"343","403385","SARL_v6","SARL_v6rm4gzjlb","63403b47287756c1978d2985","freq","","","img/orange_2bandit_a2.png","70","","70","test","1","","108","","","","square","circle","104","15","5","0.4423076923076923","","","","","","","",""
"null","403846","SARL_v6","SARL_v6rm4gzjlb","63403b47287756c1978d2985","freq_resp","","","img/orange_2bandit_a.png","70","img/orange_2bandit_a.png","70","test","","","","","","","","","","","5","","","","","","","","",""
"null","403998","SARL_v6","SARL_v6rm4gzjlb","63403b47287756c1978d2985","fixation","","","img/fixation.png","null","","","test","","","","","","","","","","","","","","","","","","","",""
"null","404813","SARL_v6","SARL_v6rm4gzjlb","63403b47287756c1978d2985","freq","","","img/orange_2bandit_a2.png","null","","70","test","0","","109","","","","square","circle","105","16","5","0.4380952380952381","","","","","","","",""
"null","404967","SARL_v6","SARL_v6rm4gzjlb","63403b47287756c1978d2985","fixation","","","img/fixation.png","null","","","test","","","","","","","","","","","","","","","","","","","",""
"null","405774","SARL_v6","SARL_v6rm4gzjlb","63403b47287756c1978d2985","freq","","","img/orange_2bandit_a2.png","null","","70","test","0","","110","","","","square","circle","106","17","5","0.4339622641509434","","","","","","","",""
"null","405929","SARL_v6","SARL_v6rm4gzjlb","63403b47287756c1978d2985","fixation","","","img/fixation.png","null","","","test","","","","","","","","","","","","","","","","","","","",""
"657.5999999940395","406588","SARL_v6","SARL_v6rm4gzjlb","63403b47287756c1978d2985","infreq","","","img/blue_2bandit_a2.png","70","","68","test","0","","111","","","","square","circle","107","18","5","0.42990654205607476","","","","","","","",""
"null","406736","SARL_v6","SARL_v6rm4gzjlb","63403b47287756c1978d2985","infreq_resp","","","img/blue_2bandit_a.png","70","img/blue_2bandit_a.png","68","test","","","","","","","","","","","5","","","","","","","","",""
"null","406893","SARL_v6","SARL_v6rm4gzjlb","63403b47287756c1978d2985","fixation","","","img/fixation.png","null","","","test","","","","","","","","","","","","","","","","","","","",""
"165.7999999821186","407061","SARL_v6","SARL_v6rm4gzjlb","63403b47287756c1978d2985","freq","","","img/orange_2bandit_a2.png","68","","70","test","0","","112","","","","square","circle","108","19","5","0.42592592592592593","","","","","","","",""
"null","407706","SARL_v6","SARL_v6rm4gzjlb","63403b47287756c1978d2985","freq_resp","","","img/orange_2bandit_a.png","68","img/orange_2bandit_a.png","70","test","","","","","","","","","","","5","","","","","","","","",""
"null","407861","SARL_v6","SARL_v6rm4gzjlb","63403b47287756c1978d2985","fixation","","","img/fixation.png","null","","","test","","","","","","","","","","","","","","","","","","","",""
"244.90000000596046","408109","SARL_v6","SARL_v6rm4gzjlb","63403b47287756c1978d2985","freq","","","img/orange_2bandit_a2.png","68","","70","test","0","","113","","","","square","circle","109","20","5","0.42201834862385323","","","","","","","",""
"null","408679","SARL_v6","SARL_v6rm4gzjlb","63403b47287756c1978d2985","freq_resp","","","img/orange_2bandit_a.png","68","img/orange_2bandit_a.png","70","test","","","","","","","","","","","5","","","","","","","","",""
"null","408832","SARL_v6","SARL_v6rm4gzjlb","63403b47287756c1978d2985","fixation","","","img/fixation.png","null","","","test","","","","","","","","","","","","","","","","","","","",""
"174.60000002384186","409008","SARL_v6","SARL_v6rm4gzjlb","63403b47287756c1978d2985","freq","","","img/orange_2bandit_a2.png","68","","70","test","0","","114","","","","square","circle","110","21","5","0.41818181818181815","","","","","","","",""
"null","409641","SARL_v6","SARL_v6rm4gzjlb","63403b47287756c1978d2985","freq_resp","","","img/orange_2bandit_a.png","68","img/orange_2bandit_a.png","70","test","","","","","","","","","","","5","","","","","","","","",""
"null","409796","SARL_v6","SARL_v6rm4gzjlb","63403b47287756c1978d2985","fixation","","","img/fixation.png","null","","","test","","","","","","","","","","","","","","","","","","","",""
"220.7000000178814","410019","SARL_v6","SARL_v6rm4gzjlb","63403b47287756c1978d2985","freq","","","img/orange_2bandit_a2.png","68","","70","test","0","","115","","","","square","circle","111","22","5","0.4144144144144144","","","","","","","",""
"null","410603","SARL_v6","SARL_v6rm4gzjlb","63403b47287756c1978d2985","freq_resp","","","img/orange_2bandit_a.png","68","img/orange_2bandit_a.png","70","test","","","","","","","","","","","5","","","","","","","","",""
"null","410758","SARL_v6","SARL_v6rm4gzjlb","63403b47287756c1978d2985","fixation","","","img/fixation.png","null","","","test","","","","","","","","","","","","","","","","","","","",""
"null","411566","SARL_v6","SARL_v6rm4gzjlb","63403b47287756c1978d2985","freq","","","img/orange_2bandit_a2.png","null","","70","test","0","","116","","","","square","circle","112","23","5","0.4107142857142857","","","","","","","",""
"null","411718","SARL_v6","SARL_v6rm4gzjlb","63403b47287756c1978d2985","fixation","","","img/fixation.png","null","","","test","","","","","","","","","","","","","","","","","","","",""
"null","413224","SARL_v6","SARL_v6rm4gzjlb","63403b47287756c1978d2985","rl","","","img/black_2bandit_a2.png","null","","0","test","","","117","","","0","square","circle","","0","5","","null","4","-7","-7","4","too slow","5","1"
"null","413987","SARL_v6","SARL_v6rm4gzjlb","63403b47287756c1978d2985","feedback","","","<div font size = 80> TOO SLOW  </div>","null","","na","test","","","NaN","","","","","","","","5","","null","","","","","","5",""
"16808.5","430797","SARL_v6","SARL_v6rm4gzjlb","63403b47287756c1978d2985","","","","","","","","test","","","","","","","","","","","","","","","","","","","",""
"null","431611","SARL_v6","SARL_v6rm4gzjlb","63403b47287756c1978d2985","freq","","","img/orange_2bandit_a2.png","null","","70","test","0","","118","","","","square","circle","113","1","6","0.40707964601769914","","","","","","","",""
"null","431765","SARL_v6","SARL_v6rm4gzjlb","63403b47287756c1978d2985","fixation","","","img/fixation.png","null","","","test","","","","","","","","","","","","","","","","","","","",""
"85.30000001192093","431852","SARL_v6","SARL_v6rm4gzjlb","63403b47287756c1978d2985","freq","","","img/orange_2bandit_a2.png","70","","70","test","1","","119","","","","square","circle","114","2","6","0.41228070175438597","","","","","","","",""
"null","432575","SARL_v6","SARL_v6rm4gzjlb","63403b47287756c1978d2985","freq_resp","","","img/orange_2bandit_a.png","70","img/orange_2bandit_a.png","70","test","","","","","","","","","","","6","","","","","","","","",""
"null","432731","SARL_v6","SARL_v6rm4gzjlb","63403b47287756c1978d2985","fixation","","","img/fixation.png","null","","","test","","","","","","","","","","","","","","","","","","","",""
"337","433070","SARL_v6","SARL_v6rm4gzjlb","63403b47287756c1978d2985","freq","","","img/orange_2bandit_a2.png","70","","70","test","1","","120","","","","square","circle","115","3","6","0.41739130434782606","","","","","","","",""
"null","433540","SARL_v6","SARL_v6rm4gzjlb","63403b47287756c1978d2985","freq_resp","","","img/orange_2bandit_a.png","70","img/orange_2bandit_a.png","70","test","","","","","","","","","","","6","","","","","","","","",""
"null","433696","SARL_v6","SARL_v6rm4gzjlb","63403b47287756c1978d2985","fixation","","","img/fixation.png","null","","","test","","","","","","","","","","","","","","","","","","","",""
"268.19999998807907","433967","SARL_v6","SARL_v6rm4gzjlb","63403b47287756c1978d2985","freq","","","img/orange_2bandit_a2.png","70","","70","test","1","","121","","","","square","circle","116","4","6","0.4224137931034483","","","","","","","",""
"null","434503","SARL_v6","SARL_v6rm4gzjlb","63403b47287756c1978d2985","freq_resp","","","img/orange_2bandit_a.png","70","img/orange_2bandit_a.png","70","test","","","","","","","","","","","6","","","","","","","","",""
"null","434656","SARL_v6","SARL_v6rm4gzjlb","63403b47287756c1978d2985","fixation","","","img/fixation.png","null","","","test","","","","","","","","","","","","","","","","","","","",""
"null","435459","SARL_v6","SARL_v6rm4gzjlb","63403b47287756c1978d2985","infreq","","","img/blue_2bandit_a2.png","null","","68","test","0","","122","","","","square","circle","117","5","6","0.4188034188034188","","","","","","","",""
"null","435612","SARL_v6","SARL_v6rm4gzjlb","63403b47287756c1978d2985","fixation","","","img/fixation.png","null","","","test","","","","","","","","","","","","","","","","","","","",""
"226.69999998807907","435841","SARL_v6","SARL_v6rm4gzjlb","63403b47287756c1978d2985","infreq","","","img/blue_2bandit_a2.png","68","","68","test","1","","123","","","","square","circle","118","6","6","0.423728813559322","","","","","","","",""
"null","436424","SARL_v6","SARL_v6rm4gzjlb","63403b47287756c1978d2985","infreq_resp","","","img/blue_2bandit_a.png","68","img/blue_2bandit_a.png","68","test","","","","","","","","","","","6","","","","","","","","",""
"null","436578","SARL_v6","SARL_v6rm4gzjlb","63403b47287756c1978d2985","fixation","","","img/fixation.png","null","","","test","","","","","","","","","","","","","","","","","","","",""
"222.7000000178814","436803","SARL_v6","SARL_v6rm4gzjlb","63403b47287756c1978d2985","freq","","","img/orange_2bandit_a2.png","68","","70","test","0","","124","","","","square","circle","119","7","6","0.42016806722689076","","","","","","","",""
"null","437387","SARL_v6","SARL_v6rm4gzjlb","63403b47287756c1978d2985","freq_resp","","","img/orange_2bandit_a.png","68","img/orange_2bandit_a.png","70","test","","","","","","","","","","","6","","","","","","","","",""
"null","437543","SARL_v6","SARL_v6rm4gzjlb","63403b47287756c1978d2985","fixation","","","img/fixation.png","null","","","test","","","","","","","","","","","","","","","","","","","",""
"473.19999998807907","438018","SARL_v6","SARL_v6rm4gzjlb","63403b47287756c1978d2985","freq","","","img/orange_2bandit_a2.png","68","","70","test","0","","125","","","","square","circle","120","8","6","0.4166666666666667","","","","","","","",""
"null","438360","SARL_v6","SARL_v6rm4gzjlb","63403b47287756c1978d2985","freq_resp","","","img/orange_2bandit_a.png","68","img/orange_2bandit_a.png","70","test","","","","","","","","","","","6","","","","","","","","",""
"null","438512","SARL_v6","SARL_v6rm4gzjlb","63403b47287756c1978d2985","fixation","","","img/fixation.png","null","","","test","","","","","","","","","","","","","","","","","","","",""
"698.4000000059605","439212","SARL_v6","SARL_v6rm4gzjlb","63403b47287756c1978d2985","freq","","","img/orange_2bandit_a2.png","70","","70","test","1","","126","","","","square","circle","121","9","6","0.4214876033057851","","","","","","","",""
"null","439316","SARL_v6","SARL_v6rm4gzjlb","63403b47287756c1978d2985","freq_resp","","","img/orange_2bandit_a.png","70","img/orange_2bandit_a.png","70","test","","","","","","","","","","","6","","","","","","","","",""
"null","439470","SARL_v6","SARL_v6rm4gzjlb","63403b47287756c1978d2985","fixation","","","img/fixation.png","null","","","test","","","","","","","","","","","","","","","","","","","",""
"76.19999998807907","439549","SARL_v6","SARL_v6rm4gzjlb","63403b47287756c1978d2985","freq","","","img/orange_2bandit_a2.png","70","","70","test","1","","127","","","","square","circle","122","10","6","0.4262295081967213","","","","","","","",""
"null","440274","SARL_v6","SARL_v6rm4gzjlb","63403b47287756c1978d2985","freq_resp","","","img/orange_2bandit_a.png","70","img/orange_2bandit_a.png","70","test","","","","","","","","","","","6","","","","","","","","",""
"null","440430","SARL_v6","SARL_v6rm4gzjlb","63403b47287756c1978d2985","fixation","","","img/fixation.png","null","","","test","","","","","","","","","","","","","","","","","","","",""
"139.40000000596046","440571","SARL_v6","SARL_v6rm4gzjlb","63403b47287756c1978d2985","freq","","","img/orange_2bandit_a2.png","70","","70","test","1","","128","","","","square","circle","123","11","6","0.43089430894308944","","","","","","","",""
"null","441236","SARL_v6","SARL_v6rm4gzjlb","63403b47287756c1978d2985","freq_resp","","","img/orange_2bandit_a.png","70","img/orange_2bandit_a.png","70","test","","","","","","","","","","","6","","","","","","","","",""
"null","441391","SARL_v6","SARL_v6rm4gzjlb","63403b47287756c1978d2985","fixation","","","img/fixation.png","null","","","test","","","","","","","","","","","","","","","","","","","",""
"138","441531","SARL_v6","SARL_v6rm4gzjlb","63403b47287756c1978d2985","freq","","","img/orange_2bandit_a2.png","70","","70","test","1","","129","","","","square","circle","124","12","6","0.43548387096774194","","","","","","","",""
"null","442197","SARL_v6","SARL_v6rm4gzjlb","63403b47287756c1978d2985","freq_resp","","","img/orange_2bandit_a.png","70","img/orange_2bandit_a.png","70","test","","","","","","","","","","","6","","","","","","","","",""
"null","442352","SARL_v6","SARL_v6rm4gzjlb","63403b47287756c1978d2985","fixation","","","img/fixation.png","null","","","test","","","","","","","","","","","","","","","","","","","",""
"364.30000001192093","442718","SARL_v6","SARL_v6rm4gzjlb","63403b47287756c1978d2985","freq","","","img/orange_2bandit_a2.png","70","","70","test","1","","130","","","","square","circle","125","13","6","0.44","","","","","","","",""
"null","443161","SARL_v6","SARL_v6rm4gzjlb","63403b47287756c1978d2985","freq_resp","","","img/orange_2bandit_a.png","70","img/orange_2bandit_a.png","70","test","","","","","","","","","","","6","","","","","","","","",""
"null","443315","SARL_v6","SARL_v6rm4gzjlb","63403b47287756c1978d2985","fixation","","","img/fixation.png","null","","","test","","","","","","","","","","","","","","","","","","","",""
"14.099999994039536","443331","SARL_v6","SARL_v6rm4gzjlb","63403b47287756c1978d2985","freq","","","img/orange_2bandit_a2.png","70","","70","test","1","","131","","","","square","circle","126","14","6","0.4444444444444444","","","","","","","",""
"null","444121","SARL_v6","SARL_v6rm4gzjlb","63403b47287756c1978d2985","freq_resp","","","img/orange_2bandit_a.png","70","img/orange_2bandit_a.png","70","test","","","","","","","","","","","6","","","","","","","","",""
"null","444279","SARL_v6","SARL_v6rm4gzjlb","63403b47287756c1978d2985","fixation","","","img/fixation.png","null","","","test","","","","","","","","","","","","","","","","","","","",""
"95.7000000178814","444377","SARL_v6","SARL_v6rm4gzjlb","63403b47287756c1978d2985","freq","","","img/orange_2bandit_a2.png","70","","70","test","1","","132","","","","square","circle","127","15","6","0.44881889763779526","","","","","","","",""
"null","445088","SARL_v6","SARL_v6rm4gzjlb","63403b47287756c1978d2985","freq_resp","","","img/orange_2bandit_a.png","70","img/orange_2bandit_a.png","70","test","","","","","","","","","","","6","","","","","","","","",""
"null","445244","SARL_v6","SARL_v6rm4gzjlb","63403b47287756c1978d2985","fixation","","","img/fixation.png","null","","","test","","","","","","","","","","","","","","","","","","","",""
"85.09999999403954","445331","SARL_v6","SARL_v6rm4gzjlb","63403b47287756c1978d2985","freq","","","img/orange_2bandit_a2.png","70","","70","test","1","","133","","","","square","circle","128","16","6","0.453125","","","","","","","",""
"null","446050","SARL_v6","SARL_v6rm4gzjlb","63403b47287756c1978d2985","freq_resp","","","img/orange_2bandit_a.png","70","img/orange_2bandit_a.png","70","test","","","","","","","","","","","6","","","","","","","","",""
"null","446204","SARL_v6","SARL_v6rm4gzjlb","63403b47287756c1978d2985","fixation","","","img/fixation.png","null","","","test","","","","","","","","","","","","","","","","","","","",""
"65.40000000596046","446271","SARL_v6","SARL_v6rm4gzjlb","63403b47287756c1978d2985","freq","","","img/orange_2bandit_a2.png","70","","70","test","1","","134","","","","square","circle","129","17","6","0.4573643410852713","","","","","","","",""
"null","447023","SARL_v6","SARL_v6rm4gzjlb","63403b47287756c1978d2985","freq_resp","","","img/orange_2bandit_a.png","70","img/orange_2bandit_a.png","70","test","","","","","","","","","","","6","","","","","","","","",""
"null","447177","SARL_v6","SARL_v6rm4gzjlb","63403b47287756c1978d2985","fixation","","","img/fixation.png","null","","","test","","","","","","","","","","","","","","","","","","","",""
"41.80000001192093","447220","SARL_v6","SARL_v6rm4gzjlb","63403b47287756c1978d2985","freq","","","img/orange_2bandit_a2.png","70","","70","test","1","","135","","","","square","circle","130","18","6","0.46153846153846156","","","","","","","",""
"null","447995","SARL_v6","SARL_v6rm4gzjlb","63403b47287756c1978d2985","freq_resp","","","img/orange_2bandit_a.png","70","img/orange_2bandit_a.png","70","test","","","","","","","","","","","6","","","","","","","","",""
"null","448147","SARL_v6","SARL_v6rm4gzjlb","63403b47287756c1978d2985","fixation","","","img/fixation.png","null","","","test","","","","","","","","","","","","","","","","","","","",""
"null","448960","SARL_v6","SARL_v6rm4gzjlb","63403b47287756c1978d2985","freq","","","img/orange_2bandit_a2.png","null","","70","test","0","","136","","","","square","circle","131","19","6","0.4580152671755725","","","","","","","",""
"null","449115","SARL_v6","SARL_v6rm4gzjlb","63403b47287756c1978d2985","fixation","","","img/fixation.png","null","","","test","","","","","","","","","","","","","","","","","","","",""
"129.69999998807907","449247","SARL_v6","SARL_v6rm4gzjlb","63403b47287756c1978d2985","freq","","","img/orange_2bandit_a2.png","70","","70","test","1","","137","","","","square","circle","132","20","6","0.4621212121212121","","","","","","","",""
"null","449923","SARL_v6","SARL_v6rm4gzjlb","63403b47287756c1978d2985","freq_resp","","","img/orange_2bandit_a.png","70","img/orange_2bandit_a.png","70","test","","","","","","","","","","","6","","","","","","","","",""
"null","450076","SARL_v6","SARL_v6rm4gzjlb","63403b47287756c1978d2985","fixation","","","img/fixation.png","null","","","test","","","","","","","","","","","","","","","","","","","",""
"264.09999999403954","450342","SARL_v6","SARL_v6rm4gzjlb","63403b47287756c1978d2985","freq","","","img/orange_2bandit_a2.png","70","","70","test","1","","138","","","","square","circle","133","21","6","0.46616541353383456","","","","","","","",""
"null","450883","SARL_v6","SARL_v6rm4gzjlb","63403b47287756c1978d2985","freq_resp","","","img/orange_2bandit_a.png","70","img/orange_2bandit_a.png","70","test","","","","","","","","","","","6","","","","","","","","",""
"null","451039","SARL_v6","SARL_v6rm4gzjlb","63403b47287756c1978d2985","fixation","","","img/fixation.png","null","","","test","","","","","","","","","","","","","","","","","","","",""
"null","452549","SARL_v6","SARL_v6rm4gzjlb","63403b47287756c1978d2985","rl","","","img/black_2bandit_a2.png","null","","0","test","","","139","","","0","square","circle","","0","6","","null","-4","-1","-1","-4","too slow","6","0"
