"rt","time_elapsed","expId","subject","prolificID","trialType","rlType","attType","stimulus","key_press","stim","corrresp","phase","corr","pracCounter","trialNum","rewardOne","rewardTwo","reward","bandOne","bandTwo","attentionNum","attentionRunNum","blockNum","performance","bandChosen","circleVal","squareVal","bandOneVal","bandTwoVal","shapeChosen","rlNum","badFlag"
"13877","13899","SARL_v6","SARL_v6gm7fk1px","628f7ed6b17795e8b70cc336","","","","","","","","","","","","","","","","","","","","","","","","","","","",""
"","16717","SARL_v6","SARL_v6gm7fk1px","628f7ed6b17795e8b70cc336","fullscreen","fullscreen","fullscreen","","","","","","","","","","","","","","","","","","","","","","","","",""
"65073","81795","SARL_v6","SARL_v6gm7fk1px","628f7ed6b17795e8b70cc336","","","","","","","","","","","","","","","","","","","","","","","","","","","",""
"null","82603","SARL_v6","SARL_v6gm7fk1px","628f7ed6b17795e8b70cc336","freqPrac","","","img/orange_2bandit_a2.png","null","img/orange_2bandit_a2.png","70","prac","0","1","","","","","","","","","","","","","","","","","",""
"null","83618","SARL_v6","SARL_v6gm7fk1px","628f7ed6b17795e8b70cc336","feedback","","","img/tooSlow.png","null","","na","prac","","","","","","","","","","","","","","","","","","","",""
"null","83775","SARL_v6","SARL_v6gm7fk1px","628f7ed6b17795e8b70cc336","fixation","","","img/fixation.png","null","","","prac","","","","","","","","","","","","","","","","","","","",""
"723","84502","SARL_v6","SARL_v6gm7fk1px","628f7ed6b17795e8b70cc336","infreqPrac","","","img/blue_2bandit_a2.png","70","img/blue_2bandit_a2.png","68","prac","0","2","","","","","","","","","","","","","","","","","",""
"723","84590","SARL_v6","SARL_v6gm7fk1px","628f7ed6b17795e8b70cc336","infreqPrac_resp","","","img/blue_2bandit_a.png","70","img/blue_2bandit_a.png","68","prac","","","","","","","","","","","","","","","","","","","",""
"null","85603","SARL_v6","SARL_v6gm7fk1px","628f7ed6b17795e8b70cc336","feedback","","","img/wrongKey.png","null","","na","prac","","","","","","","","","","","","","","","","","","","",""
"null","85759","SARL_v6","SARL_v6gm7fk1px","628f7ed6b17795e8b70cc336","fixation","","","img/fixation.png","null","","","prac","","","","","","","","","","","","","","","","","","","",""
"null","86574","SARL_v6","SARL_v6gm7fk1px","628f7ed6b17795e8b70cc336","freqPrac","","","img/orange_2bandit_a2.png","null","img/orange_2bandit_a2.png","70","prac","0","3","","","","","","","","","","","","","","","","","",""
"null","87580","SARL_v6","SARL_v6gm7fk1px","628f7ed6b17795e8b70cc336","feedback","","","img/tooSlow.png","null","","na","prac","","","","","","","","","","","","","","","","","","","",""
"null","87734","SARL_v6","SARL_v6gm7fk1px","628f7ed6b17795e8b70cc336","fixation","","","img/fixation.png","null","","","prac","","","","","","","","","","","","","","","","","","","",""
"null","88552","SARL_v6","SARL_v6gm7fk1px","628f7ed6b17795e8b70cc336","infreqPrac","","","img/blue_2bandit_a2.png","null","img/blue_2bandit_a2.png","68","prac","0","4","","","","","","","","","","","","","","","","","",""
"null","89568","SARL_v6","SARL_v6gm7fk1px","628f7ed6b17795e8b70cc336","feedback","","","img/tooSlow.png","null","","na","prac","","","","","","","","","","","","","","","","","","","",""
"null","89727","SARL_v6","SARL_v6gm7fk1px","628f7ed6b17795e8b70cc336","fixation","","","img/fixation.png","null","","","prac","","","","","","","","","","","","","","","","","","","",""
"506","90238","SARL_v6","SARL_v6gm7fk1px","628f7ed6b17795e8b70cc336","infreqPrac","","","img/blue_2bandit_a2.png","70","img/blue_2bandit_a2.png","68","prac","0","5","","","","","","","","","","","","","","","","","",""
"506","90546","SARL_v6","SARL_v6gm7fk1px","628f7ed6b17795e8b70cc336","infreqPrac_resp","","","img/blue_2bandit_a.png","70","img/blue_2bandit_a.png","68","prac","","","","","","","","","","","","","","","","","","","",""
"null","91563","SARL_v6","SARL_v6gm7fk1px","628f7ed6b17795e8b70cc336","feedback","","","img/wrongKey.png","null","","na","prac","","","","","","","","","","","","","","","","","","","",""
"null","91718","SARL_v6","SARL_v6gm7fk1px","628f7ed6b17795e8b70cc336","fixation","","","img/fixation.png","null","","","prac","","","","","","","","","","","","","","","","","","","",""
"610","92334","SARL_v6","SARL_v6gm7fk1px","628f7ed6b17795e8b70cc336","infreqPrac","","","img/blue_2bandit_a2.png","70","img/blue_2bandit_a2.png","68","prac","0","6","","","","","","","","","","","","","","","","","",""
"610","92537","SARL_v6","SARL_v6gm7fk1px","628f7ed6b17795e8b70cc336","infreqPrac_resp","","","img/blue_2bandit_a.png","70","img/blue_2bandit_a.png","68","prac","","","","","","","","","","","","","","","","","","","",""
"null","93547","SARL_v6","SARL_v6gm7fk1px","628f7ed6b17795e8b70cc336","feedback","","","img/wrongKey.png","null","","na","prac","","","","","","","","","","","","","","","","","","","",""
"null","93702","SARL_v6","SARL_v6gm7fk1px","628f7ed6b17795e8b70cc336","fixation","","","img/fixation.png","null","","","prac","","","","","","","","","","","","","","","","","","","",""
"730","94437","SARL_v6","SARL_v6gm7fk1px","628f7ed6b17795e8b70cc336","freqPrac","","","img/orange_2bandit_a2.png","70","img/orange_2bandit_a2.png","70","prac","1","6","","","","","","","","","","","","","","","","","",""
"730","94514","SARL_v6","SARL_v6gm7fk1px","628f7ed6b17795e8b70cc336","freqPrac_resp","","","img/orange_2bandit_a.png","70","img/orange_2bandit_a.png","70","prac","","","","","","","","","","","","","","","","","","","",""
"null","94671","SARL_v6","SARL_v6gm7fk1px","628f7ed6b17795e8b70cc336","fixation","","","img/fixation.png","null","","","prac","","","","","","","","","","","","","","","","","","","",""
"698","95375","SARL_v6","SARL_v6gm7fk1px","628f7ed6b17795e8b70cc336","infreqPrac","","","img/blue_2bandit_a2.png","68","img/blue_2bandit_a2.png","68","prac","1","6","","","","","","","","","","","","","","","","","",""
"698","95485","SARL_v6","SARL_v6gm7fk1px","628f7ed6b17795e8b70cc336","infreqPrac_resp","","","img/blue_2bandit_a.png","68","img/blue_2bandit_a.png","68","prac","","","","","","","","","","","","","","","","","","","",""
"null","95640","SARL_v6","SARL_v6gm7fk1px","628f7ed6b17795e8b70cc336","fixation","","","img/fixation.png","null","","","prac","","","","","","","","","","","","","","","","","","","",""
"738","96387","SARL_v6","SARL_v6gm7fk1px","628f7ed6b17795e8b70cc336","freqPrac","","","img/orange_2bandit_a2.png","70","img/orange_2bandit_a2.png","70","prac","1","6","","","","","","","","","","","","","","","","","",""
"738","96455","SARL_v6","SARL_v6gm7fk1px","628f7ed6b17795e8b70cc336","freqPrac_resp","","","img/orange_2bandit_a.png","70","img/orange_2bandit_a.png","70","prac","","","","","","","","","","","","","","","","","","","",""
"null","96610","SARL_v6","SARL_v6gm7fk1px","628f7ed6b17795e8b70cc336","fixation","","","img/fixation.png","null","","","prac","","","","","","","","","","","","","","","","","","","",""
"691","97307","SARL_v6","SARL_v6gm7fk1px","628f7ed6b17795e8b70cc336","freqPrac","","","img/orange_2bandit_a2.png","70","img/orange_2bandit_a2.png","70","prac","1","6","","","","","","","","","","","","","","","","","",""
"691","97430","SARL_v6","SARL_v6gm7fk1px","628f7ed6b17795e8b70cc336","freqPrac_resp","","","img/orange_2bandit_a.png","70","img/orange_2bandit_a.png","70","prac","","","","","","","","","","","","","","","","","","","",""
"null","97588","SARL_v6","SARL_v6gm7fk1px","628f7ed6b17795e8b70cc336","fixation","","","img/fixation.png","null","","","prac","","","","","","","","","","","","","","","","","","","",""
"63474","161070","SARL_v6","SARL_v6gm7fk1px","628f7ed6b17795e8b70cc336","","","","","","","","prac","","","","","","","","","","","","","","","","","","","",""
"null","162584","SARL_v6","SARL_v6gm7fk1px","628f7ed6b17795e8b70cc336","rlPractice","","","img/black_2bandit_a2.png","null","img/black_2bandit_a2.png","","prac","","","0","","","","","","","","","","","","","","","","",""
"null","163363","SARL_v6","SARL_v6gm7fk1px","628f7ed6b17795e8b70cc336","feedback","","","<div font size = 80> TOO SLOW  </div>","null","","na","prac","","","1","10","-14","10","","","","","","","","","","","","","",""
"null","163517","SARL_v6","SARL_v6gm7fk1px","628f7ed6b17795e8b70cc336","fixation","","","img/fixation.png","null","","","prac","","","","","","","","","","","","","","","","","","","",""
"null","165025","SARL_v6","SARL_v6gm7fk1px","628f7ed6b17795e8b70cc336","rlPractice","","","img/black_2bandit_a2.png","null","img/black_2bandit_a2.png","","prac","","","1","","","","","","","","","","","","","","","","",""
"null","165791","SARL_v6","SARL_v6gm7fk1px","628f7ed6b17795e8b70cc336","feedback","","","<div font size = 80> TOO SLOW  </div>","null","","na","prac","","","2","5","-5","5","","","","","","","","","","","","","",""
"null","165949","SARL_v6","SARL_v6gm7fk1px","628f7ed6b17795e8b70cc336","fixation","","","img/fixation.png","null","","","prac","","","","","","","","","","","","","","","","","","","",""
"null","167459","SARL_v6","SARL_v6gm7fk1px","628f7ed6b17795e8b70cc336","rlPractice","","","img/black_2bandit_a2.png","null","img/black_2bandit_a2.png","","prac","","","2","","","","","","","","","","","","","","","","",""
"null","168216","SARL_v6","SARL_v6gm7fk1px","628f7ed6b17795e8b70cc336","feedback","","","<div font size = 80> TOO SLOW  </div>","null","","na","prac","","","3","30","2","30","","","","","","","","","","","","","",""
"null","168384","SARL_v6","SARL_v6gm7fk1px","628f7ed6b17795e8b70cc336","fixation","","","img/fixation.png","null","","","prac","","","","","","","","","","","","","","","","","","","",""
"598","168986","SARL_v6","SARL_v6gm7fk1px","628f7ed6b17795e8b70cc336","rlPractice","","","img/black_2bandit_a2.png","75","img/black_2bandit_a2.png","","prac","","","3","","","","","","","","","","","","","","","","",""
"null","169748","SARL_v6","SARL_v6gm7fk1px","628f7ed6b17795e8b70cc336","feedback","","","<div class=""verylowPoints""> -2 </div>","null","","na","prac","","","4","-2","20","-2","","","","","","","","","","","","","",""
"null","169915","SARL_v6","SARL_v6gm7fk1px","628f7ed6b17795e8b70cc336","fixation","","","img/fixation.png","null","","","prac","","","","","","","","","","","","","","","","","","","",""
"12376","182294","SARL_v6","SARL_v6gm7fk1px","628f7ed6b17795e8b70cc336","","","","","","","","prac","","","","","","","","","","","","","","","","","","","",""
"null","183108","SARL_v6","SARL_v6gm7fk1px","628f7ed6b17795e8b70cc336","mixAttFreqPrac","","","img/orange_2bandit_a2.png","null","img/orange_2bandit_a2.png","70","prac","","","1","","","","","","","","","","","","","","","","",""
"null","183265","SARL_v6","SARL_v6gm7fk1px","628f7ed6b17795e8b70cc336","fixation","","","img/fixation.png","null","","","prac","","","","","","","","","","","","","","","","","","","",""
"null","184079","SARL_v6","SARL_v6gm7fk1px","628f7ed6b17795e8b70cc336","mixAttInfreqPrac","","","img/blue_2bandit_a2.png","null","img/blue_2bandit_a2.png","68","prac","","","2","","","","","","","","","","","","","","","","",""
"null","184236","SARL_v6","SARL_v6gm7fk1px","628f7ed6b17795e8b70cc336","fixation","","","img/fixation.png","null","","","prac","","","","","","","","","","","","","","","","","","","",""
"620","184859","SARL_v6","SARL_v6gm7fk1px","628f7ed6b17795e8b70cc336","mixAttInfreqPrac","","","img/blue_2bandit_a2.png","68","img/blue_2bandit_a2.png","68","prac","","","3","","","","","","","","","","","","","","","","",""
"620","185052","SARL_v6","SARL_v6gm7fk1px","628f7ed6b17795e8b70cc336","infreqPrac_resp","","","img/blue_2bandit_a.png","68","img/orange_2bandit_a.png","68","prac","","","3","","","","","","","","","","","","","","","","",""
"null","185209","SARL_v6","SARL_v6gm7fk1px","628f7ed6b17795e8b70cc336","fixation","","","img/fixation.png","null","","","prac","","","","","","","","","","","","","","","","","","","",""
"334","185547","SARL_v6","SARL_v6gm7fk1px","628f7ed6b17795e8b70cc336","mixAttInfreqPrac","","","img/blue_2bandit_a2.png","70","img/blue_2bandit_a2.png","68","prac","","","4","","","","","","","","","","","","","","","","",""
"334","186026","SARL_v6","SARL_v6gm7fk1px","628f7ed6b17795e8b70cc336","infreqPrac_resp","","","img/blue_2bandit_a.png","70","img/orange_2bandit_a.png","68","prac","","","4","","","","","","","","","","","","","","","","",""
"null","186181","SARL_v6","SARL_v6gm7fk1px","628f7ed6b17795e8b70cc336","fixation","","","img/fixation.png","null","","","prac","","","","","","","","","","","","","","","","","","","",""
"231","186415","SARL_v6","SARL_v6gm7fk1px","628f7ed6b17795e8b70cc336","mixAttFreqPrac","","","img/orange_2bandit_a2.png","68","img/orange_2bandit_a2.png","70","prac","","","5","","","","","","","","","","","","","","","","",""
"231","187000","SARL_v6","SARL_v6gm7fk1px","628f7ed6b17795e8b70cc336","freqPrac_resp","","","img/orange_2bandit_a.png","68","img/orange_2bandit_a.png","70","prac","","","5","","","","","","","","","","","","","","","","",""
"null","187155","SARL_v6","SARL_v6gm7fk1px","628f7ed6b17795e8b70cc336","fixation","","","img/fixation.png","null","","","prac","","","","","","","","","","","","","","","","","","","",""
"1084","188244","SARL_v6","SARL_v6gm7fk1px","628f7ed6b17795e8b70cc336","mixRLPractice","","","img/black_2bandit_a2.png","75","img/black_2bandit_a2.png","","prac","","","5","","","","","","","","","","","","","","","","",""
"null","189001","SARL_v6","SARL_v6gm7fk1px","628f7ed6b17795e8b70cc336","feedback","","","<div class=""verylowPoints""> -14 </div>","null","","na","prac","","","6","-14","10","-14","","","","","","","","","","","","","",""
"null","189158","SARL_v6","SARL_v6gm7fk1px","628f7ed6b17795e8b70cc336","fixation","","","img/fixation.png","null","","","prac","","","","","","","","","","","","","","","","","","","",""
"685","189845","SARL_v6","SARL_v6gm7fk1px","628f7ed6b17795e8b70cc336","mixAttFreqPrac","","","img/orange_2bandit_a2.png","70","img/orange_2bandit_a2.png","70","prac","","","7","","","","","","","","","","","","","","","","",""
"685","189969","SARL_v6","SARL_v6gm7fk1px","628f7ed6b17795e8b70cc336","freqPrac_resp","","","img/orange_2bandit_a.png","70","img/orange_2bandit_a.png","70","prac","","","7","","","","","","","","","","","","","","","","",""
"null","190125","SARL_v6","SARL_v6gm7fk1px","628f7ed6b17795e8b70cc336","fixation","","","img/fixation.png","null","","","prac","","","","","","","","","","","","","","","","","","","",""
"724","190852","SARL_v6","SARL_v6gm7fk1px","628f7ed6b17795e8b70cc336","mixAttInfreqPrac","","","img/blue_2bandit_a2.png","70","img/blue_2bandit_a2.png","68","prac","","","8","","","","","","","","","","","","","","","","",""
"724","190938","SARL_v6","SARL_v6gm7fk1px","628f7ed6b17795e8b70cc336","infreqPrac_resp","","","img/blue_2bandit_a.png","70","img/orange_2bandit_a.png","68","prac","","","8","","","","","","","","","","","","","","","","",""
"null","191097","SARL_v6","SARL_v6gm7fk1px","628f7ed6b17795e8b70cc336","fixation","","","img/fixation.png","null","","","prac","","","","","","","","","","","","","","","","","","","",""
"null","191912","SARL_v6","SARL_v6gm7fk1px","628f7ed6b17795e8b70cc336","mixAttFreqPrac","","","img/orange_2bandit_a2.png","null","img/orange_2bandit_a2.png","70","prac","","","9","","","","","","","","","","","","","","","","",""
"null","192067","SARL_v6","SARL_v6gm7fk1px","628f7ed6b17795e8b70cc336","fixation","","","img/fixation.png","null","","","prac","","","","","","","","","","","","","","","","","","","",""
"12","192084","SARL_v6","SARL_v6gm7fk1px","628f7ed6b17795e8b70cc336","mixAttFreqPrac","","","img/orange_2bandit_a2.png","70","img/orange_2bandit_a2.png","70","prac","","","10","","","","","","","","","","","","","","","","",""
"12","192887","SARL_v6","SARL_v6gm7fk1px","628f7ed6b17795e8b70cc336","freqPrac_resp","","","img/orange_2bandit_a.png","70","img/orange_2bandit_a.png","70","prac","","","10","","","","","","","","","","","","","","","","",""
"112","193043","SARL_v6","SARL_v6gm7fk1px","628f7ed6b17795e8b70cc336","fixation","","","img/fixation.png","70","","","prac","","","","","","","","","","","","","","","","","","","",""
"616","193663","SARL_v6","SARL_v6gm7fk1px","628f7ed6b17795e8b70cc336","mixAttInfreqPrac","","","img/blue_2bandit_a2.png","68","img/blue_2bandit_a2.png","68","prac","","","11","","","","","","","","","","","","","","","","",""
"616","193859","SARL_v6","SARL_v6gm7fk1px","628f7ed6b17795e8b70cc336","infreqPrac_resp","","","img/blue_2bandit_a.png","68","img/orange_2bandit_a.png","68","prac","","","11","","","","","","","","","","","","","","","","",""
"null","194015","SARL_v6","SARL_v6gm7fk1px","628f7ed6b17795e8b70cc336","fixation","","","img/fixation.png","null","","","prac","","","","","","","","","","","","","","","","","","","",""
"708","194726","SARL_v6","SARL_v6gm7fk1px","628f7ed6b17795e8b70cc336","mixRLPractice","","","img/black_2bandit_a2.png","75","img/black_2bandit_a2.png","","prac","","","11","","","","","","","","","","","","","","","","",""
"null","195489","SARL_v6","SARL_v6gm7fk1px","628f7ed6b17795e8b70cc336","feedback","","","<div class=""veryhighPoints""> 5 </div>","null","","na","prac","","","12","5","-5","5","","","","","","","","","","","","","",""
"null","195644","SARL_v6","SARL_v6gm7fk1px","628f7ed6b17795e8b70cc336","fixation","","","img/fixation.png","null","","","prac","","","","","","","","","","","","","","","","","","","",""
"21048","216696","SARL_v6","SARL_v6gm7fk1px","628f7ed6b17795e8b70cc336","","","","","","","","prac","","","","","","","","","","","","","","","","","","","",""
"null","217516","SARL_v6","SARL_v6gm7fk1px","628f7ed6b17795e8b70cc336","freq","","","img/orange_2bandit_a2.png","null","","70","test","0","","1","","","","square","circle","1","1","1","0","","","","","","","",""
"null","217685","SARL_v6","SARL_v6gm7fk1px","628f7ed6b17795e8b70cc336","fixation","","","img/fixation.png","null","","","test","","","","","","","","","","","","","","","","","","","",""
"null","218502","SARL_v6","SARL_v6gm7fk1px","628f7ed6b17795e8b70cc336","freq","","","img/orange_2bandit_a2.png","null","","70","test","0","","2","","","","square","circle","2","2","1","0","","","","","","","",""
"null","218672","SARL_v6","SARL_v6gm7fk1px","628f7ed6b17795e8b70cc336","fixation","","","img/fixation.png","null","","","test","","","","","","","","","","","","","","","","","","","",""
"200","218874","SARL_v6","SARL_v6gm7fk1px","628f7ed6b17795e8b70cc336","infreq","","","img/blue_2bandit_a2.png","70","","68","test","0","","3","","","","square","circle","3","3","1","0","","","","","","","",""
"null","219482","SARL_v6","SARL_v6gm7fk1px","628f7ed6b17795e8b70cc336","infreq_resp","","","img/blue_2bandit_a.png","70","img/blue_2bandit_a.png","68","test","","","","","","","","","","","1","","","","","","","","",""
"null","219635","SARL_v6","SARL_v6gm7fk1px","628f7ed6b17795e8b70cc336","fixation","","","img/fixation.png","null","","","test","","","","","","","","","","","","","","","","","","","",""
"635","220275","SARL_v6","SARL_v6gm7fk1px","628f7ed6b17795e8b70cc336","freq","","","img/orange_2bandit_a2.png","70","","70","test","1","","4","","","","square","circle","4","4","1","0.25","","","","","","","",""
"null","220454","SARL_v6","SARL_v6gm7fk1px","628f7ed6b17795e8b70cc336","freq_resp","","","img/orange_2bandit_a.png","70","img/orange_2bandit_a.png","70","test","","","","","","","","","","","1","","","","","","","","",""
"null","220609","SARL_v6","SARL_v6gm7fk1px","628f7ed6b17795e8b70cc336","fixation","","","img/fixation.png","null","","","test","","","","","","","","","","","","","","","","","","","",""
"458","221073","SARL_v6","SARL_v6gm7fk1px","628f7ed6b17795e8b70cc336","freq","","","img/orange_2bandit_a2.png","70","","70","test","1","","5","","","","square","circle","5","5","1","0.4","","","","","","","",""
"null","221428","SARL_v6","SARL_v6gm7fk1px","628f7ed6b17795e8b70cc336","freq_resp","","","img/orange_2bandit_a.png","70","img/orange_2bandit_a.png","70","test","","","","","","","","","","","1","","","","","","","","",""
"null","221595","SARL_v6","SARL_v6gm7fk1px","628f7ed6b17795e8b70cc336","fixation","","","img/fixation.png","null","","","test","","","","","","","","","","","","","","","","","","","",""
"458","222056","SARL_v6","SARL_v6gm7fk1px","628f7ed6b17795e8b70cc336","freq","","","img/orange_2bandit_a2.png","70","","70","test","1","","6","","","","square","circle","6","6","1","0.5","","","","","","","",""
"null","222417","SARL_v6","SARL_v6gm7fk1px","628f7ed6b17795e8b70cc336","freq_resp","","","img/orange_2bandit_a.png","70","img/orange_2bandit_a.png","70","test","","","","","","","","","","","1","","","","","","","","",""
"null","222571","SARL_v6","SARL_v6gm7fk1px","628f7ed6b17795e8b70cc336","fixation","","","img/fixation.png","null","","","test","","","","","","","","","","","","","","","","","","","",""
"445","223022","SARL_v6","SARL_v6gm7fk1px","628f7ed6b17795e8b70cc336","freq","","","img/orange_2bandit_a2.png","70","","70","test","1","","7","","","","square","circle","7","7","1","0.5714285714285714","","","","","","","",""
"null","223392","SARL_v6","SARL_v6gm7fk1px","628f7ed6b17795e8b70cc336","freq_resp","","","img/orange_2bandit_a.png","70","img/orange_2bandit_a.png","70","test","","","","","","","","","","","1","","","","","","","","",""
"null","223545","SARL_v6","SARL_v6gm7fk1px","628f7ed6b17795e8b70cc336","fixation","","","img/fixation.png","null","","","test","","","","","","","","","","","","","","","","","","","",""
"423","223974","SARL_v6","SARL_v6gm7fk1px","628f7ed6b17795e8b70cc336","freq","","","img/orange_2bandit_a2.png","70","","70","test","1","","8","","","","square","circle","8","8","1","0.625","","","","","","","",""
"null","224363","SARL_v6","SARL_v6gm7fk1px","628f7ed6b17795e8b70cc336","freq_resp","","","img/orange_2bandit_a.png","70","img/orange_2bandit_a.png","70","test","","","","","","","","","","","1","","","","","","","","",""
"null","224518","SARL_v6","SARL_v6gm7fk1px","628f7ed6b17795e8b70cc336","fixation","","","img/fixation.png","null","","","test","","","","","","","","","","","","","","","","","","","",""
"684","225210","SARL_v6","SARL_v6gm7fk1px","628f7ed6b17795e8b70cc336","freq","","","img/orange_2bandit_a2.png","70","","70","test","1","","9","","","","square","circle","9","9","1","0.6666666666666666","","","","","","","",""
"null","225333","SARL_v6","SARL_v6gm7fk1px","628f7ed6b17795e8b70cc336","freq_resp","","","img/orange_2bandit_a.png","70","img/orange_2bandit_a.png","70","test","","","","","","","","","","","1","","","","","","","","",""
"null","225489","SARL_v6","SARL_v6gm7fk1px","628f7ed6b17795e8b70cc336","fixation","","","img/fixation.png","null","","","test","","","","","","","","","","","","","","","","","","","",""
"null","226309","SARL_v6","SARL_v6gm7fk1px","628f7ed6b17795e8b70cc336","infreq","","","img/blue_2bandit_a2.png","null","","68","test","0","","10","","","","square","circle","10","10","1","0.6","","","","","","","",""
"null","226464","SARL_v6","SARL_v6gm7fk1px","628f7ed6b17795e8b70cc336","fixation","","","img/fixation.png","null","","","test","","","","","","","","","","","","","","","","","","","",""
"370","226838","SARL_v6","SARL_v6gm7fk1px","628f7ed6b17795e8b70cc336","freq","","","img/orange_2bandit_a2.png","68","","70","test","0","","11","","","","square","circle","11","11","1","0.5454545454545454","","","","","","","",""
"null","227283","SARL_v6","SARL_v6gm7fk1px","628f7ed6b17795e8b70cc336","freq_resp","","","img/orange_2bandit_a.png","68","img/orange_2bandit_a.png","70","test","","","","","","","","","","","1","","","","","","","","",""
"null","227438","SARL_v6","SARL_v6gm7fk1px","628f7ed6b17795e8b70cc336","fixation","","","img/fixation.png","null","","","test","","","","","","","","","","","","","","","","","","","",""
"33","227478","SARL_v6","SARL_v6gm7fk1px","628f7ed6b17795e8b70cc336","freq","","","img/orange_2bandit_a2.png","70","","70","test","1","","12","","","","square","circle","12","12","1","0.5833333333333334","","","","","","","",""
"null","228259","SARL_v6","SARL_v6gm7fk1px","628f7ed6b17795e8b70cc336","freq_resp","","","img/orange_2bandit_a.png","70","img/orange_2bandit_a.png","70","test","","","","","","","","","","","1","","","","","","","","",""
"null","228413","SARL_v6","SARL_v6gm7fk1px","628f7ed6b17795e8b70cc336","fixation","","","img/fixation.png","null","","","test","","","","","","","","","","","","","","","","","","","",""
"null","229231","SARL_v6","SARL_v6gm7fk1px","628f7ed6b17795e8b70cc336","freq","","","img/orange_2bandit_a2.png","null","","70","test","0","","13","","","","square","circle","13","13","1","0.5384615384615384","","","","","","","",""
"null","229386","SARL_v6","SARL_v6gm7fk1px","628f7ed6b17795e8b70cc336","fixation","","","img/fixation.png","null","","","test","","","","","","","","","","","","","","","","","","","",""
"50","229439","SARL_v6","SARL_v6gm7fk1px","628f7ed6b17795e8b70cc336","infreq","","","img/blue_2bandit_a2.png","70","","68","test","0","","14","","","","square","circle","14","14","1","0.5","","","","","","","",""
"null","230197","SARL_v6","SARL_v6gm7fk1px","628f7ed6b17795e8b70cc336","infreq_resp","","","img/blue_2bandit_a.png","70","img/blue_2bandit_a.png","68","test","","","","","","","","","","","1","","","","","","","","",""
"null","230353","SARL_v6","SARL_v6gm7fk1px","628f7ed6b17795e8b70cc336","fixation","","","img/fixation.png","null","","","test","","","","","","","","","","","","","","","","","","","",""
"null","231169","SARL_v6","SARL_v6gm7fk1px","628f7ed6b17795e8b70cc336","freq","","","img/orange_2bandit_a2.png","null","","70","test","0","","15","","","","square","circle","15","15","1","0.4666666666666667","","","","","","","",""
"null","231329","SARL_v6","SARL_v6gm7fk1px","628f7ed6b17795e8b70cc336","fixation","","","img/fixation.png","null","","","test","","","","","","","","","","","","","","","","","","","",""
"690","232022","SARL_v6","SARL_v6gm7fk1px","628f7ed6b17795e8b70cc336","freq","","","img/orange_2bandit_a2.png","70","","70","test","1","","16","","","","square","circle","16","16","1","0.5","","","","","","","",""
"null","232139","SARL_v6","SARL_v6gm7fk1px","628f7ed6b17795e8b70cc336","freq_resp","","","img/orange_2bandit_a.png","70","img/orange_2bandit_a.png","70","test","","","","","","","","","","","1","","","","","","","","",""
"null","232296","SARL_v6","SARL_v6gm7fk1px","628f7ed6b17795e8b70cc336","fixation","","","img/fixation.png","null","","","test","","","","","","","","","","","","","","","","","","","",""
"786","233087","SARL_v6","SARL_v6gm7fk1px","628f7ed6b17795e8b70cc336","freq","","","img/orange_2bandit_a2.png","70","","70","test","1","","17","","","","square","circle","17","17","1","0.5294117647058824","","","","","","","",""
"null","233115","SARL_v6","SARL_v6gm7fk1px","628f7ed6b17795e8b70cc336","freq_resp","","","img/orange_2bandit_a.png","70","img/orange_2bandit_a.png","70","test","","","","","","","","","","","1","","","","","","","","",""
"null","233281","SARL_v6","SARL_v6gm7fk1px","628f7ed6b17795e8b70cc336","fixation","","","img/fixation.png","null","","","test","","","","","","","","","","","","","","","","","","","",""
"628","233911","SARL_v6","SARL_v6gm7fk1px","628f7ed6b17795e8b70cc336","freq","","","img/orange_2bandit_a2.png","70","","70","test","1","","18","","","","square","circle","18","18","1","0.5555555555555556","","","","","","","",""
"null","234097","SARL_v6","SARL_v6gm7fk1px","628f7ed6b17795e8b70cc336","freq_resp","","","img/orange_2bandit_a.png","70","img/orange_2bandit_a.png","70","test","","","","","","","","","","","1","","","","","","","","",""
"null","234254","SARL_v6","SARL_v6gm7fk1px","628f7ed6b17795e8b70cc336","fixation","","","img/fixation.png","null","","","test","","","","","","","","","","","","","","","","","","","",""
"567","234824","SARL_v6","SARL_v6gm7fk1px","628f7ed6b17795e8b70cc336","freq","","","img/orange_2bandit_a2.png","70","","70","test","1","","19","","","","square","circle","19","19","1","0.5789473684210527","","","","","","","",""
"null","235070","SARL_v6","SARL_v6gm7fk1px","628f7ed6b17795e8b70cc336","freq_resp","","","img/orange_2bandit_a.png","70","img/orange_2bandit_a.png","70","test","","","","","","","","","","","1","","","","","","","","",""
"null","235240","SARL_v6","SARL_v6gm7fk1px","628f7ed6b17795e8b70cc336","fixation","","","img/fixation.png","null","","","test","","","","","","","","","","","","","","","","","","","",""
"426","235670","SARL_v6","SARL_v6gm7fk1px","628f7ed6b17795e8b70cc336","freq","","","img/orange_2bandit_a2.png","70","","70","test","1","","20","","","","square","circle","20","20","1","0.6","","","","","","","",""
"null","236053","SARL_v6","SARL_v6gm7fk1px","628f7ed6b17795e8b70cc336","freq_resp","","","img/orange_2bandit_a.png","70","img/orange_2bandit_a.png","70","test","","","","","","","","","","","1","","","","","","","","",""
"null","236222","SARL_v6","SARL_v6gm7fk1px","628f7ed6b17795e8b70cc336","fixation","","","img/fixation.png","null","","","test","","","","","","","","","","","","","","","","","","","",""
"511","236739","SARL_v6","SARL_v6gm7fk1px","628f7ed6b17795e8b70cc336","freq","","","img/orange_2bandit_a2.png","70","","70","test","1","","21","","","","square","circle","21","21","1","0.6190476190476191","","","","","","","",""
"null","237037","SARL_v6","SARL_v6gm7fk1px","628f7ed6b17795e8b70cc336","freq_resp","","","img/orange_2bandit_a.png","70","img/orange_2bandit_a.png","70","test","","","","","","","","","","","1","","","","","","","","",""
"null","237195","SARL_v6","SARL_v6gm7fk1px","628f7ed6b17795e8b70cc336","fixation","","","img/fixation.png","null","","","test","","","","","","","","","","","","","","","","","","","",""
"459","237659","SARL_v6","SARL_v6gm7fk1px","628f7ed6b17795e8b70cc336","freq","","","img/orange_2bandit_a2.png","70","","70","test","1","","22","","","","square","circle","22","22","1","0.6363636363636364","","","","","","","",""
"null","238015","SARL_v6","SARL_v6gm7fk1px","628f7ed6b17795e8b70cc336","freq_resp","","","img/orange_2bandit_a.png","70","img/orange_2bandit_a.png","70","test","","","","","","","","","","","1","","","","","","","","",""
"null","238170","SARL_v6","SARL_v6gm7fk1px","628f7ed6b17795e8b70cc336","fixation","","","img/fixation.png","null","","","test","","","","","","","","","","","","","","","","","","","",""
"493","238669","SARL_v6","SARL_v6gm7fk1px","628f7ed6b17795e8b70cc336","freq","","","img/orange_2bandit_a2.png","70","","70","test","1","","23","","","","square","circle","23","23","1","0.6521739130434783","","","","","","","",""
"null","238991","SARL_v6","SARL_v6gm7fk1px","628f7ed6b17795e8b70cc336","freq_resp","","","img/orange_2bandit_a.png","70","img/orange_2bandit_a.png","70","test","","","","","","","","","","","1","","","","","","","","",""
"null","239147","SARL_v6","SARL_v6gm7fk1px","628f7ed6b17795e8b70cc336","fixation","","","img/fixation.png","null","","","test","","","","","","","","","","","","","","","","","","","",""
"899","240049","SARL_v6","SARL_v6gm7fk1px","628f7ed6b17795e8b70cc336","rl","","","img/black_2bandit_a2.png","75","","0","test","","","24","","","-3","square","circle","","0","1","","75","-3","-3","-3","-3","circle","1","0"
"null","240820","SARL_v6","SARL_v6gm7fk1px","628f7ed6b17795e8b70cc336","feedback","","","<div class=""verylowPoints""> -3 </div>","null","","na","test","","","NaN","","","","","","","","1","","75","","","","","","1",""
"null","241639","SARL_v6","SARL_v6gm7fk1px","628f7ed6b17795e8b70cc336","freq","","","img/orange_2bandit_a2.png","null","","70","test","0","","25","","","","square","circle","24","1","2","0.625","","","","","","","",""
"null","241795","SARL_v6","SARL_v6gm7fk1px","628f7ed6b17795e8b70cc336","fixation","","","img/fixation.png","null","","","test","","","","","","","","","","","","","","","","","","","",""
"702","242501","SARL_v6","SARL_v6gm7fk1px","628f7ed6b17795e8b70cc336","freq","","","img/orange_2bandit_a2.png","70","","70","test","1","","26","","","","square","circle","25","2","2","0.64","","","","","","","",""
"null","242609","SARL_v6","SARL_v6gm7fk1px","628f7ed6b17795e8b70cc336","freq_resp","","","img/orange_2bandit_a.png","70","img/orange_2bandit_a.png","70","test","","","","","","","","","","","2","","","","","","","","",""
"null","242765","SARL_v6","SARL_v6gm7fk1px","628f7ed6b17795e8b70cc336","fixation","","","img/fixation.png","null","","","test","","","","","","","","","","","","","","","","","","","",""
"null","243575","SARL_v6","SARL_v6gm7fk1px","628f7ed6b17795e8b70cc336","infreq","","","img/blue_2bandit_a2.png","null","","68","test","0","","27","","","","square","circle","26","3","2","0.6153846153846154","","","","","","","",""
"null","243744","SARL_v6","SARL_v6gm7fk1px","628f7ed6b17795e8b70cc336","fixation","","","img/fixation.png","null","","","test","","","","","","","","","","","","","","","","","","","",""
"null","244558","SARL_v6","SARL_v6gm7fk1px","628f7ed6b17795e8b70cc336","freq","","","img/orange_2bandit_a2.png","null","","70","test","0","","28","","","","square","circle","27","4","2","0.5925925925925926","","","","","","","",""
"null","244714","SARL_v6","SARL_v6gm7fk1px","628f7ed6b17795e8b70cc336","fixation","","","img/fixation.png","null","","","test","","","","","","","","","","","","","","","","","","","",""
"791","245509","SARL_v6","SARL_v6gm7fk1px","628f7ed6b17795e8b70cc336","freq","","","img/orange_2bandit_a2.png","70","","70","test","1","","29","","","","square","circle","28","5","2","0.6071428571428571","","","","","","","",""
"null","245528","SARL_v6","SARL_v6gm7fk1px","628f7ed6b17795e8b70cc336","freq_resp","","","img/orange_2bandit_a.png","70","img/orange_2bandit_a.png","70","test","","","","","","","","","","","2","","","","","","","","",""
"null","245683","SARL_v6","SARL_v6gm7fk1px","628f7ed6b17795e8b70cc336","fixation","","","img/fixation.png","null","","","test","","","","","","","","","","","","","","","","","","","",""
"506","246195","SARL_v6","SARL_v6gm7fk1px","628f7ed6b17795e8b70cc336","freq","","","img/orange_2bandit_a2.png","70","","70","test","1","","30","","","","square","circle","29","6","2","0.6206896551724138","","","","","","","",""
"null","246496","SARL_v6","SARL_v6gm7fk1px","628f7ed6b17795e8b70cc336","freq_resp","","","img/orange_2bandit_a.png","70","img/orange_2bandit_a.png","70","test","","","","","","","","","","","2","","","","","","","","",""
"null","246653","SARL_v6","SARL_v6gm7fk1px","628f7ed6b17795e8b70cc336","fixation","","","img/fixation.png","null","","","test","","","","","","","","","","","","","","","","","","","",""
"366","247023","SARL_v6","SARL_v6gm7fk1px","628f7ed6b17795e8b70cc336","freq","","","img/orange_2bandit_a2.png","70","","70","test","1","","31","","","","square","circle","30","7","2","0.6333333333333333","","","","","","","",""
"null","247467","SARL_v6","SARL_v6gm7fk1px","628f7ed6b17795e8b70cc336","freq_resp","","","img/orange_2bandit_a.png","70","img/orange_2bandit_a.png","70","test","","","","","","","","","","","2","","","","","","","","",""
"null","247621","SARL_v6","SARL_v6gm7fk1px","628f7ed6b17795e8b70cc336","fixation","","","img/fixation.png","null","","","test","","","","","","","","","","","","","","","","","","","",""
"515","248139","SARL_v6","SARL_v6gm7fk1px","628f7ed6b17795e8b70cc336","freq","","","img/orange_2bandit_a2.png","70","","70","test","1","","32","","","","square","circle","31","8","2","0.6451612903225806","","","","","","","",""
"null","248437","SARL_v6","SARL_v6gm7fk1px","628f7ed6b17795e8b70cc336","freq_resp","","","img/orange_2bandit_a.png","70","img/orange_2bandit_a.png","70","test","","","","","","","","","","","2","","","","","","","","",""
"null","248590","SARL_v6","SARL_v6gm7fk1px","628f7ed6b17795e8b70cc336","fixation","","","img/fixation.png","null","","","test","","","","","","","","","","","","","","","","","","","",""
"524","249119","SARL_v6","SARL_v6gm7fk1px","628f7ed6b17795e8b70cc336","freq","","","img/orange_2bandit_a2.png","70","","70","test","1","","33","","","","square","circle","32","9","2","0.65625","","","","","","","",""
"null","249401","SARL_v6","SARL_v6gm7fk1px","628f7ed6b17795e8b70cc336","freq_resp","","","img/orange_2bandit_a.png","70","img/orange_2bandit_a.png","70","test","","","","","","","","","","","2","","","","","","","","",""
"null","249560","SARL_v6","SARL_v6gm7fk1px","628f7ed6b17795e8b70cc336","fixation","","","img/fixation.png","null","","","test","","","","","","","","","","","","","","","","","","","",""
"485","250048","SARL_v6","SARL_v6gm7fk1px","628f7ed6b17795e8b70cc336","freq","","","img/orange_2bandit_a2.png","70","","70","test","1","","34","","","","square","circle","33","10","2","0.6666666666666666","","","","","","","",""
"null","250373","SARL_v6","SARL_v6gm7fk1px","628f7ed6b17795e8b70cc336","freq_resp","","","img/orange_2bandit_a.png","70","img/orange_2bandit_a.png","70","test","","","","","","","","","","","2","","","","","","","","",""
"null","250528","SARL_v6","SARL_v6gm7fk1px","628f7ed6b17795e8b70cc336","fixation","","","img/fixation.png","null","","","test","","","","","","","","","","","","","","","","","","","",""
"null","251340","SARL_v6","SARL_v6gm7fk1px","628f7ed6b17795e8b70cc336","freq","","","img/orange_2bandit_a2.png","null","","70","test","0","","35","","","","square","circle","34","11","2","0.6470588235294118","","","","","","","",""
"null","251495","SARL_v6","SARL_v6gm7fk1px","628f7ed6b17795e8b70cc336","fixation","","","img/fixation.png","null","","","test","","","","","","","","","","","","","","","","","","","",""
"531","252032","SARL_v6","SARL_v6gm7fk1px","628f7ed6b17795e8b70cc336","freq","","","img/orange_2bandit_a2.png","70","","70","test","1","","36","","","","square","circle","35","12","2","0.6571428571428571","","","","","","","",""
"null","252310","SARL_v6","SARL_v6gm7fk1px","628f7ed6b17795e8b70cc336","freq_resp","","","img/orange_2bandit_a.png","70","img/orange_2bandit_a.png","70","test","","","","","","","","","","","2","","","","","","","","",""
"null","252465","SARL_v6","SARL_v6gm7fk1px","628f7ed6b17795e8b70cc336","fixation","","","img/fixation.png","null","","","test","","","","","","","","","","","","","","","","","","","",""
"483","252953","SARL_v6","SARL_v6gm7fk1px","628f7ed6b17795e8b70cc336","freq","","","img/orange_2bandit_a2.png","70","","70","test","1","","37","","","","square","circle","36","13","2","0.6666666666666666","","","","","","","",""
"null","253284","SARL_v6","SARL_v6gm7fk1px","628f7ed6b17795e8b70cc336","freq_resp","","","img/orange_2bandit_a.png","70","img/orange_2bandit_a.png","70","test","","","","","","","","","","","2","","","","","","","","",""
"null","253440","SARL_v6","SARL_v6gm7fk1px","628f7ed6b17795e8b70cc336","fixation","","","img/fixation.png","null","","","test","","","","","","","","","","","","","","","","","","","",""
"347","253790","SARL_v6","SARL_v6gm7fk1px","628f7ed6b17795e8b70cc336","freq","","","img/orange_2bandit_a2.png","70","","70","test","1","","38","","","","square","circle","37","14","2","0.6756756756756757","","","","","","","",""
"null","254256","SARL_v6","SARL_v6gm7fk1px","628f7ed6b17795e8b70cc336","freq_resp","","","img/orange_2bandit_a.png","70","img/orange_2bandit_a.png","70","test","","","","","","","","","","","2","","","","","","","","",""
"null","254410","SARL_v6","SARL_v6gm7fk1px","628f7ed6b17795e8b70cc336","fixation","","","img/fixation.png","null","","","test","","","","","","","","","","","","","","","","","","","",""
"608","255021","SARL_v6","SARL_v6gm7fk1px","628f7ed6b17795e8b70cc336","freq","","","img/orange_2bandit_a2.png","70","","70","test","1","","39","","","","square","circle","38","15","2","0.6842105263157895","","","","","","","",""
"null","255231","SARL_v6","SARL_v6gm7fk1px","628f7ed6b17795e8b70cc336","freq_resp","","","img/orange_2bandit_a.png","70","img/orange_2bandit_a.png","70","test","","","","","","","","","","","2","","","","","","","","",""
"null","255384","SARL_v6","SARL_v6gm7fk1px","628f7ed6b17795e8b70cc336","fixation","","","img/fixation.png","null","","","test","","","","","","","","","","","","","","","","","","","",""
"495","255884","SARL_v6","SARL_v6gm7fk1px","628f7ed6b17795e8b70cc336","freq","","","img/orange_2bandit_a2.png","70","","70","test","1","","40","","","","square","circle","39","16","2","0.6923076923076923","","","","","","","",""
"null","256204","SARL_v6","SARL_v6gm7fk1px","628f7ed6b17795e8b70cc336","freq_resp","","","img/orange_2bandit_a.png","70","img/orange_2bandit_a.png","70","test","","","","","","","","","","","2","","","","","","","","",""
"null","256357","SARL_v6","SARL_v6gm7fk1px","628f7ed6b17795e8b70cc336","fixation","","","img/fixation.png","null","","","test","","","","","","","","","","","","","","","","","","","",""
"309","256670","SARL_v6","SARL_v6gm7fk1px","628f7ed6b17795e8b70cc336","freq","","","img/orange_2bandit_a2.png","70","","70","test","1","","41","","","","square","circle","40","17","2","0.7","","","","","","","",""
"null","257171","SARL_v6","SARL_v6gm7fk1px","628f7ed6b17795e8b70cc336","freq_resp","","","img/orange_2bandit_a.png","70","img/orange_2bandit_a.png","70","test","","","","","","","","","","","2","","","","","","","","",""
"null","257329","SARL_v6","SARL_v6gm7fk1px","628f7ed6b17795e8b70cc336","fixation","","","img/fixation.png","null","","","test","","","","","","","","","","","","","","","","","","","",""
"null","258135","SARL_v6","SARL_v6gm7fk1px","628f7ed6b17795e8b70cc336","freq","","","img/orange_2bandit_a2.png","null","","70","test","0","","42","","","","square","circle","41","18","2","0.6829268292682927","","","","","","","",""
"null","258291","SARL_v6","SARL_v6gm7fk1px","628f7ed6b17795e8b70cc336","fixation","","","img/fixation.png","null","","","test","","","","","","","","","","","","","","","","","","","",""
"389","258684","SARL_v6","SARL_v6gm7fk1px","628f7ed6b17795e8b70cc336","infreq","","","img/blue_2bandit_a2.png","70","","68","test","0","","43","","","","square","circle","42","19","2","0.6666666666666666","","","","","","","",""
"null","259107","SARL_v6","SARL_v6gm7fk1px","628f7ed6b17795e8b70cc336","infreq_resp","","","img/blue_2bandit_a.png","70","img/blue_2bandit_a.png","68","test","","","","","","","","","","","2","","","","","","","","",""
"null","259260","SARL_v6","SARL_v6gm7fk1px","628f7ed6b17795e8b70cc336","fixation","","","img/fixation.png","null","","","test","","","","","","","","","","","","","","","","","","","",""
"653","259917","SARL_v6","SARL_v6gm7fk1px","628f7ed6b17795e8b70cc336","freq","","","img/orange_2bandit_a2.png","70","","70","test","1","","44","","","","square","circle","43","20","2","0.6744186046511628","","","","","","","",""
"null","260074","SARL_v6","SARL_v6gm7fk1px","628f7ed6b17795e8b70cc336","freq_resp","","","img/orange_2bandit_a.png","70","img/orange_2bandit_a.png","70","test","","","","","","","","","","","2","","","","","","","","",""
"null","260229","SARL_v6","SARL_v6gm7fk1px","628f7ed6b17795e8b70cc336","fixation","","","img/fixation.png","null","","","test","","","","","","","","","","","","","","","","","","","",""
"909","261141","SARL_v6","SARL_v6gm7fk1px","628f7ed6b17795e8b70cc336","rl","","","img/black_2bandit_a2.png","75","","0","test","","","45","","","-5","square","circle","","0","2","","75","-5","-8","-8","-5","circle","2","0"
"null","261910","SARL_v6","SARL_v6gm7fk1px","628f7ed6b17795e8b70cc336","feedback","","","<div class=""verylowPoints""> -5 </div>","null","","na","test","","","NaN","","","","","","","","2","","75","","","","","","2",""
"null","262725","SARL_v6","SARL_v6gm7fk1px","628f7ed6b17795e8b70cc336","freq","","","img/orange_2bandit_a2.png","null","","70","test","0","","46","","","","square","circle","44","1","3","0.6590909090909091","","","","","","","",""
"null","262882","SARL_v6","SARL_v6gm7fk1px","628f7ed6b17795e8b70cc336","fixation","","","img/fixation.png","null","","","test","","","","","","","","","","","","","","","","","","","",""
"546","263432","SARL_v6","SARL_v6gm7fk1px","628f7ed6b17795e8b70cc336","freq","","","img/orange_2bandit_a2.png","70","","70","test","1","","47","","","","square","circle","45","2","3","0.6666666666666666","","","","","","","",""
"null","263696","SARL_v6","SARL_v6gm7fk1px","628f7ed6b17795e8b70cc336","freq_resp","","","img/orange_2bandit_a.png","70","img/orange_2bandit_a.png","70","test","","","","","","","","","","","3","","","","","","","","",""
"null","263854","SARL_v6","SARL_v6gm7fk1px","628f7ed6b17795e8b70cc336","fixation","","","img/fixation.png","null","","","test","","","","","","","","","","","","","","","","","","","",""
"484","264339","SARL_v6","SARL_v6gm7fk1px","628f7ed6b17795e8b70cc336","freq","","","img/orange_2bandit_a2.png","70","","70","test","1","","48","","","","square","circle","46","3","3","0.6739130434782609","","","","","","","",""
"null","264670","SARL_v6","SARL_v6gm7fk1px","628f7ed6b17795e8b70cc336","freq_resp","","","img/orange_2bandit_a.png","70","img/orange_2bandit_a.png","70","test","","","","","","","","","","","3","","","","","","","","",""
"null","264826","SARL_v6","SARL_v6gm7fk1px","628f7ed6b17795e8b70cc336","fixation","","","img/fixation.png","null","","","test","","","","","","","","","","","","","","","","","","","",""
"null","265639","SARL_v6","SARL_v6gm7fk1px","628f7ed6b17795e8b70cc336","infreq","","","img/blue_2bandit_a2.png","null","","68","test","0","","49","","","","square","circle","47","4","3","0.6595744680851063","","","","","","","",""
"null","265796","SARL_v6","SARL_v6gm7fk1px","628f7ed6b17795e8b70cc336","fixation","","","img/fixation.png","null","","","test","","","","","","","","","","","","","","","","","","","",""
"772","266573","SARL_v6","SARL_v6gm7fk1px","628f7ed6b17795e8b70cc336","freq","","","img/orange_2bandit_a2.png","70","","70","test","1","","50","","","","square","circle","48","5","3","0.6666666666666666","","","","","","","",""
"null","266616","SARL_v6","SARL_v6gm7fk1px","628f7ed6b17795e8b70cc336","freq_resp","","","img/orange_2bandit_a.png","70","img/orange_2bandit_a.png","70","test","","","","","","","","","","","3","","","","","","","","",""
"null","266771","SARL_v6","SARL_v6gm7fk1px","628f7ed6b17795e8b70cc336","fixation","","","img/fixation.png","null","","","test","","","","","","","","","","","","","","","","","","","",""
"544","267317","SARL_v6","SARL_v6gm7fk1px","628f7ed6b17795e8b70cc336","freq","","","img/orange_2bandit_a2.png","70","","70","test","1","","51","","","","square","circle","49","6","3","0.673469387755102","","","","","","","",""
"null","267584","SARL_v6","SARL_v6gm7fk1px","628f7ed6b17795e8b70cc336","freq_resp","","","img/orange_2bandit_a.png","70","img/orange_2bandit_a.png","70","test","","","","","","","","","","","3","","","","","","","","",""
"null","267740","SARL_v6","SARL_v6gm7fk1px","628f7ed6b17795e8b70cc336","fixation","","","img/fixation.png","null","","","test","","","","","","","","","","","","","","","","","","","",""
"494","268238","SARL_v6","SARL_v6gm7fk1px","628f7ed6b17795e8b70cc336","freq","","","img/orange_2bandit_a2.png","70","","70","test","1","","52","","","","square","circle","50","7","3","0.68","","","","","","","",""
"null","268558","SARL_v6","SARL_v6gm7fk1px","628f7ed6b17795e8b70cc336","freq_resp","","","img/orange_2bandit_a.png","70","img/orange_2bandit_a.png","70","test","","","","","","","","","","","3","","","","","","","","",""
"null","268716","SARL_v6","SARL_v6gm7fk1px","628f7ed6b17795e8b70cc336","fixation","","","img/fixation.png","null","","","test","","","","","","","","","","","","","","","","","","","",""
"477","269198","SARL_v6","SARL_v6gm7fk1px","628f7ed6b17795e8b70cc336","freq","","","img/orange_2bandit_a2.png","70","","70","test","1","","53","","","","square","circle","51","8","3","0.6862745098039216","","","","","","","",""
"null","269535","SARL_v6","SARL_v6gm7fk1px","628f7ed6b17795e8b70cc336","freq_resp","","","img/orange_2bandit_a.png","70","img/orange_2bandit_a.png","70","test","","","","","","","","","","","3","","","","","","","","",""
"null","269691","SARL_v6","SARL_v6gm7fk1px","628f7ed6b17795e8b70cc336","fixation","","","img/fixation.png","null","","","test","","","","","","","","","","","","","","","","","","","",""
"564","270256","SARL_v6","SARL_v6gm7fk1px","628f7ed6b17795e8b70cc336","freq","","","img/orange_2bandit_a2.png","70","","70","test","1","","54","","","","square","circle","52","9","3","0.6923076923076923","","","","","","","",""
"null","270506","SARL_v6","SARL_v6gm7fk1px","628f7ed6b17795e8b70cc336","freq_resp","","","img/orange_2bandit_a.png","70","img/orange_2bandit_a.png","70","test","","","","","","","","","","","3","","","","","","","","",""
"null","270661","SARL_v6","SARL_v6gm7fk1px","628f7ed6b17795e8b70cc336","fixation","","","img/fixation.png","null","","","test","","","","","","","","","","","","","","","","","","","",""
"514","271177","SARL_v6","SARL_v6gm7fk1px","628f7ed6b17795e8b70cc336","freq","","","img/orange_2bandit_a2.png","70","","70","test","1","","55","","","","square","circle","53","10","3","0.6981132075471698","","","","","","","",""
"null","271480","SARL_v6","SARL_v6gm7fk1px","628f7ed6b17795e8b70cc336","freq_resp","","","img/orange_2bandit_a.png","70","img/orange_2bandit_a.png","70","test","","","","","","","","","","","3","","","","","","","","",""
"null","271636","SARL_v6","SARL_v6gm7fk1px","628f7ed6b17795e8b70cc336","fixation","","","img/fixation.png","null","","","test","","","","","","","","","","","","","","","","","","","",""
"492","272132","SARL_v6","SARL_v6gm7fk1px","628f7ed6b17795e8b70cc336","freq","","","img/orange_2bandit_a2.png","70","","70","test","1","","56","","","","square","circle","54","11","3","0.7037037037037037","","","","","","","",""
"null","272451","SARL_v6","SARL_v6gm7fk1px","628f7ed6b17795e8b70cc336","freq_resp","","","img/orange_2bandit_a.png","70","img/orange_2bandit_a.png","70","test","","","","","","","","","","","3","","","","","","","","",""
"null","272607","SARL_v6","SARL_v6gm7fk1px","628f7ed6b17795e8b70cc336","fixation","","","img/fixation.png","null","","","test","","","","","","","","","","","","","","","","","","","",""
"330","272940","SARL_v6","SARL_v6gm7fk1px","628f7ed6b17795e8b70cc336","freq","","","img/orange_2bandit_a2.png","70","","70","test","1","","57","","","","square","circle","55","12","3","0.7090909090909091","","","","","","","",""
"null","273419","SARL_v6","SARL_v6gm7fk1px","628f7ed6b17795e8b70cc336","freq_resp","","","img/orange_2bandit_a.png","70","img/orange_2bandit_a.png","70","test","","","","","","","","","","","3","","","","","","","","",""
"null","273576","SARL_v6","SARL_v6gm7fk1px","628f7ed6b17795e8b70cc336","fixation","","","img/fixation.png","null","","","test","","","","","","","","","","","","","","","","","","","",""
"null","274392","SARL_v6","SARL_v6gm7fk1px","628f7ed6b17795e8b70cc336","freq","","","img/orange_2bandit_a2.png","null","","70","test","0","","58","","","","square","circle","56","13","3","0.6964285714285714","","","","","","","",""
"null","274547","SARL_v6","SARL_v6gm7fk1px","628f7ed6b17795e8b70cc336","fixation","","","img/fixation.png","null","","","test","","","","","","","","","","","","","","","","","","","",""
"520","275071","SARL_v6","SARL_v6gm7fk1px","628f7ed6b17795e8b70cc336","freq","","","img/orange_2bandit_a2.png","70","","70","test","1","","59","","","","square","circle","57","14","3","0.7017543859649122","","","","","","","",""
"null","275360","SARL_v6","SARL_v6gm7fk1px","628f7ed6b17795e8b70cc336","freq_resp","","","img/orange_2bandit_a.png","70","img/orange_2bandit_a.png","70","test","","","","","","","","","","","3","","","","","","","","",""
"null","275515","SARL_v6","SARL_v6gm7fk1px","628f7ed6b17795e8b70cc336","fixation","","","img/fixation.png","null","","","test","","","","","","","","","","","","","","","","","","","",""
"365","275884","SARL_v6","SARL_v6gm7fk1px","628f7ed6b17795e8b70cc336","freq","","","img/orange_2bandit_a2.png","70","","70","test","1","","60","","","","square","circle","58","15","3","0.7068965517241379","","","","","","","",""
"null","276336","SARL_v6","SARL_v6gm7fk1px","628f7ed6b17795e8b70cc336","freq_resp","","","img/orange_2bandit_a.png","70","img/orange_2bandit_a.png","70","test","","","","","","","","","","","3","","","","","","","","",""
"null","276492","SARL_v6","SARL_v6gm7fk1px","628f7ed6b17795e8b70cc336","fixation","","","img/fixation.png","null","","","test","","","","","","","","","","","","","","","","","","","",""
"381","276877","SARL_v6","SARL_v6gm7fk1px","628f7ed6b17795e8b70cc336","freq","","","img/orange_2bandit_a2.png","70","","70","test","1","","61","","","","square","circle","59","16","3","0.711864406779661","","","","","","","",""
"null","277306","SARL_v6","SARL_v6gm7fk1px","628f7ed6b17795e8b70cc336","freq_resp","","","img/orange_2bandit_a.png","70","img/orange_2bandit_a.png","70","test","","","","","","","","","","","3","","","","","","","","",""
"null","277465","SARL_v6","SARL_v6gm7fk1px","628f7ed6b17795e8b70cc336","fixation","","","img/fixation.png","null","","","test","","","","","","","","","","","","","","","","","","","",""
"86","277554","SARL_v6","SARL_v6gm7fk1px","628f7ed6b17795e8b70cc336","freq","","","img/orange_2bandit_a2.png","70","","70","test","1","","62","","","","square","circle","60","17","3","0.7166666666666667","","","","","","","",""
"null","278282","SARL_v6","SARL_v6gm7fk1px","628f7ed6b17795e8b70cc336","freq_resp","","","img/orange_2bandit_a.png","70","img/orange_2bandit_a.png","70","test","","","","","","","","","","","3","","","","","","","","",""
"null","278439","SARL_v6","SARL_v6gm7fk1px","628f7ed6b17795e8b70cc336","fixation","","","img/fixation.png","null","","","test","","","","","","","","","","","","","","","","","","","",""
"490","278932","SARL_v6","SARL_v6gm7fk1px","628f7ed6b17795e8b70cc336","freq","","","img/orange_2bandit_a2.png","70","","70","test","1","","63","","","","square","circle","61","18","3","0.7213114754098361","","","","","","","",""
"null","279257","SARL_v6","SARL_v6gm7fk1px","628f7ed6b17795e8b70cc336","freq_resp","","","img/orange_2bandit_a.png","70","img/orange_2bandit_a.png","70","test","","","","","","","","","","","3","","","","","","","","",""
"null","279413","SARL_v6","SARL_v6gm7fk1px","628f7ed6b17795e8b70cc336","fixation","","","img/fixation.png","null","","","test","","","","","","","","","","","","","","","","","","","",""
"362","279778","SARL_v6","SARL_v6gm7fk1px","628f7ed6b17795e8b70cc336","freq","","","img/orange_2bandit_a2.png","70","","70","test","1","","64","","","","square","circle","62","19","3","0.7258064516129032","","","","","","","",""
"null","280224","SARL_v6","SARL_v6gm7fk1px","628f7ed6b17795e8b70cc336","freq_resp","","","img/orange_2bandit_a.png","70","img/orange_2bandit_a.png","70","test","","","","","","","","","","","3","","","","","","","","",""
"null","280383","SARL_v6","SARL_v6gm7fk1px","628f7ed6b17795e8b70cc336","fixation","","","img/fixation.png","null","","","test","","","","","","","","","","","","","","","","","","","",""
"73","280458","SARL_v6","SARL_v6gm7fk1px","628f7ed6b17795e8b70cc336","freq","","","img/orange_2bandit_a2.png","70","","70","test","1","","65","","","","square","circle","63","20","3","0.7301587301587301","","","","","","","",""
"null","281194","SARL_v6","SARL_v6gm7fk1px","628f7ed6b17795e8b70cc336","freq_resp","","","img/orange_2bandit_a.png","70","img/orange_2bandit_a.png","70","test","","","","","","","","","","","3","","","","","","","","",""
"null","281351","SARL_v6","SARL_v6gm7fk1px","628f7ed6b17795e8b70cc336","fixation","","","img/fixation.png","null","","","test","","","","","","","","","","","","","","","","","","","",""
"552","281906","SARL_v6","SARL_v6gm7fk1px","628f7ed6b17795e8b70cc336","freq","","","img/orange_2bandit_a2.png","70","","70","test","1","","66","","","","square","circle","64","21","3","0.734375","","","","","","","",""
"null","282167","SARL_v6","SARL_v6gm7fk1px","628f7ed6b17795e8b70cc336","freq_resp","","","img/orange_2bandit_a.png","70","img/orange_2bandit_a.png","70","test","","","","","","","","","","","3","","","","","","","","",""
"null","282323","SARL_v6","SARL_v6gm7fk1px","628f7ed6b17795e8b70cc336","fixation","","","img/fixation.png","null","","","test","","","","","","","","","","","","","","","","","","","",""
"421","282748","SARL_v6","SARL_v6gm7fk1px","628f7ed6b17795e8b70cc336","freq","","","img/orange_2bandit_a2.png","70","","70","test","1","","67","","","","square","circle","65","22","3","0.7384615384615385","","","","","","","",""
"null","283142","SARL_v6","SARL_v6gm7fk1px","628f7ed6b17795e8b70cc336","freq_resp","","","img/orange_2bandit_a.png","70","img/orange_2bandit_a.png","70","test","","","","","","","","","","","3","","","","","","","","",""
"null","283299","SARL_v6","SARL_v6gm7fk1px","628f7ed6b17795e8b70cc336","fixation","","","img/fixation.png","null","","","test","","","","","","","","","","","","","","","","","","","",""
"73","283375","SARL_v6","SARL_v6gm7fk1px","628f7ed6b17795e8b70cc336","freq","","","img/orange_2bandit_a2.png","70","","70","test","1","","68","","","","square","circle","66","23","3","0.7424242424242424","","","","","","","",""
"null","284111","SARL_v6","SARL_v6gm7fk1px","628f7ed6b17795e8b70cc336","freq_resp","","","img/orange_2bandit_a.png","70","img/orange_2bandit_a.png","70","test","","","","","","","","","","","3","","","","","","","","",""
"null","284266","SARL_v6","SARL_v6gm7fk1px","628f7ed6b17795e8b70cc336","fixation","","","img/fixation.png","null","","","test","","","","","","","","","","","","","","","","","","","",""
"627","284896","SARL_v6","SARL_v6gm7fk1px","628f7ed6b17795e8b70cc336","infreq","","","img/blue_2bandit_a2.png","68","","68","test","1","","69","","","","square","circle","67","24","3","0.746268656716418","","","","","","","",""
"null","285078","SARL_v6","SARL_v6gm7fk1px","628f7ed6b17795e8b70cc336","infreq_resp","","","img/blue_2bandit_a.png","68","img/blue_2bandit_a.png","68","test","","","","","","","","","","","3","","","","","","","","",""
"null","285232","SARL_v6","SARL_v6gm7fk1px","628f7ed6b17795e8b70cc336","fixation","","","img/fixation.png","null","","","test","","","","","","","","","","","","","","","","","","","",""
"586","285821","SARL_v6","SARL_v6gm7fk1px","628f7ed6b17795e8b70cc336","freq","","","img/orange_2bandit_a2.png","70","","70","test","1","","70","","","","square","circle","68","25","3","0.75","","","","","","","",""
"null","286053","SARL_v6","SARL_v6gm7fk1px","628f7ed6b17795e8b70cc336","freq_resp","","","img/orange_2bandit_a.png","70","img/orange_2bandit_a.png","70","test","","","","","","","","","","","3","","","","","","","","",""
"null","286209","SARL_v6","SARL_v6gm7fk1px","628f7ed6b17795e8b70cc336","fixation","","","img/fixation.png","null","","","test","","","","","","","","","","","","","","","","","","","",""
"103","286315","SARL_v6","SARL_v6gm7fk1px","628f7ed6b17795e8b70cc336","freq","","","img/orange_2bandit_a2.png","70","","70","test","1","","71","","","","square","circle","69","26","3","0.7536231884057971","","","","","","","",""
"null","287029","SARL_v6","SARL_v6gm7fk1px","628f7ed6b17795e8b70cc336","freq_resp","","","img/orange_2bandit_a.png","70","img/orange_2bandit_a.png","70","test","","","","","","","","","","","3","","","","","","","","",""
"null","287184","SARL_v6","SARL_v6gm7fk1px","628f7ed6b17795e8b70cc336","fixation","","","img/fixation.png","null","","","test","","","","","","","","","","","","","","","","","","","",""
"849","288038","SARL_v6","SARL_v6gm7fk1px","628f7ed6b17795e8b70cc336","rl","","","img/black_2bandit_a2.png","74","","0","test","","","72","","","-8","square","circle","","0","3","","74","-4","-8","-8","-4","square","3","0"
"null","288807","SARL_v6","SARL_v6gm7fk1px","628f7ed6b17795e8b70cc336","feedback","","","<div class=""verylowPoints_sq""> -8 </div>","null","","na","test","","","NaN","","","","","","","","3","","74","","","","","","3",""
"789","289601","SARL_v6","SARL_v6gm7fk1px","628f7ed6b17795e8b70cc336","freq","","","img/orange_2bandit_a2.png","70","","70","test","1","","73","","","","square","circle","70","1","4","0.7571428571428571","","","","","","","",""
"null","289624","SARL_v6","SARL_v6gm7fk1px","628f7ed6b17795e8b70cc336","freq_resp","","","img/orange_2bandit_a.png","70","img/orange_2bandit_a.png","70","test","","","","","","","","","","","4","","","","","","","","",""
"null","289778","SARL_v6","SARL_v6gm7fk1px","628f7ed6b17795e8b70cc336","fixation","","","img/fixation.png","null","","","test","","","","","","","","","","","","","","","","","","","",""
"254","290035","SARL_v6","SARL_v6gm7fk1px","628f7ed6b17795e8b70cc336","infreq","","","img/blue_2bandit_a2.png","70","","68","test","0","","74","","","","square","circle","71","2","4","0.7464788732394366","","","","","","","",""
"null","290593","SARL_v6","SARL_v6gm7fk1px","628f7ed6b17795e8b70cc336","infreq_resp","","","img/blue_2bandit_a.png","70","img/blue_2bandit_a.png","68","test","","","","","","","","","","","4","","","","","","","","",""
"null","290762","SARL_v6","SARL_v6gm7fk1px","628f7ed6b17795e8b70cc336","fixation","","","img/fixation.png","null","","","test","","","","","","","","","","","","","","","","","","","",""
"809","291575","SARL_v6","SARL_v6gm7fk1px","628f7ed6b17795e8b70cc336","freq","","","img/orange_2bandit_a2.png","70","","70","test","1","","75","","","","square","circle","72","3","4","0.75","","","","","","","",""
"null","291734","SARL_v6","SARL_v6gm7fk1px","628f7ed6b17795e8b70cc336","fixation","","","img/fixation.png","null","","","test","","","","","","","","","","","","","","","","","","","",""
"null","292539","SARL_v6","SARL_v6gm7fk1px","628f7ed6b17795e8b70cc336","freq","","","img/orange_2bandit_a2.png","null","","70","test","0","","76","","","","square","circle","73","4","4","0.7397260273972602","","","","","","","",""
"null","292695","SARL_v6","SARL_v6gm7fk1px","628f7ed6b17795e8b70cc336","fixation","","","img/fixation.png","null","","","test","","","","","","","","","","","","","","","","","","","",""
"167","292864","SARL_v6","SARL_v6gm7fk1px","628f7ed6b17795e8b70cc336","freq","","","img/orange_2bandit_a2.png","70","","70","test","1","","77","","","","square","circle","74","5","4","0.7432432432432432","","","","","","","",""
"null","293510","SARL_v6","SARL_v6gm7fk1px","628f7ed6b17795e8b70cc336","freq_resp","","","img/orange_2bandit_a.png","70","img/orange_2bandit_a.png","70","test","","","","","","","","","","","4","","","","","","","","",""
"null","293679","SARL_v6","SARL_v6gm7fk1px","628f7ed6b17795e8b70cc336","fixation","","","img/fixation.png","null","","","test","","","","","","","","","","","","","","","","","","","",""
"386","294069","SARL_v6","SARL_v6gm7fk1px","628f7ed6b17795e8b70cc336","freq","","","img/orange_2bandit_a2.png","70","","70","test","1","","78","","","","square","circle","75","6","4","0.7466666666666667","","","","","","","",""
"null","294497","SARL_v6","SARL_v6gm7fk1px","628f7ed6b17795e8b70cc336","freq_resp","","","img/orange_2bandit_a.png","70","img/orange_2bandit_a.png","70","test","","","","","","","","","","","4","","","","","","","","",""
"null","294652","SARL_v6","SARL_v6gm7fk1px","628f7ed6b17795e8b70cc336","fixation","","","img/fixation.png","null","","","test","","","","","","","","","","","","","","","","","","","",""
"167","294821","SARL_v6","SARL_v6gm7fk1px","628f7ed6b17795e8b70cc336","freq","","","img/orange_2bandit_a2.png","70","","70","test","1","","79","","","","square","circle","76","7","4","0.75","","","","","","","",""
"null","295465","SARL_v6","SARL_v6gm7fk1px","628f7ed6b17795e8b70cc336","freq_resp","","","img/orange_2bandit_a.png","70","img/orange_2bandit_a.png","70","test","","","","","","","","","","","4","","","","","","","","",""
"null","295620","SARL_v6","SARL_v6gm7fk1px","628f7ed6b17795e8b70cc336","fixation","","","img/fixation.png","null","","","test","","","","","","","","","","","","","","","","","","","",""
"443","296068","SARL_v6","SARL_v6gm7fk1px","628f7ed6b17795e8b70cc336","freq","","","img/orange_2bandit_a2.png","70","","70","test","1","","80","","","","square","circle","77","8","4","0.7532467532467533","","","","","","","",""
"null","296432","SARL_v6","SARL_v6gm7fk1px","628f7ed6b17795e8b70cc336","freq_resp","","","img/orange_2bandit_a.png","70","img/orange_2bandit_a.png","70","test","","","","","","","","","","","4","","","","","","","","",""
"null","296587","SARL_v6","SARL_v6gm7fk1px","628f7ed6b17795e8b70cc336","fixation","","","img/fixation.png","null","","","test","","","","","","","","","","","","","","","","","","","",""
"322","296912","SARL_v6","SARL_v6gm7fk1px","628f7ed6b17795e8b70cc336","freq","","","img/orange_2bandit_a2.png","70","","70","test","1","","81","","","","square","circle","78","9","4","0.7564102564102564","","","","","","","",""
"null","297406","SARL_v6","SARL_v6gm7fk1px","628f7ed6b17795e8b70cc336","freq_resp","","","img/orange_2bandit_a.png","70","img/orange_2bandit_a.png","70","test","","","","","","","","","","","4","","","","","","","","",""
"null","297565","SARL_v6","SARL_v6gm7fk1px","628f7ed6b17795e8b70cc336","fixation","","","img/fixation.png","null","","","test","","","","","","","","","","","","","","","","","","","",""
"294","297864","SARL_v6","SARL_v6gm7fk1px","628f7ed6b17795e8b70cc336","freq","","","img/orange_2bandit_a2.png","70","","70","test","1","","82","","","","square","circle","79","10","4","0.759493670886076","","","","","","","",""
"null","298383","SARL_v6","SARL_v6gm7fk1px","628f7ed6b17795e8b70cc336","freq_resp","","","img/orange_2bandit_a.png","70","img/orange_2bandit_a.png","70","test","","","","","","","","","","","4","","","","","","","","",""
"null","298536","SARL_v6","SARL_v6gm7fk1px","628f7ed6b17795e8b70cc336","fixation","","","img/fixation.png","null","","","test","","","","","","","","","","","","","","","","","","","",""
"334","298874","SARL_v6","SARL_v6gm7fk1px","628f7ed6b17795e8b70cc336","freq","","","img/orange_2bandit_a2.png","70","","70","test","1","","83","","","","square","circle","80","11","4","0.7625","","","","","","","",""
"null","299355","SARL_v6","SARL_v6gm7fk1px","628f7ed6b17795e8b70cc336","freq_resp","","","img/orange_2bandit_a.png","70","img/orange_2bandit_a.png","70","test","","","","","","","","","","","4","","","","","","","","",""
"null","299512","SARL_v6","SARL_v6gm7fk1px","628f7ed6b17795e8b70cc336","fixation","","","img/fixation.png","null","","","test","","","","","","","","","","","","","","","","","","","",""
"440","299956","SARL_v6","SARL_v6gm7fk1px","628f7ed6b17795e8b70cc336","freq","","","img/orange_2bandit_a2.png","70","","70","test","1","","84","","","","square","circle","81","12","4","0.7654320987654321","","","","","","","",""
"null","300332","SARL_v6","SARL_v6gm7fk1px","628f7ed6b17795e8b70cc336","freq_resp","","","img/orange_2bandit_a.png","70","img/orange_2bandit_a.png","70","test","","","","","","","","","","","4","","","","","","","","",""
"null","300484","SARL_v6","SARL_v6gm7fk1px","628f7ed6b17795e8b70cc336","fixation","","","img/fixation.png","null","","","test","","","","","","","","","","","","","","","","","","","",""
"318","300807","SARL_v6","SARL_v6gm7fk1px","628f7ed6b17795e8b70cc336","freq","","","img/orange_2bandit_a2.png","70","","70","test","1","","85","","","","square","circle","82","13","4","0.7682926829268293","","","","","","","",""
"null","301302","SARL_v6","SARL_v6gm7fk1px","628f7ed6b17795e8b70cc336","freq_resp","","","img/orange_2bandit_a.png","70","img/orange_2bandit_a.png","70","test","","","","","","","","","","","4","","","","","","","","",""
"null","301459","SARL_v6","SARL_v6gm7fk1px","628f7ed6b17795e8b70cc336","fixation","","","img/fixation.png","null","","","test","","","","","","","","","","","","","","","","","","","",""
"334","301795","SARL_v6","SARL_v6gm7fk1px","628f7ed6b17795e8b70cc336","infreq","","","img/blue_2bandit_a2.png","70","","68","test","0","","86","","","","square","circle","83","14","4","0.7590361445783133","","","","","","","",""
"null","302267","SARL_v6","SARL_v6gm7fk1px","628f7ed6b17795e8b70cc336","infreq_resp","","","img/blue_2bandit_a.png","70","img/blue_2bandit_a.png","68","test","","","","","","","","","","","4","","","","","","","","",""
"null","302425","SARL_v6","SARL_v6gm7fk1px","628f7ed6b17795e8b70cc336","fixation","","","img/fixation.png","null","","","test","","","","","","","","","","","","","","","","","","","",""
"679","303108","SARL_v6","SARL_v6gm7fk1px","628f7ed6b17795e8b70cc336","freq","","","img/orange_2bandit_a2.png","70","","70","test","1","","87","","","","square","circle","84","15","4","0.7619047619047619","","","","","","","",""
"null","303241","SARL_v6","SARL_v6gm7fk1px","628f7ed6b17795e8b70cc336","freq_resp","","","img/orange_2bandit_a.png","70","img/orange_2bandit_a.png","70","test","","","","","","","","","","","4","","","","","","","","",""
"null","303400","SARL_v6","SARL_v6gm7fk1px","628f7ed6b17795e8b70cc336","fixation","","","img/fixation.png","null","","","test","","","","","","","","","","","","","","","","","","","",""
"493","303897","SARL_v6","SARL_v6gm7fk1px","628f7ed6b17795e8b70cc336","freq","","","img/orange_2bandit_a2.png","70","","70","test","1","","88","","","","square","circle","85","16","4","0.7647058823529411","","","","","","","",""
"null","304217","SARL_v6","SARL_v6gm7fk1px","628f7ed6b17795e8b70cc336","freq_resp","","","img/orange_2bandit_a.png","70","img/orange_2bandit_a.png","70","test","","","","","","","","","","","4","","","","","","","","",""
"null","304374","SARL_v6","SARL_v6gm7fk1px","628f7ed6b17795e8b70cc336","fixation","","","img/fixation.png","null","","","test","","","","","","","","","","","","","","","","","","","",""
"290","304669","SARL_v6","SARL_v6gm7fk1px","628f7ed6b17795e8b70cc336","freq","","","img/orange_2bandit_a2.png","70","","70","test","1","","89","","","","square","circle","86","17","4","0.7674418604651163","","","","","","","",""
"null","305197","SARL_v6","SARL_v6gm7fk1px","628f7ed6b17795e8b70cc336","freq_resp","","","img/orange_2bandit_a.png","70","img/orange_2bandit_a.png","70","test","","","","","","","","","","","4","","","","","","","","",""
"null","305352","SARL_v6","SARL_v6gm7fk1px","628f7ed6b17795e8b70cc336","fixation","","","img/fixation.png","null","","","test","","","","","","","","","","","","","","","","","","","",""
"103","305458","SARL_v6","SARL_v6gm7fk1px","628f7ed6b17795e8b70cc336","freq","","","img/orange_2bandit_a2.png","70","","70","test","1","","90","","","","square","circle","87","18","4","0.7701149425287356","","","","","","","",""
"null","306172","SARL_v6","SARL_v6gm7fk1px","628f7ed6b17795e8b70cc336","freq_resp","","","img/orange_2bandit_a.png","70","img/orange_2bandit_a.png","70","test","","","","","","","","","","","4","","","","","","","","",""
"null","306327","SARL_v6","SARL_v6gm7fk1px","628f7ed6b17795e8b70cc336","fixation","","","img/fixation.png","null","","","test","","","","","","","","","","","","","","","","","","","",""
"382","306712","SARL_v6","SARL_v6gm7fk1px","628f7ed6b17795e8b70cc336","freq","","","img/orange_2bandit_a2.png","70","","70","test","1","","91","","","","square","circle","88","19","4","0.7727272727272727","","","","","","","",""
"null","307140","SARL_v6","SARL_v6gm7fk1px","628f7ed6b17795e8b70cc336","freq_resp","","","img/orange_2bandit_a.png","70","img/orange_2bandit_a.png","70","test","","","","","","","","","","","4","","","","","","","","",""
"null","307299","SARL_v6","SARL_v6gm7fk1px","628f7ed6b17795e8b70cc336","fixation","","","img/fixation.png","null","","","test","","","","","","","","","","","","","","","","","","","",""
"132","307434","SARL_v6","SARL_v6gm7fk1px","628f7ed6b17795e8b70cc336","freq","","","img/orange_2bandit_a2.png","70","","70","test","1","","92","","","","square","circle","89","20","4","0.7752808988764045","","","","","","","",""
"null","308113","SARL_v6","SARL_v6gm7fk1px","628f7ed6b17795e8b70cc336","freq_resp","","","img/orange_2bandit_a.png","70","img/orange_2bandit_a.png","70","test","","","","","","","","","","","4","","","","","","","","",""
"null","308269","SARL_v6","SARL_v6gm7fk1px","628f7ed6b17795e8b70cc336","fixation","","","img/fixation.png","null","","","test","","","","","","","","","","","","","","","","","","","",""
"795","309070","SARL_v6","SARL_v6gm7fk1px","628f7ed6b17795e8b70cc336","rl","","","img/black_2bandit_a2.png","75","","0","test","","","93","","","0","square","circle","","0","4","","75","0","-12","-12","0","circle","4","0"
"null","309835","SARL_v6","SARL_v6gm7fk1px","628f7ed6b17795e8b70cc336","feedback","","","<div class=""verylowPoints""> 0 </div>","null","","na","test","","","NaN","","","","","","","","4","","75","","","","","","4",""
"346","310183","SARL_v6","SARL_v6gm7fk1px","628f7ed6b17795e8b70cc336","freq","","","img/orange_2bandit_a2.png","70","","70","test","1","","94","","","","square","circle","90","1","5","0.7777777777777778","","","","","","","",""
"null","310650","SARL_v6","SARL_v6gm7fk1px","628f7ed6b17795e8b70cc336","freq_resp","","","img/orange_2bandit_a.png","70","img/orange_2bandit_a.png","70","test","","","","","","","","","","","5","","","","","","","","",""
"null","310807","SARL_v6","SARL_v6gm7fk1px","628f7ed6b17795e8b70cc336","fixation","","","img/fixation.png","null","","","test","","","","","","","","","","","","","","","","","","","",""
"494","311304","SARL_v6","SARL_v6gm7fk1px","628f7ed6b17795e8b70cc336","freq","","","img/orange_2bandit_a2.png","70","","70","test","1","","95","","","","square","circle","91","2","5","0.7802197802197802","","","","","","","",""
"null","311622","SARL_v6","SARL_v6gm7fk1px","628f7ed6b17795e8b70cc336","freq_resp","","","img/orange_2bandit_a.png","70","img/orange_2bandit_a.png","70","test","","","","","","","","","","","5","","","","","","","","",""
"null","311780","SARL_v6","SARL_v6gm7fk1px","628f7ed6b17795e8b70cc336","fixation","","","img/fixation.png","null","","","test","","","","","","","","","","","","","","","","","","","",""
"439","312223","SARL_v6","SARL_v6gm7fk1px","628f7ed6b17795e8b70cc336","freq","","","img/orange_2bandit_a2.png","70","","70","test","1","","96","","","","square","circle","92","3","5","0.782608695652174","","","","","","","",""
"null","312597","SARL_v6","SARL_v6gm7fk1px","628f7ed6b17795e8b70cc336","freq_resp","","","img/orange_2bandit_a.png","70","img/orange_2bandit_a.png","70","test","","","","","","","","","","","5","","","","","","","","",""
"null","312754","SARL_v6","SARL_v6gm7fk1px","628f7ed6b17795e8b70cc336","fixation","","","img/fixation.png","null","","","test","","","","","","","","","","","","","","","","","","","",""
"36","312793","SARL_v6","SARL_v6gm7fk1px","628f7ed6b17795e8b70cc336","freq","","","img/orange_2bandit_a2.png","70","","70","test","1","","97","","","","square","circle","93","4","5","0.7849462365591398","","","","","","","",""
"null","313570","SARL_v6","SARL_v6gm7fk1px","628f7ed6b17795e8b70cc336","freq_resp","","","img/orange_2bandit_a.png","70","img/orange_2bandit_a.png","70","test","","","","","","","","","","","5","","","","","","","","",""
"null","313726","SARL_v6","SARL_v6gm7fk1px","628f7ed6b17795e8b70cc336","fixation","","","img/fixation.png","null","","","test","","","","","","","","","","","","","","","","","","","",""
"375","314104","SARL_v6","SARL_v6gm7fk1px","628f7ed6b17795e8b70cc336","freq","","","img/orange_2bandit_a2.png","70","","70","test","1","","98","","","","square","circle","94","5","5","0.7872340425531915","","","","","","","",""
"null","314542","SARL_v6","SARL_v6gm7fk1px","628f7ed6b17795e8b70cc336","freq_resp","","","img/orange_2bandit_a.png","70","img/orange_2bandit_a.png","70","test","","","","","","","","","","","5","","","","","","","","",""
"null","314699","SARL_v6","SARL_v6gm7fk1px","628f7ed6b17795e8b70cc336","fixation","","","img/fixation.png","null","","","test","","","","","","","","","","","","","","","","","","","",""
"51","314756","SARL_v6","SARL_v6gm7fk1px","628f7ed6b17795e8b70cc336","infreq","","","img/blue_2bandit_a2.png","70","","68","test","0","","99","","","","square","circle","95","6","5","0.7789473684210526","","","","","","","",""
"null","315518","SARL_v6","SARL_v6gm7fk1px","628f7ed6b17795e8b70cc336","infreq_resp","","","img/blue_2bandit_a.png","70","img/blue_2bandit_a.png","68","test","","","","","","","","","","","5","","","","","","","","",""
"null","315674","SARL_v6","SARL_v6gm7fk1px","628f7ed6b17795e8b70cc336","fixation","","","img/fixation.png","null","","","test","","","","","","","","","","","","","","","","","","","",""
"null","316492","SARL_v6","SARL_v6gm7fk1px","628f7ed6b17795e8b70cc336","freq","","","img/orange_2bandit_a2.png","null","","70","test","0","","100","","","","square","circle","96","7","5","0.7708333333333334","","","","","","","",""
"null","316662","SARL_v6","SARL_v6gm7fk1px","628f7ed6b17795e8b70cc336","fixation","","","img/fixation.png","null","","","test","","","","","","","","","","","","","","","","","","","",""
"null","317477","SARL_v6","SARL_v6gm7fk1px","628f7ed6b17795e8b70cc336","freq","","","img/orange_2bandit_a2.png","null","","70","test","0","","101","","","","square","circle","97","8","5","0.7628865979381443","","","","","","","",""
"null","317634","SARL_v6","SARL_v6gm7fk1px","628f7ed6b17795e8b70cc336","fixation","","","img/fixation.png","null","","","test","","","","","","","","","","","","","","","","","","","",""
"65","317702","SARL_v6","SARL_v6gm7fk1px","628f7ed6b17795e8b70cc336","freq","","","img/orange_2bandit_a2.png","70","","70","test","1","","102","","","","square","circle","98","9","5","0.7653061224489796","","","","","","","",""
"null","318452","SARL_v6","SARL_v6gm7fk1px","628f7ed6b17795e8b70cc336","freq_resp","","","img/orange_2bandit_a.png","70","img/orange_2bandit_a.png","70","test","","","","","","","","","","","5","","","","","","","","",""
"null","318606","SARL_v6","SARL_v6gm7fk1px","628f7ed6b17795e8b70cc336","fixation","","","img/fixation.png","null","","","test","","","","","","","","","","","","","","","","","","","",""
"391","319001","SARL_v6","SARL_v6gm7fk1px","628f7ed6b17795e8b70cc336","infreq","","","img/blue_2bandit_a2.png","70","","68","test","0","","103","","","","square","circle","99","10","5","0.7575757575757576","","","","","","","",""
"null","319428","SARL_v6","SARL_v6gm7fk1px","628f7ed6b17795e8b70cc336","infreq_resp","","","img/blue_2bandit_a.png","70","img/blue_2bandit_a.png","68","test","","","","","","","","","","","5","","","","","","","","",""
"null","319583","SARL_v6","SARL_v6gm7fk1px","628f7ed6b17795e8b70cc336","fixation","","","img/fixation.png","null","","","test","","","","","","","","","","","","","","","","","","","",""
"586","320175","SARL_v6","SARL_v6gm7fk1px","628f7ed6b17795e8b70cc336","freq","","","img/orange_2bandit_a2.png","70","","70","test","1","","104","","","","square","circle","100","11","5","0.76","","","","","","","",""
"null","320399","SARL_v6","SARL_v6gm7fk1px","628f7ed6b17795e8b70cc336","freq_resp","","","img/orange_2bandit_a.png","70","img/orange_2bandit_a.png","70","test","","","","","","","","","","","5","","","","","","","","",""
"null","320556","SARL_v6","SARL_v6gm7fk1px","628f7ed6b17795e8b70cc336","fixation","","","img/fixation.png","null","","","test","","","","","","","","","","","","","","","","","","","",""
"389","320950","SARL_v6","SARL_v6gm7fk1px","628f7ed6b17795e8b70cc336","freq","","","img/orange_2bandit_a2.png","70","","70","test","1","","105","","","","square","circle","101","12","5","0.7623762376237624","","","","","","","",""
"null","321372","SARL_v6","SARL_v6gm7fk1px","628f7ed6b17795e8b70cc336","freq_resp","","","img/orange_2bandit_a.png","70","img/orange_2bandit_a.png","70","test","","","","","","","","","","","5","","","","","","","","",""
"null","321526","SARL_v6","SARL_v6gm7fk1px","628f7ed6b17795e8b70cc336","fixation","","","img/fixation.png","null","","","test","","","","","","","","","","","","","","","","","","","",""
"133","321662","SARL_v6","SARL_v6gm7fk1px","628f7ed6b17795e8b70cc336","freq","","","img/orange_2bandit_a2.png","70","","70","test","1","","106","","","","square","circle","102","13","5","0.7647058823529411","","","","","","","",""
"null","322343","SARL_v6","SARL_v6gm7fk1px","628f7ed6b17795e8b70cc336","freq_resp","","","img/orange_2bandit_a.png","70","img/orange_2bandit_a.png","70","test","","","","","","","","","","","5","","","","","","","","",""
"null","322499","SARL_v6","SARL_v6gm7fk1px","628f7ed6b17795e8b70cc336","fixation","","","img/fixation.png","null","","","test","","","","","","","","","","","","","","","","","","","",""
"490","322995","SARL_v6","SARL_v6gm7fk1px","628f7ed6b17795e8b70cc336","freq","","","img/orange_2bandit_a2.png","70","","70","test","1","","107","","","","square","circle","103","14","5","0.7669902912621359","","","","","","","",""
"null","323317","SARL_v6","SARL_v6gm7fk1px","628f7ed6b17795e8b70cc336","freq_resp","","","img/orange_2bandit_a.png","70","img/orange_2bandit_a.png","70","test","","","","","","","","","","","5","","","","","","","","",""
"null","323472","SARL_v6","SARL_v6gm7fk1px","628f7ed6b17795e8b70cc336","fixation","","","img/fixation.png","null","","","test","","","","","","","","","","","","","","","","","","","",""
"438","323913","SARL_v6","SARL_v6gm7fk1px","628f7ed6b17795e8b70cc336","freq","","","img/orange_2bandit_a2.png","70","","70","test","1","","108","","","","square","circle","104","15","5","0.7692307692307693","","","","","","","",""
"null","324292","SARL_v6","SARL_v6gm7fk1px","628f7ed6b17795e8b70cc336","freq_resp","","","img/orange_2bandit_a.png","70","img/orange_2bandit_a.png","70","test","","","","","","","","","","","5","","","","","","","","",""
"null","324450","SARL_v6","SARL_v6gm7fk1px","628f7ed6b17795e8b70cc336","fixation","","","img/fixation.png","null","","","test","","","","","","","","","","","","","","","","","","","",""
"499","324951","SARL_v6","SARL_v6gm7fk1px","628f7ed6b17795e8b70cc336","freq","","","img/orange_2bandit_a2.png","70","","70","test","1","","109","","","","square","circle","105","16","5","0.7714285714285715","","","","","","","",""
"null","325266","SARL_v6","SARL_v6gm7fk1px","628f7ed6b17795e8b70cc336","freq_resp","","","img/orange_2bandit_a.png","70","img/orange_2bandit_a.png","70","test","","","","","","","","","","","5","","","","","","","","",""
"null","325421","SARL_v6","SARL_v6gm7fk1px","628f7ed6b17795e8b70cc336","fixation","","","img/fixation.png","null","","","test","","","","","","","","","","","","","","","","","","","",""
"538","325964","SARL_v6","SARL_v6gm7fk1px","628f7ed6b17795e8b70cc336","freq","","","img/orange_2bandit_a2.png","70","","70","test","1","","110","","","","square","circle","106","17","5","0.7735849056603774","","","","","","","",""
"null","326237","SARL_v6","SARL_v6gm7fk1px","628f7ed6b17795e8b70cc336","freq_resp","","","img/orange_2bandit_a.png","70","img/orange_2bandit_a.png","70","test","","","","","","","","","","","5","","","","","","","","",""
"null","326392","SARL_v6","SARL_v6gm7fk1px","628f7ed6b17795e8b70cc336","fixation","","","img/fixation.png","null","","","test","","","","","","","","","","","","","","","","","","","",""
"386","326783","SARL_v6","SARL_v6gm7fk1px","628f7ed6b17795e8b70cc336","infreq","","","img/blue_2bandit_a2.png","70","","68","test","0","","111","","","","square","circle","107","18","5","0.7663551401869159","","","","","","","",""
"null","327215","SARL_v6","SARL_v6gm7fk1px","628f7ed6b17795e8b70cc336","infreq_resp","","","img/blue_2bandit_a.png","70","img/blue_2bandit_a.png","68","test","","","","","","","","","","","5","","","","","","","","",""
"null","327369","SARL_v6","SARL_v6gm7fk1px","628f7ed6b17795e8b70cc336","fixation","","","img/fixation.png","null","","","test","","","","","","","","","","","","","","","","","","","",""
"null","328179","SARL_v6","SARL_v6gm7fk1px","628f7ed6b17795e8b70cc336","freq","","","img/orange_2bandit_a2.png","null","","70","test","0","","112","","","","square","circle","108","19","5","0.7592592592592593","","","","","","","",""
"null","328332","SARL_v6","SARL_v6gm7fk1px","628f7ed6b17795e8b70cc336","fixation","","","img/fixation.png","null","","","test","","","","","","","","","","","","","","","","","","","",""
"598","328934","SARL_v6","SARL_v6gm7fk1px","628f7ed6b17795e8b70cc336","freq","","","img/orange_2bandit_a2.png","70","","70","test","1","","113","","","","square","circle","109","20","5","0.7614678899082569","","","","","","","",""
"null","329143","SARL_v6","SARL_v6gm7fk1px","628f7ed6b17795e8b70cc336","freq_resp","","","img/orange_2bandit_a.png","70","img/orange_2bandit_a.png","70","test","","","","","","","","","","","5","","","","","","","","",""
"null","329300","SARL_v6","SARL_v6gm7fk1px","628f7ed6b17795e8b70cc336","fixation","","","img/fixation.png","null","","","test","","","","","","","","","","","","","","","","","","","",""
"756","330060","SARL_v6","SARL_v6gm7fk1px","628f7ed6b17795e8b70cc336","freq","","","img/orange_2bandit_a2.png","70","","70","test","1","","114","","","","square","circle","110","21","5","0.7636363636363637","","","","","","","",""
"null","330114","SARL_v6","SARL_v6gm7fk1px","628f7ed6b17795e8b70cc336","freq_resp","","","img/orange_2bandit_a.png","70","img/orange_2bandit_a.png","70","test","","","","","","","","","","","5","","","","","","","","",""
"null","330270","SARL_v6","SARL_v6gm7fk1px","628f7ed6b17795e8b70cc336","fixation","","","img/fixation.png","null","","","test","","","","","","","","","","","","","","","","","","","",""
"799","331074","SARL_v6","SARL_v6gm7fk1px","628f7ed6b17795e8b70cc336","freq","","","img/orange_2bandit_a2.png","70","","70","test","1","","115","","","","square","circle","111","22","5","0.7657657657657657","","","","","","","",""
"null","331091","SARL_v6","SARL_v6gm7fk1px","628f7ed6b17795e8b70cc336","freq_resp","","","img/orange_2bandit_a.png","70","img/orange_2bandit_a.png","70","test","","","","","","","","","","","5","","","","","","","","",""
"null","331246","SARL_v6","SARL_v6gm7fk1px","628f7ed6b17795e8b70cc336","fixation","","","img/fixation.png","null","","","test","","","","","","","","","","","","","","","","","","","",""
"548","331797","SARL_v6","SARL_v6gm7fk1px","628f7ed6b17795e8b70cc336","freq","","","img/orange_2bandit_a2.png","70","","70","test","1","","116","","","","square","circle","112","23","5","0.7678571428571429","","","","","","","",""
"null","332054","SARL_v6","SARL_v6gm7fk1px","628f7ed6b17795e8b70cc336","freq_resp","","","img/orange_2bandit_a.png","70","img/orange_2bandit_a.png","70","test","","","","","","","","","","","5","","","","","","","","",""
"null","332209","SARL_v6","SARL_v6gm7fk1px","628f7ed6b17795e8b70cc336","fixation","","","img/fixation.png","null","","","test","","","","","","","","","","","","","","","","","","","",""
"817","333030","SARL_v6","SARL_v6gm7fk1px","628f7ed6b17795e8b70cc336","rl","","","img/black_2bandit_a2.png","75","","0","test","","","117","","","4","square","circle","","0","5","","75","4","-7","-7","4","circle","5","0"
"null","333795","SARL_v6","SARL_v6gm7fk1px","628f7ed6b17795e8b70cc336","feedback","","","<div class=""veryhighPoints""> 4 </div>","null","","na","test","","","NaN","","","","","","","","5","","75","","","","","","5",""
"null","334599","SARL_v6","SARL_v6gm7fk1px","628f7ed6b17795e8b70cc336","freq","","","img/orange_2bandit_a2.png","null","","70","test","0","","118","","","","square","circle","113","1","6","0.7610619469026548","","","","","","","",""
"null","334753","SARL_v6","SARL_v6gm7fk1px","628f7ed6b17795e8b70cc336","fixation","","","img/fixation.png","null","","","test","","","","","","","","","","","","","","","","","","","",""
"577","335335","SARL_v6","SARL_v6gm7fk1px","628f7ed6b17795e8b70cc336","freq","","","img/orange_2bandit_a2.png","70","","70","test","1","","119","","","","square","circle","114","2","6","0.7631578947368421","","","","","","","",""
"null","335571","SARL_v6","SARL_v6gm7fk1px","628f7ed6b17795e8b70cc336","freq_resp","","","img/orange_2bandit_a.png","70","img/orange_2bandit_a.png","70","test","","","","","","","","","","","6","","","","","","","","",""
"null","335732","SARL_v6","SARL_v6gm7fk1px","628f7ed6b17795e8b70cc336","fixation","","","img/fixation.png","null","","","test","","","","","","","","","","","","","","","","","","","",""
"612","336348","SARL_v6","SARL_v6gm7fk1px","628f7ed6b17795e8b70cc336","freq","","","img/orange_2bandit_a2.png","70","","70","test","1","","120","","","","square","circle","115","3","6","0.7652173913043478","","","","","","","",""
"null","336542","SARL_v6","SARL_v6gm7fk1px","628f7ed6b17795e8b70cc336","freq_resp","","","img/orange_2bandit_a.png","70","img/orange_2bandit_a.png","70","test","","","","","","","","","","","6","","","","","","","","",""
"null","336700","SARL_v6","SARL_v6gm7fk1px","628f7ed6b17795e8b70cc336","fixation","","","img/fixation.png","null","","","test","","","","","","","","","","","","","","","","","","","",""
"423","337126","SARL_v6","SARL_v6gm7fk1px","628f7ed6b17795e8b70cc336","freq","","","img/orange_2bandit_a2.png","70","","70","test","1","","121","","","","square","circle","116","4","6","0.7672413793103449","","","","","","","",""
"null","337521","SARL_v6","SARL_v6gm7fk1px","628f7ed6b17795e8b70cc336","freq_resp","","","img/orange_2bandit_a.png","70","img/orange_2bandit_a.png","70","test","","","","","","","","","","","6","","","","","","","","",""
"null","337674","SARL_v6","SARL_v6gm7fk1px","628f7ed6b17795e8b70cc336","fixation","","","img/fixation.png","null","","","test","","","","","","","","","","","","","","","","","","","",""
"370","338048","SARL_v6","SARL_v6gm7fk1px","628f7ed6b17795e8b70cc336","infreq","","","img/blue_2bandit_a2.png","70","","68","test","0","","122","","","","square","circle","117","5","6","0.7606837606837606","","","","","","","",""
"null","338485","SARL_v6","SARL_v6gm7fk1px","628f7ed6b17795e8b70cc336","infreq_resp","","","img/blue_2bandit_a.png","70","img/blue_2bandit_a.png","68","test","","","","","","","","","","","6","","","","","","","","",""
"null","338644","SARL_v6","SARL_v6gm7fk1px","628f7ed6b17795e8b70cc336","fixation","","","img/fixation.png","null","","","test","","","","","","","","","","","","","","","","","","","",""
"685","339332","SARL_v6","SARL_v6gm7fk1px","628f7ed6b17795e8b70cc336","infreq","","","img/blue_2bandit_a2.png","68","","68","test","1","","123","","","","square","circle","118","6","6","0.7627118644067796","","","","","","","",""
"null","339453","SARL_v6","SARL_v6gm7fk1px","628f7ed6b17795e8b70cc336","infreq_resp","","","img/blue_2bandit_a.png","68","img/blue_2bandit_a.png","68","test","","","","","","","","","","","6","","","","","","","","",""
"null","339609","SARL_v6","SARL_v6gm7fk1px","628f7ed6b17795e8b70cc336","fixation","","","img/fixation.png","null","","","test","","","","","","","","","","","","","","","","","","","",""
"799","340412","SARL_v6","SARL_v6gm7fk1px","628f7ed6b17795e8b70cc336","freq","","","img/orange_2bandit_a2.png","70","","70","test","1","","124","","","","square","circle","119","7","6","0.7647058823529411","","","","","","","",""
"null","340432","SARL_v6","SARL_v6gm7fk1px","628f7ed6b17795e8b70cc336","freq_resp","","","img/orange_2bandit_a.png","70","img/orange_2bandit_a.png","70","test","","","","","","","","","","","6","","","","","","","","",""
"null","340598","SARL_v6","SARL_v6gm7fk1px","628f7ed6b17795e8b70cc336","fixation","","","img/fixation.png","null","","","test","","","","","","","","","","","","","","","","","","","",""
"561","341162","SARL_v6","SARL_v6gm7fk1px","628f7ed6b17795e8b70cc336","freq","","","img/orange_2bandit_a2.png","70","","70","test","1","","125","","","","square","circle","120","8","6","0.7666666666666667","","","","","","","",""
"null","341414","SARL_v6","SARL_v6gm7fk1px","628f7ed6b17795e8b70cc336","freq_resp","","","img/orange_2bandit_a.png","70","img/orange_2bandit_a.png","70","test","","","","","","","","","","","6","","","","","","","","",""
"null","341569","SARL_v6","SARL_v6gm7fk1px","628f7ed6b17795e8b70cc336","fixation","","","img/fixation.png","null","","","test","","","","","","","","","","","","","","","","","","","",""
"502","342074","SARL_v6","SARL_v6gm7fk1px","628f7ed6b17795e8b70cc336","freq","","","img/orange_2bandit_a2.png","70","","70","test","1","","126","","","","square","circle","121","9","6","0.768595041322314","","","","","","","",""
"null","342388","SARL_v6","SARL_v6gm7fk1px","628f7ed6b17795e8b70cc336","freq_resp","","","img/orange_2bandit_a.png","70","img/orange_2bandit_a.png","70","test","","","","","","","","","","","6","","","","","","","","",""
"null","342545","SARL_v6","SARL_v6gm7fk1px","628f7ed6b17795e8b70cc336","fixation","","","img/fixation.png","null","","","test","","","","","","","","","","","","","","","","","","","",""
"304","342851","SARL_v6","SARL_v6gm7fk1px","628f7ed6b17795e8b70cc336","freq","","","img/orange_2bandit_a2.png","70","","70","test","1","","127","","","","square","circle","122","10","6","0.7704918032786885","","","","","","","",""
"null","343361","SARL_v6","SARL_v6gm7fk1px","628f7ed6b17795e8b70cc336","freq_resp","","","img/orange_2bandit_a.png","70","img/orange_2bandit_a.png","70","test","","","","","","","","","","","6","","","","","","","","",""
"null","343530","SARL_v6","SARL_v6gm7fk1px","628f7ed6b17795e8b70cc336","fixation","","","img/fixation.png","null","","","test","","","","","","","","","","","","","","","","","","","",""
"245","343776","SARL_v6","SARL_v6gm7fk1px","628f7ed6b17795e8b70cc336","freq","","","img/orange_2bandit_a2.png","70","","70","test","1","","128","","","","square","circle","123","11","6","0.7723577235772358","","","","","","","",""
"null","344347","SARL_v6","SARL_v6gm7fk1px","628f7ed6b17795e8b70cc336","freq_resp","","","img/orange_2bandit_a.png","70","img/orange_2bandit_a.png","70","test","","","","","","","","","","","6","","","","","","","","",""
"null","344502","SARL_v6","SARL_v6gm7fk1px","628f7ed6b17795e8b70cc336","fixation","","","img/fixation.png","null","","","test","","","","","","","","","","","","","","","","","","","",""
"134","344640","SARL_v6","SARL_v6gm7fk1px","628f7ed6b17795e8b70cc336","freq","","","img/orange_2bandit_a2.png","70","","70","test","1","","129","","","","square","circle","124","12","6","0.7741935483870968","","","","","","","",""
"null","345324","SARL_v6","SARL_v6gm7fk1px","628f7ed6b17795e8b70cc336","freq_resp","","","img/orange_2bandit_a.png","70","img/orange_2bandit_a.png","70","test","","","","","","","","","","","6","","","","","","","","",""
"null","345480","SARL_v6","SARL_v6gm7fk1px","628f7ed6b17795e8b70cc336","fixation","","","img/fixation.png","null","","","test","","","","","","","","","","","","","","","","","","","",""
"550","346033","SARL_v6","SARL_v6gm7fk1px","628f7ed6b17795e8b70cc336","freq","","","img/orange_2bandit_a2.png","70","","70","test","1","","130","","","","square","circle","125","13","6","0.776","","","","","","","",""
"null","346301","SARL_v6","SARL_v6gm7fk1px","628f7ed6b17795e8b70cc336","freq_resp","","","img/orange_2bandit_a.png","70","img/orange_2bandit_a.png","70","test","","","","","","","","","","","6","","","","","","","","",""
"null","346457","SARL_v6","SARL_v6gm7fk1px","628f7ed6b17795e8b70cc336","fixation","","","img/fixation.png","null","","","test","","","","","","","","","","","","","","","","","","","",""
"459","346922","SARL_v6","SARL_v6gm7fk1px","628f7ed6b17795e8b70cc336","freq","","","img/orange_2bandit_a2.png","70","","70","test","1","","131","","","","square","circle","126","14","6","0.7777777777777778","","","","","","","",""
"null","347270","SARL_v6","SARL_v6gm7fk1px","628f7ed6b17795e8b70cc336","freq_resp","","","img/orange_2bandit_a.png","70","img/orange_2bandit_a.png","70","test","","","","","","","","","","","6","","","","","","","","",""
"null","347426","SARL_v6","SARL_v6gm7fk1px","628f7ed6b17795e8b70cc336","fixation","","","img/fixation.png","null","","","test","","","","","","","","","","","","","","","","","","","",""
"445","347875","SARL_v6","SARL_v6gm7fk1px","628f7ed6b17795e8b70cc336","freq","","","img/orange_2bandit_a2.png","70","","70","test","1","","132","","","","square","circle","127","15","6","0.7795275590551181","","","","","","","",""
"null","348244","SARL_v6","SARL_v6gm7fk1px","628f7ed6b17795e8b70cc336","freq_resp","","","img/orange_2bandit_a.png","70","img/orange_2bandit_a.png","70","test","","","","","","","","","","","6","","","","","","","","",""
"null","348400","SARL_v6","SARL_v6gm7fk1px","628f7ed6b17795e8b70cc336","fixation","","","img/fixation.png","null","","","test","","","","","","","","","","","","","","","","","","","",""
"499","348904","SARL_v6","SARL_v6gm7fk1px","628f7ed6b17795e8b70cc336","freq","","","img/orange_2bandit_a2.png","70","","70","test","1","","133","","","","square","circle","128","16","6","0.78125","","","","","","","",""
"null","349215","SARL_v6","SARL_v6gm7fk1px","628f7ed6b17795e8b70cc336","freq_resp","","","img/orange_2bandit_a.png","70","img/orange_2bandit_a.png","70","test","","","","","","","","","","","6","","","","","","","","",""
"null","349370","SARL_v6","SARL_v6gm7fk1px","628f7ed6b17795e8b70cc336","fixation","","","img/fixation.png","null","","","test","","","","","","","","","","","","","","","","","","","",""
"688","350064","SARL_v6","SARL_v6gm7fk1px","628f7ed6b17795e8b70cc336","freq","","","img/orange_2bandit_a2.png","70","","70","test","1","","134","","","","square","circle","129","17","6","0.7829457364341085","","","","","","","",""
"null","350190","SARL_v6","SARL_v6gm7fk1px","628f7ed6b17795e8b70cc336","freq_resp","","","img/orange_2bandit_a.png","70","img/orange_2bandit_a.png","70","test","","","","","","","","","","","6","","","","","","","","",""
"null","350344","SARL_v6","SARL_v6gm7fk1px","628f7ed6b17795e8b70cc336","fixation","","","img/fixation.png","null","","","test","","","","","","","","","","","","","","","","","","","",""
"545","350892","SARL_v6","SARL_v6gm7fk1px","628f7ed6b17795e8b70cc336","freq","","","img/orange_2bandit_a2.png","70","","70","test","1","","135","","","","square","circle","130","18","6","0.7846153846153846","","","","","","","",""
"null","351162","SARL_v6","SARL_v6gm7fk1px","628f7ed6b17795e8b70cc336","freq_resp","","","img/orange_2bandit_a.png","70","img/orange_2bandit_a.png","70","test","","","","","","","","","","","6","","","","","","","","",""
"null","351316","SARL_v6","SARL_v6gm7fk1px","628f7ed6b17795e8b70cc336","fixation","","","img/fixation.png","null","","","test","","","","","","","","","","","","","","","","","","","",""
"550","351870","SARL_v6","SARL_v6gm7fk1px","628f7ed6b17795e8b70cc336","freq","","","img/orange_2bandit_a2.png","70","","70","test","1","","136","","","","square","circle","131","19","6","0.7862595419847328","","","","","","","",""
"null","352130","SARL_v6","SARL_v6gm7fk1px","628f7ed6b17795e8b70cc336","freq_resp","","","img/orange_2bandit_a.png","70","img/orange_2bandit_a.png","70","test","","","","","","","","","","","6","","","","","","","","",""
"null","352283","SARL_v6","SARL_v6gm7fk1px","628f7ed6b17795e8b70cc336","fixation","","","img/fixation.png","null","","","test","","","","","","","","","","","","","","","","","","","",""
"302","352590","SARL_v6","SARL_v6gm7fk1px","628f7ed6b17795e8b70cc336","freq","","","img/orange_2bandit_a2.png","70","","70","test","1","","137","","","","square","circle","132","20","6","0.7878787878787878","","","","","","","",""
"null","353101","SARL_v6","SARL_v6gm7fk1px","628f7ed6b17795e8b70cc336","freq_resp","","","img/orange_2bandit_a.png","70","img/orange_2bandit_a.png","70","test","","","","","","","","","","","6","","","","","","","","",""
"null","353270","SARL_v6","SARL_v6gm7fk1px","628f7ed6b17795e8b70cc336","fixation","","","img/fixation.png","null","","","test","","","","","","","","","","","","","","","","","","","",""
"141","353414","SARL_v6","SARL_v6gm7fk1px","628f7ed6b17795e8b70cc336","freq","","","img/orange_2bandit_a2.png","70","","70","test","1","","138","","","","square","circle","133","21","6","0.7894736842105263","","","","","","","",""
"null","354090","SARL_v6","SARL_v6gm7fk1px","628f7ed6b17795e8b70cc336","freq_resp","","","img/orange_2bandit_a.png","70","img/orange_2bandit_a.png","70","test","","","","","","","","","","","6","","","","","","","","",""
"null","354245","SARL_v6","SARL_v6gm7fk1px","628f7ed6b17795e8b70cc336","fixation","","","img/fixation.png","null","","","test","","","","","","","","","","","","","","","","","","","",""
